time,seconds_elapsed,z,y,x
1769668063556859400,0.068859375,0.015651304248720407,-0.11551321583986282,-0.0692641268948093
1769668063566848500,0.0788486328125,-0.02736161578670144,-0.09377893841564655,-0.13206079307487234
1769668063576836600,0.088836669921875,-0.1317806061603129,-0.07330722827315331,-0.15576275384286417
1769668063586825700,0.09882568359375,-0.2316473400570452,-0.1064122100174427,-0.18487207181341944
1769668063596814300,0.108814453125,-0.27983970855697987,-0.16017477986514567,-0.25511600352581587
1769668063606803500,0.118803466796875,-0.28282208536863324,-0.21333120051324367,-0.267922896395158
1769668063616792300,0.128792236328125,-0.27315540848746894,-0.2766115402907133,-0.27412138570910316
1769668063626780400,0.138780517578125,-0.28643662260398267,-0.15004092386364937,-0.2930097721829079
1769668063636769500,0.14876953125,-0.30090368550419805,-0.07820727527439594,-0.304767247330863
1769668063646758700,0.158758544921875,-0.26164865669757126,-0.12430734767019748,-0.2910361522886902
1769668063656747500,0.16874755859375,-0.3064801704622805,-0.16664076100885866,-0.31240594378206876
1769668063666736600,0.178736572265625,-0.26324191723838447,-0.20314473754167556,-0.47373424106389284
1769668063676724500,0.188724365234375,-0.14597615864276886,-0.019452303966879844,-0.487918431902118
1769668063686713300,0.19871337890625,-0.3924235929466784,-0.006376549294590949,-0.43696445320174093
1769668063696702500,0.208702392578125,-0.5826609181202947,-0.20802841793000698,-0.1816083573097363
1769668063706691600,0.218691650390625,-0.9799754979789257,-0.5557897161990404,0.2963807647196576
1769668063716679700,0.2286796875,-0.6580868921130896,-0.40336511206924913,0.2642805395711213
1769668063726668500,0.23866845703125,-0.781407566833496,-0.1347720430612564,0.2724841581624001
1769668063736657400,0.248657470703125,-0.8887453672632575,0.12341361370086669,0.18128456871546803
1769668063746646500,0.258646484375,-0.6666764412820338,0.08575345287024974,-0.19764124475456774
1769668063756635400,0.268635498046875,-0.6815817494690418,0.23113924440443515,-0.32768757446818053
1769668063766623500,0.27862353515625,-0.8359612870588898,0.26101941888332364,-0.154153912140429
1769668063776612600,0.288612548828125,-0.7890887689858674,0.19713643703758715,0.10558087375983595
1769668063786601500,0.2986015625,-0.41175738510042426,0.019290975925326345,0.0638931379135698
1769668063796590600,0.308590576171875,-1.0971619077280164,-0.7465829216897487,-0.38921675972938535
1769668063806579700,0.318579833984375,-0.9170680831670761,-0.9861310979992151,-0.7506431568659842
1769668063816567300,0.3285673828125,-0.03780687582492828,-0.781914931833744,-0.9866996186021715
1769668063826556400,0.338556396484375,0.20460838035345078,-0.44557869842052455,-0.2542081314332783
1769668063836545500,0.348545654296875,0.5708168972000479,-0.3440191891312599,-0.10307970459386706
1769668063846534400,0.358534423828125,1.0072773464024067,-0.15026070409417153,-0.3614252280928194
1769668063856523500,0.3685234375,1.0226894350677729,0.05448562342524528,-0.37232078918181355
1769668063866511600,0.37851171875,0.9065531188935041,0.29227731145620345,-0.26020101517252625
1769668063876500500,0.38850048828125,0.8124941944926977,0.42512686202228067,0.1065027378451079
1769668063886489300,0.3984892578125,0.7042179441690445,0.1992085671365261,0.33721118961684404
1769668063896478500,0.408478515625,0.6195066938281059,-0.009531213933229445,0.5550728731665759
1769668063906467300,0.41846728515625,0.5582651664018631,-0.07703881601691245,0.6270596664909273
1769668063916455400,0.428455322265625,0.36383740380108354,-0.10453531022965908,0.5844586882572621
1769668063926444500,0.438444580078125,0.4563116893589496,-0.07961480398476123,0.2752816799264401
1769668063936433700,0.44843359375,0.0945961000174284,-0.3049374710649252,-0.01242649698331952
1769668063946422500,0.458422607421875,-0.1562052917122841,-0.07587035675942898,0.286124122588709
1769668063956411600,0.46841162109375,0.07608955246806144,0.2547381466567516,0.3233890004914254
1769668063966399500,0.4783994140625,-0.16789222237467766,0.1412467920333147,0.28049707648716865
1769668063976388400,0.488388427734375,-0.23862580076754092,0.09742693952918052,0.2342140487398952
1769668063986377500,0.49837744140625,-0.21476152557730674,0.11356383533775806,0.19146284838058053
1769668063996366600,0.50836669921875,-0.13069967905580998,0.2692261062145233,0.19549911815933882
1769668064006355500,0.51835546875,-0.035677462580800054,0.43051264671385286,0.04326229168660938
1769668064016343600,0.528343505859375,-0.024928105029463767,0.5548451288253069,0.01281878423653543
1769668064026332400,0.53833251953125,-0.14312135373353957,0.3999965124189853,-0.11218392528668045
1769668064036321300,0.5483212890625,-0.005320318239927292,0.4378291072070598,-0.20283618304915724
1769668064046310400,0.558310302734375,0.013225392276048659,0.3073538845568895,-0.18928608886338769
1769668064056299500,0.568299560546875,0.0949877296835184,0.12244564545154571,-0.12676811176054179
1769668064066287600,0.57828759765625,0.28333237297832964,0.11327800413370132,-0.18980550962761045
1769668064076276500,0.5882763671875,0.1795931815624237,0.10114157613813876,-0.10615794299542904
1769668064086265600,0.598265625,0.10903145260512828,0.101911391466856,-0.10793342823535203
1769668064096254500,0.60825439453125,0.009438274952769278,0.05889467203915119,0.01564100205041468
1769668064106243600,0.61824365234375,-0.039648704299330706,-0.028465046983957288,0.036308892352133984
1769668064116231400,0.6282314453125,-0.020456512573361396,0.00319850378036499,0.03991005864925682
1769668064126220500,0.638220458984375,-0.05944587618112564,0.02503039636015892,0.0259875509545207
1769668064136209400,0.64820947265625,-0.12407704604566097,0.03609598025381565,0.005038944015279412
1769668064146198500,0.658198486328125,-0.1382090317726135,0.08280921611189841,-0.03280431829728186
1769668064156186600,0.6681865234375,-0.11645663416981697,0.10423545050024986,-0.09441153723075986
1769668064166175500,0.678175537109375,-0.09400631743073463,0.020334932020306586,-0.1273169047497213
1769668064176164400,0.688164306640625,0.027108956199884415,-0.005005845463275909,-0.17092428354695438
1769668064186153500,0.698153564453125,0.12228490193188189,0.022052841854095458,-0.19450835355632007
1769668064196142300,0.708142333984375,0.06702303343713283,0.07607318585515022,-0.23606997880488634
1769668064206131500,0.71813134765625,0.001516249781847,0.12267127090096473,-0.14670060045979916
1769668064216119600,0.72811962890625,-0.02827098571658134,0.15895137555003166,-0.13203713820464907
1769668064226108700,0.738108642578125,-0.012348609441518783,0.13588497273921965,-0.13298187170885503
1769668064236097500,0.74809765625,0.014339490997791289,0.07537409767508506,-0.11282025042884052
1769668064246086700,0.758086669921875,0.053500704041123386,0.03367430606484413,-0.08723265857733786
1769668064256074500,0.768074462890625,0.10169278028011322,0.025158991175889968,-0.06621120559759437
1769668064266063400,0.7780634765625,0.19844635059237478,-0.0014706570744514465,-0.02109071882367134
1769668064276052500,0.788052490234375,0.217107211920619,0.015804887375235558,0.06058715517073869
1769668064286041600,0.79804150390625,0.13218261108994483,-0.009532967498898506,0.0130825497392565
1769668064296030500,0.808030517578125,0.1079325514525175,0.021527356675267218,-0.043222544198110696
1769668064306018600,0.8180185546875,0.040859249132871624,0.08223346205055714,-0.14852240905947983
1769668064316007700,0.828007568359375,0.00008417115211486816,0.11013795254230499,-0.2714337723266333
1769668064325996300,0.837996337890625,0.0971931307733059,0.04572948551774025,-0.24835399857759474
1769668064335985400,0.8479853515625,0.017233458873629568,-0.15505612167716026,-0.19392346634045243
1769668064345974500,0.857974609375,-0.21164017868638038,-0.020879121899604797,-0.15326967665180563
1769668064355962600,0.867962646484375,0.10419511848986149,0.17827157756984233,-0.28253004361949857
1769668064365951500,0.877951416015625,0.2583019766181707,-0.16294716718792915,-0.16905045249909162
1769668064375940600,0.887940673828125,0.18258944076895714,-0.06340075128674506,-0.008627762287482618
1769668064385929500,0.897929443359375,0.09105039023458956,0.16207622957229614,-0.18146613582745194
1769668064395918600,0.907918701171875,0.16455869403779505,-0.02592179224193096,-0.20217808446660637
1769668064405906400,0.917906494140625,0.2455278352409601,-0.18716624716520308,-0.06631707712486386
1769668064415895600,0.9278955078125,0.18309739029109476,-0.11752163305282592,-0.04690203642845153
1769668064425884400,0.937884521484375,-0.14839724830985068,-0.035411505120992656,0.024554522476717827
1769668064435873500,0.94787353515625,-0.05369768791794777,-0.03595394143462181,-0.12701171125806868
1769668064445862700,0.957862548828125,-0.013407178583741188,-0.007475450447201729,-0.2212961149778217
1769668064455850500,0.9678505859375,-0.15988310344219206,-0.04077624702453613,-0.30375249906405805
1769668064465839400,0.97783935546875,-0.144161218175292,-0.09613631519675254,-0.33029702631421387
1769668064475828500,0.987828369140625,-0.0928396117389202,-0.12261340323388575,-0.3149929280679673
1769668064485817000,0.997817138671875,-0.08255845622122288,-0.10496434929668903,-0.20063414296023546
1769668064495806000,1.007805908203125,0.0630114597082138,-0.12270341960489749,0.0565589225679636
1769668064505794000,1.0177939453125,0.16000643756091593,-0.26957097412943837,0.2619588186252862
1769668064515783200,1.027783203125,0.16662088726460933,-0.3346393663674593,0.3839725024003535
1769668064525772000,1.03777197265625,-0.0772416451126337,-0.21637246790528297,0.26658757440447806
1769668064535761200,1.04776123046875,-0.165623692920804,-0.06319149245023727,0.2179118063017726
1769668064545750000,1.05775,-0.06349018313586711,0.021300562182068824,0.010807006022706627
1769668064555737900,1.06773779296875,-0.1861328124642372,0.06412614295184611,-0.035082053970918056
1769668064565727000,1.07772705078125,-0.11842822650372982,0.15098200410604476,-0.05630209826268255
1769668064575716000,1.087716064453125,-0.03829436708092689,0.14208382737934588,-0.07476999430209398
1769668064585705000,1.097705078125,-0.14319149636030196,0.19111995322704314,-0.13412548878602681
1769668064595694000,1.107694091796875,-0.194764447209239,0.1575122826576233,-0.16117489681839942
1769668064605682200,1.11768212890625,-0.031073768177628514,0.1573456939190626,-0.10275441816225647
1769668064615671000,1.127671142578125,0.15813246038258075,0.0559223782300949,0.20364720717109738
1769668064625660200,1.13766015625,0.39915538541972634,0.018387305083870886,0.5008399823933839
1769668064635649000,1.14764892578125,0.4026204311817884,-0.06031622927486896,0.5016471340578049
1769668064645637000,1.15763720703125,0.15236264480948447,0.043325931507349015,0.43557307190857825
1769668064655626000,1.1676259765625,-0.035392215898633,0.13306056296825408,0.4060457294553518
1769668064665615000,1.177614990234375,0.08356149578392505,0.23921266074478625,0.008059387814998627
1769668064675604200,1.187604248046875,-0.024538228929042814,0.24509002834558485,-0.40570846032500263
1769668064685593000,1.197593017578125,-0.20414777710437773,0.2690045724183321,-0.5309930555295199
1769668064695581200,1.207581298828125,-0.36249008084535594,0.2970242137223482,-0.7232593292474746
1769668064705570000,1.217570068359375,-0.4030494702488184,0.25841888099610805,-0.7037405359156429
1769668064715559000,1.227558837890625,-0.1846124710291624,0.08059154006242751,-0.3705393856577575
1769668064725548000,1.237548095703125,0.08475099782943725,-0.11568038910031318,0.020293942422792314
1769668064735537200,1.247537109375,0.34521336735188957,-0.3378659271985292,0.187507242622599
1769668064745525200,1.257525146484375,0.18188216928243636,-0.3164122202813625,0.3285311126202345
1769668064755514000,1.26751416015625,-0.054877253091335294,-0.30129063899517056,0.3549967294152826
1769668064765503200,1.277503173828125,0.045590953829884526,-0.2667319513112306,0.2794916988369077
1769668064775492000,1.2874921875,-0.06029518648684024,-0.19020868360102175,0.1482866275422275
1769668064785481000,1.29748095703125,-0.06617547669708729,-0.1796627396672964,0.06419738155715167
1769668064795469000,1.307468994140625,-0.021816695010662076,-0.16979659469127653,0.02561732940264046
1769668064805458200,1.317458251953125,-0.013311316993832588,-0.13530045084953307,-0.0013474690861999988
1769668064815447000,1.327447021484375,0.0407733244150877,-0.1598170524686575,0.04134337938800454
1769668064825436200,1.337436279296875,0.04209960458278656,-0.16776596564650534,0.08895254117250442
1769668064835425000,1.347425048828125,0.05343523758947849,-0.20280863745510577,0.09775909409299492
1769668064845412900,1.357412841796875,0.08449789985120296,-0.20173603978753088,0.03603533610776066
1769668064855402000,1.367402099609375,0.11239888321161269,-0.16953882053792477,-0.006738368344306946
1769668064865391000,1.37739111328125,0.029976620590686797,-0.054984805119037625,-0.06940276818051934
1769668064875380000,1.3873798828125,0.09257949949800967,0.031578210568428036,-0.1261539253849536
1769668064885369000,1.397369140625,0.0027291327029466627,0.03408113330006599,-0.1506467808023095
1769668064895357200,1.407357177734375,0.033082769912481304,-0.030673370683193205,-0.22984810861535368
1769668064905346000,1.417345947265625,0.16211889967024326,-0.004125555497407913,-0.1810182459294796
1769668064915335200,1.427335205078125,0.17986439971923826,-0.03710135790407657,-0.15198511673398316
1769668064925324000,1.437323974609375,0.2052086843341589,0.014963175854086875,-0.05804295058064162
1769668064935313000,1.44731298828125,0.3479886772841215,-0.07279518709778786,-0.05632299492023885
1769668064945301000,1.457301025390625,0.28774492872357366,-0.17388181817829607,-0.036963045411929484
1769668064955290000,1.4672900390625,0.33196985489726066,-0.1783475654155016,-0.08096468422375619
1769668064965279000,1.477279052734375,0.3163344788700342,-0.12402677716314792,-0.13435739784575998
1769668064975268000,1.48726806640625,0.3063093439400196,-0.03470598720014095,-0.129864105014503
1769668064985257200,1.49725732421875,0.1331207687228918,0.007432780349254608,0.050232642155885694
1769668064995245000,1.5072451171875,-0.05815466732680797,-0.008544540983438492,0.03222213449515402
1769668065005234000,1.51723388671875,-0.026590485283732413,-0.052990416431427,-0.020173896239697932
1769668065015223000,1.52722314453125,-0.17041794146001338,-0.09124152889251709,-0.05725501507334411
1769668065025212200,1.537212158203125,-0.18606500792503355,-0.09629179801940918,-0.09505502276606857
1769668065035201000,1.547200927734375,-0.08024667214751244,-0.07273731943070888,0.024606764120608568
1769668065045189000,1.557189208984375,-0.20557751764655113,-0.06708791536688805,0.13523542278930545
1769668065055178200,1.56717822265625,-0.270106980702281,-0.07185878303050995,0.143186308728531
1769668065065167000,1.5771669921875,-0.2698953837782144,-0.07101064176857472,0.16283245476707814
1769668065075156000,1.587156005859375,-0.2389928805142641,-0.04900280809998512,0.14321560788825152
1769668065085145000,1.59714501953125,-0.18009236325621603,0.010699088668823242,0.09611585693061352
1769668065095133200,1.60713330078125,-0.18113398126363753,0.07743979803323746,0.08982314999457448
1769668065105122000,1.6171220703125,-0.1873532941699028,0.10627776998281478,0.10599756480194628
1769668065115111200,1.627111083984375,-0.25088790096938607,0.023194413104653356,0.10583956122864037
1769668065125100000,1.63710009765625,-0.22870061908066272,0.0702834965378046,0.10736783024184406
1769668065135089200,1.647089111328125,-0.036848259925842286,0.13855623777508735,0.12252002586200833
1769668065145077000,1.657076904296875,0.1959931122213602,0.23027707461714744,0.18780122060049323
1769668065155066000,1.667066162109375,0.12042670684456824,0.17826164069771766,0.1383730266952887
1769668065165055000,1.677054931640625,-0.034631752920150756,0.19197803136110306,0.1354032171042636
1769668065175044000,1.687044189453125,0.021887422159314156,0.18131869018077848,0.06944960299693048
1769668065185032200,1.6970322265625,0.11568448075354099,0.2277466793566942,0.0014631678877398372
1769668065195021000,1.70702099609375,0.11890519636571406,0.24387889899015425,-0.07592460769731552
1769668065205010200,1.71701025390625,0.03269698546528816,0.27234862214922906,-0.07638879114296288
1769668065214999000,1.7269990234375,-0.0886830765813589,0.23546412186622617,-0.05148578402213752
1769668065224988000,1.73698779296875,-0.09407938266694545,0.15581892274320125,-0.02676449014376849
1769668065234976000,1.74697607421875,-0.07360474991500378,0.11470423754453658,-0.012167517253570258
1769668065244965000,1.756965087890625,-0.10542612158954143,0.07097381688952445,0.028739699206873772
1769668065254954000,1.7669541015625,-0.17419921356439588,0.06854454391598701,0.07610482310242951
1769668065264943000,1.776943115234375,-0.16920798114836216,0.12381985641419886,0.054882477255724364
1769668065274932200,1.78693212890625,-0.24905484032332895,0.08675590791106223,0.02995970598850399
1769668065284920000,1.796920166015625,-0.13767477876544,0.09566635959744453,-0.008697210794501005
1769668065294909000,1.806908935546875,-0.024168226572871206,0.08631400936245917,-0.09825254016574472
1769668065304898000,1.81689794921875,0.05743336731493473,0.06428747099339961,-0.19188363107591866
1769668065314887200,1.82688720703125,0.15858195771574973,0.15070260264277457,-0.23796920002233235
1769668065324876000,1.8368759765625,0.03752922792732715,0.07374211255908011,-0.26020989259872584
1769668065334864100,1.846864013671875,0.03707680798470974,0.04709492865204811,-0.23049517434723674
1769668065344853200,1.856853271484375,-0.020408581778407094,-0.07947334968745708,-0.18369510045591741
1769668065354842000,1.866842041015625,-0.10342413411736488,-0.0829489168435335,-0.12354991689901798
1769668065364831000,1.8768310546875,-0.08411679157912731,-0.012781740161776542,-0.11121409387383609
1769668065374820000,1.886820068359375,-0.09557458966076374,-0.002551438048481941,-0.11462956487312913
1769668065384808000,1.896807861328125,-0.10466565861105918,-0.016443185278773306,-0.15435546259451657
1769668065394797000,1.906797119140625,-0.17088205184042451,-0.056983869981765745,-0.17841431050878018
1769668065404786200,1.9167861328125,-0.1437169815391302,-0.09248539147377013,-0.18053711134903133
1769668065414775000,1.926775146484375,-0.11519465140998363,-0.034843349844217296,-0.17603662159200756
1769668065424764200,1.93676416015625,-0.176041626560688,0.003093289840221405,-0.15564725597072393
1769668065434752000,1.946751953125,-0.14036416397988796,0.03510346208512783,-0.16600823525898156
1769668065444741000,1.9567412109375,-0.06091477968990802,0.057986909544467925,-0.12794402367211877
1769668065454730000,1.96672998046875,-0.03976911580860615,0.08286825282275677,-0.0704428518179804
1769668065464719000,1.976718994140625,-0.09980068292319774,0.10820435413122176,-0.01296798344887793
1769668065474708000,1.9867080078125,0.001755319234728813,0.09417173712551594,-0.03317110578306019
1769668065484695800,1.99669580078125,0.0028191490739583967,0.010922376030683517,0.020655871070362625
1769668065494685000,2.006684814453125,0.046861119896173475,-0.08826631247401237,0.029321298487111923
1769668065504674000,2.016674072265625,0.11685294001102446,-0.14516425773799418,0.02357647122479975
1769668065514663000,2.026662841796875,0.07181611293256282,-0.17500526925027368,-0.013835048606991767
1769668065524652000,2.036652099609375,-0.055929977014660834,-0.18021394380927086,-0.04155209023524076
1769668065534640000,2.04664013671875,-0.07748480621874332,-0.07832184156477451,-0.09105342244189232
1769668065544629000,2.05662890625,-0.0972580127030611,-0.05999065058231354,-0.13863741325251758
1769668065554617900,2.066617919921875,-0.10165595540106295,-0.026872809356451033,-0.07913377900216728
1769668065564607000,2.07660693359375,0.03084697368443012,-0.048321255576610565,-0.03837857476565987
1769668065574595800,2.086595947265625,0.13201017713248728,-0.048313656792044635,-0.0014180866369977593
1769668065584584000,2.096583984375,0.0871492911428213,-0.13122691780030726,-0.13035736842416226
1769668065594573000,2.106572998046875,0.18827508518993855,0.05358604423701763,-0.07129358689580112
1769668065604562000,2.11656201171875,0.05913140340447425,-0.2256207732439041,-0.32732140803690996
1769668065614551000,2.126551025390625,0.04295885176062584,-0.024096330380439755,-0.07463953632283955
1769668065624540200,2.1365400390625,0.2106973448783159,-0.06568915448486805,-0.11841138496678322
1769668065634528000,2.146528076171875,0.19304361476600168,-0.020296938097476958,-0.06354823346603661
1769668065644516900,2.156516845703125,0.11058511178791522,-0.13197744390666485,-0.0864133780837059
1769668065654506000,2.166506103515625,0.020386369946599005,-0.1706651942193508,-0.08712974619213491
1769668065664495000,2.1764951171875,0.006178980895876884,-0.23277707473933695,-0.03233735837265849
1769668065674484000,2.18648388671875,-0.04154489330947399,-0.3446756072133779,-0.0428121002336964
1769668065684472000,2.19647216796875,-0.045591538351774215,-0.302144040954113,-0.003003218670282513
1769668065694461200,2.206461181640625,0.028773674541711806,-0.3320943580597639,-0.022445695362892
1769668065704449800,2.21644970703125,0.18737725956737994,-0.3590250350832939,-0.01642033412614837
1769668065714439000,2.22643896484375,0.20600188053846358,-0.2649526666790247,0.049622602232452476
1769668065724428000,2.236427978515625,0.1086602812051773,-0.16922200967371462,0.05824386171391233
1769668065734416100,2.246416015625,-0.05032441209256649,-0.195361244058609,0.057455506081506603
1769668065744405000,2.256405029296875,-0.20766484531462193,-0.12517068650126456,0.1827751908657141
1769668065754394000,2.26639404296875,-0.23824995319247244,0.02541734985113144,0.11805047923251986
1769668065764383000,2.276383056640625,0.010362404060363768,0.1022773021697998,0.13541065149204803
1769668065774370800,2.286370849609375,0.16619126367568968,0.07532207522690296,0.32858434064481407
1769668065784360000,2.29635986328125,0.1542962432205677,0.01844283466339111,0.20666299306200817
1769668065794349000,2.30634912109375,0.03606967676877975,-0.14299334343969822,0.0972508066441398
1769668065804338000,2.316337890625,0.1607750838458538,-0.23438334089219567,-0.01722482119273627
1769668065814327000,2.3263271484375,0.245632464659214,-0.23807576566934585,0.055242195679899304
1769668065824315100,2.336315185546875,0.09844576118290424,-0.19240590138435362,0.1604903120877221
1769668065834304000,2.346303955078125,-0.11015198106765746,-0.22542203580141065,0.13668142034653574
1769668065844292900,2.35629296875,-0.270528420984745,-0.3527209665030241,0.19483902854910118
1769668065854282000,2.366281982421875,0.48864802481830116,-0.1069131452769041,0.16804814358875156
1769668065864270800,2.376270751953125,0.24212474879920481,0.004334229812026024,0.24537746698483823
1769668065874259000,2.386259033203125,-0.13063947330117226,-0.08530161744952201,0.11453384941369295
1769668065884248000,2.396248046875,-0.4290414051175117,-0.2793827585697174,0.14211077018519863
1769668065894237000,2.40623681640625,-0.46143327015638347,-0.22065409074723719,0.3268603298638016
1769668065904226000,2.41622607421875,0.11082418124079704,-0.12606149786114693,0.32436909756995735
1769668065914215200,2.426215087890625,0.055262453016638756,-0.2850783398628235,0.42090796568561345
1769668065924203000,2.436203125,-0.3466308329343796,0.015178279909491539,0.38434820384494955
1769668065934191900,2.44619189453125,0.4357710056334734,0.33894904626011846,-0.034683592705242336
1769668065944181000,2.456180908203125,0.9535656299591064,0.32092414474785325,0.0475309819817543
1769668065954170000,2.466170166015625,0.6457189934492111,0.16399696850180626,0.019594635047018527
1769668065964159000,2.476158935546875,0.47388241736292835,0.23500761027038097,-0.07035948438346386
1769668065974147000,2.48614697265625,0.6314233415931463,0.47626726667284963,-0.09812785434015095
1769668065984136200,2.49613623046875,0.4571639222741127,0.466671170809865,-0.2098581175751984
1769668065994124800,2.506124755859375,0.23431962800621986,0.41904198915064333,-0.19151698972061276
1769668066004114000,2.516114013671875,0.13646949462890623,0.313845000141859,-0.16110636162683367
1769668066014103000,2.52610302734375,0.0386076708137989,0.2651876444786787,-0.029825521682202816
1769668066024091000,2.5360908203125,-0.09454933826625346,0.1383843883395195,0.0020714725118130446
1769668066034080000,2.546080078125,-0.16014613829255103,-0.029529461345076558,0.060205608507245774
1769668066044069000,2.556069091796875,-0.1501823781609535,-0.1638075834095478,0.08992394348792732
1769668066054058000,2.56605810546875,0.09006079467535018,-0.2775286551356315,-0.07555551865659654
1769668066064047000,2.576047119140625,0.10878536888957023,-0.19667875639796256,-0.16829050097726284
1769668066074035000,2.586034912109375,-0.1315560036242008,-0.22141338468194008,-0.2753965384777635
1769668066084024000,2.596024169921875,-0.11136194137930869,-0.20926059007346628,-0.25757424686551095
1769668066094013000,2.606012939453125,-0.08315759115815162,-0.32484277949631213,-0.39807942675128577
1769668066104002000,2.616001953125,-0.06974222926795483,-0.1710007097840309,-0.40156010847389695
1769668066113991000,2.625990966796875,0.051907297369837756,-0.05826864909529686,-0.39693515208698804
1769668066123979000,2.63597900390625,0.09665127898156642,0.007931377521157265,-0.32585612125732005
1769668066133968000,2.6459677734375,0.04625730878412723,0.026961072161793706,-0.24563494887724519
1769668066143957000,2.65595703125,0.0020674539238214494,0.12653671415746212,-0.07766272006891667
1769668066153945900,2.66594580078125,0.04078969102799892,0.17604045751690864,-0.11375614303946495
1769668066163935000,2.67593505859375,0.16350538559257982,0.1688099217414856,-0.06959200714230537
1769668066173923000,2.685923095703125,0.33300212055444717,0.2363081714749336,-0.05452098699957132
1769668066183912000,2.695911865234375,0.33125440010428425,0.22115151887536047,-0.029152517791464924
1769668066193901000,2.705901123046875,0.3526239358693361,0.1795277151107788,0.009899608854204416
1769668066203890200,2.71589013671875,0.32582068461775776,0.25105916588306426,-0.044662002416700125
1769668066213879000,2.725879150390625,0.24200024563670158,0.2782838574171066,-0.13704554095119237
1769668066223867000,2.735866943359375,0.17790975852012633,0.21905250076949595,-0.23575915929004548
1769668066233856000,2.74585595703125,0.1532628085196018,0.10471066679656504,-0.23668190015815196
1769668066243844900,2.755844970703125,0.11363631605207919,-0.08443243339955807,-0.24134959970824418
1769668066253834000,2.765833984375,0.01987082163989544,-0.20039923822581768,-0.2094092778291553
1769668066263823000,2.775822998046875,-0.07553250310719013,-0.23739012149274347,-0.18344167368412018
1769668066273811200,2.785811279296875,-0.12188450443744658,-0.2033259393274784,-0.1797808130890131
1769668066283799800,2.7957998046875,-0.1081593459457159,-0.16122575022280214,-0.14785006275586782
1769668066293789000,2.805788818359375,-0.09158873489499092,-0.09865502001941204,-0.06279146028198301
1769668066303778000,2.815778076171875,-0.10252338588535785,-0.09895721783638,-0.015828706642240287
1769668066313767000,2.825766845703125,-0.14963935732543468,-0.08985621201395988,0.04672412257827818
1769668066323755000,2.835755126953125,-0.15402327149808406,-0.10566986721754074,0.021510916997119784
1769668066333744000,2.845744140625,-0.051907881891727445,-0.05322480970919132,-0.02807984705865383
1769668066343733000,2.85573291015625,-0.12358487861454485,0.005319149196147919,-0.028276538674533367
1769668066353722000,2.86572216796875,-0.009356441888213158,-0.06260287890732288,-0.0648274230889976
1769668066363711000,2.8757109375,-0.053283846420049664,0.0016664719074964522,0.032926702567934986
1769668066373699000,2.885698974609375,-0.055688569474220274,0.00557224717438221,0.006866232507675886
1769668066383688000,2.89568798828125,-0.021150340056419373,0.02487608258128166,0.0740316700901836
1769668066393677000,2.905677001953125,0.07566986575126647,0.010809563305974006,0.025941519855707883
1769668066403666000,2.915666015625,-0.26658289822936054,-0.07565700626969336,-0.11222761829793453
1769668066413655000,2.925655029296875,-0.016741291442513465,0.026302315992116927,0.059188028962537644
1769668066423643100,2.93564306640625,0.009168810361623763,-0.05707797800600528,0.008270400217175483
1769668066433632000,2.945632080078125,-0.16745558452308176,-0.21453999178111552,0.07093151211775839
1769668066443620900,2.955620849609375,0.08063187207281589,-0.06825812819004058,0.06651501084975898
1769668066453610000,2.96560986328125,0.13152093231081963,-0.13708733426630496,0.060322805146127936
1769668066463598000,2.97559814453125,0.1913654524207115,-0.11431669953167438,0.007487871537357568
1769668066473587000,2.9855869140625,0.16585691715478895,-0.06409457876980304,-0.03465827560089528
1769668066483576000,2.995576171875,0.19292729490995406,-0.06364975761175155,-0.05671002147644758
1769668066493565400,3.0055654296875,0.14706629196703433,-0.0572036502122879,-0.06223996387906372
1769668066503554300,3.01555419921875,0.11964227846860885,-0.001841243952512741,-0.07161394142396747
1769668066513542400,3.02554248046875,-0.03445347374379635,0.10114742135703562,-0.026411256259307264
1769668066523531500,3.035531494140625,-0.15537176349759102,0.10855448274314403,-0.11288111377060413
1769668066533520400,3.045520263671875,-0.29936463936865326,0.04641454517245292,-0.1405353558283299
1769668066543509500,3.055509521484375,-0.14412322425246238,-0.023709376889467237,-0.05144866688214242
1769668066553498600,3.06549853515625,-0.010940496209263802,-0.14132804057598114,0.053734658927470445
1769668066563486500,3.075486572265625,0.20535072315335273,-0.07182078910768032,0.23108787954337895
1769668066573475300,3.085475341796875,-0.021182488760352135,-0.2241267352938652,-0.04006071916632354
1769668066583464400,3.09546435546875,-0.11942074467241763,-0.15185907920151948,0.07898571230098604
1769668066593453300,3.105453369140625,0.07917933517694473,-0.0028249942928552626,-0.166437785782665
1769668066603442400,3.1154423828125,-0.15916472603976725,-0.08664017257690429,-0.2312913662262261
1769668066613430500,3.125430419921875,-0.06872106952667235,-0.016037527087330816,-0.21252163769602775
1769668066623419600,3.135419677734375,-0.05223989032506943,0.030732115133106707,-0.15361943993754684
1769668066633408500,3.145408447265625,0.01198269873857498,0.0670592737942934,-0.106577629712224
1769668066643397600,3.155397705078125,0.03897241247296333,0.06156155316084623,-0.11643617590367793
1769668066653386200,3.16538623046875,0.041540217134356495,0.05515548551082611,-0.08920607754215598
1769668066663374300,3.175374267578125,-0.04097907612025738,0.07172580430060625,-0.06725201988741755
1769668066673363500,3.185363525390625,-0.07715513587296009,0.06854425165504217,-0.03715842185355723
1769668066683352600,3.1953525390625,-0.019135493102669716,0.011062661284208297,-0.0824020235504955
1769668066693341400,3.205341552734375,0.053824529168009755,-0.002359422607719898,-0.10732421029582619
1769668066703330600,3.21533056640625,0.03401858945786953,0.002718319047987461,-0.10078414100259542
1769668066713318400,3.225318359375,0.09680442371666431,-0.07838087827563285,-0.09745952662453054
1769668066723307300,3.235307373046875,0.18374270245730875,-0.29086452204883095,-0.10711531678549945
1769668066733296400,3.24529638671875,0.3576794656932354,-0.3106348059237003,-0.13500176016390322
1769668066743285500,3.255285400390625,0.37208734575212,-0.23736790966093538,-0.07402714004553854
1769668066753274400,3.2652744140625,0.39393677398860455,-0.07636924619227647,-0.06749883425533772
1769668066763262500,3.275262451171875,0.25351181973218917,0.06491933915615082,-0.06168656778000295
1769668066773251600,3.28525146484375,0.08562193544507027,0.16849018826782702,-0.022186478171125054
1769668066783240400,3.295240478515625,0.001463058289885521,0.15817717630714176,0.1558961526978761
1769668066793229300,3.305229248046875,0.16929507490992546,-0.05175678298324346,0.291114405156672
1769668066803218400,3.315218505859375,0.12385609677135943,-0.10667378356307744,0.02277297282218933
1769668066813206500,3.32520654296875,-0.08636895442008971,0.26206132915169,-0.29079430635683234
1769668066823195400,3.3351953125,-0.07745324203670025,0.2631862415283918,-0.43764425215944647
1769668066833184500,3.3451845703125,-0.0008335282146930694,0.14641630362570285,-0.3995696653090417
1769668066843173400,3.35517333984375,0.010607903254032134,-0.021391455335915088,-0.2865097609054297
1769668066853162500,3.36516259765625,0.11458733316659926,-0.1802785334780812,-0.08254545060917734
1769668066863150300,3.375150390625,0.1765653581738472,-0.21066782652288674,0.028097382715344427
1769668066873139500,3.385139404296875,0.09465864385962486,-0.15780834299474952,0.06790690359957516
1769668066883128300,3.39512841796875,0.03433832293152809,-0.10270955610722303,0.08361424888446926
1769668066893117400,3.405117431640625,-0.08039338714182376,-0.015713409699499605,0.08494768944531679
1769668066903106600,3.4151064453125,-0.056879825085401535,-0.02570435009896755,0.08085464797802269
1769668066913094400,3.425094482421875,-0.01002864206135273,-0.0811065038472414,0.08157536346800624
1769668066923083500,3.43508349609375,-0.04814648353159427,-0.039493805998563766,0.09537702126204967
1769668066933072600,3.44507275390625,-0.12506313447356224,-0.12274170578867197,0.06387165673412382
1769668066943061200,3.455061279296875,-0.06840016700923443,-0.10427256764024495,0.1234055765248835
1769668066953050400,3.46505029296875,-0.06205693546235561,-0.035514380973577495,0.08780782811678946
1769668066963038500,3.47503857421875,-0.22037118215262888,-0.11347878740280866,0.08796053446047007
1769668066973027600,3.485027587890625,-0.11283201393187045,-0.11836948205381631,0.08131795464083552
1769668066983016400,3.495016357421875,-0.003397241222858429,-0.08189063996225596,0.05764255308620631
1769668066993005600,3.505005615234375,0.02335515662431717,0.07414864753335713,0.002968129090592265
1769668067002994400,3.514994384765625,-0.16155600509047507,0.08512859897017479,0.07316701608486473
1769668067012982300,3.524982177734375,-0.14542378545701504,0.061419806602597236,0.05178505922965705
1769668067022971400,3.534971435546875,0.002493570381402969,0.02869944026172161,-0.03592018529549241
1769668067032960500,3.54496044921875,-0.04696282670497894,0.041812604334950446,0.04637055990025401
1769668067042949400,3.554949462890625,-0.08947393469810486,-0.0800102330431342,0.07369644678644835
1769668067052938500,3.5649384765625,0.04431026636958122,-0.18580109629184008,0.07892543348111211
1769668067062926600,3.574926513671875,0.10767886895239352,0.04403174168914556,0.12639796327389777
1769668067072915500,3.58491552734375,-0.03949789765179157,0.18144991534501312,0.18840083046145736
1769668067082904300,3.594904296875,0.005219780474901199,0.06004530337899923,0.12667524584531784
1769668067092893400,3.6048935546875,0.018211363995075225,0.07651537666469813,0.15408924940638244
1769668067102882300,3.61488232421875,0.020102292308211325,0.010072773464024066,0.10681194992475211
1769668067112870400,3.624870361328125,0.04276654405891895,0.015060206487774848,0.13375431738607585
1769668067122859500,3.634859619140625,-0.06816226660013198,-0.06517828235328198,0.15352693934850395
1769668067132848400,3.644848388671875,0.04088087644279003,0.022350655756890773,0.12642806615121663
1769668067142837500,3.65483740234375,-0.04136076891422272,0.02349222700744867,0.1089526152152568
1769668067152826600,3.66482666015625,-0.025817747345566747,0.0608288549721241,0.07656140776351093
1769668067162814500,3.674814453125,0.04980769474208355,0.20437077220529318,0.03920834012068808
1769668067172803300,3.68480322265625,0.019690204375982283,0.24933891796171664,0.015605565410852432
1769668067182792400,3.69479248046875,0.030481647503376005,0.225348678304255,0.057094929140806196
1769668067192781600,3.704781494140625,-0.02075520325899124,0.12582944267094134,0.12049568042755127
1769668067202770400,3.7147705078125,0.04593582174479961,0.2358072362154722,0.16254085140936075
1769668067212758500,3.724758544921875,-0.03757598967850208,0.2028127291083336,0.2011630622051656
1769668067222747600,3.73474755859375,0.0968570306867361,0.2060883897781372,0.18151238612197337
1769668067232736300,3.744736328125,0.11800211004614829,0.15451748475581406,0.1449948925204575
1769668067242725400,3.754725341796875,0.03887655088305473,0.08789221846461295,0.12333287661485373
1769668067252714500,3.764714599609375,0.059795420271158216,0.07996317903101444,0.07242445408925413
1769668067262702600,3.77470263671875,-0.03369008815586567,0.04663520218580961,0.06959536814317106
1769668067272691500,3.78469140625,-0.004077624702453613,0.038433775551617144,0.011329422461614011
1769668067282680600,3.7946806640625,0.06460720446705817,0.10988777717351912,-0.03753105455823243
1769668067292669400,3.80466943359375,0.07210135961472988,0.13351122934520243,-0.08799553270861506
1769668067302658600,3.814658447265625,0.08331891919970512,0.12529489740282296,-0.05972345101349055
1769668067312646400,3.824646484375,0.04968494514524936,0.06212766261100769,-0.020194646766781805
1769668067322635500,3.834635498046875,0.09118892192244529,0.023931787468492983,0.013842282065376639
1769668067332624400,3.844624267578125,0.08732230962216854,-0.009958791695535183,0.05483830932043492
1769668067342613500,3.854613525390625,0.026379472881555555,-0.08202654130160808,0.06559270837306976
1769668067352602400,3.864602294921875,0.0027852468043565747,-0.13537731547802687,0.047208910420536994
1769668067362590500,3.874590576171875,-0.04776303717195987,-0.09107260206639767,-0.029928762860968707
1769668067372579300,3.884579345703125,-0.20315292084813116,-0.034096038608253,-0.002100552475824952
1769668067382568400,3.894568359375,-0.23098083897233007,-0.035389877811074257,-0.06790968007855117
1769668067392557300,3.904557373046875,-0.20220015016794204,-0.04370645525753498,-0.07680727228336036
1769668067402546400,3.91454638671875,-0.20009411779940128,-0.07742752307355404,-0.05754333049543202
1769668067412534500,3.924534423828125,-0.09943769482970237,-0.09099398387223481,-0.031071576220542192
1769668067422523400,3.9345234375,-0.01796060410439968,-0.12375643578916787,0.027308862686157225
1769668067432512500,3.944512451171875,0.028463877940177917,-0.1542889366969466,0.06176226336471736
1769668067442501600,3.954501708984375,0.06640519379973411,-0.09496317976415157,0.04371697665154934
1769668067452490500,3.964490478515625,0.1165337910592556,-0.06457534802407026,-0.020614991070702672
1769668067462478300,3.974478271484375,0.1448626444429159,-0.052233168323338026,-0.03576594458185136
1769668067472467500,3.984467529296875,0.19121113864183426,-0.0384334832906723,-0.02305339719876647
1769668067482456300,3.994456298828125,0.16268120972812175,-0.0204693720549345,0.030274726754426953
1769668067492452900,4.004452880859375,0.16482348245382308,-0.01785918955653906,0.03179426447190344
1769668067502442000,4.01444189453125,0.17952537702322005,-0.0260921803727746,0.039875571857765316
1769668067512430000,4.02443017578125,0.16804069093465804,-0.025170097091794012,0.0517523260038346
1769668067522419000,4.0344189453125,0.11547931357026099,-0.013936755415797232,0.05159801222495734
1769668067532408000,4.044407958984375,0.1073135427713394,-0.00481149193495512,0.049243704183772205
1769668067542397000,4.05439697265625,0.11326689821779727,-0.020883213552832604,0.03196516405940056
1769668067552386000,4.064385986328125,0.11696283012628554,-0.035167174971103665,0.03192446672283113
1769668067562374000,4.074373779296875,0.05592004014253616,-0.050503568051755425,0.010133052283897995
1769668067572363000,4.084363037109375,0.015215104788541793,-0.035252222906053066,-0.018927768636122343
1769668067582352000,4.094351806640625,0.01875087769925594,-0.008380582593381404,-0.029168884404376146
1769668067592341000,4.104341064453125,0.04350596424937248,0.006476210276782512,-0.02455130760632455
1769668067602329900,4.114329833984375,0.0680395170032978,-0.0018894670084118842,0.023869755082949994
1769668067612318000,4.12431787109375,0.07582593309581279,-0.008193535588681697,0.055262891408056014
1769668067622307000,4.13430712890625,0.09324293184280395,-0.045944005051255225,0.053139323382824656
1769668067632296000,4.1442958984375,0.07102057864069938,-0.06511456946730614,0.01988967247083783
1769668067642284800,4.154284912109375,0.01149520748257637,-0.07592237920761108,0.003645370765030384
1769668067652274000,4.16427392578125,-0.048671384188532826,-0.039624154379963875,-0.021837080211564896
1769668067662262000,4.174261962890625,-0.04311901075839996,-0.0230313314974308,-0.01702215421050787
1769668067672251000,4.1842509765625,0.011114099210500716,-0.030815117241442203,0.01544474882595241
1769668067682240000,4.194239990234375,0.042481881898641584,-0.08582681036740542,0.04328311527892947
1769668067692229000,4.20422900390625,0.07522913624644278,-0.12813099761158228,0.04410261496827006
1769668067702218000,4.214218017578125,0.07986088770031928,-0.11198270362615585,0.027800007203966377
1769668067712205800,4.224205810546875,0.06047989540398121,-0.08432897302508353,0.008509250474348664
1769668067722195000,4.23419482421875,0.03134732442200184,-0.03823357680439949,-0.0191529556941241
1769668067732183800,4.244183837890625,0.047098435783386225,-0.035323534576594824,-0.032588118263334034
1769668067742173000,4.2541728515625,0.045993689411878584,-0.0564867341145873,-0.016488412659987805
1769668067752162000,4.264162109375,0.06351882470846176,-0.06650923869609833,-0.0016480594679713248
1769668067762150100,4.274150146484375,0.08653203602731227,-0.09513502919971942,0.013210486967861652
1769668067772139000,4.284138916015625,0.08627659996151923,-0.08034691765159369,-0.015842150645703077
1769668067782127900,4.2941279296875,0.08973112432956695,-0.03333937502205372,-0.0356541547704488
1769668067792117000,4.304116943359375,0.10499883608818053,-0.027779402807354924,-0.06102766547985375
1769668067802105900,4.31410595703125,0.12092004331946372,-0.04500847776681185,-0.053698418570309873
1769668067812094000,4.324093994140625,0.08424246378540992,-0.07118658285737037,-0.028030747219920157
1769668067822083000,4.3340830078125,0.07137012273073196,-0.10177490560561418,-0.015488807163387536
1769668067832072000,4.344072021484375,0.06960135949254036,-0.10999562146216631,0.006416735174506903
1769668067842061000,4.35406103515625,0.056660044854879375,-0.10321925919502974,-0.015852452844008803
1769668067852050200,4.36405029296875,0.0584802460193634,-0.05746463923603296,-0.03584244388416409
1769668067862038000,4.3740380859375,0.07506547011733054,-0.04576280326545238,-0.025497064023837446
1769668067872027000,4.38402685546875,0.08842296434044837,-0.018567337825894356,-0.01039089950248599
1769668067882016000,4.39401611328125,0.08948796322345733,-0.06306231311261654,-0.01380516492538154
1769668067892004900,4.4040048828125,0.09547112928628922,-0.05523936440199613,-0.03775697226859629
1769668067901994000,4.413993896484375,0.11742577146291733,-0.06297434256821871,-0.06148432320617139
1769668067911982000,4.423982177734375,0.08351824116408825,-0.08564765440821648,-0.060622153418883676
1769668067921971000,4.433970947265625,0.11586100636422633,-0.12652940763384102,-0.10427921657674014
1769668067931959800,4.443959716796875,0.05080956526100635,-0.11415800183862447,-0.08629961551092565
1769668067941949000,4.453948974609375,-0.016679916644096373,-0.04417553407400846,-0.07928878690078854
1769668067951937800,4.463937744140625,0.019136662146449088,-0.04278992493450642,-0.062171867078915234
1769668067961926000,4.47392578125,0.00861468361020088,-0.0906245660379529,-0.006838906109333038
1769668067971915000,4.4839150390625,0.023837971705198288,-0.09809124865680932,0.011423457420617341
1769668067981904100,4.493904052734375,-0.02736263870000839,-0.05786328316479921,0.04201718699634075
1769668067991893000,4.50389306640625,-0.0402022465288639,-0.015777999368309974,0.08126154827848077
1769668068001881900,4.5138818359375,-0.030219197174906728,0.013991700473427772,0.0791777277417481
1769668068011870000,4.523869873046875,0.00693944387435913,-0.015179156692326067,0.06858597190491855
1769668068021858800,4.53385888671875,0.07609656673073768,-0.03271452112197876,0.044454935537278646
1769668068031848000,4.543847900390625,0.09899930341243743,-0.024523323620855807,-0.01610255514755845
1769668068041837000,4.553837158203125,0.08173018870353699,-0.014258534716069698,-0.035096301691979165
1769668068051826000,4.563825927734375,0.06397416726052761,-0.000412087932229042,-0.01599324955418706
1769668068061814000,4.57381396484375,0.030945173361897466,0.051482642216980457,-0.022111367108300327
1769668068071803000,4.583802978515625,0.061572951337695116,0.03639145606905222,-0.036913872507959605
1769668068081792000,4.5937919921875,0.09750877259373664,-0.0220990190833807,-0.0431483099181205
1769668068091780900,4.60378076171875,0.07304010176956653,-0.01571019482910633,-0.06227919991090893
1769668068101770000,4.61377001953125,0.06481997043490409,-0.016083704316616057,-0.05833776880875229
1769668068111758000,4.623758056640625,0.05064940626323223,-0.0011997311785817146,-0.05830920030139386
1769668068121747000,4.633746826171875,0.031551322561502455,-0.002813596116006374,-0.04880370533131063
1769668068131736000,4.643736083984375,0.011963409516215323,0.004041676606237888,-0.0212383106008172
1769668068141725200,4.65372509765625,0.01685994938611984,-0.020221242512762545,-0.01493869899995625
1769668068151713800,4.6637138671875,0.0026309330254793164,-0.006628185968101024,-0.020412965692579745
1769668068161702000,4.673701904296875,-0.0011783961296081542,-0.014892740966379641,-0.02155059142038226
1769668068171691000,4.68369091796875,0.03107318365573883,-0.009767945298552513,-0.04646335275024176
1769668068181679900,4.693679931640625,0.023090952730178832,-0.0267065128788352,-0.036076033444330094
1769668068191669000,4.7036689453125,-0.01591594653427601,-0.023592180250585078,-0.0003454524368047714
1769668068201658000,4.713658203125,-0.028732758009433746,0.006354629723727702,0.006476064146310091
1769668068211646000,4.72364599609375,-0.008866612544655799,-0.004239245004951954,0.013606062156707047
1769668068221634800,4.733634765625,0.0030202246040105817,-0.030742636527121066,0.021070552818477153
1769668068231624000,4.7436240234375,0.052534489357471466,-0.03449789740741253,-0.009143529789894819
1769668068241612800,4.75361279296875,0.027194880917668342,0.0018634557843208311,-0.024899609587341547
1769668068251602000,4.763601806640625,-0.012410568761825561,0.005013736508786678,-0.01364807466752827
1769668068261590000,4.773590087890625,-0.027180852392315862,-0.008783902697265148,-0.0077223378803581
1769668068271579100,4.7835791015625,-0.03018821751475334,-0.011994681437313555,0.011235533633083104
1769668068281568000,4.793568115234375,-0.029290391892194748,-0.003612637539207935,0.005244184263795614
1769668068291556900,4.803556884765625,-0.009098083212971687,-0.0079842767521739,0.0025520225703716277
1769668068301546000,4.8135458984375,0.010841127488017082,0.011590484550595283,-0.00358465355373919
1769668068311533800,4.823533935546875,0.019846856242418286,-0.010578969420492648,0.002474646485224366
1769668068321523000,4.83352294921875,0.043677813684940336,-0.037009880228340626,-0.01624379024915397
1769668068331512000,4.843511962890625,0.07144143440127372,-0.04519961642473936,-0.03826492179073393
1769668068341501000,4.8535009765625,0.06789338653087616,-0.03899082491248846,-0.040389731924980875
1769668068351490000,4.863489990234375,0.047339843323826784,-0.006808218710124493,-0.05178396325111389
1769668068361478000,4.873477783203125,0.026011808612942694,0.024058920979499816,-0.04798457096815109
1769668068371466800,4.883466796875,0.006958148574829101,0.028747663317620752,-0.03158909728862345
1769668068381456000,4.893455810546875,0.028584873971343037,0.01251519818007946,0.019349208918586373
1769668068391445000,4.903445068359375,0.0423591323018074,-0.038539866274595255,0.030483620264753698
1769668068401433900,4.913433837890625,0.0328302564561367,-0.05493541301935911,0.007260273326560854
1769668068411422000,4.923421875,0.033465047228336334,-0.02595803259909153,-0.002027341109141707
1769668068421411000,4.9334111328125,0.009123802176117897,0.007205109073221683,-0.03469875374175608
1769668068431400000,4.94339990234375,0.011132803910970688,0.019264087918400764,-0.02853000197894871
1769668068441388800,4.953388916015625,0.01341010119318962,0.01849953328669071,-0.014167860757932067
1769668068451378000,4.9633779296875,0.011413958939909935,-0.01907996352314949,0.003905483005940914
1769668068461366000,4.973365966796875,0.03867489083111286,-0.030970600064098835,0.0005643558844923973
1769668068471355000,4.98335498046875,0.037325814309716224,-0.018976795409619808,-0.003359612626209855
1769668068481344000,4.993343994140625,0.02917524107992649,0.007640870141983031,0.01134783490113914
1769668068491325700,5.00332568359375,-0.01285071374475956,0.043863399384915826,-0.008711641178652644
1769668068501314600,5.013314453125,-0.013867197310924529,0.020800211444497108,-0.01923719991147518
1769668068511303700,5.0233037109375,0.029953239715099333,0.0351505160972476,-0.0041716596614569425
1769668068521291800,5.033291748046875,0.001353168174624443,0.024010990184545517,-0.005037482710555196
1769668068531280600,5.04328076171875,0.013156418693065643,-0.023854922839999196,-0.01491042275354266
1769668068541269800,5.053269775390625,-0.007616904744505882,-0.00646715018749237,-0.02658398247770965
1769668068551259000,5.0632587890625,-0.019883681121468544,0.005277063620090484,-0.031206966103240846
1769668068561247500,5.07324755859375,-0.005049100083112716,-0.007856558719277382,-0.016454583455622195
1769668068571235600,5.083235595703125,0.014614216285943985,-0.03195814979672432,-0.019943375419452784
1769668068581224700,5.093224609375,0.04833236149251461,-0.02336947741061449,-0.03368110113181173
1769668068591213800,5.1032138671875,0.0368868383705616,-0.006707680945098399,-0.04930975515730679
1769668068601202700,5.11320263671875,0.04038929353356361,0.00047930794954299924,-0.06306845059245825
1769668068611191800,5.12319189453125,0.016869301736354828,0.015290215851366518,-0.054445583675801754
1769668068621180000,5.133179931640625,-0.005045592951774597,0.012129705993831157,-0.034285204504802824
1769668068631168500,5.14316845703125,-0.031736616000533104,0.016610943061113357,-0.0066374652530997984
1769668068641157600,5.15315771484375,-0.033789456877112385,0.00633124884814024,0.015561287877708673
1769668068651146800,5.163146728515625,-0.025389292800426483,-0.012827040608227253,0.06569952974840998
1769668068661135600,5.173135498046875,-0.028773090019822117,-0.004517185163497924,0.06063676646612584
1769668068671123700,5.183123779296875,-0.03947276321053505,-0.005453004708886146,0.04121595361605286
1769668068681112800,5.19311279296875,-0.02978957358598709,0.004867606036365032,0.030766674989834427
1769668068691101700,5.203101806640625,0.012219430103898048,0.01747223606556654,0.010074161703512071
1769668068701090800,5.2130908203125,0.05866670850217342,0.01883212624192238,-0.009681143797934055
1769668068711079700,5.22307958984375,0.08872048598229884,0.01829524288624525,-0.020208163835480807
1769668068721067800,5.23306787109375,0.10327800364494323,0.022751930034160612,-0.021035189244151115
1769668068731056600,5.243056640625,0.07538286550343036,0.02859101145118475,-0.01753916382193565
1769668068741045800,5.253045654296875,0.04784077858328819,0.02465133391469717,-0.004677198030799627
1769668068751034600,5.26303466796875,0.012311784562468528,-0.012530688010156154,-0.002744184141606092
1769668068761023700,5.273023681640625,0.018867197555303573,-0.009520108017325401,-0.006783668790757656
1769668068771011600,5.283011474609375,0.007992752319574355,-0.020447452484071253,-0.01366210319288075
1769668068781000700,5.293000732421875,0.024260581031441686,-0.015901333487033844,-0.013456205357238649
1769668068790989600,5.302989501953125,0.02228898869752884,-0.007459083834290504,-0.012166530872881411
1769668068800978700,5.312978759765625,0.013720482316613197,-0.0028486674293875694,0.00950498351342976
1769668068810967800,5.3229677734375,0.004455225843191146,-0.011525602620840071,0.028044775745272636
1769668068820955600,5.33295556640625,0.02470364862382412,-0.023633389043807983,0.005212912342697382
1769668068830944800,5.34294482421875,0.025799042645096776,-0.03122778969556093,0.024988237718865273
1769668068840934000,5.352933837890625,0.04767828149795532,-0.033767245045304296,0.014971797551959752
1769668068850922800,5.3629228515625,0.04314414519965648,-0.01803688421100378,0.013315627842769026
1769668068860911600,5.37291162109375,0.003167524120211601,-0.013952829767763613,0.014384206922352313
1769668068870899700,5.382899658203125,-0.008184475499391556,-0.02736088513433933,0.01741816779077053
1769668068880888600,5.392888671875,-0.006432078874111175,-0.03779313956052065,0.0052649347908794875
1769668068890877700,5.402877685546875,0.02744973246157169,-0.04251870677769184,0.004047814086079597
1769668068900866800,5.41286669921875,0.05393909545838833,-0.03712035486549139,0.002767345821484923
1769668068910855700,5.422855712890625,0.06052841072082519,-0.02890110031366348,-0.00426912868656218
1769668068920843500,5.432843505859375,0.06532441282570361,-0.026048341231048107,-0.009676175361871719
1769668068930832600,5.44283251953125,0.05064823721945286,-0.021227789206802843,-0.002267871866747737
1769668068940821800,5.45282177734375,0.0523760839253664,-0.005808978539705276,-0.020630627031251788
1769668068950810600,5.462810546875,0.03793780872821808,-0.04171294335275888,-0.021223551423102616
1769668068960799700,5.4727998046875,0.046453708139061925,-0.0788084560379386,-0.006284560162201524
1769668068970787800,5.482787841796875,0.08004092044234275,-0.014350889174640178,0.004495557853579521
1769668068980776700,5.492776611328125,0.014296236377954482,-0.008631050223112106,0.029625322934985158
1769668068990765800,5.502765869140625,0.04128828819990158,-0.014091945977509021,0.003160582922771573
1769668069000754700,5.512754638671875,0.08106617183685302,-0.030950141797959803,-0.008947057369723916
1769668069010743600,5.52274365234375,0.06460661994516849,0.003445464278757572,-0.03911664324924349
1769668069020731600,5.532731689453125,-0.009682020580768584,0.03243511965870857,-0.05053951614797115
1769668069030720800,5.542720703125,-0.003674889120459556,0.030485446895658967,-0.0322321444325149
1769668069040709600,5.552709716796875,0.007667758148908615,0.004686404250562191,-0.019153321020305154
1769668069050698800,5.56269873046875,0.05335749617815017,-0.016805881111323834,-0.011502002549543975
1769668069060688000,5.57268798828125,0.07001987716555595,-0.03196253371089697,-0.014354396305978297
1769668069070676700,5.5826767578125,0.06581482669115066,-0.041214053919911384,0.0009198913238942623
1769668069080664600,5.59266455078125,0.05157470441460609,-0.01293780750632286,0.022992533857002853
1769668069090653700,5.60265380859375,0.050658174091577524,0.017079729616641996,0.015506342820078133
1769668069100642600,5.612642578125,0.0651683454811573,0.010784721125662327,0.007955415983870624
1769668069110631700,5.622631591796875,0.07470657367706299,0.005059036955237389,-0.004831365679204463
1769668069120620800,5.632620849609375,0.0795990218937397,-0.0138183897331357,-0.022229951986670493
1769668069130609000,5.64260888671875,0.03478080600202083,-0.04050006043165922,-0.027755291279405354
1769668069140597800,5.65259765625,-0.016525602865219115,-0.05037672680169344,-0.021124182701855898
1769668069150586600,5.662586669921875,-0.06003039807081222,-0.07178454875051975,-0.02394282031916082
1769668069160575700,5.67257568359375,-0.05889759464859962,-0.05724427448362112,-0.014512801738083362
1769668069170564600,5.682564697265625,-0.056817865765094754,-0.05551613551676273,-0.017976678456366062
1769668069180552700,5.692552734375,0.01097322943508625,-0.059087856523692604,-0.011849427747726439
1769668069190541800,5.702541748046875,0.02770516852736473,-0.03693506142646074,-0.011768544531241059
1769668069200530700,5.71253076171875,0.04436521142721176,-0.04120616287440061,-0.021446254263073204
1769668069210519800,5.722519775390625,0.044753333961963654,-0.0552776505857706,-0.026352877135574816
1769668069220509000,5.732509033203125,0.046884500771760936,-0.04040858275592327,-0.01707198470160365
1769668069230496800,5.742496826171875,0.032089667221903796,-0.01386369017958641,-0.026477964819967746
1769668069240485600,5.752485595703125,0.04297580289542675,-0.013892624013125895,-0.03115070587135851
1769668069250474800,5.762474853515625,0.04867079966664314,-0.0017655483677983283,-0.009184884713590144
1769668069260463600,5.772463623046875,0.00881342105269432,-0.02670300574749708,0.0004682020336389541
1769668069270452700,5.78245263671875,0.03489011159539222,-0.009209142372012138,-0.008513926649466156
1769668069280440800,5.79244091796875,0.01984451815485954,-0.0019315525844693182,-0.010860855101794005
1769668069290429700,5.8024296875,0.00784837541282177,-0.008003858235478402,-0.012115531338006257
1769668069300418600,5.81241845703125,0.005588029265403747,-0.026188626484572885,0.006208280055597424
1769668069310407700,5.82240771484375,0.022479542833566665,-0.028907822315394877,0.0018869097251445054
1769668069320396500,5.832396484375,0.012715104666352272,-0.0030821839243173597,0.003629588674008846
1769668069330384600,5.842384521484375,0.006745967128872871,-0.009864391410350799,-0.018605550944432614
1769668069340373800,5.852373779296875,0.023381460109353065,-0.010947218210995197,-0.016009031645208595
1769668069350363000,5.86236279296875,0.03051847238242626,0.009360825802385807,-0.01229161855727434
1769668069360351700,5.872351806640625,0.01948153006136417,0.021855273455381394,0.004419935334101319
1769668069370340600,5.882340576171875,0.002330488774180412,0.013761691109836102,0.012205182382836938
1769668069380328700,5.89232861328125,0.006241524738073349,0.006291793620586395,0.02517243517935276
1769668069390317600,5.902317626953125,0.0004389759391546249,0.0071639002799987785,0.01771642008498311
1769668069400306700,5.912306640625,0.0104699560880661,0.010788520517945288,0.009695245388522743
1769668069410295800,5.9222958984375,0.031411037307977674,0.010752864682674407,0.0021016484543681145
1769668069420284700,5.93228466796875,0.01656768844127655,0.010092062686383723,0.011097440336644648
1769668069430272800,5.942272705078125,-0.005732406172156333,0.009433598777651786,0.00684796619862318
1769668069440261600,5.95226171875,0.01185293487906456,-0.003565583527088165,0.019907500388473272
1769668069450250800,5.962250732421875,0.02066810949742794,-0.018092706051468847,0.0010077157378196716
1769668069460239600,5.972239501953125,0.0337801045268774,-0.008645955531299114,-0.0158645816732198
1769668069470228700,5.982228759765625,0.03830956465005875,0.017547054867446423,-0.037169235508516425
1769668069480216800,5.992216796875,0.036326281878352164,0.044265550445020195,-0.02678732303008437
1769668069490205000,6.002204833984375,0.031186580902338026,0.02726823841482401,-0.012462591210007666
1769668069500194000,6.012194091796875,0.037197219493985176,0.0021966332614421842,0.00035012861192226406
1769668069510183000,6.022182861328125,0.052366147053241725,-0.013905775755643843,0.006051555123925209
1769668069520171800,6.032171875,0.04683949258625507,-0.020877952855825423,0.007910919255018235
1769668069530159900,6.042159912109375,0.028787703067064283,-0.012205986100435256,-0.021299758464470506
1769668069540149000,6.05214892578125,0.01173135432600975,-0.0044184009641408915,-0.030860563818365334
1769668069550138000,6.06213818359375,-0.014051321706175804,-0.009949439345300197,-0.025307971192523836
1769668069560127000,6.072126953125,-0.02314998944103718,-0.018331190982460974,-0.003997691334038973
1769668069570116000,6.0821162109375,-0.0027437457501888274,-0.045236441303789614,0.016662015661224723
1769668069580105000,6.09210498046875,0.021307576444745062,-0.04230214141756296,0.020629311856999993
1769668069590092800,6.1020927734375,0.0163040690690279,-0.04485241042226553,0.0007005494847893715
1769668069600082000,6.11208203125,0.027453824114799498,-0.011722294236719607,-0.015822496097162363
1769668069610071000,6.122071044921875,0.032657237976789474,0.004554010042548179,-0.011512085552141069
1769668069620060000,6.132059814453125,0.03173486243486404,-0.015226795226335525,0.002618292739614844
1769668069630049000,6.142049072265625,0.033195582637190815,-0.02060351982861757,0.015192308434844017
1769668069640037000,6.152037109375,0.018491934502124784,-0.03110620914250612,0.03083089933246374
1769668069650025700,6.162025634765625,-0.009998246923089028,-0.01879500910192728,0.03303520444370806
1769668069660014800,6.172014892578125,-0.013093290328979492,-0.008365677285194396,0.009894786548614502
1769668069670004000,6.18200390625,-0.015113397979736327,0.018359832555055616,-0.0009484598312526941
1769668069679992800,6.191992919921875,-0.0033089784175157544,0.026918986585736274,-0.015451105501502752
1769668069689981000,6.20198095703125,0.020867431461811064,0.033840894803404804,0.004964344409108161
1769668069699970000,6.211969970703125,0.04173310935795307,0.011645137347280978,0.015474705572798847
1769668069709959000,6.221958984375,0.060515551239252084,0.0011854103922843931,0.025069924652948973
1769668069719948000,6.231947998046875,0.06557634176015853,0.0008577858731150627,0.03081504417620599
1769668069729937000,6.24193701171875,0.054717678615450856,0.0052229953452944755,-0.00035392800420522687
1769668069739925000,6.251925048828125,0.02578326055407524,0.02599807234853506,-0.02176912954188883
1769668069749913900,6.261913818359375,-0.004578559961915016,0.029487668029963967,-0.031292233233898875
1769668069759903000,6.271903076171875,-0.021795652222633362,0.017503507986664772,-0.03056793754734099
1769668069769892000,6.28189208984375,-0.01466799229979515,-0.0020315058276057243,-0.026859657613933084
1769668069779881000,6.291880859375,-0.01095452473461628,-0.013415946412086486,-0.002655629075318575
1769668069789869000,6.301869140625,-0.010730652850866317,-0.026558921101689337,0.007415463888272643
1769668069799858000,6.31185791015625,0.008735095119476318,-0.014186930784583092,0.01297960082143545
1769668069809846800,6.3218466796875,0.025525486400723454,-0.009320786052942275,-0.005068243174999952
1769668069819836000,6.3318359375,0.03457446977496147,-0.0031955811709165572,-0.003438084689900279
1769668069829825000,6.341824951171875,0.03507482051253319,-0.022076514990627766,-0.004310702805966139
1769668069839813000,6.351813232421875,0.03852233061790466,-0.028815467856824397,-0.005195230555534363
1769668069849802000,6.361802001953125,0.025380524972081184,-0.01227291385680437,-0.006944996832311153
1769668069859791000,6.371791015625,0.0032312370061874387,-0.017216215477883816,-0.012695815443992614
1769668069869780000,6.381780029296875,0.014559271228313445,-0.013259002284705638,-0.015608853346481918
1769668069879768800,6.391768798828125,0.0326209976196289,-0.011726678150892258,-0.003128215023130178
1769668069889757000,6.4017568359375,0.029480361506342888,-0.009976035091280937,-0.018163871591538188
1769668069899746000,6.41174609375,0.05075169759392738,-0.030405951918661592,-0.015073869686946273
1769668069909735000,6.42173486328125,0.029237784922122954,-0.012991583520174026,-0.002687704714015126
1769668069919724000,6.43172412109375,0.012993337085843085,-0.0050225043371319765,-0.010300006348639725
1769668069929713000,6.441712890625,0.010722469544410704,-0.0009068857118487357,0.005992883739247918
1769668069939700700,6.45170068359375,0.023753800553083418,0.01914309188723564,-0.003031257454678416
1769668069949689900,6.46168994140625,0.04344634301662445,-0.006687514939904213,0.02560395846441388
1769668069959679000,6.471678955078125,0.09434183299541472,-0.028038638265430925,0.018959771209582685
1769668069969667800,6.481667724609375,0.10955226160883903,-0.016880699913203717,0.0064708034493029115
1769668069979657000,6.491656982421875,0.04087678478956222,-0.0052186114311218255,-0.004904284784942865
1769668069989645000,6.50164501953125,0.04785071545541286,-0.020367372985184193,-0.034551673421263696
1769668069999634000,6.511634033203125,0.04131517620682716,-0.019519816245138644,-0.05296645103394985
1769668070009623000,6.521623046875,0.01577916841208935,-0.0038791795209050174,-0.028065380141884085
1769668070019612000,6.53161181640625,0.005109305837750435,0.0058364510685205455,-0.025156141631677745
1769668070029600800,6.541600830078125,-0.007201894202828407,0.05910860705077648,-0.021262056802585718
1769668070039588900,6.5515888671875,-0.018784195446968077,0.07074351526498794,0.010547259107977151
1769668070049578000,6.561577880859375,0.011827800437808036,0.07074819144010544,0.03385981869958341
1769668070059566800,6.57156689453125,0.00651683454811573,0.044947979751229286,0.039521936114504934
1769668070069556000,6.581555908203125,0.04291209000945091,-0.01787730973511934,0.0506188649944961
1769668070079545000,6.591545166015625,0.09596212767362594,-0.03358458195477724,-0.0012547493014484644
1769668070089533000,6.601532958984375,0.07570727515220642,-0.016463059023022652,-0.01886149846687913
1769668070099521800,6.611521728515625,0.04406359813213348,0.0015796704068779944,-0.04384878633767366
1769668070109511000,6.621510986328125,0.022225275811553,0.01098112048059702,-0.02848389781489968
1769668070119500000,6.6315,-0.007877016985416412,-0.022979601310193536,-0.0352976694829762
1769668070129489000,6.641489013671875,-0.00620353081524372,-0.04600304176211357,0.002877966589108109
1769668070139478000,6.65147802734375,-0.019658640193939207,-0.018902853390574455,-0.005348740616813302
1769668070149466000,6.661466064453125,-0.010737667113542557,-0.0220706697717309,-0.01362754333615303
1769668070159455000,6.671455078125,-0.004843348377943039,-0.011585223853588103,-0.02783376334309578
1769668070169443800,6.68144384765625,-0.0014776713371276854,-0.00434007503092289,-0.033572599256038664
1769668070179433000,6.691432861328125,0.01153787758052349,-0.004755670094490051,-0.026341259763017294
1769668070189421800,6.701421875,0.007326981887221336,-0.003771627493202686,-0.03352430313490331
1769668070199410000,6.711409912109375,0.00925999577641487,0.009028232847154139,-0.03407463049404323
1769668070209399000,6.72139892578125,0.022616320955753326,-0.011224281586706637,-0.024184958511963485
1769668070219388000,6.731387939453125,0.048344051930308336,-0.0027788170635700223,-0.005786109120771288
1769668070229377000,6.741376953125,0.04552490285634994,-0.020158990931510926,-0.00010360650494694709
1769668070239366100,6.7513662109375,0.05310673628747463,-0.0319350611820817,0.023173516447097062
1769668070249354000,6.76135400390625,0.003767828100919723,-0.02214373500794172,0.02820676137395203
1769668070259342800,6.7713427734375,-0.020507950499653815,-0.027300971640646456,0.041762189321964974
1769668070269332000,6.78133203125,-0.004421323573589325,0.024210019887983797,0.007768734305351972
1769668070279320800,6.79132080078125,0.03771919754147529,0.015051146398484707,-0.012912526934593915
1769668070289310000,6.80131005859375,0.07212883214354515,-0.0028425299495458602,-0.029993352529779076
1769668070299298000,6.811298095703125,0.0381458985209465,0.0025748189240694043,-0.0014050444923341273
1769668070309287200,6.821287109375,0.00865267753303051,-0.0040378772139549254,0.010855082948133348
1769668070319275800,6.83127587890625,-0.012401800933480263,0.009169687144458294,0.010083002597093582
1769668070329265000,6.841264892578125,-0.039002223089337346,0.04109013527929783,0.017175591206550597
1769668070339254000,6.85125390625,-0.04000467813014984,0.038596857158839704,0.030218685718253254
1769668070349241900,6.861241943359375,-0.0007926116824150085,0.010227379503846168,0.008717997854202986
1769668070359231000,6.87123095703125,0.027639702075719832,-0.012820903128385543,0.004829977439716458
1769668070369220000,6.88122021484375,0.0357581266015768,-0.02199526644796133,-0.011493526982143521
1769668070379209000,6.891208984375,0.012066285368800162,-0.015133563984930515,-0.005486614717543125
1769668070389198000,6.901197998046875,0.026385318100452422,-0.0069654550984501835,-0.013450214007869362
1769668070399186000,6.91118603515625,0.038028994143009184,-0.017906828090548513,-0.018237302153930067
1769668070409175000,6.921175048828125,0.023966566520929336,-0.009796586871147156,-0.024933877183124422
1769668070419164000,6.931163818359375,0.0473392588019371,-0.0024587913289666175,0.008972118745744228
1769668070429153000,6.941153076171875,0.03531213639974594,0.00606587591022253,0.005992810674011707
1769668070439142000,6.951141845703125,0.033738018950819966,-0.00035743513554334637,0.015136121268197893
1769668070449130000,6.9611298828125,0.04962473939061165,-0.00970657050013542,-0.0009644611179828644
1769668070459118800,6.971118896484375,0.02882394342422485,-0.013379706054925918,0.0009172609753906727
1769668070469108000,6.98110791015625,0.04191255757808685,-0.027951836764812468,-0.012304039647430182
1769668070479096800,6.991096923828125,0.035278234130144116,-0.029464287154376503,-0.013039660445600747
1769668070489086000,7.0010859375,0.003353402081131935,-0.02493541155308485,-0.032176176461577416
1769668070499074000,7.011073974609375,-0.007414075648784637,-0.03561754908710718,-0.03387823113910854
1769668070509062700,7.021062744140625,-0.004175824379920959,-0.04414104728251696,-0.02764050579331815
1769668070519051800,7.0310517578125,0.008833294796943664,-0.06721095722466706,-0.023028043561801312
1769668070529041000,7.041041015625,0.012712182056903838,-0.06727876176387071,-0.007037278225645423
1769668070539029800,7.05102978515625,0.058875382816791534,-0.05041121359318494,-0.018357713663205502
1769668070549017900,7.061017822265625,0.03080605715215206,-0.04829845922291279,0.00016644260808825492
1769668070559007000,7.071007080078125,0.006736030256748199,-0.024254443551599978,-0.003385916111245751
1769668070568995800,7.080995849609375,-0.012585925328731536,-0.015524316868185997,-0.0004977203890681267
1769668070578985000,7.09098486328125,0.0006032265901565551,-0.04053308591842651,0.014109262438490986
1769668070588973800,7.100973876953125,0.02710428002476692,-0.025825346130132674,0.016137918721884487
1769668070598962000,7.1109619140625,0.028422376886010167,-0.03026654344797134,0.020666940453648565
1769668070608950800,7.12095068359375,0.03915010712742805,-0.04703530741930008,0.012685074854269623
1769668070618940000,7.13093994140625,0.014798340681195258,-0.04368190533816814,0.020488076755404473
1769668070628929000,7.140928955078125,0.01686696364879608,-0.0444876687631011,0.005542948014661669
1769668070638918000,7.15091796875,-0.015397475618124008,-0.03790682906806469,0.006646598407626152
1769668070648905700,7.16090576171875,-0.016561258700489998,-0.04316226537823677,0.0020994564972817895
1769668070658894800,7.170894775390625,0.021394085684418678,-0.07484948927909135,-0.005572539435327053
1769668070668883700,7.1808837890625,0.020727146208286286,-0.04906622872501611,0.004330065093562006
1769668070678872800,7.190872802734375,0.00847264479100704,-0.03052490212321281,0.017398220981284976
1769668070688862000,7.200862060546875,0.004022095122933387,-0.007225859600305556,0.03994688352830708
1769668070698849800,7.210849853515625,0.001260229194164276,0.00033317747712135315,0.05796235962510109
1769668070708839000,7.2208388671875,0.02462298460304737,-0.0026966917380690575,0.06254559576213359
1769668070718828000,7.230828125,0.055199909174442285,-0.018851707725226877,0.0560533111333847
1769668070728817000,7.24081689453125,0.07840718176066876,-0.02636544435620308,0.036993075224012135
1769668070738805800,7.2508056640625,0.08258242161870002,-0.03397007414102554,0.02434694414064288
1769668070748793900,7.2607939453125,0.06417115113735199,0.006700958943367004,-0.006655073975026607
1769668070758783000,7.270782958984375,0.04377133718729019,0.029557226134836672,-0.04664060901328921
1769668070768771800,7.280771728515625,0.02432663200497627,0.05032908826768398,-0.05149433265477418
1769668070778761000,7.290760986328125,0.035011692148447036,0.026089842285215853,-0.03235452870316803
1769668070788749800,7.300749755859375,0.03239303408265114,0.01941664813160896,-0.02224573407769203
1769668070798737700,7.310737548828125,0.04627367539703846,-0.0009781973823904991,0.001906929599866271
1769668070808726800,7.320726806640625,0.04621697677373886,0.0028398996010422705,0.002351239301264286
1769668070818716000,7.3307158203125,0.025121581774950025,0.02351765370965004,0.0015608195759356021
1769668070828704800,7.340704833984375,0.027072715842723846,0.04177665623873472,0.00004654255546629429
1769668070838694000,7.35069384765625,0.039411972934007646,0.0673272770807147,-0.010832578855380415
1769668070848682000,7.360681884765625,0.0008896423161029815,0.05877689087837934,0.0042355917431414125
1769668070858670800,7.3706708984375,0.01925064391493797,0.008697101196646689,0.05086100318729877
1769668070868660000,7.380659912109375,0.07264788758158683,-0.02446604047566652,0.051736470847576856
1769668070878648800,7.39064892578125,0.05907061312794685,-0.03351034767478704,0.026348420156165956
1769668070888637700,7.4006376953125,0.03763502638936043,-0.017657529504597185,-0.0008260024953633547
1769668070898626800,7.410626708984375,0.017502923464775083,0.01574322031587362,-0.05077873173132538
1769668070908615000,7.420614990234375,0.011350246053934096,0.052414077848196024,-0.04940079444162547
1769668070918603800,7.430603759765625,-0.008726911813020705,0.051637540517747396,-0.03179557964615524
1769668070928593000,7.440593017578125,-0.023186814320087432,0.02619242587685585,0.0037090836510062218
1769668070938582000,7.45058203125,-0.025681553745269772,0.014032909266650675,0.04258512307740748
1769668070948569900,7.46056982421875,0.007746668604016304,0.008100012086331845,0.039814123994112015
1769668070958558700,7.470558837890625,0.014927520018815994,0.013643909949064253,0.04511844094730914
1769668070968547800,7.4805478515625,0.035250177079439164,0.018064064478874205,0.027674773389101025
1769668070978537000,7.490536865234375,0.007107786178588866,0.0024859715968370438,0.02758198053911328
1769668070988525800,7.50052587890625,0.018050620475411415,0.0018348142117261886,0.0173868958696723
1769668070998514000,7.510513916015625,0.014839841735363006,-0.010346037447452544,0.015624635437503457
1769668071008503000,7.5205029296875,0.034850948628783227,-0.011323942568898201,-0.002444981999322772
1769668071018492000,7.530491943359375,0.005424363136291504,0.017596739228069782,-0.016697525366023182
1769668071028480800,7.540480712890625,-0.007902151426672934,0.01870703855752945,-0.001441138719022274
1769668071038470000,7.550469970703125,0.008487842360138893,0.007896890729665755,0.008725012116879224
1769668071048458800,7.560458740234375,0.015164835906028747,0.0023430559948086735,0.015975567767024038
1769668071058446800,7.57044677734375,0.016729601004719732,-0.016966040109097958,0.018717852212488652
1769668071068436000,7.58043603515625,0.02114391031563282,-0.008261047866940497,0.0036847529273480173
1769668071078424800,7.5904248046875,0.012330489262938499,-0.009340075275301932,-0.02071260622628033
1769668071088414000,7.6004140625,0.012209493231773375,0.00871843624562025,-0.047446737764403224
1769668071098403000,7.610403076171875,0.010061959809064864,0.009804185655713081,-0.05323445432037115
1769668071108391000,7.620390869140625,-0.017092004576325415,0.03653904784619808,-0.040162791301310063
1769668071118379800,7.6303798828125,0.0030880291432142256,0.01812836188673973,-0.017602365251258016
1769668071128369000,7.640368896484375,-0.0044470425367355345,0.0008016717717051505,0.0060412529256194825
1769668071138357800,7.650357666015625,0.007268529698252677,-0.007220891164243221,0.016019845300167798
1769668071148347000,7.660346923828125,-0.014680851781368255,-0.00608984130769968,0.008355594282597302
1769668071158335000,7.6703349609375,-0.02487608258128166,0.02418079379349947,-0.009651552377268672
1769668071168323800,7.68032373046875,-0.022638532787561415,0.02677139480859041,-0.03306596490815282
1769668071178312700,7.690312744140625,-0.02099018105864525,0.02045592805147171,-0.030007307989895343
1769668071188301800,7.7003017578125,0.022731471768021583,0.00832242266535759,-0.03532514201179147
1769668071198291000,7.710291015625,0.03099894937574863,-0.0025075989067554474,-0.02447911915294826
1769668071208278800,7.72027880859375,0.017768296402692795,-0.0049801265001296995,0.0004873451255261898
1769668071218268000,7.730267822265625,0.0031628479450941083,-0.002152501858770847,0.0009743979901075362
1769668071228257000,7.740257080078125,-0.0219464588701725,0.0005982581540942192,-0.004419789203628897
1769668071238246000,7.750245849609375,-0.03782616504728794,0.006283610314130782,-0.015327040730416774
1769668071248235000,7.760235107421875,-0.035004677885770795,0.01258709437251091,-0.024221564195305106
1769668071258222800,7.770222900390625,-0.003288520151376724,0.025324703131616114,-0.02370068212635815
1769668071268212000,7.7802119140625,0.0009317278921604156,0.040381110227108,-0.02560731946527958
1769668071278200800,7.790200927734375,0.022474866658449173,0.037408524157106875,-0.003658157181367278
1769668071288190000,7.80018994140625,0.026810850036144255,0.008516483932733535,0.015436492454260587
1769668071298178800,7.8101787109375,0.03143383366167545,0.006859072114527225,0.018571575609594583
1769668071308167000,7.8201669921875,0.022487726140022278,0.007517243762314319,0.0024219664499163626
1769668071318155800,7.83015576171875,0.024132570737600324,0.017055764219164847,-0.013456424552947282
1769668071328145000,7.840144775390625,0.02752513578534126,0.01996229931563139,-0.023873116083815694
1769668071338133800,7.8501337890625,0.009032032239437103,0.019512217460572717,-0.009067615009471773
1769668071348123000,7.860122802734375,0.02678103941977024,0.012707213620841502,-0.009770575647056102
1769668071358111000,7.870111083984375,0.04639642499387264,-0.00000263034850358963,0.00702376115694642
1769668071368099800,7.880099853515625,0.056555999958515166,-0.014087562063336372,0.008126461701840162
1769668071378089000,7.8900888671875,0.03362053005099296,-0.019006898286938665,0.01382905725762248
1769668071388078000,7.900078125,0.024641104781627652,0.006411328347027301,-0.00034691374152898786
1769668071398066700,7.910066650390625,0.014842179822921752,0.023330022183060645,-0.024883681365847586
1769668071408054800,7.9200546875,0.007516366979479789,0.01454553496390581,-0.020543679400160907
1769668071418044000,7.9300439453125,0.023357494711875915,0.004468085324764251,-0.004207534692436456
1769668071428032800,7.94003271484375,0.019843933632969855,-0.007490063494443893,-0.0034423224736005067
1769668071438022000,7.95002197265625,0.02391045241951942,-0.019524492420256136,-0.004268398034200072
1769668071448011000,7.960010986328125,0.011444938600063324,-0.02363748069703579,0.008274272674694657
1769668071457998800,7.969998779296875,-0.011985036826133727,-0.0025324410870671272,-0.006083119305968284
1769668071467987700,7.97998779296875,-0.010932897424697875,-0.0044654549762606615,-0.016895020699501037
1769668071477976800,7.989976806640625,-0.010361235016584395,0.004349427381157875,-0.009702551912143826
1769668071487965700,7.999965576171875,0.023279168778657912,0.004012158250808716,-0.006393281233683228
1769668071497955600,8.00995556640625,0.028548049092292783,0.0034042554855346677,-0.0025569179411977527
1769668071507943400,8.019943359375,0.025674539482593534,-0.004597849184274673,-0.00947115430906415
1769668071517932300,8.029932373046876,0.01462532220184803,-0.0034647535011172294,-0.003435673537105322
1769668071527921400,8.03992138671875,-0.0034030864417552947,-0.010501228009164332,-0.0015597966626286505
1769668071537910500,8.04991064453125,0.0013946692287921906,-0.020632161401212216,-0.00019793372489511964
1769668071547899400,8.0598994140625,0.011628478473424912,-0.03129617875665426,-0.01571282517760992
1769668071557887500,8.069887451171875,0.02418108605444431,-0.024564824675023553,-0.035305706658959386
1769668071567876400,8.07987646484375,0.056686932861804956,-0.008185644543170929,-0.04344955788701772
1769668071577865500,8.089865478515625,0.02918400890827179,0.00038490766435861584,-0.026744068410247564
1769668071587854300,8.099854248046874,0.012033552142977714,-0.000678045392036438,-0.02966960046812892
1769668071597843500,8.109843505859375,0.015624270111322402,-0.010137363132834434,0.0003264554753899574
1769668071607831600,8.11983154296875,0.017653145590424538,-0.007289572486281395,0.01402706404775381
1769668071617820400,8.1298203125,0.005154898545145988,0.01532499490380287,0.015992153575643896
1769668071627809500,8.1398095703125,0.008660276317596435,0.025257483114302155,0.0035419834557920693
1769668071637798700,8.149798583984374,0.0021826047360897064,0.03836743231713772,0.004357610687613487
1769668071647787500,8.15978759765625,0.01808043109178543,0.03493979595601558,-0.003037175738811493
1769668071657775400,8.169775390625,0.019051906472444532,0.019457564663887022,0.011628186212480067
1769668071667764500,8.179764404296876,0.038403088152408595,-0.010191431407630442,0.015829656490311025
1769668071677753300,8.18975341796875,0.04257482087910175,-0.02414981413334608,0.019335911045596003
1769668071687742500,8.199742431640624,0.040702597266435624,-0.01092003794312477,0.0044243192482739686
1769668071697731600,8.209731689453125,-0.00017944822013378142,0.0038861937835812568,-0.003240662421658635
1769668071707719700,8.2197197265625,-0.00044482115805149076,-0.0030617256581783295,-0.011038915082439779
1769668071717708300,8.229708251953125,0.02924479918479919,-0.0002495908468961716,-0.0073247168648988
1769668071727697400,8.239697509765625,0.062433952081203455,0.005899579432606696,0.021394012619182466
1769668071737686300,8.249686279296874,0.08955927489399909,-0.036685762840509416,0.034682387128844853
1769668071747675400,8.25967529296875,0.046664136019349094,-0.03442337086647749,0.04903736795671284
1769668071757663500,8.26966357421875,0.02311491812765598,0.007967617878317833,0.034849195063114166
1769668071767652600,8.279652587890626,0.016984452548623085,0.010689151796698569,0.011372457885742187
1769668071777641500,8.289641357421875,-0.004968436062335968,-0.03699789752960205,0.04118000551983714
1769668071787630600,8.299630615234374,0.058876551860570905,-0.04828004678338766,0.04027991487495601
1769668071797619500,8.309619384765625,0.03243862679004669,-0.03170212920904159,0.03710135790407657
1769668071807607300,8.319607177734374,-0.017421674922108648,-0.03946984060108662,0.027723434836417434
1769668071817596400,8.329596435546875,0.02277764899730682,-0.07085691251158714,-0.019295652100443837
1769668071827585500,8.33958544921875,0.04274783935844898,-0.03204407451450825,-0.05779321360327303
1769668071837574400,8.349574462890626,-0.01414426068663597,0.041383857528865337,-0.06398541930690407
1769668071847563500,8.3595634765625,-0.0239636439114809,0.021629063484072685,-0.05045293384306133
1769668071857551400,8.36955126953125,0.015205752438306807,0.01589402696341276,-0.006837225608900189
1769668071867540500,8.37954052734375,0.007108370700478554,0.020160159975290297,0.056872153235599396
1769668071877529300,8.389529296875,0.04016542164981365,-0.006234218214452266,0.05108955124616622
1769668071887518500,8.3995185546875,0.04894494043290615,-0.009575053074955939,0.02107186799272895
1769668071897507300,8.40950732421875,0.04754968668222427,0.011786007122695445,0.004589081355929375
1769668071907495400,8.419495361328124,0.02979658784866333,0.028086861321330068,-0.001545183615386486
1769668071917484500,8.429484619140625,0.03438040850758552,0.019353812028467653,0.016710384847596287
1769668071927473700,8.4394736328125,0.035278234130144116,0.003648293374478817,0.03919380013868212
1769668071937462500,8.449462646484376,0.0450385806441307,-0.025734745237231252,0.03801547707431018
1769668071947451400,8.459451416015625,0.048612347477674483,-0.03367401380389928,0.03762750067003071
1769668071957439500,8.469439453125,0.02204524306952953,-0.03647796530872583,0.00864127935618162
1769668071967428400,8.479428466796875,0.017911504265666008,-0.030020167471468448,-0.014686258608847856
1769668071977417500,8.48941748046875,0.020514964762330053,-0.009247136294841765,-0.02009272076226771
1769668071987406600,8.499406494140626,0.029540567260980605,-0.011296762301027774,-0.009691592126712202
1769668071997395500,8.5093955078125,0.04341477883458137,-0.014077040669322013,-0.005844488244503736
1769668072007383300,8.51938330078125,0.0545674564898014,-0.01948211458325386,0.00452661057896912
1769668072017372400,8.529372314453125,0.02809679819345474,-0.022096973256766794,0.010462065042555332
1769668072027361300,8.539361328125,0.010263619861006736,-0.0169271694034338,0.007801759792119264
1769668072037350400,8.549350341796876,-0.007878770551085471,0.0007996259450912475,0.0025822715781629083
1769668072047339500,8.559339599609375,-0.0062134676873683925,0.0049491468399763105,-0.004625760104507207
1769668072057327600,8.56932763671875,-0.028165771776437757,0.03361322352737188,-0.008005904062092303
1769668072067316500,8.57931640625,-0.0002367313653230667,0.009162672881782054,0.0006475041233003139
1769668072077305600,8.5893056640625,-0.008713467809557915,-0.005987257716059685,0.025613383879885075
1769668072087294500,8.59929443359375,-0.029932196927070616,-0.010578384898602963,0.012199994751065969
1769668072097283300,8.609283447265625,0.011546060886979102,-0.005467617756128311,-0.011227861783280968
1769668072107271400,8.619271484375,0.008043021202087402,-0.002288110937178135,-0.0316643544819206
1769668072117260500,8.629260498046875,0.031444939577579496,-0.014679682737588882,-0.0498465654477477
1769668072127249400,8.63924951171875,0.053199675267934794,-0.01222936697602272,-0.044543563668802376
1769668072137238500,8.649238525390626,0.01568447586596012,0.002409399229288101,-0.00680799951441586
1769668072147227600,8.6592275390625,0.011849427747726439,0.013436112417280674,0.015365473044663666
1769668072157215200,8.66921533203125,0.017802783194184303,-0.021552198855578898,0.02706716288477182
1769668072167204400,8.679204345703125,0.00784136115014553,-0.04154050939530134,0.044754503005743025
1769668072177193500,8.689193359375,0.009015665626525879,-0.03509440199583769,0.03130158558413386
1769668072187182300,8.699182373046876,0.0027478374034166334,-0.0017854221120476722,-0.005791077556833625
1769668072197171500,8.70917138671875,-0.00229834007024765,0.017117723539471625,-0.0014184884957969188
1769668072207159600,8.71915966796875,-0.004304419195652008,0.03307750921547413,0.012308204365894198
1769668072217148400,8.7291484375,0.010908932027220725,0.009884265154600143,0.03371960651129484
1769668072227137500,8.739137451171874,0.03704816641211509,-0.024330431397259236,0.03908011063113809
1769668072237126400,8.74912646484375,0.05157587345838546,-0.024487667785584925,0.023868147647753357
1769668072247115300,8.759115234375,0.022838439273834228,0.01155833584666252,0.004842617725580931
1769668072257103400,8.769103271484376,0.021160276928544042,0.02796177363693714,-0.03315795404054224
1769668072267092500,8.779092529296875,0.020501520758867263,0.031107670447230337,-0.024561317543685436
1769668072277081600,8.78908154296875,0.04646949023008346,-0.0006727846950292587,-0.01573321037851274
1769668072287070500,8.799070556640626,0.08062544233202934,-0.0349412572607398,0.0028613807804882523
1769668072297059600,8.8090595703125,0.09461597376167774,-0.03183335437327623,-0.0000992225907742977
1769668072307047400,8.81904736328125,0.06392448289990425,-0.0040092356413602825,-0.0207886671371758
1769668072317036300,8.829036376953125,0.02094166574180126,0.020054069252312182,-0.03099171591736376
1769668072327025400,8.839025390625,0.01657587174773216,0.03585720306187868,-0.024480580457672475
1769668072337014500,8.8490146484375,0.025480478215217588,0.02041091986596584,0.00524294215478003
1769668072347003400,8.85900341796875,0.04367547559738159,-0.016692483864724637,0.013268427700176834
1769668072356991500,8.868991455078126,0.04614858771264553,-0.020524609373509882,0.008288520395755767
1769668072366980600,8.878980712890625,0.023098551514744756,0.0006155015498399734,-0.0011339724659919738
1769668072376969200,8.88896923828125,-0.016171382600069045,0.017928163139522075,-0.027972514226660132
1769668072386958300,8.898958251953125,-0.004142506632208824,0.005649988585710525,-0.03990238679945469
1769668072396947500,8.908947509765625,-0.0034901802033185957,-0.0018584873482584952,-0.01679389841258526
1769668072406935600,8.918935546875,0.006384732601046562,-0.014151274949312209,-0.008235036642849445
1769668072416924400,8.92892431640625,0.019195698857307434,-0.019271394442021847,-0.011330080048739909
1769668072426913500,8.93891357421875,0.009367547804117202,-0.0013999299257993697,-0.010592997945845126
1769668072436902400,8.94890234375,-0.017384850043058394,0.02586217100918293,-0.003282382671535015
1769668072446891500,8.9588916015625,-0.04072247101068496,0.026131635600328443,0.007378273683041334
1769668072456879400,8.96887939453125,-0.036112931388616556,0.0101040453851223,0.020487784494459628
1769668072466868500,8.978868408203125,-0.01917407154738903,-0.00474222609102726,0.0027734833013266322
1769668072476857300,8.988857421875,0.00945522608757019,-0.006512158372998237,-0.021671733582019806
1769668072486846500,8.998846435546875,0.007313537883758545,-0.004202712386846542,-0.030332594421505925
1769668072496835600,9.008835693359375,0.001129296290874481,-0.005313596238195896,-0.011074278656765819
1769668072506823400,9.018823486328126,-0.006662965020537376,0.008335574407875537,-0.016428060774877667
1769668072516812500,9.0288125,-0.0017056348741054533,0.0011456629037857055,0.013165844108536839
1769668072526801400,9.038801513671874,-0.00928220760822296,-0.0014539982005953788,0.003477174591273069
1769668072536790300,9.048790283203125,0.007055763730406761,0.0006464812099933624,-0.013192074528336524
1769668072546779400,9.058779296875,0.020714871248602867,-0.01636719743311405,-0.022029826304689047
1769668072556767500,9.068767578125,0.03553016306459904,-0.011857903315126895,-0.03179521431997418
1769668072566756600,9.078756591796875,0.05473579879403114,-0.00011719663888216018,-0.023945158406719565
1769668072576745500,9.088745361328124,0.07625088050961494,0.014466332247853278,-0.024808716433495283
1769668072586734600,9.098734619140625,0.05219488213956356,0.02413549334704876,-0.008018690478429197
1769668072596723500,9.108723388671875,0.037010757011175156,0.010606734210252761,-0.003002835077792406
1769668072606711300,9.118711181640625,0.029099837756156918,-0.0031719080343842504,-0.007094634436070919
1769668072616700400,9.128700439453125,0.0061035775721073144,0.005363572859764099,-0.012640651190653442
1769668072626689500,9.138689453125,-0.009977788656949996,0.0031631402060389516,0.006970715795457363
1769668072636678400,9.148678466796875,0.001866378393769264,0.009321662835776805,0.007425473825633525
1769668072646667500,9.15866748046875,0.02659574598073959,-0.0011611527338624,0.011910291089490056
1769668072656655600,9.168655517578125,0.014814707294106482,-0.004912614221870899,0.017434753599390385
1769668072666644500,9.17864453125,0.017312369328737257,0.006441138963401317,0.0133053256444633
1769668072676633300,9.18863330078125,0.012633856123685836,0.016150047551095486,0.01312419692389667
1769668072686622500,9.19862255859375,-0.0023819267004728316,0.011825170089304447,0.009854162277281284
1769668072696611300,9.208611328125,-0.03310322817862034,0.003605623276531696,-0.0017526888862252235
1769668072706599400,9.218599365234375,-0.02192600060403347,0.002877309001982212,-0.004484890329092741
1769668072716588500,9.228588623046875,-0.016733692657947538,0.012618950815498828,0.010875906540453433
1769668072726577400,9.238577392578126,-0.008901099336147307,-0.0002919686838984489,0.01214336919300258
1769668072736566500,9.24856640625,0.01851999155282974,-0.008544540983438492,0.0029113574020564552
1769668072746555600,9.2585556640625,0.00693944387435913,0.0022840192839503285,0.007131240119412541
1769668072756543500,9.26854345703125,0.0215630125105381,-0.010426993729174137,0.02038921949081123
1769668072766532400,9.278532470703125,0.04257189826965332,-0.014679390476644039,0.006517565200477838
1769668072776521500,9.288521484375,0.047208910420536994,-0.006412497390806675,-0.00022197218760848045
1769668072786510600,9.298510498046875,0.04781272153258324,0.0022679449319839475,-0.0014020488176494836
1769668072796499500,9.30849951171875,0.03753390410244465,0.009366671021282672,-0.007135331772640347
1769668072806487600,9.318487548828125,0.0029880759000778198,0.01822597704231739,-0.022996114053577182
1769668072816476400,9.328476318359375,0.022367899152636525,0.012655191172659397,-0.009945128496363758
1769668072826465300,9.33846533203125,0.029365795215964316,-0.0012596446722745894,0.008122589244320988
1769668072836454400,9.348454345703125,0.04064472959935665,-0.014104805459082126,0.0069184010863304135
1769668072846442500,9.3584423828125,0.04075403519272804,-0.0056724926784634585,0.012929185808449983
1769668072856431400,9.368431396484375,0.025008769050240517,0.0054535892307758325,-0.00987615491338074
1769668072866420500,9.37842041015625,0.02369067218899727,0.010535130278766154,-0.010855375209078193
1769668072876409600,9.38840966796875,0.028640403550863263,0.02882452794611454,-0.005507584440335631
1769668072886398500,9.3983984375,0.04438566969335079,0.03841477859020233,-0.014888503182679414
1769668072896387300,9.40838720703125,0.021228081467747687,0.028369477654993532,-0.0064613780338317155
1769668072906375400,9.41837548828125,-0.004302665629982948,0.0211032860442996,0.008125657984241842
1769668072916364500,9.428364501953125,-0.04097849159836769,0.03212269270867109,0.02059277923889458
1769668072926353400,9.438353515625,-0.033712884509563446,0.018590426440536975,0.027309228012338278
1769668072936342500,9.448342529296875,-0.019555764341354368,0.011100362946093081,0.03455605733543634
1769668072946330600,9.45833056640625,0.00007540332376956939,0.030392800176143646,0.01668846527673304
1769668072956319500,9.468319580078125,-0.009822305834293365,0.033653847798705096,0.0024460049126297234
1769668072966308400,9.478308349609375,-0.022272037562727928,0.03918722426742315,0.008325929796695709
1769668072976297500,9.48829736328125,-0.02686637961566448,0.032146950367093086,0.014410145081207155
1769668072986286300,9.498286376953125,-0.0108534024477005,0.00032119477838277817,0.011999357612431049
1769668072996275500,9.508275390625,0.027457915768027304,0.010429331816732883,0.006478767560049891
1769668073006263600,9.518263671875,0.007946575090289116,0.003713759826123714,0.014738573317974806
1769668073016252400,9.52825244140625,0.012220599147677421,-0.02559241415709257,0.04781235620640218
1769668073026241500,9.538241455078126,0.052450318205356596,-0.04345189597457647,0.05861782785914838
1769668073036230700,9.548230712890625,0.044589667832851405,-0.026146540908515453,0.04420907101742923
1769668073046218500,9.558218505859376,0.044236032089591024,-0.013472645035386085,0.019134689385071395
1769668073056207400,9.568207275390625,0.041140404161810876,-0.0037248657420277595,-0.03403196039609611
1769668073066196500,9.578196533203124,0.025846973440051078,0.02259615495055914,-0.03765139300227165
1769668073076185300,9.588185302734376,0.023252280771732328,0.016306991678476334,-0.012666004827618598
1769668073086174500,9.598174560546875,-0.008624620482325554,0.026368659226596355,0.04227291532307863
1769668073096162600,9.60816259765625,-0.008346388062834739,0.060631871095299716,0.05121164325587451
1769668073106151400,9.6181513671875,0.028135376638174055,0.07395897018015385,0.03678768884502351
1769668073116140300,9.628140380859374,0.050022214275598526,0.07579670700132847,0.030941447034850716
1769668073126129400,9.63812939453125,0.017460253366827962,0.02947802341878414,0.018974165061116217
1769668073136118500,9.648118408203125,0.034361119285225866,-0.007461421921849251,0.031314372000470755
1769668073146107400,9.658107421875,0.029120880544185636,-0.02623947988897562,0.037535876863822336
1769668073156095500,9.668095458984375,0.04614274249374866,-0.051313130868971345,0.034116789135336875
1769668073166084600,9.678084716796874,0.040491584864258766,-0.06102642337083816,-0.002598638191074133
1769668073176073500,9.688073486328125,0.026557167536020276,-0.06330021352171898,-0.011573971807211637
1769668073186062300,9.698062255859375,0.031075521743297575,-0.08534545659124851,-0.010934797120839357
1769668073196050400,9.708050537109376,0.013365093007683753,-0.0635521424561739,-0.01538359322324395
1769668073206039600,9.71803955078125,0.023648002091050148,-0.04552957903146743,0.004223755174875259
1769668073216028400,9.7280283203125,0.02242693586349487,-0.033766076001524925,-0.011181173097342251
1769668073226017500,9.738017578125,0.04297404932975769,-0.03509732460528612,-0.01898249449804425
1769668073236006400,9.74800634765625,0.07205576690733433,-0.023998715224862098,-0.02535465987846255
1769668073245994500,9.757994384765626,0.0391740725249052,-0.0042900984093546864,-0.010190993016213177
1769668073255983400,9.7679833984375,0.020769816306233403,-0.005617839881777763,-0.0004478168327361345
1769668073265972500,9.777972412109374,-0.010911854636669159,-0.01198971300125122,0.019603183679655193
1769668073275961300,9.78796142578125,-0.01843815848827362,0.0033390812948346136,0.015991495988517998
1769668073285950500,9.797950439453125,-0.03734334996640682,0.021208207723498344,0.02306691426746547
1769668073295938600,9.8079384765625,-0.023023148190975187,0.01767740324884653,0.014171514019742606
1769668073305927400,9.817927490234375,-0.04566051193475723,0.010346621969342232,0.005466887103766202
1769668073315916500,9.82791650390625,-0.04802899463176727,-0.00017331074029207228,0.013298457512259483
1769668073325905700,9.83790576171875,-0.010625438910722733,0.0017579495832324027,-0.0014598434194922447
1769668073335894300,9.847894287109375,0.009375731110572815,0.02273380985558033,-0.013876622726395725
1769668073345882400,9.85788232421875,0.049530046844482416,0.010221826545894146,-0.05336874822452664
1769668073355871500,9.86787158203125,0.05901566807031631,-0.0030947511449456212,-0.045949411878734824
1769668073365860400,9.8778603515625,0.049209144327044485,0.0014694880306720733,-0.026397739190608262
1769668073375849500,9.887849365234375,0.018894085562229157,-0.0074389178290963165,-0.015926687123998997
1769668073385838600,9.897838623046875,0.005446574968099594,0.012183774268627165,-0.013402429343387484
1769668073395826400,9.907826416015626,-0.01594809523820877,0.02560673494338989,-0.01673654220215976
1769668073405815300,9.917815185546875,-0.011188918012380599,-0.010149930353462696,0.006068871584907174
1769668073415804400,9.927804443359374,0.036325697356462475,-0.006973930665850639,-0.005032733470201492
1769668073425793500,9.93779345703125,0.020137948143482208,0.0006347907721996307,-0.014224413250759243
1769668073435782400,9.947782470703125,0.015887304961681364,0.023280630083382128,-0.005842588548362255
1769668073445770500,9.9577705078125,0.006295885273814201,0.019043430905044078,-0.00951126712374389
1769668073455759600,9.967759521484375,0.00805354259610176,0.007338380064070224,0.004485547916218638
1769668073465748500,9.97774853515625,0.014867898786067962,0.0032987492844462393,-0.0037722850803285834
1769668073475737600,9.987737548828125,0.008071662774682044,-0.0020686229676008224,-0.010080956770479679
1769668073485726500,9.9977265625,0.024443536382913588,0.004914075526595115,-0.013994696148112416
1769668073495714600,10.007714599609375,0.0285386967420578,0.0045788522228598595,-0.00606412234455347
1769668073505703700,10.01770361328125,0.04104278900623321,0.006125789403915405,-0.019294483056664466
1769668073515692800,10.02769287109375,0.02723053675293922,0.01854746408164501,-0.031528599273040886
1769668073525681700,10.037681640625,0.01037935519516468,0.02421469606310129,-0.03231434282325208
1769668073535670800,10.0476708984375,0.0012432780593633651,-0.007566343601047992,-0.024615458883717654
1769668073545658600,10.05765869140625,0.007104279047250747,-0.006648351973295211,-0.00995506536848843
1769668073555647500,10.0676474609375,0.018758476483821868,-0.001316051034629345,0.0036520927667617795
1769668073565636600,10.07763671875,0.020386369946599005,0.005197568643093109,-0.0007831132017076015
1769668073575625700,10.087625732421875,0.010931728380918502,0.01035012910068035,-0.01584697295129299
1769668073585614600,10.097614501953124,0.013497779476642607,0.020178280153870583,-0.02444806642755866
1769668073595602700,10.107602783203125,0.014750994408130646,0.025746727935969826,-0.0303931655023247
1769668073605591800,10.117591796875,0.009278700476884841,0.02486994510143995,-0.029435645581781862
1769668073615580700,10.12758056640625,0.01741173804998398,0.018319500544667244,-0.03075388857349753
1769668073625569800,10.13756982421875,0.007852467066049576,0.0017100187882781027,-0.010726195871457457
1769668073635558700,10.14755859375,0.0027718028008937834,-0.02445259647220373,-0.00278393163010478
1769668073645546800,10.157546630859375,0.014245382973551749,-0.02208586734086275,-0.009968655502423644
1769668073655535600,10.16753564453125,0.009432429733872413,0.01209521920233965,-0.0045078328132629394
1769668073665524700,10.177524658203126,0.026933599632978436,0.021344109062850475,-0.01071319025941193
1769668073675513900,10.187513916015625,0.016897358787059783,0.015746727447211742,-0.0012436433855444193
1769668073685502700,10.197502685546874,0.012611644291877746,0.013157587736845016,0.00005538344904780387
1769668073695490600,10.207490478515625,-0.005033317992091179,-0.0018134791627526282,0.0017765081532299517
1769668073705479700,10.217479736328125,-0.003620528584718704,-0.008840601320564747,-0.004798340192437172
1769668073715468500,10.227468505859376,0.002983399724960327,0.021673487147688863,-0.00826660082489252
1769668073725457700,10.237457763671875,0.01454641174674034,0.01595423271805048,-0.02108428908288479
1769668073735446800,10.24744677734375,0.025360651227831838,0.005902794302999973,-0.020405220777541398
1769668073745435000,10.257434814453125,0.03310615078806877,0.00009498480707406997,-0.016248247228562832
1769668073755423700,10.267423828125,0.00010579846203327178,0.01091653081178665,0.011863602403551339
1769668073765412900,10.277412841796876,-0.003883563435077667,0.006489946541190147,0.01668839221149683
1769668073775401500,10.2874013671875,-0.02308101585805416,-0.00017097265273332594,0.007984715143591165
1769668073785390600,10.297390625,0.0037526305317878723,0.002853343604505062,-0.005630699363350868
1769668073795378700,10.307378662109375,0.012924948024749755,0.0034866730719804763,-0.004601794707030058
1769668073805367800,10.317367919921875,0.0381762936592102,-0.007279051092267036,-0.028543445982411503
1769668073815356700,10.327356689453126,0.03968786726593971,0.005064589913189411,-0.026091449720412493
1769668073825345800,10.337345703125,0.02584989604949951,0.012821195389330386,-0.028646760226413607
1769668073835334700,10.347334716796874,0.0109013332426548,0.0021411036819219587,-0.013374883749336004
1769668073845322500,10.357322509765625,0.014751578930020331,-0.01083206739872694,-0.008137713748216629
1769668073855311600,10.3673115234375,0.024280454775691032,-0.010275018037855625,-0.015523878476768732
1769668073865300700,10.37730078125,0.0193453364610672,0.01135930614322424,-0.021673706343397495
1769668073875289600,10.38728955078125,0.020602058523893355,0.017486849112808702,-0.013556085535138845
1769668073885278700,10.39727880859375,0.003406593573093414,0.013388766144216059,-0.013601605177298188
1769668073895266800,10.407266845703125,0.01512158128619194,-0.006639291884005069,-0.02044979057163
1769668073905255700,10.417255615234374,0.036463060000538824,0.005040916776657104,-0.02407609131000936
1769668073915244800,10.427244873046876,0.0349696065723896,0.006227788473665714,-0.04161488980576396
1769668073925233700,10.437233642578125,0.01025952820777893,0.006272504398226738,-0.037245954006537796
1769668073935221800,10.4472216796875,0.0007563713252544403,-0.0003688333123922348,-0.022213146982342002
1769668073945210600,10.457210693359375,-0.007906827601790428,-0.009984802919626235,-0.006873465966060757
1769668073955199700,10.46719970703125,-0.0027870003700256347,-0.0009147767573595046,-0.017810747304931283
1769668073965188900,10.47718896484375,-0.002715104177594185,0.02036912655085325,-0.020291458204761147
1769668073975177700,10.487177734375,-0.0010462941825389862,0.01021247419565916,-0.030018413905799388
1769668073985166800,10.497166748046874,-0.00011456629037857055,0.01184855096489191,-0.01659523403532803
1769668073995154700,10.50715478515625,-0.002755436187982559,0.009381284068524837,0.0031138211715966463
1769668074005143600,10.5171435546875,0.0025210429102182387,0.026965163815021512,-0.011267901532724499
1769668074015132700,10.527132568359375,0.005716624081134796,0.008984978227317333,-0.026323431845381856
1769668074025121800,10.537121826171875,0.013020809614658355,-0.05143120429068804,0.011315613131970166
1769668074035110700,10.547110595703124,0.056528527429699896,-0.06412117451578378,0.024286957581713793
1769668074045098800,10.5570986328125,0.030282910060882566,0.007121522442996501,0.0009174071058630943
1769668074055087900,10.567087890625,0.008183306455612183,0.009145137225091457,0.00649381899870932
1769668074065076500,10.577076416015625,0.050234395721554755,-0.002367313653230667,-0.016784619127586484
1769668074075065600,10.587065673828125,0.06989595852494239,-0.009824936182796954,-0.03125299720205366
1769668074085053700,10.5970537109375,0.037087329378724096,0.01150134496241808,-0.023131284740567207
1769668074095042800,10.607042724609375,0.007423427999019622,-0.009641396309435366,-0.00466506920158863
1769668074105031700,10.61703173828125,0.0020300445228815076,-0.006079612174630164,-0.0014470570031553506
1769668074115020800,10.627020751953125,0.0000023380875587463378,0.009500818794965744,0.0230367383249104
1769668074125009700,10.637009765625,0.014085223975777625,0.005480184976756572,-0.0006611673224717378
1769668074134997500,10.64699755859375,0.03683306235671043,-0.0022457331001758574,-0.006060615213215351
1769668074144986600,10.656986572265625,0.049070612639188764,-0.0004912906482815742,-0.0028243367057293653
1769668074154975700,10.666975830078124,0.06650982321798801,0.005016659118235111,0.01571633230894804
1769668074164964600,10.676964599609375,0.045132104146480556,-0.003613514322042465,0.027358473981544375
1769668074174953700,10.68695361328125,0.021265490868687627,0.0030070728614926337,0.03239975608438253
1769668074184941800,10.69694189453125,-0.0014905308187007902,-0.005173603245615959,0.03268076498284936
1769668074194930700,10.7069306640625,0.020434300741553304,-0.019364625683426857,0.010574804702028632
1769668074204919800,10.716919921875,0.028615853631496428,-0.013514438350498675,0.011230419066548347
1769668074214908700,10.72690869140625,0.016881576696038247,-0.013194997137784957,-0.002123714155703783
1769668074224897500,10.7368974609375,0.02404313888847828,0.00039952071160078047,0.00037950083687901493
1769668074234885600,10.7468857421875,0.013209025663137435,0.010342822577059268,-0.0019340368025004863
1769668074244874800,10.756874755859375,0.011216975063085555,-0.0018339374288916586,0.016360840757563708
1769668074254863600,10.766863525390624,0.03241115426123142,-0.01035977371186018,0.015894538420066235
1769668074264852700,10.776852783203125,0.012184358790516853,-0.0015416764840483666,-0.018656842740252613
1769668074274841900,10.786841796875,-0.024474516043066975,0.027756314192712305,-0.0205767048869282
1769668074284829700,10.79682958984375,-0.008509469670057297,0.015977905854582787,-0.014799875051155686
1769668074294818600,10.806818603515625,-0.005764554876089096,0.015342530560493468,0.0014923574496060609
1769668074304807700,10.8168076171875,0.015137947899103164,0.008392565292119979,0.010462576499208807
1769668074314796800,10.826796875,0.011296470040082931,0.006849427503347397,0.0028738018706440925
1769668074324785700,10.83678564453125,0.025238486152887343,0.010120411998033523,-0.019016615963354706
1769668074334773800,10.846773681640625,-0.006584054565429687,0.0047851884499192235,-0.004384790955483913
1769668074344763000,10.856762939453125,0.0055921209186315535,0.01525397549420595,0.014209800203517078
1769668074354751500,10.86675146484375,0.019054829081892967,0.022345687320828436,0.007132774489372968
1769668074364740600,10.87674072265625,0.023177461969852445,0.014813538250327109,0.005542948014661669
1769668074374729700,10.886729736328125,0.03639525546133518,-0.015623101067543029,0.01857135641388595
1769668074384717800,10.8967177734375,0.0037520460098981853,-0.018243512699007987,0.011270751076936722
1769668074394706700,10.906706787109375,-0.009328969359397888,0.004365209472179413,0.01437763105109334
1769668074404695800,10.91669580078125,-0.005866261684894561,0.01042377885878086,0.026308161211013793
1769668074414684700,10.9266845703125,0.006263736569881439,-0.005725976431369781,0.027956951331347225
1769668074424673800,10.936673828125,0.0025379940450191494,-0.00632511136829853,0.02930778141841292
1769668074434661600,10.94666162109375,0.005670446851849555,0.002085574102401733,0.02624298702031374
1769668074444650800,10.956650634765625,0.02702712313532829,0.00393266327381134,0.012675211047381162
1769668074454639600,10.9666396484375,0.01867372080981731,0.0003752630531787872,0.015040405808761715
1769668074464628700,10.976628662109375,0.022094342908263204,-0.0004065349742770195,0.018424495289102196
1769668074474617600,10.98661767578125,0.03182897045910358,-0.000009060089290142059,0.01749905100725591
1769668074484605700,10.996605712890625,0.008217208725214004,0.00845920078754425,0.01643449051566422
1769668074494594000,11.006593994140625,0.009759177470207214,0.008560323074460028,0.026921763064712285
1769668074504583200,11.016583251953126,0.026003040784597396,0.010521686275303364,0.02895436487086117
1769668074514572000,11.026572021484375,0.03826572550833225,-0.0036909634724259376,0.0119862058699131
1769668074524561200,11.03656103515625,0.04044482311308384,-0.01661737280189991,0.003177095666155219
1769668074534549200,11.04654931640625,0.04727145426273346,-0.006351122592389583,-0.005256824549660086
1769668074544538400,11.056538330078125,0.043912206962704654,0.004548749345541,-0.015563187573850154
1769668074554527200,11.06652734375,0.03167465668022632,0.004517185163497924,-0.015149711402133106
1769668074564516400,11.076516357421875,0.02156125894486904,0.01333820500075817,-0.001012099651992321
1769668074574505200,11.086505126953124,0.01792319470345974,0.007896890729665755,0.013400894973427056
1769668074584493000,11.0964931640625,0.03895253872871399,0.002778232541680336,0.03145926036387682
1769668074594482200,11.106482177734375,0.042238720792531964,0.0036120530173182484,0.008038710353150963
1769668074604471300,11.11647119140625,0.019877835902571677,-0.005795826797187328,-0.006375234120339155
1769668074614460200,11.126460205078125,0.01530979733467102,0.008442834174633025,-0.017304770544171334
1769668074624449300,11.13644921875,0.003596563187241554,0.012292787601053713,-0.02015424169115722
1769668074634437400,11.146437255859375,0.025624855121970175,0.022721827156841755,-0.0023238398376852275
1769668074644426000,11.156426025390624,0.03657528820335865,0.013739479278028011,0.0014673691388219594
1769668074654415000,11.1664150390625,0.02916121255457401,0.003945230494439601,0.02538476275578141
1769668074664404200,11.176404296875,0.01626841323375702,-0.0038090368941426276,0.013479147841408847
1769668074674392300,11.186392333984376,0.01257657297849655,-0.02476326985657215,-0.002265606844425201
1769668074684381200,11.196381103515625,0.0066617959767580025,-0.012955343163013458,-0.0118849374525249
1769668074694370300,11.206370361328124,5.845218896865844e-7,0.021189795283973217,-0.021412498123943805
1769668074704359200,11.216359130859376,0.003551555001735687,0.007095803479850292,-0.01651800408065319
1769668074714348300,11.226348388671875,0.024303251129388807,0.006783668790757656,0.0103740944981575
1769668074724336000,11.236336181640626,0.015949264281988142,-0.0025219196930527685,0.014653379252552985
1769668074734325200,11.2463251953125,-0.0049193362236022945,-0.011045417888462543,0.008830664448440075
1769668074744314000,11.256314208984374,0.002658405554294586,0.010220365241169928,0.0066422144934535025
1769668074754303200,11.26630322265625,0.013487842604517936,0.008077800254523754,0.009597557167708872
1769668074764292400,11.276292236328125,0.006740121909976005,0.005347206246852874,0.021410525362566112
1769668074774280200,11.2862802734375,0.017070961788296698,0.0058753217741847035,0.003756429924070835
1769668074784269000,11.29626904296875,0.027075053930282592,0.00017535656690597534,0.021010347063839436
1769668074794258200,11.306258056640624,0.035145547661185265,-0.006069967563450336,0.011682181422039866
1769668074804247000,11.3162470703125,0.024081717333197594,0.0007844283759593963,0.002947524693980813
1769668074814236200,11.326236083984375,0.0297977568924427,0.008361293371021747,-0.013969561706855892
1769668074824224300,11.336224365234376,0.011937690553069114,0.007912965081632136,-0.006049582362547517
1769668074834213400,11.34621337890625,0.0013619360029697416,0.009808861830830573,0.00909121508076787
1769668074844202200,11.3562021484375,0.018141221368312834,0.006676116763055324,0.005580211285129189
1769668074854191400,11.36619140625,0.025794950991868973,0.004307634066045284,0.0060475365359336135
1769668074864180000,11.376179931640625,0.031710312515497205,0.013117255726456641,-0.0033585897129029033
1769668074874168000,11.38616796875,0.023146482309699058,-0.004658347199857235,-0.015209113439172505
1769668074884157200,11.3961572265625,0.01704991900026798,0.004455225843191146,-0.017048823021724818
1769668074894146300,11.406146240234374,0.021464812833070755,0.0001958148330450058,-0.004307195674628019
1769668074904135200,11.41613525390625,-0.00042319384813308713,0.011452245123684406,0.0008547901984304189
1769668074914124300,11.426124267578125,0.005846387940645218,0.01802110211998224,0.017989318742230535
1769668074924112400,11.4361123046875,0.00670680416226387,0.010163374356925487,0.010962415780127048
1769668074934101000,11.44610107421875,0.011526771664619444,0.021335341234505176,0.007683540239930152
1769668074944090000,11.456090087890624,0.013477905732393264,0.026856735004484652,-0.005819353803247213
1769668074954079200,11.466079345703125,0.0036076691031455992,0.0144718852058053,-0.012186404617130756
1769668074964068000,11.476068115234375,0.010724223110079764,0.002555237440764904,0.007692527263984084
1769668074974056200,11.48605615234375,0.027112463331222532,-0.005239654219150543,0.016399200006574393
1769668074984045300,11.49604541015625,0.012372574838995933,0.013390811970829962,-0.011004647486656903
1769668074994034200,11.5060341796875,-0.004082885399460792,0.025508827526867388,-0.025058745671808717
1769668075004023300,11.516023193359375,0.000030979660153388974,-0.0409825832515955,0.02053220815807581
1769668075014012200,11.52601220703125,0.040277649852633476,-0.03570902676284313,0.05265767734572291
1769668075024000300,11.536000244140626,-0.008745616513490677,0.037187574882805344,0.010470467544719576
1769668075033989000,11.545989013671875,-0.007226444122195244,0.034658348666131496,-0.03608260931558907
1769668075043978200,11.555978271484374,0.04343465257883072,-0.00895896700322628,-0.03989749142862856
1769668075053967400,11.56596728515625,0.04987140762805938,0.00987520506531,-0.01350157886892557
1769668075063956200,11.575956298828125,0.026720249143242836,0.027141104903817177,-0.02107099120989442
1769668075073944000,11.585944091796875,-0.008618775263428687,-0.001743044275045395,-0.0063449120473116636
1769668075083933200,11.59593310546875,-0.014237199667096138,0.02366349192112684,0.009364113738015293
1769668075093922000,11.605922119140626,-0.01910685153007507,0.05013385795652866,0.016034531412646172
1769668075103911200,11.6159111328125,0.01651800408065319,0.0446530884578824,0.024350962728634476
1769668075113900300,11.625900390625,0.046070261779427524,0.018874504078924655,-0.0009151420835405588
1769668075123888000,11.63588818359375,0.04399871620237827,-0.015400690488517284,0.010326529029384255
1769668075133877200,11.645877197265625,0.04897241296172142,-0.011878946103155612,0.015069558838009834
1769668075143866400,11.655866455078124,0.018084522745013237,0.011548691235482692,0.016703297519683837
1769668075153855000,11.66585498046875,0.010212181934714317,0.020486323189735412,-0.0070855012815445656
1769668075163843000,11.675843017578124,0.015399229183793066,0.010797288346290589,-0.004377046040445566
1769668075173832200,11.685832275390625,0.018489011892676353,0.0012774725899100303,0.004837064767628908
1769668075183821300,11.6958212890625,0.0328477921128273,-0.018378244994580746,0.007194295418262481
1769668075193810200,11.70581005859375,0.03185468942224979,-0.02689005275219679,0.00686572105102241
1769668075203799300,11.71579931640625,0.01097498300075531,-0.022227613899111747,0.0077503949310630555
1769668075213787400,11.725787353515624,-0.008282090654969215,-0.003840601076185703,-0.001062076273560524
1769668075223776000,11.73577587890625,0.03463935170471668,-0.0059247138738632195,-0.005714139863103628
1769668075233765000,11.74576513671875,0.036440263646841047,-0.012259762114286423,-0.0011271043337881565
1769668075243754200,11.755754150390626,0.024938626423478126,-0.008318915534019469,-0.005470321169868111
1769668075253743000,11.7657431640625,0.03088847473859787,0.00455313325971365,-0.010112813213467598
1769668075263731200,11.775731201171874,0.01106383032798767,0.00819996532946825,-0.005692074161767959
1769668075273720300,11.78572021484375,-0.01943769091963768,0.004322831635177135,0.024669746354222297
1769668075283709200,11.795709228515625,-0.011783376774191856,0.0024143676653504372,0.013375687466934322
1769668075293698300,11.8056982421875,0.012148118433356284,-0.005715747298300266,0.00808006527684629
1769668075303687200,11.815687255859375,0.04492927505075931,-0.010307166741788387,-0.012842311242595314
1769668075313675300,11.82567529296875,0.009649287354946136,-0.02044716022312641,-0.009201543587446213
1769668075323664100,11.8356640625,0.01525660584270954,-0.007905658558011055,-0.00016746552139520644
1769668075333653200,11.8456533203125,0.022620412608981132,-0.012556699234247208,-0.0008461685005575418
1769668075343642000,11.85564208984375,0.02944879732429981,-0.009152151487767695,-0.001978022074699402
1769668075353631200,11.86563134765625,0.051935938942432404,-0.023619945040345192,-0.0009149228878319263
1769668075363619000,11.875619140625,0.017925532791018484,-0.01572510013729334,0.004217471564561128
1769668075373608200,11.885608154296875,-0.0000865092396736145,0.019620938532054422,0.00657192573621869
1769668075383597000,11.89559716796875,-0.011491115829348563,0.026382395491003987,-0.005400324673578143
1769668075393586200,11.905586181640626,0.0035620763957500455,0.011671733093261718,0.008351210368424653
1769668075403575300,11.9155751953125,0.009399111986160278,-0.006480301930010319,0.023867270864918827
1769668075413563100,11.925563232421876,0.0409299762815237,-0.005576631088554859,0.030269392992183564
1769668075423552300,11.93555224609375,0.021233342164754865,0.0006336217284202575,0.009172244427725672
1769668075433541400,11.945541259765625,-0.004514847075939178,0.01636252125799656,-0.006531301464885473
1769668075443530200,11.9555302734375,-0.00873977129459381,0.030505905161798,-0.006903276582434773
1769668075453519000,11.96551904296875,-0.008307809618115424,0.02279255430549383,-0.001758241844177246
1769668075463507200,11.975507080078126,-0.0013853168785572052,0.013318915778398513,0.006760872437059879
1769668075473496300,11.985496337890625,0.0136941788315773,0.006213759948313236,0.004009381771832704
1769668075483485200,11.995485107421874,0.03366320014894009,-0.001431201846897602,-0.0003762129012495279
1769668075493474300,12.005474365234376,0.024443536382913588,-0.0008490180447697638,-0.007555310750380158
1769668075503463000,12.015462890625,0.03107785983085632,0.011419219636917114,-0.028350919084995985
1769668075513450800,12.02545068359375,0.05389291822910309,0.004792494973540306,-0.014751505864784121
1769668075523439900,12.03543994140625,0.04831482583582401,0.007815057665109634,-0.001029489178210497
