time,seconds_elapsed,z,y,x
1769668063556859400,0.068859375,-0.040890730917453766,-0.04744847118854523,-0.06677776575088501
1769668063566848500,0.0788486328125,-0.03170562908053398,-0.01983814872801304,-0.08496953547000885
1769668063576836600,0.088836669921875,-0.021687882021069527,-0.017958490177989006,-0.11945027858018875
1769668063586825700,0.09882568359375,-0.0006390121998265386,-0.011853291653096676,-0.16938064992427826
1769668063596814300,0.108814453125,0.01690189726650715,-0.025182679295539856,-0.22814783453941345
1769668063606803500,0.118803466796875,0.04364372044801712,-0.03406129404902458,-0.29542025923728943
1769668063616792300,0.128792236328125,0.06636740267276764,-0.0051902299746870995,-0.3656454086303711
1769668063626780400,0.138780517578125,0.10065246373414993,0.013700658455491066,-0.4291077256202698
1769668063636769500,0.14876953125,0.1353992521762848,-0.009416910819709301,-0.504619836807251
1769668063646758700,0.158758544921875,0.1800873577594757,-0.04328607767820358,-0.5937559008598328
1769668063656747500,0.16874755859375,0.20965057611465454,-0.08316584676504135,-0.694742739200592
1769668063666736600,0.178736572265625,0.2467394471168518,-0.17506439983844757,-0.8083900213241577
1769668063676724500,0.188724365234375,0.2950587868690491,-0.21942280232906342,-0.942264199256897
1769668063686713300,0.19871337890625,0.306496262550354,-0.2883787751197815,-1.0662037134170532
1769668063696702500,0.208702392578125,0.30291616916656494,-0.24207518994808197,-1.1785494089126587
1769668063706691600,0.218691650390625,0.2844928205013275,-0.2525607645511627,-1.335973858833313
1769668063716679700,0.2286796875,0.2628399729728699,-0.3274190127849579,-1.5254521369934082
1769668063726668500,0.23866845703125,0.24937614798545837,-0.3678836226463318,-1.6748955249786377
1769668063736657400,0.248657470703125,0.28614774346351624,-0.360775887966156,-1.8407633304595947
1769668063746646500,0.258646484375,0.3081744313240051,-0.26609253883361816,-2.048633337020874
1769668063756635400,0.268635498046875,0.3141319155693054,-0.1377822458744049,-2.2600858211517334
1769668063766623500,0.27862353515625,0.3479742705821991,-0.0665382370352745,-2.441523551940918
1769668063776612600,0.288612548828125,0.3934674561023712,-0.024599578231573105,-2.6728720664978027
1769668063786601500,0.2986015625,0.36245813965797424,0.045079875737428665,-2.4827446937561035
1769668063796590600,0.308590576171875,0.36204081773757935,-0.1831871122121811,-2.1847281455993652
1769668063806579700,0.318579833984375,0.32013794779777527,-0.20500212907791138,-1.911184310913086
1769668063816567300,0.3285673828125,0.34674665331840515,0.13181504607200623,-1.7326034307479858
1769668063826556400,0.338556396484375,0.43063655495643616,0.614103376865387,-1.5016639232635498
1769668063836545500,0.348545654296875,0.5077744722366333,0.9213972687721252,-1.3382431268692017
1769668063846534400,0.358534423828125,0.5452018976211548,0.9209001064300537,-1.1890655755996704
1769668063856523500,0.3685234375,0.5320627093315125,0.7097292542457581,-1.025853157043457
1769668063866511600,0.37851171875,0.4709964096546173,0.4964991807937622,-0.8743281960487366
1769668063876500500,0.38850048828125,0.3945911228656769,0.34474053978919983,-0.7741525769233704
1769668063886489300,0.3984892578125,0.32807934284210205,0.2753490209579468,-0.7006628513336182
1769668063896478500,0.408478515625,0.26480451226234436,0.23706872761249542,-0.6731398701667786
1769668063906467300,0.41846728515625,0.21726492047309875,0.19057154655456543,-0.6548548936843872
1769668063916455400,0.428455322265625,0.17716969549655914,0.18567292392253876,-0.657115638256073
1769668063926444500,0.438444580078125,0.052506592124700546,0.09743482619524002,-0.6392056941986084
1769668063936433700,0.44843359375,-0.0312732569873333,0.007893498055636883,-0.5440760254859924
1769668063946422500,0.458422607421875,-0.0642661452293396,-0.05992178991436958,-0.5097500085830688
1769668063956411600,0.46841162109375,-0.08766680955886841,-0.07617425918579102,-0.49764779210090637
1769668063966399500,0.4783994140625,-0.10881456732749939,-0.08592433482408524,-0.46728184819221497
1769668063976388400,0.488388427734375,-0.11127746105194092,-0.12254945933818817,-0.43823474645614624
1769668063986377500,0.49837744140625,-0.09214407205581665,-0.1603989601135254,-0.4026140570640564
1769668063996366600,0.50836669921875,-0.05935762822628021,-0.17970581352710724,-0.4017639756202698
1769668064006355500,0.51835546875,-0.03441552072763443,-0.16462980210781097,-0.4204563498497009
1769668064016343600,0.528343505859375,-0.0013148252619430423,-0.17070846259593964,-0.4041820168495178
1769668064026332400,0.53833251953125,0.0001869754632934928,-0.1691332459449768,-0.3853849470615387
1769668064036321300,0.5483212890625,-0.005268243607133627,-0.1446840912103653,-0.3578827381134033
1769668064046310400,0.558310302734375,0.00214310921728611,-0.11670728027820587,-0.30226653814315796
1769668064056299500,0.568299560546875,-0.0008771818247623742,-0.10032777488231659,-0.25438717007637024
1769668064066287600,0.57828759765625,0.0013189003802835941,-0.07715017348527908,-0.20483919978141785
1769668064076276500,0.5882763671875,0.00034125393722206354,-0.047625306993722916,-0.16036547720432281
1769668064086265600,0.598265625,0.003578288946300745,-0.022379649803042412,-0.1325581669807434
1769668064096254500,0.60825439453125,-0.0012127378722652793,-0.0339265838265419,-0.11735416948795319
1769668064106243600,0.61824365234375,-0.018934432417154312,-0.07581207901239395,-0.11803630739450455
1769668064116231400,0.6282314453125,-0.036032192409038544,-0.10747599601745605,-0.12915658950805664
1769668064126220500,0.638220458984375,-0.049352481961250305,-0.12603607773780823,-0.13679081201553345
1769668064136209400,0.64820947265625,-0.05538773536682129,-0.1397058218717575,-0.1444615125656128
1769668064146198500,0.658198486328125,-0.05911784991621971,-0.15029355883598328,-0.15358422696590424
1769668064156186600,0.6681865234375,-0.06254560500383377,-0.15519402921199799,-0.1673612892627716
1769668064166175500,0.678175537109375,-0.06526774913072586,-0.15463651716709137,-0.1580265313386917
1769668064176164400,0.688164306640625,-0.05775205045938492,-0.15164871513843536,-0.14962665736675262
1769668064186153500,0.698153564453125,-0.05334150046110153,-0.15517228841781616,-0.13112053275108337
1769668064196142300,0.708142333984375,-0.04560475051403046,-0.11265996843576431,-0.11902286112308502
1769668064206131500,0.71813134765625,-0.03435590863227844,-0.07840540260076523,-0.11391819268465042
1769668064216119600,0.72811962890625,-0.025455361232161522,-0.07140208780765533,-0.10670741647481918
1769668064226108700,0.738108642578125,-0.01760018989443779,-0.06580513715744019,-0.1056722030043602
1769668064236097500,0.74809765625,-0.01263445895165205,-0.05127972364425659,-0.09729496389627457
1769668064246086700,0.758086669921875,-0.010047066025435925,-0.028722628951072693,-0.09046941995620728
1769668064256074500,0.768074462890625,-0.012931535951793194,-0.0309293232858181,-0.06846132129430771
1769668064266063400,0.7780634765625,-0.019440611824393272,-0.02893371880054474,-0.049732010811567307
1769668064276052500,0.788052490234375,-0.029930537566542625,-0.0214153490960598,-0.02958652749657631
1769668064286041600,0.79804150390625,-0.044599857181310654,-0.008763393387198448,-0.016019228845834732
1769668064296030500,0.808030517578125,-0.050385572016239166,0.020663736388087273,-0.03857247158885002
1769668064306018600,0.8180185546875,-0.04620227962732315,0.008816133253276348,-0.03638202324509621
1769668064316007700,0.828007568359375,-0.03639412298798561,0.006106899119913578,-0.028444739058613777
1769668064325996300,0.837996337890625,-0.02191091887652874,0.004136723466217518,-0.05429202318191528
1769668064335985400,0.8479853515625,-0.010499806143343449,0.033944688737392426,-0.09483359009027481
1769668064345974500,0.857974609375,-0.01356901228427887,-0.02875031903386116,-0.06052720919251442
1769668064355962600,0.867962646484375,-0.014014826156198978,-0.07298728823661804,-0.026683758944272995
1769668064365951500,0.877951416015625,-0.00831063836812973,0.00045604759361594915,-0.030922191217541695
1769668064375940600,0.887940673828125,-0.0006082444451749325,0.028301261365413666,-0.006337218917906284
1769668064385929500,0.897929443359375,-0.006875905208289623,0.020265240222215652,0.053503815084695816
1769668064395918600,0.907918701171875,0.006859614513814449,0.04817570000886917,0.07985179126262665
1769668064405906400,0.917906494140625,0.004695259500294924,0.03757137805223465,0.057869914919137955
1769668064415895600,0.9278955078125,-0.00911802425980568,0.06457209587097168,0.034471381455659866
1769668064425884400,0.937884521484375,-0.016070738434791565,0.11644145846366882,0.020124178379774094
1769668064435873500,0.94787353515625,0.003429992124438286,0.17393217980861664,-0.016576845198869705
1769668064445862700,0.957862548828125,0.02747514471411705,0.20382435619831085,-0.029561566188931465
1769668064455850500,0.9678505859375,0.053681980818510056,0.223163440823555,-0.02831440605223179
1769668064465839400,0.97783935546875,0.0834815576672554,0.23390233516693115,-0.04380151629447937
1769668064475828500,0.987828369140625,0.09127795696258545,0.2136809527873993,-0.03813111409544945
1769668064485817000,0.997817138671875,0.07466691732406616,0.1909192055463791,-0.03200419992208481
1769668064495806000,1.007805908203125,0.04567308351397514,0.17060647904872894,-0.046005502343177795
1769668064505794000,1.0177939453125,0.018836604431271553,0.12256348133087158,-0.06750346720218658
1769668064515783200,1.027783203125,-0.018206102773547173,0.06586531549692154,-0.062338002026081085
1769668064525772000,1.03777197265625,-0.029543932527303696,0.08987462520599365,-0.028647301718592644
1769668064535761200,1.04776123046875,-0.0247489120811224,0.12403765320777893,-0.042321305721998215
1769668064545750000,1.05775,-0.021028343588113785,0.1124962791800499,-0.061809808015823364
1769668064555737900,1.06773779296875,-0.01962192729115486,0.08161373436450958,-0.0828104317188263
1769668064565727000,1.07772705078125,-0.024351615458726883,0.03748486563563347,-0.10876988619565964
1769668064575716000,1.087716064453125,-0.024023512378335,0.013998979702591896,-0.11660650372505188
1769668064585705000,1.097705078125,-0.017299117520451546,0.06430164724588394,-0.10709920525550842
1769668064595694000,1.107694091796875,-0.0035380320623517036,0.1015227809548378,-0.09932330995798111
1769668064605682200,1.11768212890625,-0.017187530174851418,0.07226316630840302,-0.0872245728969574
1769668064615671000,1.127671142578125,-0.06984515488147736,-0.05269288271665573,-0.1109597235918045
1769668064625660200,1.13766015625,-0.12893740832805634,-0.2281697690486908,-0.1243896558880806
1769668064635649000,1.14764892578125,-0.20661196112632751,-0.33248206973075867,-0.12101063877344131
1769668064645637000,1.15763720703125,-0.26349952816963196,-0.30183351039886475,-0.08510660380125046
1769668064655626000,1.1676259765625,-0.259615033864975,-0.20809262990951538,-0.06772175431251526
1769668064665615000,1.177614990234375,-0.2238103598356247,-0.1642446666955948,-0.05631769448518753
1769668064675604200,1.187604248046875,-0.16874603927135468,-0.12392333894968033,-0.030343087390065193
1769668064685593000,1.197593017578125,-0.06682845950126648,0.030084464699029922,-0.012284094467759132
1769668064695581200,1.207581298828125,0.033758070319890976,0.1717481166124344,0.024842234328389168
1769668064705570000,1.217570068359375,0.09031553566455841,0.2502710819244385,0.04037904739379883
1769668064715559000,1.227558837890625,0.1047850251197815,0.24705052375793457,0.02991841547191143
1769668064725548000,1.237548095703125,0.08005255460739136,0.16873197257518768,-0.0010946730617433786
1769668064735537200,1.247537109375,0.045133188366889954,0.03197786211967468,-0.03568274527788162
1769668064745525200,1.257525146484375,0.005697011481970549,0.031312063336372375,-0.03214794397354126
1769668064755514000,1.26751416015625,-0.01834041438996792,0.015240417793393135,-0.03713764250278473
1769668064765503200,1.277503173828125,-0.031095899641513824,0.001725968555547297,-0.04922061413526535
1769668064775492000,1.2874921875,-0.04426097124814987,-0.011125115677714348,-0.0663367509841919
1769668064785481000,1.29748095703125,-0.054123494774103165,-0.02524716407060623,-0.09472216665744781
1769668064795469000,1.307468994140625,-0.05921013280749321,-0.014942862093448639,-0.11319385468959808
1769668064805458200,1.317458251953125,-0.062046971172094345,-0.020667526870965958,-0.13752152025699615
1769668064815447000,1.327447021484375,-0.0750352144241333,-0.02989617921411991,-0.15054729580879211
1769668064825436200,1.337436279296875,-0.09169496595859528,-0.044777631759643555,-0.16375096142292023
1769668064835425000,1.347425048828125,-0.10494472831487656,-0.039363425225019455,-0.16898328065872192
1769668064845412900,1.357412841796875,-0.11589670926332474,-0.05085863545536995,-0.18882803618907928
1769668064855402000,1.367402099609375,-0.11503251641988754,-0.01669507473707199,-0.197572261095047
1769668064865391000,1.37739111328125,-0.10182376950979233,0.012591441161930561,-0.20489248633384705
1769668064875380000,1.3873798828125,-0.08082793653011322,0.021183863282203674,-0.20556333661079407
1769668064885369000,1.397369140625,-0.06247933581471443,0.05760662630200386,-0.20115603506565094
1769668064895357200,1.407357177734375,-0.043358370661735535,0.07593077421188354,-0.2044365108013153
1769668064905346000,1.417345947265625,-0.032338302582502365,0.07762298732995987,-0.21298015117645264
1769668064915335200,1.427335205078125,-0.010598119348287582,0.12792664766311646,-0.18865270912647247
1769668064925324000,1.437323974609375,0.005476189777255058,0.12470164149999619,-0.1723969429731369
1769668064935313000,1.44731298828125,0.012869657948613167,0.12073007225990295,-0.14987672865390778
1769668064945301000,1.457301025390625,0.00872785784304142,0.10615536570549011,-0.13979479670524597
1769668064955290000,1.4672900390625,0.0029922076500952244,0.10052864253520966,-0.12676261365413666
1769668064965279000,1.477279052734375,0.0023559420369565487,0.05614648386836052,-0.12635894119739532
1769668064975268000,1.48726806640625,0.007650040555745363,0.012064510956406593,-0.14201992750167847
1769668064985257200,1.49725732421875,0.029295988380908966,0.04498794674873352,-0.14570322632789612
1769668064995245000,1.5072451171875,0.05826931446790695,0.08521898835897446,-0.16506414115428925
1769668065005234000,1.51723388671875,0.07383602857589722,0.1023346483707428,-0.19789475202560425
1769668065015223000,1.52722314453125,0.0751444399356842,0.14930188655853271,-0.21692675352096558
1769668065025212200,1.537212158203125,0.0629371777176857,0.14691247045993805,-0.2603336572647095
1769668065035201000,1.547200927734375,0.04613102972507477,0.12928368151187897,-0.3103131949901581
1769668065045189000,1.557189208984375,0.027539143338799477,0.12502355873584747,-0.3444172143936157
1769668065055178200,1.56717822265625,0.0018505592597648501,0.13952606916427612,-0.3728696405887604
1769668065065167000,1.5771669921875,-0.009255352430045605,0.1449906826019287,-0.39647504687309265
1769668065075156000,1.587156005859375,-0.0268348790705204,0.16468341648578644,-0.42823588848114014
1769668065085145000,1.59714501953125,-0.03345194458961487,0.16546688973903656,-0.45210930705070496
1769668065095133200,1.60713330078125,-0.03642642870545387,0.1559988260269165,-0.4657106101512909
1769668065105122000,1.6171220703125,-0.0433395691215992,0.15264761447906494,-0.4645748734474182
1769668065115111200,1.627111083984375,-0.05801864340901375,0.1596815437078476,-0.44775834679603577
1769668065125100000,1.63710009765625,-0.07985344529151917,0.1455438882112503,-0.4157000482082367
1769668065135089200,1.647089111328125,-0.09595358371734619,0.11100082844495773,-0.40379226207733154
1769668065145077000,1.657076904296875,-0.105287566781044,0.08469080179929733,-0.3804977238178253
1769668065155066000,1.667066162109375,-0.1087494045495987,0.057160381227731705,-0.3331613838672638
1769668065165055000,1.677054931640625,-0.11971093714237213,0.02983417548239231,-0.2864690124988556
1769668065175044000,1.687044189453125,-0.12242789566516876,-0.011979316361248493,-0.2513118088245392
1769668065185032200,1.6970322265625,-0.12395552545785904,-0.03495052084326744,-0.2374645620584488
1769668065195021000,1.70702099609375,-0.10875473916530609,-0.045100629329681396,-0.20835115015506744
1769668065205010200,1.71701025390625,-0.08907179534435272,-0.032420262694358826,-0.1712980419397354
1769668065214999000,1.7269990234375,-0.07552456110715866,-0.025487253442406654,-0.1367291510105133
1769668065224988000,1.73698779296875,-0.06990627199411392,-0.03378899767994881,-0.11285991966724396
1769668065234976000,1.74697607421875,-0.06932703405618668,-0.04542062059044838,-0.09679173678159714
1769668065244965000,1.756965087890625,-0.07389653474092484,-0.04524960368871689,-0.08184123784303665
1769668065254954000,1.7669541015625,-0.07308214157819748,-0.061298344284296036,-0.07720094919204712
1769668065264943000,1.776943115234375,-0.071214459836483,-0.07092342525720596,-0.07541225850582123
1769668065274932200,1.78693212890625,-0.06465775519609451,-0.06787464022636414,-0.08450828492641449
1769668065284920000,1.796920166015625,-0.06101907789707184,-0.06249644607305527,-0.09918314963579178
1769668065294909000,1.806908935546875,-0.05910559743642807,-0.058020733296871185,-0.10254113376140594
1769668065304898000,1.81689794921875,-0.05502616986632347,-0.044821370393037796,-0.12007198482751846
1769668065314887200,1.82688720703125,-0.0498279444873333,-0.05012212321162224,-0.11428999155759811
1769668065324876000,1.8368759765625,-0.04172004014253616,-0.042183782905340195,-0.1073325052857399
1769668065334864100,1.846864013671875,-0.036008626222610474,-0.043274614959955215,-0.10014808923006058
1769668065344853200,1.856853271484375,-0.032333239912986755,-0.04645199328660965,-0.0959642231464386
1769668065354842000,1.866842041015625,-0.03958183526992798,-0.050830498337745667,-0.1000034362077713
1769668065364831000,1.8768310546875,-0.044095177203416824,-0.051871005445718765,-0.10024634003639221
1769668065374820000,1.886820068359375,-0.042650677263736725,-0.04812553524971008,-0.10211241245269775
1769668065384808000,1.896807861328125,-0.0429273396730423,-0.03148055076599121,-0.09371603280305862
1769668065394797000,1.906797119140625,-0.045972131192684174,-0.011942536570131779,-0.09023555368185043
1769668065404786200,1.9167861328125,-0.04507442191243172,-0.014301256276667118,-0.10165087878704071
1769668065414775000,1.926775146484375,-0.05574623867869377,-0.01692766696214676,-0.11242790520191193
1769668065424764200,1.93676416015625,-0.0635829046368599,-0.010877133347094059,-0.10898779332637787
1769668065434752000,1.946751953125,-0.07207413017749786,-0.0005288878455758095,-0.09895433485507965
1769668065444741000,1.9567412109375,-0.08025171607732773,0.0006986428052186966,-0.09622477740049362
1769668065454730000,1.96672998046875,-0.08569761365652084,0.001651788130402565,-0.08201121538877487
1769668065464719000,1.976718994140625,-0.08524999022483826,-0.010957974940538406,-0.07806755602359772
1769668065474708000,1.9867080078125,-0.0897027924656868,-0.024559004232287407,-0.08458058536052704
1769668065484695800,1.99669580078125,-0.08707088232040405,-0.012734371237456799,-0.07226327806711197
1769668065494685000,2.006684814453125,-0.08713000267744064,-0.02083490788936615,-0.06197095662355423
1769668065504674000,2.016674072265625,-0.08894853293895721,-0.03719813749194145,-0.05346878990530968
1769668065514663000,2.026662841796875,-0.09716438502073288,-0.044807057827711105,-0.04973530396819115
1769668065524652000,2.036652099609375,-0.09916079044342041,-0.03316384553909302,-0.04994634911417961
1769668065534640000,2.04664013671875,-0.08538665622472763,-0.030156869441270828,-0.06825744360685349
1769668065544629000,2.05662890625,-0.06357678025960922,0.005702258087694645,-0.08153045177459717
1769668065554617900,2.066617919921875,-0.04688674956560135,0.012511961162090302,-0.0993051826953888
1769668065564607000,2.07660693359375,-0.019016241654753685,0.032711178064346313,-0.11866108328104019
1769668065574595800,2.086595947265625,-0.002268420998007059,0.055414628237485886,-0.126397043466568
1769668065584584000,2.096583984375,0.04261193051934242,0.09884360432624817,-0.12434002757072449
1769668065594573000,2.106572998046875,0.05710645020008087,0.13456565141677856,-0.15006668865680695
1769668065604562000,2.11656201171875,0.0736159160733223,0.1837872564792633,-0.14009954035282135
1769668065614551000,2.126551025390625,0.0820900946855545,0.2081194967031479,-0.1609499603509903
1769668065624540200,2.1365400390625,0.09480047971010208,0.21656611561775208,-0.2002226710319519
1769668065634528000,2.146528076171875,0.11126893013715744,0.22249776124954224,-0.23965902626514435
1769668065644516900,2.156516845703125,0.11682454496622086,0.238552525639534,-0.26132285594940186
1769668065654506000,2.166506103515625,0.12988869845867157,0.28380894660949707,-0.2689914405345917
1769668065664495000,2.1764951171875,0.11544378101825714,0.33282843232154846,-0.28791531920433044
1769668065674484000,2.18648388671875,0.09019328653812408,0.35563069581985474,-0.29293882846832275
1769668065684472000,2.19647216796875,0.06175965815782547,0.3406505584716797,-0.29779231548309326
1769668065694461200,2.206461181640625,0.018832430243492126,0.33367761969566345,-0.32148486375808716
1769668065704449800,2.21644970703125,-0.017748527228832245,0.31959062814712524,-0.36413076519966125
1769668065714439000,2.22643896484375,-0.041998472064733505,0.30478212237358093,-0.4029167890548706
1769668065724428000,2.236427978515625,-0.0633164569735527,0.29064878821372986,-0.428619921207428
1769668065734416100,2.246416015625,-0.07007156312465668,0.3168753385543823,-0.44730520248413086
1769668065744405000,2.256405029296875,-0.05440228059887886,0.37477025389671326,-0.4437776803970337
1769668065754394000,2.26639404296875,-0.03628293052315712,0.3884112238883972,-0.44218510389328003
1769668065764383000,2.276383056640625,-0.007139962632209063,0.35492855310440063,-0.45610177516937256
1769668065774370800,2.286370849609375,0.019521476700901985,0.3115009367465973,-0.488160640001297
1769668065784360000,2.29635986328125,0.010653371922671795,0.2664179503917694,-0.481609970331192
1769668065794349000,2.30634912109375,-0.01046602800488472,0.20943644642829895,-0.4392808675765991
1769668065804338000,2.316337890625,-0.023951657116413116,0.1786128282546997,-0.41183027625083923
1769668065814327000,2.3263271484375,-0.015955248847603798,0.19398751854896545,-0.38153335452079773
1769668065824315100,2.336315185546875,-0.014655087143182755,0.27155089378356934,-0.3479321599006653
1769668065834304000,2.346303955078125,-0.006437637843191624,0.41215941309928894,-0.3018786311149597
1769668065844292900,2.35629296875,0.001123869908042252,0.4608599543571472,-0.3468499481678009
1769668065854282000,2.366281982421875,0.0014415850164368749,0.4097355306148529,-0.4301341772079468
1769668065864270800,2.376270751953125,-0.01402211468666792,0.3712051510810852,-0.5062031149864197
1769668065874259000,2.386259033203125,-0.048745207488536835,0.4089221656322479,-0.5657652616500854
1769668065884248000,2.396248046875,-0.05854784697294235,0.4516976475715637,-0.5995756983757019
1769668065894237000,2.40623681640625,-0.06066319718956947,0.4285699725151062,-0.6827483177185059
1769668065904226000,2.41622607421875,-0.08829385042190552,0.2829159200191498,-0.8047731518745422
1769668065914215200,2.426215087890625,-0.17077621817588806,0.2859138250350952,-0.807841420173645
1769668065924203000,2.436203125,-0.2275572568178177,0.35088154673576355,-0.7343782186508179
1769668065934191900,2.44619189453125,-0.24286723136901855,0.32272180914878845,-0.6735857129096985
1769668065944181000,2.456180908203125,-0.20839184522628784,0.28223392367362976,-0.5965816378593445
1769668065954170000,2.466170166015625,-0.18211470544338226,0.31987157464027405,-0.5035680532455444
1769668065964159000,2.476158935546875,-0.16264353692531586,0.31139281392097473,-0.4281383156776428
1769668065974147000,2.48614697265625,-0.12958651781082153,0.2621227204799652,-0.3646285831928253
1769668065984136200,2.49613623046875,-0.10260332375764847,0.2441534847021103,-0.30874356627464294
1769668065994124800,2.506124755859375,-0.06525355577468872,0.2267364114522934,-0.2669000029563904
1769668066004114000,2.516114013671875,-0.028704460710287094,0.23718014359474182,-0.24428962171077728
1769668066014103000,2.52610302734375,0.014606794342398643,0.22592003643512726,-0.23240606486797333
1769668066024091000,2.5360908203125,0.029235616326332092,0.2045309990644455,-0.23947471380233765
1769668066034080000,2.546080078125,0.032512370496988297,0.24033799767494202,-0.26331987977027893
1769668066044069000,2.556069091796875,0.028887584805488586,0.24206870794296265,-0.291085809469223
1769668066054058000,2.56605810546875,0.022972702980041504,0.2421017289161682,-0.3460313379764557
1769668066064047000,2.576047119140625,0.016754144802689552,0.23978376388549805,-0.37584859132766724
1769668066074035000,2.586034912109375,0.034467361867427826,0.3020591139793396,-0.3652745187282562
1769668066084024000,2.596024169921875,0.06092577800154686,0.34804224967956543,-0.35187917947769165
1769668066094013000,2.606012939453125,0.07696200162172318,0.37897592782974243,-0.32544809579849243
1769668066104002000,2.616001953125,0.08837373554706573,0.38030537962913513,-0.314402312040329
1769668066113991000,2.625990966796875,0.10131695866584778,0.36189788579940796,-0.31085366010665894
1769668066123979000,2.63597900390625,0.11374575644731522,0.34106501936912537,-0.2970984876155853
1769668066133968000,2.6459677734375,0.1311071664094925,0.3398556709289551,-0.26799094676971436
1769668066143957000,2.65595703125,0.14936864376068115,0.3495361804962158,-0.23391424119472504
1769668066153945900,2.66594580078125,0.15312156081199646,0.34676462411880493,-0.1941700279712677
1769668066163935000,2.67593505859375,0.1439386010169983,0.32595062255859375,-0.16621333360671997
1769668066173923000,2.685923095703125,0.12050597369670868,0.27516788244247437,-0.13562878966331482
1769668066183912000,2.695911865234375,0.09662425518035889,0.21285085380077362,-0.10536394268274307
1769668066193901000,2.705901123046875,0.08048336952924728,0.1664694994688034,-0.0723830908536911
1769668066203890200,2.71589013671875,0.0782729908823967,0.13884635269641876,-0.02813418209552765
1769668066213879000,2.725879150390625,0.09000314772129059,0.12256219238042831,0.012331218458712101
1769668066223867000,2.735866943359375,0.1030941754579544,0.11517632752656937,0.04182642325758934
1769668066233856000,2.74585595703125,0.10893288999795914,0.10038379579782486,0.058216847479343414
1769668066243844900,2.755844970703125,0.10700920224189758,0.09110740572214127,0.060091905295848846
1769668066253834000,2.765833984375,0.10040296614170074,0.08050084114074707,0.06419237703084946
1769668066263823000,2.775822998046875,0.09492342174053192,0.0833476260304451,0.06444099545478821
1769668066273811200,2.785811279296875,0.08966153860092163,0.08255400508642197,0.05928990989923477
1769668066283799800,2.7957998046875,0.09363804757595062,0.10048281401395798,0.05238339677453041
1769668066293789000,2.805788818359375,0.10520975291728973,0.11258262395858765,0.0476757250726223
1769668066303778000,2.815778076171875,0.11830446124076843,0.1274096965789795,0.04008592665195465
1769668066313767000,2.825766845703125,0.11912018805742264,0.12320536375045776,0.037219565361738205
1769668066323755000,2.835755126953125,0.11844774335622787,0.07222320139408112,0.03402062505483627
1769668066333744000,2.845744140625,0.10838578641414642,0.11707509309053421,0.013318276964128017
1769668066343733000,2.85573291015625,0.10683627426624298,0.09617820382118225,0.003947556018829346
1769668066353722000,2.86572216796875,0.11572696268558502,0.10515732318162918,-0.008673164062201977
1769668066363711000,2.8757109375,0.1302688866853714,0.10417275130748749,-0.01943553239107132
1769668066373699000,2.885698974609375,0.13120418787002563,0.10061503201723099,-0.024989554658532143
1769668066383688000,2.89568798828125,0.16788195073604584,0.0679168701171875,-0.061647284775972366
1769668066393677000,2.905677001953125,0.1499788612127304,0.06620259582996368,-0.07172416150569916
1769668066403666000,2.915666015625,0.13800059258937836,0.08029410243034363,-0.06739714741706848
1769668066413655000,2.925655029296875,0.1311408281326294,0.05628916993737221,-0.07851238548755646
1769668066423643100,2.93564306640625,0.1176125779747963,0.04551846906542778,-0.057645007967948914
1769668066433632000,2.945632080078125,0.09415572136640549,0.025828920304775238,-0.042784567922353745
1769668066443620900,2.955620849609375,0.0743674635887146,0.0241713784635067,-0.03591492772102356
1769668066453610000,2.96560986328125,0.0510307140648365,-0.012387163937091827,-0.034199588000774384
1769668066463598000,2.97559814453125,0.02709892764687538,-0.02978992648422718,-0.022025015205144882
1769668066473587000,2.9855869140625,0.015338141471147537,-0.039558134973049164,-0.007858063094317913
1769668066483576000,2.995576171875,0.013071524910628796,-0.043769657611846924,0.006814356427639723
1769668066493565400,3.0055654296875,0.015678493306040764,-0.07014720141887665,0.028697816655039787
1769668066503554300,3.01555419921875,0.014912647195160389,-0.029169727116823196,0.013678625226020813
1769668066513542400,3.02554248046875,0.03371776267886162,0.006713704206049442,-0.016511235386133194
1769668066523531500,3.035531494140625,0.06821085512638092,0.02795112319290638,-0.04509226605296135
1769668066533520400,3.045520263671875,0.08962026983499527,0.034901175647974014,-0.06432029604911804
1769668066543509500,3.055509521484375,0.09262294322252274,0.03126733377575874,-0.07892049103975296
1769668066553498600,3.06549853515625,0.07968530803918839,0.018473507836461067,-0.09033506363630295
1769668066563486500,3.075486572265625,0.07282309979200363,-0.031037548556923866,-0.11609498411417007
1769668066573475300,3.085475341796875,0.03001304715871811,-0.02257189154624939,-0.0976957306265831
1769668066583464400,3.09546435546875,0.021962441504001617,-0.015749966725707054,-0.11568701267242432
1769668066593453300,3.105453369140625,0.042395807802677155,0.001123820780776441,-0.12083889544010162
1769668066603442400,3.1154423828125,0.06928131729364395,0.04934580624103546,-0.11792580783367157
1769668066613430500,3.125430419921875,0.08974184840917587,0.08402575552463531,-0.12380420416593552
1769668066623419600,3.135419677734375,0.09949526190757751,0.11299899965524673,-0.1339471936225891
1769668066633408500,3.145408447265625,0.10143324732780457,0.10740156471729279,-0.1547861546278
1769668066643397600,3.155397705078125,0.09937306493520737,0.09466776251792908,-0.16508501768112183
1769668066653386200,3.16538623046875,0.09604890644550323,0.10174217820167542,-0.1700638085603714
1769668066663374300,3.175374267578125,0.09745298326015472,0.10856875032186508,-0.1582891196012497
1769668066673363500,3.185363525390625,0.09401750564575195,0.11463729292154312,-0.14093250036239624
1769668066683352600,3.1953525390625,0.09143286943435669,0.1049642562866211,-0.1257622241973877
1769668066693341400,3.205341552734375,0.08749351650476456,0.11664249002933502,-0.10388276726007462
1769668066703330600,3.21533056640625,0.07552145421504974,0.09858153760433197,-0.06197064742445946
1769668066713318400,3.225318359375,0.057164546102285385,0.126132994890213,-0.04050343483686447
1769668066723307300,3.235307373046875,0.01968308910727501,0.08285699039697647,-0.03342653810977936
1769668066733296400,3.24529638671875,-0.0263400636613369,0.044439829885959625,-0.02122366987168789
1769668066743285500,3.255285400390625,-0.06442716717720032,0.008911732584238052,-0.0028837397694587708
1769668066753274400,3.2652744140625,-0.07662657648324966,-0.008765531703829765,0.010772683657705784
1769668066763262500,3.275262451171875,-0.0679781436920166,0.0029718868900090456,0.024762872606515884
1769668066773251600,3.28525146484375,-0.07070096582174301,0.018902383744716644,0.028366129845380783
1769668066783240400,3.295240478515625,-0.09046383202075958,-0.05635148659348488,0.0088461022824049
1769668066793229300,3.305229248046875,-0.12841442227363586,-0.0916982963681221,-0.03440017253160477
1769668066803218400,3.315218505859375,-0.10063676536083221,-0.09314112365245819,-0.05757146328687668
1769668066813206500,3.32520654296875,-0.028531139716506004,-0.05318838357925415,0.009364158846437931
1769668066823195400,3.3351953125,0.05595308169722557,0.02898719161748886,0.07122591882944107
1769668066833184500,3.3451845703125,0.11491919308900833,0.07341138273477554,0.10614795237779617
1769668066843173400,3.35517333984375,0.1251077800989151,0.0730433240532875,0.09991592168807983
1769668066853162500,3.36516259765625,0.0968146100640297,0.03196513280272484,0.0672874003648758
1769668066863150300,3.375150390625,0.06701250374317169,-0.0012799042742699385,0.04163477197289467
1769668066873139500,3.385139404296875,0.058558035641908646,-0.01414803322404623,0.03455635532736778
1769668066883128300,3.39512841796875,0.06396536529064178,-0.004840587731450796,0.043897345662117004
1769668066893117400,3.405117431640625,0.0712408572435379,0.005418973974883556,0.055444542318582535
1769668066903106600,3.4151064453125,0.06930194795131683,0.0024038348346948624,0.05139102041721344
1769668066913094400,3.425094482421875,0.05917741358280182,-0.004196543246507645,0.04081294685602188
1769668066923083500,3.43508349609375,0.045349255204200745,-0.03147779777646065,0.03955663740634918
1769668066933072600,3.44507275390625,0.040228262543678284,-0.026219386607408524,0.03735873103141785
1769668066943061200,3.455061279296875,0.03722759708762169,-0.0415884368121624,0.019974183291196823
1769668066953050400,3.46505029296875,0.03794638440012932,-0.04368727654218674,0.02520037069916725
1769668066963038500,3.47503857421875,0.03319871798157692,-0.022463560104370117,0.032045695930719376
1769668066973027600,3.485027587890625,0.027939770370721817,-0.025155484676361084,0.03122651018202305
1769668066983016400,3.495016357421875,0.014724275097250938,-0.034451112151145935,0.01666368916630745
1769668066993005600,3.505005615234375,0.005721725523471832,-0.04718847945332527,0.021375620737671852
1769668067002994400,3.514994384765625,0.00016944052185863256,-0.02342846244573593,0.006350141018629074
1769668067012982300,3.524982177734375,0.009778657928109169,-0.05290406197309494,0.004347444046288729
1769668067022971400,3.534971435546875,0.022809624671936035,-0.03976817429065704,-0.004763885401189327
1769668067032960500,3.54496044921875,0.04570242390036583,-0.003043716074898839,0.01733715645968914
1769668067042949400,3.554949462890625,0.06455881148576736,-0.0099680470302701,0.025544608011841774
1769668067052938500,3.5649384765625,0.06268741190433502,-0.02138422057032585,0.00009384332224726677
1769668067062926600,3.574926513671875,0.048817407339811325,-0.02765803597867489,-0.004128545522689819
1769668067072915500,3.58491552734375,0.030511103570461273,-0.059471093118190765,0.0018252169247716665
1769668067082904300,3.594904296875,0.019939059391617775,-0.052110034972429276,-0.0041545541025698185
1769668067092893400,3.6048935546875,0.017008250579237938,-0.05188979208469391,-0.013093985617160797
1769668067102882300,3.61488232421875,0.013897580094635487,-0.053670842200517654,-0.024763062596321106
1769668067112870400,3.624870361328125,0.009859162382781506,-0.06012847274541855,-0.03778831660747528
1769668067122859500,3.634859619140625,0.0020462037064135075,-0.05220546945929527,-0.05456533655524254
1769668067132848400,3.644848388671875,-0.010491158813238144,-0.06780173629522324,-0.0714804008603096
1769668067142837500,3.65483740234375,-0.024497022852301598,-0.06580308824777603,-0.07739535719156265
1769668067152826600,3.66482666015625,-0.03859526664018631,-0.04816576838493347,-0.08437443524599075
1769668067162814500,3.674814453125,-0.04479031637310982,-0.03856619447469711,-0.08131290972232819
1769668067172803300,3.68480322265625,-0.040375858545303345,-0.021001851186156273,-0.07057185471057892
1769668067182792400,3.69479248046875,-0.0293913371860981,-0.003556586103513837,-0.054897602647542953
1769668067192781600,3.704781494140625,-0.020779740065336227,0.013753694482147694,-0.048580583184957504
1769668067202770400,3.7147705078125,-0.029232215136289597,0.006654742173850536,-0.029859917238354683
1769668067212758500,3.724758544921875,-0.04326654225587845,-0.007146557793021202,-0.021097050979733467
1769668067222747600,3.73474755859375,-0.06474898755550385,-0.04041878506541252,-0.022777505218982697
1769668067232736300,3.744736328125,-0.07490655034780502,-0.061206623911857605,-0.021934349089860916
1769668067242725400,3.754725341796875,-0.07552088052034378,-0.06793235242366791,-0.023472541943192482
1769668067252714500,3.764714599609375,-0.07235464453697205,-0.06913503259420395,-0.02218730002641678
1769668067262702600,3.77470263671875,-0.07227609306573868,-0.063913494348526,-0.023624708876013756
1769668067272691500,3.78469140625,-0.07640212774276733,-0.0678592324256897,-0.034807853400707245
1769668067282680600,3.7946806640625,-0.07769499719142914,-0.07676565647125244,-0.03410109132528305
1769668067292669400,3.80466943359375,-0.07211141288280487,-0.08152472972869873,-0.03066215291619301
1769668067302658600,3.814658447265625,-0.05956641584634781,-0.09565958380699158,-0.02550373412668705
1769668067312646400,3.824646484375,-0.05455887317657471,-0.10660890489816666,-0.020719898864626884
1769668067322635500,3.834635498046875,-0.05797535926103592,-0.12012790143489838,-0.01726602390408516
1769668067332624400,3.844624267578125,-0.07140248268842697,-0.13890744745731354,-0.002784019336104393
1769668067342613500,3.854613525390625,-0.08416759222745895,-0.14815549552440643,0.0020326219964772463
1769668067352602400,3.864602294921875,-0.08815940469503403,-0.16180339455604553,-0.006760070566087961
1769668067362590500,3.874590576171875,-0.08148227632045746,-0.13989350199699402,-0.006776793859899044
1769668067372579300,3.884579345703125,-0.06444603204727173,-0.10730838775634766,-0.0027743286918848753
1769668067382568400,3.894568359375,-0.04353263974189758,-0.07650961726903915,-0.00884193554520607
1769668067392557300,3.904557373046875,-0.026134207844734192,-0.047675035893917084,-0.02135426551103592
1769668067402546400,3.91454638671875,-0.00926227867603302,-0.010356100276112556,-0.035879895091056824
1769668067412534500,3.924534423828125,-0.0041724457405507565,0.00995982438325882,-0.04494582861661911
1769668067422523400,3.9345234375,-0.005613792687654495,0.021122297272086143,-0.04807281494140625
1769668067432512500,3.944512451171875,-0.013414723798632622,0.019759289920330048,-0.05632248893380165
1769668067442501600,3.954501708984375,-0.019974935799837112,0.013211680576205254,-0.06433216482400894
1769668067452490500,3.964490478515625,-0.019227920100092888,0.015016505494713783,-0.0692632794380188
1769668067462478300,3.974478271484375,-0.021273672580718994,0.019485358148813248,-0.06740511208772659
1769668067472467500,3.984467529296875,-0.02059483341872692,0.02419089712202549,-0.06479894369840622
1769668067482456300,3.994456298828125,-0.017655905336141586,0.027560029178857803,-0.05065944790840149
1769668067492452900,4.004452880859375,-0.016188770532608032,0.028189867734909058,-0.043049998581409454
1769668067502442000,4.01444189453125,-0.019988199695944786,0.020091772079467773,-0.045442305505275726
1769668067512430000,4.02443017578125,-0.027264222502708435,0.005913102068006992,-0.05064345896244049
1769668067522419000,4.0344189453125,-0.03557576984167099,-0.006098681595176458,-0.05384816601872444
1769668067532408000,4.044407958984375,-0.03592011705040932,-0.011363217607140541,-0.053320858627557755
1769668067542397000,4.05439697265625,-0.038779158145189285,-0.01152442954480648,-0.046234264969825745
1769668067552386000,4.064385986328125,-0.03287839516997337,-0.002006025053560734,-0.03635526821017265
1769668067562374000,4.074373779296875,-0.026608867570757866,0.01376168429851532,-0.027644408866763115
1769668067572363000,4.084363037109375,-0.021128347143530846,0.020056597888469696,-0.02874882146716118
1769668067582352000,4.094351806640625,-0.01663699746131897,0.021420251578092575,-0.034013450145721436
1769668067592341000,4.104341064453125,-0.01360152568668127,0.02084634080529213,-0.04118028283119202
1769668067602329900,4.114329833984375,-0.009903665632009506,0.018831953406333923,-0.03311490640044212
1769668067612318000,4.12431787109375,-0.009635752066969872,0.0145940650254488,-0.023191435262560844
1769668067622307000,4.13430712890625,-0.01115059107542038,0.0024739746004343033,-0.012649381533265114
1769668067632296000,4.1442958984375,-0.015934428200125694,-0.0053719645366072655,-0.01251276209950447
1769668067642284800,4.154284912109375,-0.01675446331501007,-0.007946670055389404,-0.016796676442027092
1769668067652274000,4.16427392578125,-0.005986770149320364,0.00024095235858112574,-0.017916269600391388
1769668067662262000,4.174261962890625,0.00503259152173996,0.010678146965801716,-0.01398624386638403
1769668067672251000,4.1842509765625,0.011952281929552555,0.01650407910346985,-0.007766430266201496
1769668067682240000,4.194239990234375,0.006773054599761963,0.010982614010572433,-0.002861614106222987
1769668067692229000,4.20422900390625,-0.0030982187017798424,-0.0006625899113714695,-0.009455334395170212
1769668067702218000,4.214218017578125,-0.013134030625224113,-0.00899518746882677,-0.013438454829156399
1769668067712205800,4.224205810546875,-0.012827234342694283,-0.0077786557376384735,-0.010118824429810047
1769668067722195000,4.23419482421875,-0.0035810633562505245,0.002185269957408309,-0.007435954175889492
1769668067732183800,4.244183837890625,0.0059682331047952175,0.014576958492398262,-0.00022837496362626553
1769668067742173000,4.2541728515625,0.009598135948181152,0.01710708625614643,0.003343817312270403
1769668067752162000,4.264162109375,0.0036443728022277355,0.00945369340479374,-0.0002658311277627945
1769668067762150100,4.274150146484375,-0.005194567143917084,0.0005663222400471568,-0.0037501887418329716
1769668067772139000,4.284138916015625,-0.012780314311385155,-0.007239669095724821,-0.006065540947020054
1769668067782127900,4.2941279296875,-0.013355291448533535,-0.004559730179607868,-0.005568329244852066
1769668067792117000,4.304116943359375,-0.005826801527291536,0.004020175896584988,0.00018250104039907455
1769668067802105900,4.31410595703125,-0.00047496770275756717,0.015725543722510338,0.006972762290388346
1769668067812094000,4.324093994140625,-0.0013905625091865659,0.018527455627918243,0.006875024177134037
1769668067822083000,4.3340830078125,-0.007808241993188858,0.014515997841954231,0.0034004459157586098
1769668067832072000,4.344072021484375,-0.016589216887950897,0.012053105980157852,-0.0012230679858475924
1769668067842061000,4.35406103515625,-0.021208684891462326,0.01342199370265007,-0.002165289828553796
1769668067852050200,4.36405029296875,-0.015886357054114342,0.019402388483285904,0.0001937379129230976
1769668067862038000,4.3740380859375,-0.012291054241359234,0.024020621553063393,0.006640519946813583
1769668067872027000,4.38402685546875,-0.008195910602807999,0.023907704278826714,0.009791305288672447
1769668067882016000,4.39401611328125,-0.011489568278193474,0.017819009721279144,0.007954065687954426
1769668067892004900,4.4040048828125,-0.016505366191267967,-0.00005133356899023056,0.0009265162516385317
1769668067901994000,4.413993896484375,-0.021956054493784904,-0.0025431348476558924,0.0028664697892963886
1769668067911982000,4.423982177734375,-0.025891408324241638,-0.001191580668091774,0.010482843965291977
1769668067921971000,4.433970947265625,-0.020497461780905724,0.004921668209135532,0.011602185666561127
1769668067931959800,4.443959716796875,-0.010438170284032822,0.01866118237376213,0.01678949035704136
1769668067941949000,4.453948974609375,0.001238466938957572,0.022854391485452652,0.018125111237168312
1769668067951937800,4.463937744140625,0.007871069014072418,0.031171178445219994,0.02322373352944851
1769668067961926000,4.47392578125,0.009016744792461395,0.031706079840660095,0.02596430294215679
1769668067971915000,4.4839150390625,0.004005474038422108,0.023588499054312706,0.024759754538536072
1769668067981904100,4.493904052734375,0.0013871281407773495,0.016567017883062363,0.018570711836218834
1769668067991893000,4.50389306640625,0.0013138912618160248,0.013597061857581139,0.013205241411924362
1769668068001881900,4.5138818359375,0.0029308455996215343,0.011757505126297474,0.009481562301516533
1769668068011870000,4.523869873046875,0.0009430623613297939,0.006925199646502733,0.008934282697737217
1769668068021858800,4.53385888671875,-0.005859340541064739,-0.0032723203767091036,0.00684524467214942
1769668068031848000,4.543847900390625,-0.015655511990189552,-0.014510327950119972,0.00026563904248178005
1769668068041837000,4.553837158203125,-0.011702855117619038,-0.014082685112953186,-0.004094536416232586
1769668068051826000,4.563825927734375,-0.0034103039652109146,-0.015412135049700737,0.0019705467857420444
1769668068061814000,4.57381396484375,0.000003069755621254444,-0.011280774138867855,0.009657761082053185
1769668068071803000,4.583802978515625,0.00022251415066421032,-0.012299432419240475,0.011137147434055805
1769668068081792000,4.5937919921875,-0.0045481794513762,-0.017137201502919197,0.014969022944569588
1769668068091780900,4.60378076171875,-0.008971955627202988,-0.017418963834643364,0.017108874395489693
1769668068101770000,4.61377001953125,-0.009912988170981407,-0.020448872819542885,0.015632925555109978
1769668068111758000,4.623758056640625,-0.004814631771296263,-0.011598124168813229,0.017709393054246902
1769668068121747000,4.633746826171875,-0.0008594417595304549,-0.007733108475804329,0.018948005512356758
1769668068131736000,4.643736083984375,0.00012512889225035906,-0.006194334477186203,0.020502759143710136
1769668068141725200,4.65372509765625,-0.003158226842060685,-0.010692921467125416,0.017440389841794968
1769668068151713800,4.6637138671875,-0.006478656083345413,-0.010545382276177406,0.014761249534785748
1769668068161702000,4.673701904296875,-0.004308321978896856,-0.007266058586537838,0.011815187521278858
1769668068171691000,4.68369091796875,-0.0020329169929027557,-0.0019692976493388414,0.011104123666882515
1769668068181679900,4.693679931640625,0.003542019985616207,0.00645916722714901,0.014813713729381561
1769668068191669000,4.7036689453125,0.003824847750365734,0.014302442781627178,0.02058904618024826
1769668068201658000,4.713658203125,0.00651609618216753,0.013464519754052162,0.01986752077937126
1769668068211646000,4.72364599609375,0.002917100675404072,0.005736292339861393,0.012860478833317757
1769668068221634800,4.733634765625,-0.002198472386226058,-0.003224847838282585,0.008553734980523586
1769668068231624000,4.7436240234375,-0.007025185506790876,-0.011373322457075119,0.008824844844639301
1769668068241612800,4.75361279296875,-0.002575078047811985,-0.012940787710249424,0.014962940476834774
1769668068251602000,4.763601806640625,0.001584513345733285,-0.006921511143445969,0.018418390303850174
1769668068261590000,4.773590087890625,0.0038576857186853886,-0.0009763720445334911,0.019573604688048363
1769668068271579100,4.7835791015625,0.004554368555545807,-0.0022890439722687006,0.013978570699691772
1769668068281568000,4.793568115234375,0.002596326172351837,-0.003238795092329383,0.010940629988908768
1769668068291556900,4.803556884765625,0.0054046292789280415,-0.005239361897110939,0.008643919602036476
1769668068301546000,4.8135458984375,0.007048582658171654,-0.005553474649786949,0.010741866193711758
1769668068311533800,4.823533935546875,0.006533261388540268,-0.007836868986487389,0.010826821438968182
1769668068321523000,4.83352294921875,0.0032926122657954693,-0.013249054551124573,0.008060178719460964
1769668068331512000,4.843511962890625,-0.0026281271129846573,-0.02051256038248539,0.008449000306427479
1769668068341501000,4.8535009765625,-0.006243053823709488,-0.02143804542720318,0.008834311738610268
1769668068351490000,4.863489990234375,-0.006586867850273848,-0.016653144732117653,0.009759761393070221
1769668068361478000,4.873477783203125,-0.00021606520749628544,-0.009569259360432625,0.015320077538490295
1769668068371466800,4.883466796875,0.00656434241682291,-0.0070286039263010025,0.019365686923265457
1769668068381456000,4.893455810546875,0.006005388218909502,-0.009085728786885738,0.01774931699037552
1769668068391445000,4.903445068359375,-0.000690331042278558,-0.01888456381857395,0.01631014421582222
1769668068401433900,4.913433837890625,-0.009864365682005882,-0.02528143860399723,0.012315219268202782
1769668068411422000,4.923421875,-0.013884141109883785,-0.02960641123354435,0.011558348312973976
1769668068421411000,4.9334111328125,-0.010465631261467934,-0.018926983699202538,0.012182147242128849
1769668068431400000,4.94339990234375,-0.003214908530935645,-0.009273556061089039,0.011562695726752281
1769668068441388800,4.953388916015625,-0.002174726687371731,-0.005053473636507988,0.014642423018813133
1769668068451378000,4.9633779296875,-0.003501513507217169,-0.01066448725759983,0.009965912438929081
1769668068461366000,4.973365966796875,-0.011112605221569538,-0.017717503011226654,0.0034662983380258083
1769668068471355000,4.98335498046875,-0.015100955031812191,-0.02341826632618904,0.0012798431562259793
1769668068481344000,4.993343994140625,-0.011238476261496544,-0.020845195278525352,0.003461410291492939
1769668068491325700,5.00332568359375,-0.003858058014884591,-0.01530129462480545,0.006383430678397417
1769668068501314600,5.013314453125,0.002292328979820013,-0.008550971746444702,0.011361166834831238
1769668068511303700,5.0233037109375,0.0024827453307807446,-0.009342730045318604,0.015216358937323093
1769668068521291800,5.033291748046875,-0.00019572279416024685,-0.01291180681437254,0.014022006653249264
1769668068531280600,5.04328076171875,-0.0014572622021660209,-0.016944365575909615,0.011370563879609108
1769668068541269800,5.053269775390625,-0.0003980023320764303,-0.015527449548244476,0.013348902575671673
1769668068551259000,5.0632587890625,0.0017548970645293593,-0.015710409730672836,0.007868915796279907
1769668068561247500,5.07324755859375,0.005214175209403038,-0.01197859738022089,0.005082886666059494
1769668068571235600,5.083235595703125,0.004454108886420727,-0.009582817554473877,0.004988078027963638
1769668068581224700,5.093224609375,0.002095678588375449,-0.008853230625391006,0.005392278544604778
1769668068591213800,5.1032138671875,0.004473082255572081,-0.004734119866043329,0.00528362113982439
1769668068601202700,5.11320263671875,0.006868351250886917,-0.0016505236271768808,0.009521382860839367
1769668068611191800,5.12319189453125,0.01088919211179018,0.009406655095517635,0.014106281101703644
1769668068621180000,5.133179931640625,0.01632581278681755,0.017263414338231087,0.014524300582706928
1769668068631168500,5.14316845703125,0.019952505826950073,0.01985999569296837,0.013496852479875088
1769668068641157600,5.15315771484375,0.017059756442904472,0.017693858593702316,0.008127781562507153
1769668068651146800,5.163146728515625,0.014163569547235966,0.011506802402436733,0.0028856152202934027
1769668068661135600,5.173135498046875,0.01008654572069645,0.004104343708604574,-0.0007913671433925629
1769668068671123700,5.183123779296875,0.004845976829528809,-0.0019871045369654894,-0.002381008118391037
1769668068681112800,5.19311279296875,0.004357840400189161,-0.0018118894658982754,-0.004459940828382969
1769668068691101700,5.203101806640625,0.0048768906854093075,0.0006739050149917603,-0.0035776356235146523
1769668068701090800,5.2130908203125,0.002044417429715395,0.0017539053224027157,-0.002248042728751898
1769668068711079700,5.22307958984375,0.0023205874022096395,0.003863927908241749,-0.001722601242363453
1769668068721067800,5.23306787109375,0.002427964471280575,0.004609044641256332,-0.00025338586419820786
1769668068731056600,5.243056640625,0.0011549732880666852,0.004210369195789099,0.0012014989042654634
1769668068741045800,5.253045654296875,-0.0016229632310569286,0.002827185671776533,0.006473539862781763
1769668068751034600,5.26303466796875,-0.00215080170892179,0.00214009010232985,0.008913528174161911
1769668068761023700,5.273023681640625,-0.0028073578141629696,0.000009493203833699226,0.008880965411663055
1769668068771011600,5.283011474609375,-0.002300824737176299,0.0021701157093048096,0.006003952119499445
1769668068781000700,5.293000732421875,-0.00016054220031946898,0.005952943116426468,0.006636551581323147
1769668068790989600,5.302989501953125,0.0026765232905745506,0.007336189039051533,0.005408035591244698
1769668068800978700,5.312978759765625,0.0058715250343084335,0.008474220521748066,0.008675513789057732
1769668068810967800,5.3229677734375,0.006766080856323242,0.007038244046270847,0.007468569558113813
1769668068820955600,5.33295556640625,0.0032550706528127193,0.0025575191248208284,0.005490916781127453
1769668068830944800,5.34294482421875,0.0013051038840785623,-0.0028716009110212326,-0.0008788316044956446
1769668068840934000,5.352933837890625,-0.0026985346339643,-0.005437130108475685,-0.0012019304558634758
1769668068850922800,5.3629228515625,-0.0002921023406088352,-0.005091452039778233,0.0018314101034775376
1769668068860911600,5.37291162109375,0.000708770239725709,0.0004692536313086748,0.003683903021737933
1769668068870899700,5.382899658203125,0.0038579581305384636,0.007345003075897694,0.004117199219763279
1769668068880888600,5.392888671875,0.003606647253036499,0.007637015078216791,-0.0019440329633653164
1769668068890877700,5.402877685546875,0.0028947843238711357,0.00547932181507349,-0.0024210051633417606
1769668068900866800,5.41286669921875,0.0002790748840197921,0.0018952010432258248,-0.0019483400974422693
1769668068910855700,5.422855712890625,0.0022676573134958744,0.0025149185676127672,0.003954556304961443
1769668068920843500,5.432843505859375,0.003937744069844484,0.001467683119699359,0.005401429254561663
1769668068930832600,5.44283251953125,0.0049923560582101345,-0.002333979122340679,0.00627521239221096
1769668068940821800,5.45282177734375,0.005295775830745697,-0.006375791504979134,0.0013942449586465955
1769668068950810600,5.462810546875,0.00503878016024828,-0.0020191262010484934,0.0062318770214915276
1769668068960799700,5.4727998046875,0.0029050731100142,-0.003282935591414571,0.007842913269996643
1769668068970787800,5.482787841796875,-0.00008539040572941303,-0.004636353813111782,0.005258581601083279
1769668068980776700,5.492776611328125,-0.003836676012724638,-0.007745160721242428,0.0048867082223296165
1769668068990765800,5.502765869140625,-0.009413069114089012,-0.01100700069218874,0.0033111819066107273
1769668069000754700,5.512754638671875,-0.011782700195908546,-0.015408976003527641,-0.0006500529125332832
1769668069010743600,5.52274365234375,-0.008058534935116768,-0.010580399073660374,0.003343357238918543
1769668069020731600,5.532731689453125,0.0009649228304624557,-0.001728287898004055,0.010285177268087864
1769668069030720800,5.542720703125,0.009318992495536804,0.01452258788049221,0.01644187420606613
1769668069040709600,5.552709716796875,0.013046754524111748,0.016329839825630188,0.020666470751166344
1769668069050698800,5.56269873046875,0.00999104417860508,0.010723885148763657,0.017471741884946823
1769668069060688000,5.57268798828125,0.0026461328379809856,0.004350209608674049,0.01489866804331541
1769668069070676700,5.5826767578125,0.00005647481884807348,0.001405020011588931,0.012535112909972668
1769668069080664600,5.59266455078125,0.001720182248391211,0.0003168955445289612,0.011673921719193459
1769668069090653700,5.60265380859375,-0.000046558910980820656,-0.005233132280409336,0.009679745882749557
1769668069100642600,5.612642578125,-0.0008399576181545854,-0.011453111656010151,0.01008251216262579
1769668069110631700,5.622631591796875,-0.0021257316693663597,-0.013718130066990852,0.01252463087439537
1769668069120620800,5.632620849609375,-0.00256368494592607,-0.013526351191103458,0.015457859262824059
1769668069130609000,5.64260888671875,0.0009045497281476855,-0.008315609768033028,0.020359672605991364
1769668069140597800,5.65259765625,0.004348647780716419,-0.0023307634983211756,0.02010018564760685
1769668069150586600,5.662586669921875,0.006248547229915857,0.0010016501182690263,0.01275651901960373
1769668069160575700,5.67257568359375,0.00640891632065177,0.004185953177511692,0.0047781746834516525
1769668069170564600,5.682564697265625,0.005725283175706863,0.005986250005662441,0.001393030514009297
1769668069180552700,5.692552734375,0.007861933670938015,0.007184612099081278,-0.0003106445074081421
1769668069190541800,5.702541748046875,0.009592455811798573,0.009015269577503204,0.0035637221299111843
1769668069200530700,5.71253076171875,0.008468739688396454,0.010007919743657112,0.008433389477431774
1769668069210519800,5.722519775390625,0.006208781152963638,0.0087349284440279,0.006865586619824171
1769668069220509000,5.732509033203125,0.006492133717983961,0.004422883503139019,0.008261247538030148
1769668069230496800,5.742496826171875,0.005518748890608549,0.003922741860151291,0.005578911863267422
1769668069240485600,5.752485595703125,0.005846964195370674,8.139759302139282e-7,0.006978286430239677
1769668069250474800,5.762474853515625,0.007735145278275013,0.0015763401752337813,0.009176992811262608
1769668069260463600,5.772463623046875,0.007916479371488094,0.001366175478324294,0.014799114316701889
1769668069270452700,5.78245263671875,0.005441604182124138,-0.0039702667854726315,0.012586293742060661
1769668069280440800,5.79244091796875,0.0033803661353886127,-0.0075613101944327354,0.0035621244460344315
1769668069290429700,5.8024296875,0.002043193206191063,-0.006449440494179726,0.0013138838112354279
1769668069300418600,5.81241845703125,0.003300364362075925,-0.0051894886419177055,0.004006390925496817
1769668069310407700,5.82240771484375,0.003832996590062976,-0.0029439108911901712,0.005961683578789234
1769668069320396500,5.832396484375,0.002000080421566963,-0.0025196373462677,0.00683548953384161
1769668069330384600,5.842384521484375,0.0006570481928065419,-0.0015052391681820154,0.004319335334002972
1769668069340373800,5.852373779296875,0.002345556393265724,0.0003506557550281286,0.00462345639243722
1769668069350363000,5.86236279296875,0.0031402434688061476,-0.0015636244788765907,0.007515116594731808
1769668069360351700,5.872351806640625,0.006312290672212839,-0.0028453052509576082,0.00784987397491932
1769668069370340600,5.882340576171875,0.006435328628867865,-0.004812316037714481,0.00912472978234291
1769668069380328700,5.89232861328125,0.0032148852478712797,-0.007830481976270676,0.008695198222994804
1769668069390317600,5.902317626953125,0.003572014858946204,-0.008607059717178345,0.010695764794945717
1769668069400306700,5.912306640625,0.00388489942997694,-0.009558179415762424,0.013084499165415764
1769668069410295800,5.9222958984375,0.005700376350432634,-0.006251332350075245,0.01618202030658722
1769668069420284700,5.93228466796875,0.006045293062925339,-0.0017643333412706852,0.018098020926117897
1769668069430272800,5.942272705078125,0.005171509459614754,-0.000880430219694972,0.01432032696902752
1769668069440261600,5.95226171875,0.003598337061703205,-0.003425514092668891,0.009112877771258354
1769668069450250800,5.962250732421875,-0.0009487440693192184,-0.006392274983227253,0.006025475449860096
1769668069460239600,5.972239501953125,-0.0047944094985723495,-0.008238406851887703,0.0038139931857585907
1769668069470228700,5.982228759765625,-0.0028351214714348316,-0.008192067965865135,0.008073985576629639
1769668069480216800,5.992216796875,0.0029895445331931114,0.0002273396821692586,0.011936143971979618
1769668069490205000,6.002204833984375,0.007289484608918428,0.003801035461947322,0.017653416842222214
1769668069500194000,6.012194091796875,0.004758100491017103,-0.001430973643437028,0.015663018450140953
1769668069510183000,6.022182861328125,-0.00010882620699703693,-0.008950409479439259,0.016081135720014572
1769668069520171800,6.032171875,-0.002245540264993906,-0.012826134450733662,0.01566728577017784
1769668069530159900,6.042159912109375,-0.000591717311181128,-0.010098258964717388,0.01891101524233818
1769668069540149000,6.05214892578125,0.00767030194401741,-0.005292719695717096,0.01909302920103073
1769668069550138000,6.06213818359375,0.011657853610813618,-0.0013445832300931215,0.017253050580620766
1769668069560127000,6.072126953125,0.01235649548470974,-0.0001968960277736187,0.013312490656971931
1769668069570116000,6.0821162109375,0.009377216920256615,-0.002609453396871686,0.0076125264167785645
1769668069580105000,6.09210498046875,0.00579958176240325,-0.00686995405703783,0.00243347673676908
1769668069590092800,6.1020927734375,0.0030325576663017273,-0.0031899982132017612,-0.0005412742029875517
1769668069600082000,6.11208203125,0.007189229130744934,0.0005117101827636361,0.0004273052327334881
1769668069610071000,6.122071044921875,0.011198085732758045,0.01142827421426773,0.0048223198391497135
1769668069620060000,6.132059814453125,0.012691383250057697,0.014632885344326496,0.007599987089633942
1769668069630049000,6.142049072265625,0.01072756852954626,0.01068741176277399,0.010299100540578365
1769668069640037000,6.152037109375,0.004128388594835997,0.0038853692822158337,0.007035689428448677
1769668069650025700,6.162025634765625,0.00068066013045609,0.0027010617777705193,0.004469733685255051
1769668069660014800,6.172014892578125,-0.0012233159504830837,0.0031737990211695433,-0.0010734465904533863
1769668069670004000,6.18200390625,0.0037895520217716694,0.010280977003276348,-0.0026337923482060432
1769668069679992800,6.191992919921875,0.009190003387629986,0.014975462108850479,-0.0015862509608268738
1769668069689981000,6.20198095703125,0.01026538759469986,0.017235154286026955,0.0004723728634417057
1769668069699970000,6.211969970703125,0.0063744597136974335,0.014280146919190884,0.0029084153939038515
1769668069709959000,6.221958984375,0.0006694358307868242,0.0057332636788487434,0.003709760494530201
1769668069719948000,6.231947998046875,-0.005190209019929171,-0.0019141631200909615,0.002553040161728859
1769668069729937000,6.24193701171875,-0.00962836667895317,-0.005272143054753542,0.0018611510749906301
1769668069739925000,6.251925048828125,-0.007381429895758629,-0.0026873538736253977,0.004069310612976551
1769668069749913900,6.261913818359375,0.00023574347142130136,-0.0002388434950262308,0.008419051766395569
1769668069759903000,6.271903076171875,0.004934101831167936,0.0048279426991939545,0.008873486891388893
1769668069769892000,6.28189208984375,0.005258208606392145,0.004346443340182304,0.005592738278210163
1769668069779881000,6.291880859375,0.0006805778248235583,0.003875808324664831,0.004520789720118046
1769668069789869000,6.301869140625,-0.0010241115232929587,0.0005913317436352372,0.0019463119097054005
1769668069799858000,6.31185791015625,0.0006156985182315111,-0.0022089965641498566,0.0009640927892178297
1769668069809846800,6.3218466796875,-0.0022195028141140938,-0.0025155264884233475,0.0008807359263300896
1769668069819836000,6.3318359375,-0.003946750890463591,-0.006697541102766991,0.003278351854532957
1769668069829825000,6.341824951171875,-0.004982720594853163,-0.010712789371609688,0.0009704565163701773
1769668069839813000,6.351813232421875,-0.006531760096549988,-0.01637769304215908,0.002094241324812174
1769668069849802000,6.361802001953125,-0.003532774280756712,-0.012254321947693825,0.003784816013649106
1769668069859791000,6.371791015625,-0.004242102615535259,-0.011373849585652351,0.00313556008040905
1769668069869780000,6.381780029296875,-0.0023685689084231853,-0.012279856950044632,0.0009887858759611845
1769668069879768800,6.391768798828125,-0.0043468596413731575,-0.013798787258565426,0.0031716604717075825
1769668069889757000,6.4017568359375,-0.005721317604184151,-0.016183383762836456,0.003828662447631359
1769668069899746000,6.41174609375,-0.006581404246389866,-0.016455713659524918,0.0030305637046694756
1769668069909735000,6.42173486328125,-0.006210159510374069,-0.012648193165659904,0.006088138557970524
1769668069919724000,6.43172412109375,-0.002841886831447482,-0.009967111982405186,0.0036210771650075912
1769668069929713000,6.441712890625,-0.003150813514366746,-0.011808155104517937,0.00013846158981323242
1769668069939700700,6.45170068359375,-0.0030280626378953457,-0.015306669287383556,-0.003962681628763676
1769668069949689900,6.46168994140625,-0.007139450870454311,-0.013631009496748447,0.000504771014675498
1769668069959679000,6.471678955078125,-0.012049281969666481,-0.02142399176955223,0.0015390656189993024
1769668069969667800,6.481667724609375,-0.015793154016137123,-0.02779560536146164,0.0020570503547787666
1769668069979657000,6.491656982421875,-0.019199250265955925,-0.02972286567091942,0.010633833706378937
1769668069989645000,6.50164501953125,-0.015026875771582127,-0.031075485050678253,0.006282760761678219
1769668069999634000,6.511634033203125,-0.013921936973929405,-0.03291206434369087,0.0037766792811453342
1769668070009623000,6.521623046875,-0.01391794253140688,-0.031427353620529175,0.004508249461650848
1769668070019612000,6.53161181640625,-0.011664183810353279,-0.031830500811338425,0.006674222648143768
1769668070029600800,6.541600830078125,-0.008816732093691826,-0.029126059263944626,0.01138215884566307
1769668070039588900,6.5515888671875,-0.005776652134954929,-0.023027146235108376,0.011892443522810936
1769668070049578000,6.561577880859375,-0.0018162652850151062,-0.020380496978759766,0.011598164215683937
1769668070059566800,6.57156689453125,-0.0049690851010382175,-0.02203359827399254,0.01306626945734024
1769668070069556000,6.581555908203125,-0.011058402247726917,-0.02505442127585411,0.011810855939984322
1769668070079545000,6.591545166015625,-0.01385420747101307,-0.030300235375761986,0.00559036573395133
1769668070089533000,6.601532958984375,-0.013885898515582085,-0.03051089309155941,0.005595425609499216
1769668070099521800,6.611521728515625,-0.010519331321120262,-0.03179246559739113,0.009102961979806423
1769668070109511000,6.621510986328125,-0.008716105483472347,-0.03177914768457413,0.01766369305551052
1769668070119500000,6.6315,-0.00679135974496603,-0.035061076283454895,0.014703506603837013
1769668070129489000,6.641489013671875,-0.009554656222462654,-0.03374360874295235,0.01426594890654087
1769668070139478000,6.65147802734375,-0.010574331507086754,-0.03516897186636925,0.011669319123029709
1769668070149466000,6.661466064453125,-0.009054997935891151,-0.02946128323674202,0.007395744323730469
1769668070159455000,6.671455078125,-0.008269228972494602,-0.02537344954907894,0.01030308473855257
1769668070169443800,6.68144384765625,-0.004625225439667702,-0.01795308291912079,0.010248223319649696
1769668070179433000,6.691432861328125,-0.002242068760097027,-0.013274013996124268,0.008849105797708035
1769668070189421800,6.701421875,0.0019494803855195642,-0.010567443445324898,0.008231518790125847
1769668070199410000,6.711409912109375,0.003435091581195593,-0.008955506607890129,0.008107583038508892
1769668070209399000,6.72139892578125,0.005274004302918911,-0.007742969319224358,0.006288377568125725
1769668070219388000,6.731387939453125,0.0028037703596055508,-0.00961719173938036,0.0078091928735375404
1769668070229377000,6.741376953125,-0.00009241735097020864,-0.015454575419425964,0.009748773649334908
1769668070239366100,6.7513662109375,-0.006950432900339365,-0.02608383074402809,0.008337197825312614
1769668070249354000,6.76135400390625,-0.009067379869520664,-0.028137128800153732,0.009622971527278423
1769668070259342800,6.7713427734375,-0.012993057258427143,-0.028326677158474922,0.005789157003164291
1769668070269332000,6.78133203125,-0.01216508075594902,-0.03523624688386917,-0.004229389131069183
1769668070279320800,6.79132080078125,-0.011521716602146626,-0.03854978084564209,-0.011170385405421257
1769668070289310000,6.80131005859375,-0.006580754183232784,-0.03567196801304817,-0.009921363554894924
1769668070299298000,6.811298095703125,-0.005533146671950817,-0.03314143791794777,-0.0013699776027351618
1769668070309287200,6.821287109375,-0.008377935737371445,-0.0314098484814167,0.0019081073114648461
1769668070319275800,6.83127587890625,-0.009752392768859863,-0.03324636444449425,0.0007243321742862463
1769668070329265000,6.841264892578125,-0.00943521037697792,-0.03176404908299446,0.0016116974875330925
1769668070339254000,6.85125390625,-0.008908079005777836,-0.02818969078361988,0.0004466865211725235
1769668070349241900,6.861241943359375,-0.0060686166398227215,-0.02391824685037136,0.0015473710373044014
1769668070359231000,6.87123095703125,-0.005665202159434557,-0.019966939464211464,0.0001718476414680481
1769668070369220000,6.88122021484375,-0.00694698141887784,-0.023454882204532623,0.00439615361392498
1769668070379209000,6.891208984375,-0.010827244259417057,-0.025788715109229088,0.007409932091832161
1769668070389198000,6.901197998046875,-0.010882638394832611,-0.030345384031534195,0.006882891990244389
1769668070399186000,6.91118603515625,-0.012558471411466599,-0.033119503408670425,0.008252897299826145
1769668070409175000,6.921175048828125,-0.011374963447451591,-0.03996222838759422,0.0067985448986291885
1769668070419164000,6.931163818359375,-0.014135336503386497,-0.04569577798247337,0.0061330185271799564
1769668070429153000,6.941153076171875,-0.017976945266127586,-0.0468747578561306,0.007959147915244102
1769668070439142000,6.951141845703125,-0.0185542069375515,-0.05111813172698021,0.007268741726875305
1769668070449130000,6.9611298828125,-0.01772276684641838,-0.048565756529569626,0.007916955277323723
1769668070459118800,6.971118896484375,-0.019705157727003098,-0.04919177666306496,0.010413977317512035
1769668070469108000,6.98110791015625,-0.02213582582771778,-0.04510648921132088,0.010993747971951962
1769668070479096800,6.991096923828125,-0.02174709178507328,-0.04197121784090996,0.009879941120743752
1769668070489086000,7.0010859375,-0.018991252407431602,-0.036230240017175674,0.007653539068996906
1769668070499074000,7.011073974609375,-0.014883986674249172,-0.028349056839942932,0.005696991458535194
1769668070509062700,7.021062744140625,-0.010819470509886742,-0.02021389827132225,0.0012441863073036075
1769668070519051800,7.0310517578125,-0.009741083718836308,-0.01252014096826315,-0.0001804153434932232
1769668070529041000,7.041041015625,-0.014186698012053967,-0.008470271714031696,-0.00151545787230134
1769668070539029800,7.05102978515625,-0.012693500146269798,-0.005194688681513071,-0.0042764791287481785
1769668070549017900,7.061017822265625,-0.010382942855358124,-0.0040479316376149654,-0.0023459536023437977
1769668070559007000,7.071007080078125,-0.010032552294433117,-0.0011466916184872389,-0.0048685222864151
1769668070568995800,7.080995849609375,-0.0088754091411829,0.00007916148751974106,-0.007277084514498711
1769668070578985000,7.09098486328125,-0.007402419578284025,0.0047079408541321754,-0.01118612289428711
1769668070588973800,7.100973876953125,-0.006565387826412916,0.0075772306881845,-0.006822533905506134
1769668070598962000,7.1109619140625,-0.005530266556888819,0.014132639393210411,-0.006427804473787546
1769668070608950800,7.12095068359375,-0.002552319783717394,0.016016293317079544,-0.010629206895828247
1769668070618940000,7.13093994140625,-0.003670726204290986,0.013103232719004154,-0.014564363285899162
1769668070628929000,7.140928955078125,-0.0009865261381492019,0.01592937856912613,-0.01917482726275921
1769668070638918000,7.15091796875,0.006027053575962782,0.027495848014950752,-0.02093164622783661
1769668070648905700,7.16090576171875,0.006542908027768135,0.030393900349736214,-0.02101154252886772
1769668070658894800,7.170894775390625,0.004626509267836809,0.03521866351366043,-0.025454606860876083
1769668070668883700,7.1808837890625,0.002432597102597356,0.03198558837175369,-0.030876804143190384
1769668070678872800,7.190872802734375,0.0025195451453328133,0.033695247024297714,-0.03365349397063255
1769668070688862000,7.200862060546875,0.004561923444271088,0.038034066557884216,-0.03651372715830803
1769668070698849800,7.210849853515625,0.00499899173155427,0.03948912024497986,-0.03411192074418068
1769668070708839000,7.2208388671875,0.0029467600397765636,0.038147952407598495,-0.028985334560275078
1769668070718828000,7.230828125,-0.002847441239282489,0.029438458383083344,-0.02919693849980831
1769668070728817000,7.24081689453125,-0.008648605085909367,0.016873396933078766,-0.027956169098615646
1769668070738805800,7.2508056640625,-0.012740853242576122,0.010056724771857262,-0.030116595327854156
1769668070748793900,7.2607939453125,-0.009840670973062515,0.010239151306450367,-0.0284489244222641
1769668070758783000,7.270782958984375,-0.0023656755220144987,0.01600520685315132,-0.020476948469877243
1769668070768771800,7.280771728515625,0.009190313518047333,0.0260490532964468,-0.014037158340215683
1769668070778761000,7.290760986328125,0.013382975943386555,0.030733248218894005,-0.006808055564761162
1769668070788749800,7.300749755859375,0.01269241888076067,0.03148319572210312,-0.0033813663758337498
1769668070798737700,7.310737548828125,0.010869794525206089,0.02455221861600876,-0.00023600365966558456
1769668070808726800,7.320726806640625,0.0055245645344257355,0.018871430307626724,-0.0007156389765441418
1769668070818716000,7.3307158203125,0.004729604814201593,0.01478528045117855,-0.0027982790488749743
1769668070828704800,7.340704833984375,0.006747481878846884,0.013887528330087662,-0.002918654354289174
1769668070838694000,7.35069384765625,0.011699270457029343,0.01123835239559412,-0.0045563518069684505
1769668070848682000,7.360681884765625,0.012594890780746937,0.01897669956088066,-0.00037465617060661316
1769668070858670800,7.3706708984375,0.00699107488617301,0.015071235597133636,0.0016675026854500175
1769668070868660000,7.380659912109375,-0.004218969028443098,0.002020415151491761,-0.0003402545116841793
1769668070878648800,7.39064892578125,-0.01618911698460579,-0.007155612111091614,-0.003569990396499634
1769668070888637700,7.4006376953125,-0.016579270362854004,-0.012507501058280468,-0.00491621857509017
1769668070898626800,7.410626708984375,-0.009881346486508846,-0.0066949413157999516,-0.006231843028217554
1769668070908615000,7.420614990234375,-0.0004332498647272587,0.0011158438865095377,-0.0015412168577313423
1769668070918603800,7.430603759765625,0.005609252955764532,0.005600365810096264,0.0006883793976157904
1769668070928593000,7.440593017578125,0.0059722415171563625,0.008047012612223625,0.0025691038463264704
1769668070938582000,7.45058203125,0.0024942453019320965,0.005031910724937916,-0.002613285556435585
1769668070948569900,7.46056982421875,-0.006012956611812115,0.004978381097316742,-0.006518278270959854
1769668070958558700,7.470558837890625,-0.007538061589002609,0.0025328686460852623,-0.009539829567074776
1769668070968547800,7.4805478515625,-0.004520167596638203,0.005671670660376549,-0.009429308585822582
1769668070978537000,7.490536865234375,-0.0014595562824979424,0.008994542993605137,-0.007813730277121067
1769668070988525800,7.50052587890625,-0.0002363664098083973,0.00882729608565569,-0.005204364657402039
1769668070998514000,7.510513916015625,-0.0037842444144189358,0.0052078766748309135,-0.010452904738485813
1769668071008503000,7.5205029296875,-0.005018353462219238,0.0031412639655172825,-0.013208211399614811
1769668071018492000,7.530491943359375,-0.0033677364699542522,0.008289830759167671,-0.01314838882535696
1769668071028480800,7.540480712890625,0.0007814685814082623,0.011641418561339378,-0.009554718621075153
1769668071038470000,7.550469970703125,0.0032440561335533857,0.01523764617741108,-0.005263954401016235
1769668071048458800,7.560458740234375,0.0023244665935635567,0.012612834572792053,-0.0034162537194788456
1769668071058446800,7.57044677734375,-0.0012439161073416471,0.007043774239718914,-0.004025147296488285
1769668071068436000,7.58043603515625,-0.006364375818520784,0.0015592601848766208,-0.006975929718464613
1769668071078424800,7.5904248046875,-0.007111733313649893,-0.00023645348846912384,-0.004846709780395031
1769668071088414000,7.6004140625,-0.0027153866831213236,0.00144107174128294,-0.0036874357610940933
1769668071098403000,7.610403076171875,0.0008160817669704556,0.008043691515922546,-0.0007527514826506376
1769668071108391000,7.620390869140625,0.004529593512415886,0.007629835978150368,0.0011881603859364986
1769668071118379800,7.6303798828125,0.0036062938161194324,0.006174338050186634,0.00020053843036293983
1769668071128369000,7.640368896484375,-0.0013525121612474322,0.004427837207913399,-0.003186736023053527
1769668071138357800,7.650357666015625,-0.004331218544393778,-0.0008650890085846186,-0.005299834534525871
1769668071148347000,7.660346923828125,-0.007163224276155233,0.0034460360184311867,-0.002337867161259055
1769668071158335000,7.6703349609375,-0.0036159935407340527,0.007342314347624779,-0.002376916818320751
1769668071168323800,7.68032373046875,-0.001752313575707376,0.00960759911686182,-0.002411804161965847
1769668071178312700,7.690312744140625,0.0007334068650379777,0.005942346528172493,-0.00633195461705327
1769668071188301800,7.7003017578125,-0.0028605288825929165,0.002836834406480193,-0.007466993760317564
1769668071198291000,7.710291015625,-0.002689213491976261,0.005208590067923069,-0.004281077068299055
1769668071208278800,7.72027880859375,-0.0028846897184848785,0.005797415040433407,0.00043325056321918964
1769668071218268000,7.730267822265625,-0.00235035945661366,0.0048836106434464455,0.0007173111662268639
1769668071228257000,7.740257080078125,-0.003479539882391691,0.005462848115712404,-0.0025013855192810297
1769668071238246000,7.750245849609375,-0.0013279536506161094,0.005792791023850441,-0.0020555390510708094
1769668071248235000,7.760235107421875,0.00018578709568828344,0.008124655112624168,-0.0033245354425162077
1769668071258222800,7.770222900390625,0.0033851475454866886,0.010675625875592232,-0.002248988952487707
1769668071268212000,7.7802119140625,0.00605443399399519,0.011843688786029816,-0.0015286039561033249
1769668071278200800,7.790200927734375,0.006889441516250372,0.011698593385517597,-0.002076677978038788
1769668071288190000,7.80018994140625,0.005031620152294636,0.010761693120002747,-0.0034990720450878143
1769668071298178800,7.8101787109375,0.0026096024084836245,0.008417070843279362,-0.0011204690672457218
1769668071308167000,7.8201669921875,0.0010886709205806255,0.006232214160263538,-0.0012698727659881115
1769668071318155800,7.83015576171875,0.00016899092588573694,0.008131335489451885,-0.0036207118537276983
1769668071328145000,7.840144775390625,0.0022166953422129154,0.00900165643543005,-0.005145903676748276
1769668071338133800,7.8501337890625,0.0037022142205387354,0.010003925301134586,-0.005167640279978514
1769668071348123000,7.860122802734375,0.00423218309879303,0.008305893279612064,-0.0030664061196148396
1769668071358111000,7.870111083984375,0.002955150790512562,0.00407630018889904,-0.0071396660059690475
1769668071368099800,7.880099853515625,-0.0025426787324249744,-0.0013514887541532516,-0.006442982703447342
1769668071378089000,7.8900888671875,-0.004435947630554438,-0.0006475984118878841,-0.00676674535498023
1769668071388078000,7.900078125,-0.0022873093839734793,0.0008152759401127696,-0.005620521027594805
1769668071398066700,7.910066650390625,0.0012104531051591039,0.0050362832844257355,-0.005888028535991907
1769668071408054800,7.9200546875,0.004684280138462782,0.007545513566583395,-0.0030770618468523026
1769668071418044000,7.9300439453125,0.004376692697405815,0.005091473460197449,-0.0018769954331219196
1769668071428032800,7.94003271484375,0.0011412182357162237,0.0021638604812324047,-0.0015560844913125038
1769668071438022000,7.95002197265625,-0.0026714010164141655,0.0015903760213404894,-0.0016297081019729376
1769668071448011000,7.960010986328125,-0.00048281525960192084,0.0013911715941503644,-0.003655308624729514
1769668071457998800,7.969998779296875,-0.0001050545834004879,0.0026488900184631348,-0.0028774715028703213
1769668071467987700,7.97998779296875,0.0017793980659916997,0.0053549278527498245,-0.0028433832339942455
1769668071477976800,7.989976806640625,0.004066976718604565,0.005934752523899078,-0.0028401613235473633
1769668071487965700,7.999965576171875,0.0025726770982146263,0.004258559085428715,-0.000920288497582078
1769668071497955600,8.00995556640625,0.002047100570052862,0.003106445074081421,-0.0007019347976893187
1769668071507943400,8.019943359375,0.00017995818052440882,-0.0005242421757429838,0.001269337022677064
1769668071517932300,8.029932373046876,0.00005114322993904352,-0.0012382285203784704,0.0020962716080248356
1769668071527921400,8.03992138671875,0.0011662087636068463,0.00035141222178936005,0.0023487391881644726
1769668071537910500,8.04991064453125,0.0006319404346868396,0.0026565385051071644,0.0018631246639415622
1769668071547899400,8.0598994140625,-0.0001337183639407158,0.0049756187945604324,0.00026336382143199444
1769668071557887500,8.069887451171875,-0.002730097621679306,0.007497810758650303,-0.0036720349453389645
1769668071567876400,8.07987646484375,0.000596456928178668,0.011581501923501492,-0.004203868098556995
1769668071577865500,8.089865478515625,0.0057798102498054504,0.022149357944726944,-0.001775427721440792
1769668071587854300,8.099854248046874,0.009199840947985649,0.029664533212780952,0.0004395234864205122
1769668071597843500,8.109843505859375,0.010804683901369572,0.02500498853623867,0.0001850668340921402
1769668071607831600,8.11983154296875,0.006765733007341623,0.017322832718491554,0.00027641328051686287
1769668071617820400,8.1298203125,0.003032372333109379,0.00795640330761671,-0.0007058335468173027
1769668071627809500,8.1398095703125,0.004512823652476072,0.002549919532611966,-0.0008107621688395739
1769668071637798700,8.149798583984374,0.007406966760754585,0.0022724862210452557,-0.0013031072448939085
1769668071647787500,8.15978759765625,0.011250973679125309,0.0009989625541493297,-0.001487131929025054
1769668071657775400,8.169775390625,0.011725829914212227,0.0014534811489284039,-0.001853966386988759
1769668071667764500,8.179764404296876,0.008668786846101284,-0.00006611854769289494,-0.002394854323938489
1769668071677753300,8.18975341796875,0.004963825922459364,0.0013903480721637607,-0.004485948011279106
1769668071687742500,8.199742431640624,0.0040655420161783695,-0.0012451161164790392,-0.003458766732364893
1769668071697731600,8.209731689453125,0.0053899819031357765,0.0036494708620011806,-0.003888916689902544
1769668071707719700,8.2197197265625,0.007573241833597422,0.006447920575737953,-0.0029858388006687164
1769668071717708300,8.229708251953125,0.009274590760469437,0.014271127991378307,0.001120153465308249
1769668071727697400,8.239697509765625,0.007058307528495789,0.014519601128995419,0.007300551515072584
1769668071737686300,8.249686279296874,0.006301769521087408,0.01359616406261921,0.01162642240524292
1769668071747675400,8.25967529296875,-0.0003537361044436693,0.007835214026272297,0.010475936345756054
1769668071757663500,8.26966357421875,0.00006991508416831493,-0.0029149858746677637,0.00024108984507620335
1769668071767652600,8.279652587890626,-0.00024380534887313843,-0.0027357551734894514,-0.005796296522021294
1769668071777641500,8.289641357421875,-0.0013220260152593255,0.0019496741006150842,0.00020392611622810364
1769668071787630600,8.299630615234374,-0.0037220667582005262,-0.004379328340291977,-0.0019164825789630413
1769668071797619500,8.309619384765625,-0.005193160846829414,-0.006622137501835823,-0.007041080854833126
1769668071807607300,8.319607177734374,-0.00805339589715004,-0.0096147321164608,-0.01010637916624546
1769668071817596400,8.329596435546875,-0.0080307861790061,-0.009520438499748707,-0.01040014810860157
1769668071827585500,8.33958544921875,-0.004611554089933634,-0.006986973807215691,-0.010022511705756187
1769668071837574400,8.349574462890626,0.005594246555119753,0.006469758227467537,-0.0029703923501074314
1769668071847563500,8.3595634765625,0.016911614686250687,0.017303498461842537,0.0003383189905434847
1769668071857551400,8.36955126953125,0.01521732285618782,0.0196406040340662,0.0045220316387712955
1769668071867540500,8.37954052734375,0.007986841723322868,0.013335302472114563,0.005172641947865486
1769668071877529300,8.389529296875,-0.00000820937566459179,0.004439468961209059,-0.004739939700812101
1769668071887518500,8.3995185546875,-0.0031515383161604404,0.0002284785732626915,-0.004140195902436972
1769668071897507300,8.40950732421875,0.000011616386473178864,0.002316567115485668,-0.001599073177203536
1769668071907495400,8.419495361328124,0.0019344185711815953,0.005911301821470261,0.004291039891541004
1769668071917484500,8.429484619140625,0.0018605916993692517,0.002325537847355008,0.0017001645173877478
1769668071927473700,8.4394736328125,-0.001720827305689454,-0.004155796952545643,-0.0030442571733146906
1769668071937462500,8.449462646484376,-0.006396146956831217,-0.010903807356953621,-0.005247298162430525
1769668071947451400,8.459451416015625,-0.007722933776676655,-0.009416963905096054,-0.0037127849645912647
1769668071957439500,8.469439453125,-0.006721368990838528,-0.004219767637550831,-0.0017566436436027288
1769668071967428400,8.479428466796875,-0.002847268246114254,0.0019688857719302177,0.00028999545611441135
1769668071977417500,8.48941748046875,0.0006312723271548748,0.006663499865680933,0.0028761662542819977
1769668071987406600,8.499406494140626,0.00000755989458411932,0.005449631251394749,0.0032716456335037947
1769668071997395500,8.5093955078125,-0.0008456688956357539,0.003946771379560232,0.0053467340767383575
1769668072007383300,8.51938330078125,-0.003755172248929739,0.002998153679072857,0.009771576151251793
1769668072017372400,8.529372314453125,-0.004325972869992256,-0.00011583161540329456,0.006165958009660244
1769668072027361300,8.539361328125,-0.0031400672160089016,-0.00006736209616065025,0.002067885361611843
1769668072037350400,8.549350341796876,-0.0009867340559139848,-0.00013637985102832317,-0.0003923557233065367
1769668072047339500,8.559339599609375,-0.00041468709241598845,0.001416775630787015,-0.0023638936690986156
1769668072057327600,8.56932763671875,0.00023539061658084393,0.0035811266861855984,-0.0034717689268290997
1769668072067316500,8.57931640625,0.0004095613257959485,-0.0013731520157307386,-0.004727182909846306
1769668072077305600,8.5893056640625,-0.0017153748776763678,-0.002475434448570013,-0.0018477733246982098
1769668072087294500,8.59929443359375,-0.005074952729046345,-0.004033916164189577,0.001094753504730761
1769668072097283300,8.609283447265625,-0.0051680272445082664,-0.005875727627426386,-0.002151082968339324
1769668072107271400,8.619271484375,-0.005410108715295792,-0.003188331611454487,-0.003710363758727908
1769668072117260500,8.629260498046875,-0.004003829322755337,0.00044339022133499384,0.00012456392869353294
1769668072127249400,8.63924951171875,0.00040769705083221197,0.011300299316644669,0.0074170976877212524
1769668072137238500,8.649238525390626,0.0006753936177119613,0.017129123210906982,0.011727109551429749
1769668072147227600,8.6592275390625,0.0006666049594059587,0.012911473400890827,0.010077281855046749
1769668072157215200,8.66921533203125,-0.005086824297904968,0.006317633204162121,0.010446063242852688
1769668072167204400,8.679204345703125,-0.00964375864714384,-0.0018159272149205208,0.008430849760770798
1769668072177193500,8.689193359375,-0.012148531153798103,-0.005624189041554928,0.011422662064433098
1769668072187182300,8.699182373046876,-0.007861641235649586,-0.002471272135153413,0.011540640145540237
1769668072197171500,8.70917138671875,0.0008230718085542321,-0.00014292635023593903,0.012821534648537636
1769668072207159600,8.71915966796875,0.00361832557246089,0.0011553647927939892,0.0131214065477252
1769668072217148400,8.7291484375,0.0025261184200644493,-0.0035892834421247244,0.01138746552169323
1769668072227137500,8.739137451171874,-0.0036390996538102627,-0.010501784272491932,0.008702466264367104
1769668072237126400,8.74912646484375,-0.008252674713730812,-0.013531653210520744,0.006284601986408234
1769668072247115300,8.759115234375,-0.006734407041221857,-0.013636315241456032,0.0037759041879326105
1769668072257103400,8.769103271484376,0.002366284839808941,-0.004103649407625198,0.007815519347786903
1769668072267092500,8.779092529296875,0.009040165692567825,0.002894073026254773,0.009630197659134865
1769668072277081600,8.78908154296875,0.0055718328803777695,0.004621623549610376,0.011218760162591934
1769668072287070500,8.799070556640626,-0.0004402534104883671,-0.0028599947690963745,0.006201631389558315
1769668072297059600,8.8090595703125,-0.007612314075231552,-0.007558360230177641,0.00555657222867012
1769668072307047400,8.81904736328125,-0.005508416797965765,-0.005170303396880627,0.005805311258882284
1769668072317036300,8.829036376953125,-0.00003586336970329285,0.002798063214868307,0.01102214865386486
1769668072327025400,8.839025390625,0.006161046214401722,0.009478336200118065,0.011985681019723415
1769668072337014500,8.8490146484375,0.004607554525136948,0.007857120595872402,0.01234394870698452
1769668072347003400,8.85900341796875,-0.004243994131684303,-0.00014780880883336067,0.00855746679008007
1769668072356991500,8.868991455078126,-0.008664857596158981,-0.004821574781090021,0.004768706858158112
1769668072366980600,8.878980712890625,-0.005497826263308525,-0.0017360362689942122,0.008257980458438396
1769668072376969200,8.88896923828125,0.0010091789299622178,0.005662478506565094,0.01122495997697115
1769668072386958300,8.898958251953125,0.007755232509225607,0.01057174988090992,0.012583172880113125
1769668072396947500,8.908947509765625,0.00521697336807847,0.00657301302999258,0.009247829206287861
1769668072406935600,8.918935546875,-0.0020614457316696644,-0.001501424703747034,0.005707955919206142
1769668072416924400,8.92892431640625,-0.004270847886800766,-0.005921640433371067,0.006484098266810179
1769668072426913500,8.93891357421875,-0.0020612231455743313,-0.0032611426431685686,0.012843193486332893
1769668072436902400,8.94890234375,0.003678490174934268,0.001670914120040834,0.01535634696483612
1769668072446891500,8.9588916015625,0.005510745570063591,0.002081573475152254,0.009133338928222656
1769668072456879400,8.96887939453125,0.005500246305018663,0.00021038635168224573,0.007319362834095955
1769668072466868500,8.978868408203125,0.005204635206609964,-0.0024245453532785177,0.0068288082256913185
1769668072476857300,8.988857421875,0.004111355170607567,-0.004682396072894335,0.008906071074306965
1769668072486846500,8.998846435546875,0.006171843037009239,-0.0029550697654485703,0.010262951254844666
1769668072496835600,9.008835693359375,0.008119508624076843,-0.0010395338758826256,0.01008708868175745
1769668072506823400,9.018823486328126,0.007818305864930153,-0.0007170250173658133,0.009965382516384125
1769668072516812500,9.0288125,0.005813966505229473,0.000877774553373456,0.009386774152517319
1769668072526801400,9.038801513671874,0.006093864794820547,-0.00020852894522249699,0.009367333725094795
1769668072536790300,9.048790283203125,0.004981725011020899,0.0014665389899164438,0.009771018289029598
1769668072546779400,9.058779296875,0.00637029716745019,0.005438643507659435,0.008448492735624313
1769668072556767500,9.068767578125,0.005940326955169439,0.008731612004339695,0.00773394200950861
1769668072566756600,9.078756591796875,0.0031930101104080677,0.005818113684654236,0.005809275433421135
1769668072576745500,9.088745361328124,0.0006074394332244992,0.00289222807623446,0.01052931696176529
1769668072586734600,9.098734619140625,-0.002758529968559742,0.00206531654112041,0.007916489616036415
1769668072596723500,9.108723388671875,-0.0027526328340172768,-0.0014606025069952011,0.008463889360427856
1769668072606711300,9.118711181640625,-0.00528583163395524,-0.007206372916698456,0.006920587737113237
1769668072616700400,9.128700439453125,-0.004305119626224041,-0.009488404728472233,0.005906214006245136
1769668072626689500,9.138689453125,-0.004298461601138115,-0.010042875073850155,0.0032302699983119965
1769668072636678400,9.148678466796875,-0.0031899570021778345,-0.008050048723816872,0.002109305700287223
1769668072646667500,9.15866748046875,-0.0030991430394351482,-0.007991459220647812,0.002469098661094904
1769668072656655600,9.168655517578125,-0.0024695550091564655,-0.00829919334501028,0.0028458598535507917
1769668072666644500,9.17864453125,-0.002360898070037365,-0.009755942970514297,0.006049908697605133
1769668072676633300,9.18863330078125,-0.001245583058334887,-0.007677738554775715,0.0034949483815580606
1769668072686622500,9.19862255859375,-0.000030116410925984383,-0.005910731852054596,0.0036491453647613525
1769668072696611300,9.208611328125,0.0024085300974547863,-0.00423445226624608,0.0021581538021564484
1769668072706599400,9.218599365234375,0.004313222598284483,-0.0031556058675050735,0.0028314008377492428
1769668072716588500,9.228588623046875,0.0033355411142110825,-0.003290940308943391,0.003406309289857745
1769668072726577400,9.238577392578126,0.0015823820140212774,-0.002963904058560729,0.0015751196769997478
1769668072736566500,9.24856640625,0.0014604446478188038,-0.0044182101264595985,0.0017176668625324965
1769668072746555600,9.2585556640625,0.00155045953579247,-0.005541531834751368,0.003459640545770526
1769668072756543500,9.26854345703125,-0.0007268009940162301,-0.005955797620117664,0.0032935598865151405
1769668072766532400,9.278532470703125,-0.0027324275579303503,-0.008741198107600212,0.0018764917040243745
1769668072776521500,9.288521484375,-0.00509036285802722,-0.010640314780175686,0.0008381474763154984
1769668072786510600,9.298510498046875,-0.004668251611292362,-0.012995614670217037,0.0021976912394165993
1769668072796499500,9.30849951171875,-0.004644580651074648,-0.011201753281056881,0.005442147143185139
1769668072806487600,9.318487548828125,-0.004179059993475676,-0.008050967007875443,0.006204609759151936
1769668072816476400,9.328476318359375,-0.004427044186741114,-0.007470565382391214,0.005981267895549536
1769668072826465300,9.33846533203125,-0.004518124274909496,-0.009124388918280602,0.003280556295067072
1769668072836454400,9.348454345703125,-0.008082984946668148,-0.014073912054300308,-0.00027614133432507515
1769668072846442500,9.3584423828125,-0.01077011413872242,-0.014709608629345894,-0.001002119155600667
1769668072856431400,9.368431396484375,-0.011624378152191639,-0.011997764930129051,0.0010373019613325596
1769668072866420500,9.37842041015625,-0.010347658768296242,-0.009889340028166771,-0.0005515399388968945
1769668072876409600,9.38840966796875,-0.00882167462259531,-0.009396985173225403,0.00022738822735846043
1769668072886398500,9.3983984375,-0.008869078941643238,-0.011077705770730972,0.0028785651084035635
1769668072896387300,9.40838720703125,-0.007288838271051645,-0.011144556105136871,0.001365597010590136
1769668072906375400,9.41837548828125,-0.008574346080422401,-0.008894983679056168,-0.0005681242328137159
1769668072916364500,9.428364501953125,-0.007135044317692518,-0.005508539266884327,-0.0022824250627309084
1769668072926353400,9.438353515625,-0.007273528259247541,-0.0017830433789640665,-0.0035988253075629473
1769668072936342500,9.448342529296875,-0.006835698615759611,0.0007052096771076322,-0.0038243469316512346
1769668072946330600,9.45833056640625,-0.004749111831188202,0.00040160934440791607,-0.0014080607797950506
1769668072956319500,9.468319580078125,-0.0032187635079026222,0.004210710525512695,-0.00110343424603343
1769668072966308400,9.478308349609375,0.0007959518115967512,0.005990235134959221,-0.0027649803087115288
1769668072976297500,9.48829736328125,0.0007227541645988822,0.006161791272461414,-0.003988106735050678
1769668072986286300,9.498286376953125,0.00044605182483792305,0.005104782059788704,-0.0046597556211054325
1769668072996275500,9.508275390625,0.000019674538634717464,-0.0014429267030209303,-0.009609023109078407
1769668073006263600,9.518263671875,0.0016356806736439466,0.0033009620383381844,-0.007396203000098467
1769668073016252400,9.52825244140625,-0.002943315077573061,0.007252461276948452,-0.006026636343449354
1769668073026241500,9.538241455078126,-0.00924009270966053,0.0014238671865314245,-0.009979033842682838
1769668073036230700,9.548230712890625,-0.015335573814809322,-0.009314104914665222,-0.011989574879407883
1769668073046218500,9.558218505859376,-0.01679232344031334,-0.010278968140482903,-0.013252444565296173
1769668073056207400,9.568207275390625,-0.013099489733576775,-0.007543121464550495,-0.012925711460411549
1769668073066196500,9.578196533203124,-0.006998721044510603,0.0012354563223198056,-0.005530912429094315
1769668073076185300,9.588185302734376,-0.004492509178817272,0.0024745555128902197,-0.0037357446271926165
1769668073086174500,9.598174560546875,-0.008511219173669815,-0.0012149878311902285,-0.005788243375718594
1769668073096162600,9.60816259765625,-0.009662340395152569,-0.002640947001054883,-0.00468815490603447
1769668073106151400,9.6181513671875,-0.008354995399713516,-0.0014214853290468454,-0.003470025025308132
1769668073116140300,9.628140380859374,-0.006814127322286367,0.000561931636184454,-0.0031034292187541723
1769668073126129400,9.63812939453125,-0.006544348783791065,0.002326275920495391,-0.006879258900880814
1769668073136118500,9.648118408203125,-0.007210270036011934,-0.0013517853803932667,-0.010117905214428902
1769668073146107400,9.658107421875,-0.010850544087588787,-0.0062464093789458275,-0.014023428782820702
1769668073156095500,9.668095458984375,-0.01636476069688797,-0.009623922407627106,-0.015588375739753246
1769668073166084600,9.678084716796874,-0.01956108771264553,-0.011553382501006126,-0.017412375658750534
1769668073176073500,9.688073486328125,-0.022163517773151398,-0.01045497227460146,-0.019386745989322662
1769668073186062300,9.698062255859375,-0.02295474335551262,-0.005998970940709114,-0.016085756942629814
1769668073196050400,9.708050537109376,-0.021402526646852493,-0.0005920468829572201,-0.01276114210486412
1769668073206039600,9.71803955078125,-0.022060060873627663,0.005098329391330481,-0.010362697765231133
1769668073216028400,9.7280283203125,-0.025311466306447983,0.00808529369533062,-0.010066336020827293
1769668073226017500,9.738017578125,-0.025037959218025208,0.008368121460080147,-0.008835157379508018
1769668073236006400,9.74800634765625,-0.022570492699742317,0.010210723616182804,-0.007902564480900764
1769668073245994500,9.757994384765626,-0.02216116525232792,0.01070394180715084,-0.00503061106428504
1769668073255983400,9.7679833984375,-0.01933574117720127,0.01212628185749054,-0.008555863983929157
1769668073265972500,9.777972412109374,-0.01812107302248478,0.013213383965194225,-0.010971616953611374
1769668073275961300,9.78796142578125,-0.017700590193271637,0.013229112140834332,-0.011382561177015305
1769668073285950500,9.797950439453125,-0.0147162526845932,0.014363618567585945,-0.013124268501996994
1769668073295938600,9.8079384765625,-0.013000687584280968,0.01770411990582943,-0.01135929487645626
1769668073305927400,9.817927490234375,-0.008793159388005733,0.023634979501366615,-0.008407979272305965
1769668073315916500,9.82791650390625,-0.008379215374588966,0.02536669373512268,-0.008628896437585354
1769668073325905700,9.83790576171875,-0.006203146185725927,0.02488439530134201,-0.01176636666059494
1769668073335894300,9.847894287109375,-0.004431966692209244,0.024184389039874077,-0.014519933611154556
1769668073345882400,9.85788232421875,-0.00119089987128973,0.021572094410657883,-0.013244014233350754
1769668073355871500,9.86787158203125,-0.0027245907112956047,0.018741343170404434,-0.012022184208035469
1769668073365860400,9.8778603515625,-0.005800808314234018,0.012960153631865978,-0.012271988205611706
1769668073375849500,9.887849365234375,-0.005850591231137514,0.013381385244429111,-0.010065414942800999
1769668073385838600,9.897838623046875,-0.0016276167007163167,0.014910572208464146,-0.00790825393050909
1769668073395826400,9.907826416015626,-0.0034391903318464756,0.015922710299491882,-0.006489444524049759
1769668073405815300,9.917815185546875,-0.004122823942452669,0.012005199678242207,-0.005978650413453579
1769668073415804400,9.927804443359374,-0.006606970448046923,0.009762573055922985,-0.008027946576476097
1769668073425793500,9.93779345703125,-0.00495288148522377,0.010675504803657532,-0.004258774220943451
1769668073435782400,9.947782470703125,-0.004986337851732969,0.010074887424707413,-0.0031029602978378534
1769668073445770500,9.9577705078125,-0.005287008825689554,0.010003514587879181,-0.0023098711390048265
1769668073455759600,9.967759521484375,-0.004999264609068632,0.006673463620245457,-0.0019371442031115294
1769668073465748500,9.97774853515625,-0.00600966764613986,0.007593319285660982,-0.004985664039850235
1769668073475737600,9.987737548828125,-0.005657996982336044,0.010256717912852764,-0.004403791390359402
1769668073485726500,9.9977265625,-0.005065177567303181,0.011621587909758091,-0.0026788620743900537
1769668073495714600,10.007714599609375,-0.006797887850552797,0.010646195150911808,-0.0038126774597913027
1769668073505703700,10.01770361328125,-0.004734204150736332,0.010073616169393063,-0.0037753928918391466
1769668073515692800,10.02769287109375,-0.003504878841340542,0.012181896716356277,-0.002321741310879588
1769668073525681700,10.037681640625,-0.0010888592805713415,0.012788032181560993,-0.00128044537268579
1769668073535670800,10.0476708984375,-0.0033858357928693295,0.012279901653528214,-0.004045339301228523
1769668073545658600,10.05765869140625,-0.0038502910174429417,0.011609584093093872,-0.00597906019538641
1769668073555647500,10.0676474609375,-0.0033695946913212538,0.012010594829916954,-0.004374556243419647
1769668073565636600,10.07763671875,-0.0018031232757493854,0.011942418292164803,-0.006069125607609749
1769668073575625700,10.087625732421875,0.0001022849464789033,0.009188435040414333,-0.005997774191200733
1769668073585614600,10.097614501953124,-0.0012002671137452126,0.009005742147564888,-0.002286659087985754
1769668073595602700,10.107602783203125,-0.0003751299809664488,0.007165210321545601,-0.005416437052190304
1769668073605591800,10.117591796875,0.0011860150843858719,0.008563103154301643,-0.004337058402597904
1769668073615580700,10.12758056640625,0.00047295307740569115,0.010451138950884342,-0.0019390189554542303
1769668073625569800,10.13756982421875,-0.0005619513103738427,0.010393880307674408,-0.0010295493993908167
1769668073635558700,10.14755859375,-0.0011155320098623633,0.010428688488900661,-0.0030525741167366505
1769668073645546800,10.157546630859375,-0.0020644161850214005,0.01032722182571888,-0.004429961089044809
1769668073655535600,10.16753564453125,-0.0014409703435376287,0.006215834058821201,-0.0013902289792895317
1769668073665524700,10.177524658203126,-0.0037411425728350878,0.0021398658864200115,-0.0031132944859564304
1769668073675513900,10.187513916015625,-0.0019252675119787455,0.0018042194424197078,-0.0007349061779677868
1769668073685502700,10.197502685546874,-0.0011436296626925468,0.00008195312693715096,0.00028748135082423687
1769668073695490600,10.207490478515625,-0.004065383691340685,-0.0032043878454715014,-0.0008142683655023575
1769668073705479700,10.217479736328125,-0.004012120421975851,-0.002430739114060998,-0.00020813290029764175
1769668073715468500,10.227468505859376,-0.0026276777498424053,0.0007975146872922778,0.0007292735390365124
1769668073725457700,10.237457763671875,-0.0035438050981611013,0.0019306896720081568,0.0023926838766783476
1769668073735446800,10.24744677734375,-0.0012972586555406451,-0.0013204214628785849,0.000044136540964245796
1769668073745435000,10.257434814453125,-0.00203815009444952,-0.004812092054635286,-0.0013971664011478424
1769668073755423700,10.267423828125,-0.002897233236581087,-0.007455788552761078,-0.0017010299488902092
1769668073765412900,10.277412841796876,-0.0038397260941565037,-0.00923957396298647,-0.000817126827314496
1769668073775401500,10.2874013671875,-0.0038055910263210535,-0.00889973621815443,-0.0011646593920886517
1769668073785390600,10.297390625,-0.005904960911720991,-0.010918678715825081,-0.004556993953883648
1769668073795378700,10.307378662109375,-0.006975463591516018,-0.012232405133545399,-0.004322619177401066
1769668073805367800,10.317367919921875,-0.0039029750041663647,-0.012229741550981998,-0.004243523348122835
1769668073815356700,10.327356689453126,-0.001885674544610083,-0.008355542086064816,-0.00336777837947011
1769668073825345800,10.337345703125,-0.0013253454817458987,-0.007820513099431992,-0.0037858947180211544
1769668073835334700,10.347334716796874,-0.0008485514554195106,-0.007046796381473541,-0.0055917128920555115
1769668073845322500,10.357322509765625,-0.0018757326761260629,-0.006558372639119625,-0.006971496157348156
1769668073855311600,10.3673115234375,-0.004308975301682949,-0.00479422602802515,-0.006528808735311031
1769668073865300700,10.37730078125,-0.002307875780388713,-0.0006564725190401077,-0.005113870836794376
1769668073875289600,10.38728955078125,-0.00022548041306436062,0.00023849913850426674,-0.005012744106352329
1769668073885278700,10.39727880859375,-0.0015075261471793056,-0.00041956803761422634,-0.005164810456335545
1769668073895266800,10.407266845703125,-0.0021766345016658306,-0.0028450810350477695,-0.005986591335386038
1769668073905255700,10.417255615234374,-0.003802228020504117,-0.006767118815332651,-0.007369304541498423
1769668073915244800,10.427244873046876,-0.00249417033046484,-0.00832273904234171,-0.004219923168420792
1769668073925233700,10.437233642578125,-0.0010789664229378104,-0.0046534352004528046,-0.004856685176491737
1769668073935221800,10.4472216796875,-0.0011693851556628942,-0.0011216814164072275,-0.003343331627547741
1769668073945210600,10.457210693359375,-0.0005435423227027059,0.001727634691633284,-0.0029196226969361305
1769668073955199700,10.46719970703125,0.001641513197682798,0.0016905175289139152,-0.003395359730347991
1769668073965188900,10.47718896484375,0.005005085375159979,0.005711890757083893,-0.0028408898506313562
1769668073975177700,10.487177734375,0.00476102065294981,0.004877733998000622,0.0010629496537148952
1769668073985166800,10.497166748046874,0.0050446465611457825,0.005113956518471241,0.0003236562479287386
1769668073995154700,10.50715478515625,0.006763095501810312,0.0035622711293399334,0.0011541714193299413
1769668074005143600,10.5171435546875,0.006988131906837225,0.0018751583993434906,-0.0010754270479083061
1769668074015132700,10.527132568359375,0.007401544600725174,0.0003698013024404645,-0.001817791722714901
1769668074025121800,10.537121826171875,0.0038089400622993708,0.0024374795611947775,-0.001020707655698061
1769668074035110700,10.547110595703124,0.001234767260029912,-0.0024786675348877907,-0.006332851015031338
1769668074045098800,10.5570986328125,-0.0012699357466772199,-0.00274551659822464,-0.00785245094448328
1769668074055087900,10.567087890625,-0.0005313465953804553,-0.004265401512384415,-0.006923310458660126
1769668074065076500,10.577076416015625,0.0009158151224255562,-0.007177567109465599,-0.004631660412997007
1769668074075065600,10.587065673828125,0.0021297712810337543,-0.0057953763753175735,-0.003707260126248002
1769668074085053700,10.5970537109375,0.004868832416832447,-0.003232883522287011,-0.004583707079291344
1769668074095042800,10.607042724609375,0.006110265851020813,-0.0005241527687758207,-0.003019072813913226
1769668074105031700,10.61703173828125,0.006949161645025015,0.004997112788259983,-0.001177230617031455
1769668074115020800,10.627020751953125,0.00611980352550745,0.005911621265113354,0.00007258448749780655
1769668074125009700,10.637009765625,0.0054995534010231495,0.0075774285942316055,-0.0002328802365809679
1769668074134997500,10.64699755859375,0.004779306706041098,0.005448055453598499,-0.0017153844237327576
1769668074144986600,10.656986572265625,0.005144692026078701,0.004499170929193497,-0.00019125756807625294
1769668074154975700,10.666975830078124,0.004895953461527824,0.0007490242132917047,-0.0013403014745563269
1769668074164964600,10.676964599609375,0.005719136446714401,-0.0005905458237975836,-0.0019475019071251154
1769668074174953700,10.68695361328125,0.007834390737116337,0.0006629644194617867,-0.006688745692372322
1769668074184941800,10.69694189453125,0.00942323263734579,0.00003365939483046532,-0.006935887038707733
1769668074194930700,10.7069306640625,0.00797593966126442,0.00394267775118351,-0.008364115841686726
1769668074204919800,10.716919921875,0.006194551475346088,0.0017024266999214888,-0.008190743625164032
1769668074214908700,10.72690869140625,0.008002085611224174,0.0036307829432189465,-0.006740165874361992
1769668074224897500,10.7368974609375,0.005570353474467993,0.0023221056908369064,-0.0068578775972127914
1769668074234885600,10.7468857421875,0.005876574199646711,0.004472499713301659,-0.0029157153330743313
1769668074244874800,10.756874755859375,0.005089609883725643,0.0039992555975914,0.0004119044169783592
1769668074254863600,10.766863525390624,0.005482470616698265,0.0064926752820611,0.0017684210324659944
1769668074264852700,10.776852783203125,0.004140237346291542,0.0073669906705617905,0.002164166886359453
1769668074274841900,10.786841796875,0.00532950833439827,0.0070503586903214455,0.0015998827293515205
1769668074284829700,10.79682958984375,0.004772374406456947,0.007775803096592426,-0.0007684663869440556
1769668074294818600,10.806818603515625,0.004332686774432659,0.003727798582985997,-0.0007610095199197531
1769668074304807700,10.8168076171875,0.000913986936211586,-0.001440864522010088,-0.002666235202923417
1769668074314796800,10.826796875,-0.0013222619891166687,-0.004383536521345377,-0.004135132767260075
1769668074324785700,10.83678564453125,-0.0009105372591875494,-0.003271666821092367,-0.0030959672294557095
1769668074334773800,10.846773681640625,0.0025407257489860058,0.004092125222086906,0.004102214239537716
1769668074344763000,10.856762939453125,0.004157531075179577,0.0048681702464818954,0.002423090860247612
1769668074354751500,10.86675146484375,0.003847777843475342,0.001604541321285069,0.00040258350782096386
1769668074364740600,10.87674072265625,0.004246186930686235,-0.004020321182906628,0.00016609486192464828
1769668074374729700,10.886729736328125,0.0010033331345766783,-0.006453230977058411,0.001656849985010922
1769668074384717800,10.8967177734375,0.0001889385748654604,-0.006040973588824272,-0.0006454526446759701
1769668074394706700,10.906706787109375,0.0016671804478392005,-0.002232600236311555,-0.0003591342829167843
1769668074404695800,10.91669580078125,0.00390769774094224,0.00037143880035728216,0.001533840666525066
1769668074414684700,10.9266845703125,0.004060519393533468,0.001230939757078886,0.003950756974518299
1769668074424673800,10.936673828125,0.002831470686942339,0.0025590581353753805,0.0021331494208425283
1769668074434661600,10.94666162109375,0.00414776336401701,0.0005621726159006357,0.0016678920947015285
1769668074444650800,10.956650634765625,0.002934427233412862,-0.0007188078016042709,0.0024511278606951237
1769668074454639600,10.9666396484375,0.00023634813260287046,-0.003247788641601801,0.0020739499013870955
1769668074464628700,10.976628662109375,0.000606793793849647,-0.003498658537864685,-0.00003846944309771061
1769668074474617600,10.98661767578125,0.00212000566534698,0.0001944074174389243,-0.000044543761759996414
1769668074484605700,10.996605712890625,0.0016896387096494436,0.0020013621542602777,-0.00026052631437778473
1769668074494594000,11.006593994140625,0.0031497180461883545,0.005879753734916449,0.0012606978416442871
1769668074504583200,11.016583251953126,0.00048282858915627003,0.000960096251219511,0.001114223967306316
1769668074514572000,11.026572021484375,-0.0017263076733797789,-0.0018150852993130684,-0.0019174208864569664
1769668074524561200,11.03656103515625,-0.0023817114997655153,-0.0024843376595526934,-0.00009049242362380028
1769668074534549200,11.04654931640625,-0.0038752565160393715,-0.0014434759505093098,-0.0011327562388032675
1769668074544538400,11.056538330078125,-0.0018318129004910588,0.0009682828094810247,-0.002330113435164094
1769668074554527200,11.06652734375,-0.000060854945331811905,0.005718187429010868,-0.0009331323672086
1769668074564516400,11.076516357421875,0.0007711164653301239,0.007931540720164776,0.0015420096460729837
1769668074574505200,11.086505126953124,-0.0010135606862604618,0.008083093911409378,0.0013393781846389174
1769668074584493000,11.0964931640625,-0.0009704174590297043,0.005488642491400242,-0.0010500098578631878
1769668074594482200,11.106482177734375,-0.004943272098898888,0.0017652977257966995,0.000616337638348341
1769668074604471300,11.11647119140625,-0.003803173080086708,-0.0011002635583281517,-0.0011520013213157654
1769668074614460200,11.126460205078125,-0.0041922349482774734,0.0007561499951407313,-0.002468166872859001
1769668074624449300,11.13644921875,-0.0011543671134859324,0.002712508197873831,-0.005730006843805313
1769668074634437400,11.146437255859375,0.0007800345774739981,0.0046674227342009544,-0.005312568042427301
1769668074644426000,11.156426025390624,0.004722844809293747,0.007128716446459293,-0.0009828009642660618
1769668074654415000,11.1664150390625,0.003041948191821575,0.0036227935925126076,0.0022400133311748505
1769668074664404200,11.176404296875,0.002487477846443653,-0.0006984516512602568,-0.0010900034103542566
1769668074674392300,11.186392333984376,0.000371198751963675,-0.0011897163931280375,-0.0018316125497221947
1769668074684381200,11.196381103515625,0.0017536457162350416,0.0016044721705839038,-0.000977537129074335
1769668074694370300,11.206370361328124,0.005206522531807423,0.003752646967768669,0.0002971224021166563
1769668074704359200,11.216359130859376,0.007952773943543434,0.004908725153654814,0.0020012790337204933
1769668074714348300,11.226348388671875,0.0038259392604231834,0.003739122999832034,0.0007339366711676121
1769668074724336000,11.236336181640626,0.003705298062413931,0.0031718695536255836,0.0009810780175030231
1769668074734325200,11.2463251953125,0.0038507028948515654,0.0030198926106095314,0.0013899782206863165
1769668074744314000,11.256314208984374,0.0032530894968658686,0.005526459775865078,0.0019420514581725001
1769668074754303200,11.26630322265625,0.002072559203952551,0.005276941694319248,0.0013993069296702743
1769668074764292400,11.276292236328125,0.0026813580188900232,0.003323246957734227,0.002425422891974449
1769668074774280200,11.2862802734375,0.0017249677330255508,0.004279567860066891,0.00131700758356601
1769668074784269000,11.29626904296875,0.0009726248681545258,0.0029133660718798637,0.00033510010689496994
1769668074794258200,11.306258056640624,0.002038779202848673,0.002273270860314369,-0.00044135493226349354
1769668074804247000,11.3162470703125,0.00017430016305297613,0.000029823975637555122,-0.00010153558105230331
1769668074814236200,11.326236083984375,0.0018600373296067119,0.0008839988149702549,-0.0002484444994479418
1769668074824224300,11.336224365234376,0.0005785240791738033,0.002288017189130187,-0.0000684147235006094
1769668074834213400,11.34621337890625,0.0024099801667034626,0.003937312867492437,0.0017851406009867787
1769668074844202200,11.3562021484375,0.0023870766162872314,0.004707765765488148,-0.0011366135440766811
1769668074854191400,11.36619140625,0.002569769509136677,0.003502152394503355,-0.0014870029408484697
1769668074864180000,11.376179931640625,0.000016330857761204243,-0.0000782012939453125,-0.002806599484756589
1769668074874168000,11.38616796875,-0.002294536679983139,-0.002077545039355755,-0.0035323782358318567
1769668074884157200,11.3961572265625,-0.0035033454187214375,-0.004416333045810461,-0.004983801394701004
1769668074894146300,11.406146240234374,-0.001018039183691144,-0.002747162478044629,-0.00408614706248045
1769668074904135200,11.41613525390625,-0.0006710293819196522,-0.0013442090712487698,-0.003025143640115857
1769668074914124300,11.426124267578125,-0.0038117393851280212,-0.0007502257358282804,-0.0036160012241452932
1769668074924112400,11.4361123046875,-0.004290043376386166,0.00028494501020759344,-0.00293396576307714
1769668074934101000,11.44610107421875,-0.003597312606871128,-0.0010329445358365774,-0.0026837801560759544
1769668074944090000,11.456090087890624,-0.0024401689879596233,0.0012802771525457501,-0.002994304522871971
1769668074954079200,11.466079345703125,-0.0019749572966247797,0.0023403726518154144,0.0031638741493225098
1769668074964068000,11.476068115234375,-0.001678813830949366,-0.0002748514525592327,-0.001229009823873639
1769668074974056200,11.48605615234375,-0.003977087792009115,-0.002452530898153782,-0.0029515281785279512
1769668074984045300,11.49604541015625,-0.002962423488497734,-0.005113561637699604,-0.005847449414432049
1769668074994034200,11.5060341796875,-0.00007980933878570795,-0.003631390631198883,-0.003933601547032595
1769668075004023300,11.516023193359375,-0.004295326769351959,-0.0035616159439086914,-0.0018169209361076355
1769668075014012200,11.52601220703125,-0.009282686747610569,-0.009774057194590569,-0.007037300616502762
1769668075024000300,11.536000244140626,-0.005984894931316376,-0.0080712316557765,-0.0044596269726753235
1769668075033989000,11.545989013671875,-0.0008699725149199367,-0.003940644674003124,-0.00046541797928512096
1769668075043978200,11.555978271484374,-0.0011077928356826305,-0.004046637564897537,-0.003173320321366191
1769668075053967400,11.56596728515625,-0.0020844137761741877,-0.007661070674657822,-0.0068764532916247845
1769668075063956200,11.575956298828125,-0.0011475137434899807,-0.006044798530638218,-0.0009874054230749607
1769668075073944000,11.585944091796875,0.0016272298526018858,-0.001539971912279725,-0.0009865013416856527
1769668075083933200,11.59593310546875,0.0006378655089065433,0.00029627769254148006,-0.0004962135571986437
1769668075093922000,11.605922119140626,0.001241384888999164,0.0033729891292750835,0.0011338613694533706
1769668075103911200,11.6159111328125,0.005465424619615078,0.006742420606315136,0.003093149047344923
1769668075113900300,11.625900390625,0.0048192027024924755,0.003004316706210375,0.0032163772266358137
1769668075123888000,11.63588818359375,0.0005384377436712384,0.001210411312058568,-0.0018239212222397327
1769668075133877200,11.645877197265625,0.00008579215500503778,0.0014283874770626426,-0.0026411234866827726
1769668075143866400,11.655866455078124,0.0018677131738513708,-0.0009511469397693872,-0.005585780367255211
1769668075153855000,11.66585498046875,0.004000287503004074,0.0005559269338846207,-0.005195912905037403
1769668075163843000,11.675843017578124,0.0023688352666795254,0.00023022235836833715,-0.006754928268492222
1769668075173832200,11.685832275390625,-0.0015119696035981178,-0.0001039654016494751,-0.005374833010137081
1769668075183821300,11.6958212890625,-0.000011810916475951672,-0.0006794745568186045,-0.003990788012742996
1769668075193810200,11.70581005859375,0.00006080733146518469,0.00010801269672811031,-0.00048608588986098766
1769668075203799300,11.71579931640625,-0.002345625078305602,0.0009596914751455188,0.00039515411481261253
1769668075213787400,11.725787353515624,-0.0024327998980879784,0.003873977344483137,0.002406092593446374
1769668075223776000,11.73577587890625,-0.004183562006801367,0.003284619888290763,0.0017504224088042974
1769668075233765000,11.74576513671875,-0.004107395652681589,0.0019281553104519844,0.002556184772402048
1769668075243754200,11.755754150390626,-0.0022258725948631763,0.0020919397938996553,0.0017138267867267132
1769668075253743000,11.7657431640625,-0.004313309211283922,0.0009603406069800258,0.0028480621986091137
1769668075263731200,11.775731201171874,-0.0024086162447929382,0.0019110890571027994,-0.00013334676623344421
1769668075273720300,11.78572021484375,0.0005335626192390919,0.003740257816389203,0.0009397277608513832
1769668075283709200,11.795709228515625,0.0020443738903850317,0.004902994260191917,-0.0002363240346312523
1769668075293698300,11.8056982421875,0.0013547008857131004,0.004739959724247456,-0.0012401062995195389
1769668075303687200,11.815687255859375,0.0025246276054531336,0.006408163346350193,0.0020702029578387737
1769668075313675300,11.82567529296875,0.003125749761238694,0.00536321708932519,0.004863391630351543
1769668075323664100,11.8356640625,0.0004111898597329855,0.0043549444526433945,0.002016205806285143
1769668075333653200,11.8456533203125,0.0009746261639520526,0.001584538258612156,-0.0008245031349360943
1769668075343642000,11.85564208984375,0.0006577101303264499,-0.0003497155848890543,-0.0004439372569322586
1769668075353631200,11.86563134765625,-0.0009317106450907886,-0.0005347661208361387,0.002093034563586116
1769668075363619000,11.875619140625,-0.0021122898906469345,0.0013347729109227657,0.0011476123472675681
1769668075373608200,11.885608154296875,0.0012879031710326672,0.004720538388937712,0.0026710210368037224
