time,seconds_elapsed,z,y,x
1769667978231148300,0.066148193359375,0.03371428698301315,0.05475112795829773,0.009557818993926048
1769667978241137200,0.07613720703125,0.03375742956995964,0.040721595287323,0.029016470536589622
1769667978251126300,0.086126220703125,0.03815058246254921,0.013006612658500671,0.030795196071267128
1769667978261114000,0.096114013671875,0.042562372982501984,-0.03027428314089775,0.004535363521426916
1769667978271103200,0.106103271484375,0.047990962862968445,-0.07267686724662781,-0.037038709968328476
1769667978281092000,0.116092041015625,0.057742390781641006,-0.08915490657091141,-0.0759432315826416
1769667978291081200,0.126081298828125,0.03858228027820587,-0.23078900575637817,-0.1801908165216446
1769667978301069300,0.1360693359375,0.08007273077964783,-0.19136942923069,-0.22076086699962616
1769667978311058200,0.14605810546875,0.09443196654319763,-0.14197124540805817,-0.23702719807624817
1769667978321047300,0.15604736328125,0.10127335786819458,-0.1646837592124939,-0.28814923763275146
1769667978331035100,0.16603515625,0.12380130589008331,-0.21420790255069733,-0.38144350051879883
1769667978341024300,0.176024169921875,0.16703186929225922,-0.2082461416721344,-0.48959633708000183
1769667978351013000,0.18601318359375,0.18304838240146637,-0.07590941339731216,-0.5521973967552185
1769667978361002200,0.196002197265625,0.16368134319782257,0.10778505355119705,-0.5637696385383606
1769667978370990300,0.205990234375,0.1270918995141983,0.2366439700126648,-0.5318393707275391
1769667978380979200,0.215979248046875,0.07065153121948242,0.29009974002838135,-0.4853121042251587
1769667978390968000,0.225968017578125,0.02580549754202366,0.254189670085907,-0.41436097025871277
1769667978400957200,0.235957275390625,-0.009825732558965683,0.13545076549053192,-0.3345542848110199
1769667978410944500,0.245944580078125,-0.011419900692999363,0.05758393555879593,-0.2718091309070587
1769667978420933400,0.255933349609375,0.031616780906915665,0.04573499783873558,-0.2103055715560913
1769667978430922500,0.265922607421875,0.07770491391420364,0.05913975089788437,-0.15374855697155
1769667978440911600,0.27591162109375,0.06616676598787308,0.030820762738585472,-0.09050673246383667
1769667978450899500,0.2858994140625,0.029925407841801643,-0.034567296504974365,-0.015855662524700165
1769667978460888300,0.295888427734375,0.02869689278304577,-0.07706655561923981,0.053105294704437256
1769667978470877400,0.30587744140625,0.03865418583154678,-0.10820210725069046,0.09141913056373596
1769667978480866600,0.315866455078125,0.0323835052549839,-0.13083603978157043,0.08381553739309311
1769667978490854400,0.3258544921875,0.025228390470147133,-0.12680375576019287,0.04882000386714935
1769667978500843500,0.335843505859375,0.018220016732811928,-0.10472534596920013,0.01841309480369091
1769667978510832600,0.34583251953125,0.012513660825788975,-0.04860801622271538,-0.0022245384752750397
1769667978520821200,0.3558212890625,0.012240953743457794,-0.0040765004232525826,-0.025141572579741478
1769667978530809300,0.365809326171875,-0.007266168482601643,-0.021399298682808876,-0.05873202160000801
1769667978540798500,0.375798583984375,0.014053234830498695,0.08351433277130127,-0.10676959156990051
1769667978550787300,0.385787353515625,0.029044434428215027,0.14042901992797852,-0.06241517513990402
1769667978560776400,0.3957763671875,0.021872276440262794,0.1077301949262619,0.010904579423367977
1769667978570764500,0.4057646484375,0.04788177087903023,0.09861738979816437,0.0417059026658535
1769667978580753700,0.415753662109375,0.054355915635824203,0.06428604573011398,0.030970698222517967
1769667978590742300,0.4257421875,0.03154993802309036,0.01739390380680561,-0.008960471488535404
1769667978600731400,0.4357314453125,0.025612685829401016,0.06447779387235641,-0.03653857111930847
1769667978610719500,0.445719482421875,0.02767210826277733,0.11726990342140198,-0.034028008580207825
1769667978620708400,0.455708251953125,0.009942378848791122,0.15636031329631805,-0.03087429329752922
1769667978630697500,0.465697509765625,0.008299741894006729,0.20647087693214417,-0.025897111743688583
1769667978640686600,0.4756865234375,0.010513893328607082,0.23499520123004913,-0.021760689094662666
1769667978650674400,0.48567431640625,0.009522132575511932,0.23596538603305817,-0.02503211610019207
1769667978660663300,0.495663330078125,0.013230318203568459,0.2264549732208252,-0.024099742993712425
1769667978670652400,0.50565234375,0.022220084443688393,0.23264655470848083,-0.014485199004411697
1769667978680641500,0.5156416015625,0.021746840327978134,0.2586992084980011,-0.01980113610625267
1769667978690629400,0.52562939453125,0.022942600771784782,0.3117469847202301,-0.021277325227856636
1769667978700618500,0.535618408203125,0.021325528621673584,0.3358488380908966,-0.009854494594037533
1769667978710607600,0.545607666015625,0.02058383822441101,0.3511441648006439,0.019086875021457672
1769667978720596500,0.555596435546875,0.016771789640188217,0.3241863250732422,0.055832639336586
1769667978730584300,0.565584228515625,0.011945609003305435,0.31418004631996155,0.07214556634426117
1769667978740573400,0.575573486328125,0.012091816402971745,0.3515918552875519,0.047333959490060806
1769667978750562300,0.585562255859375,0.012923788279294968,0.3964568078517914,-0.007101851515471935
1769667978760551400,0.595551513671875,0.012146411463618279,0.3922252953052521,-0.05896877869963646
1769667978770539500,0.60553955078125,0.009555954486131668,0.401715487241745,-0.0916614755988121
1769667978780528600,0.615528564453125,0.014242053031921387,0.42893752455711365,-0.09756650030612946
1769667978790517500,0.625517578125,0.015585084445774555,0.4569379985332489,-0.08933120965957642
1769667978800506400,0.63550634765625,0.011053982190787792,0.5032860636711121,-0.08851894736289978
1769667978810494500,0.645494384765625,-0.00018748654110822827,0.5518940687179565,-0.08893439918756485
1769667978820483300,0.6554833984375,-0.008355401456356049,0.6073671579360962,-0.10119585692882538
1769667978830472400,0.665472412109375,-0.015187208540737629,0.6551666259765625,-0.1272122859954834
1769667978840461600,0.675461669921875,-0.018431471660733223,0.6883240938186646,-0.16342301666736603
1769667978850449700,0.68544970703125,-0.01973508857190609,0.7172026038169861,-0.2004915475845337
1769667978860438300,0.695438232421875,-0.01296267006546259,0.7429183125495911,-0.22234252095222473
1769667978870427400,0.705427490234375,-0.00011771172285079956,0.7612859010696411,-0.23571692407131195
1769667978880416500,0.71541650390625,0.02322462946176529,0.7748411297798157,-0.23103880882263184
1769667978890404400,0.725404296875,0.0339939184486866,0.8060957193374634,-0.2179754674434662
1769667978900393500,0.7353935546875,0.02237667888402939,0.8682096600532532,-0.20194751024246216
1769667978910382600,0.745382568359375,0.00046685212873853743,0.9440240263938904,-0.1915779560804367
1769667978920371500,0.755371337890625,-0.019842414185404778,1.0154379606246948,-0.18428249657154083
1769667978930359300,0.765359375,-0.014069479890167713,1.0738699436187744,-0.18574322760105133
1769667978940348400,0.775348388671875,0.009860087186098099,1.1051557064056396,-0.2052205353975296
1769667978950337500,0.785337646484375,0.041313618421554565,1.1282579898834229,-0.23880910873413086
1769667978960326400,0.795326416015625,0.06779742240905762,1.1551549434661865,-0.2769937813282013
1769667978970314500,0.805314453125,0.1139979436993599,1.202497959136963,-0.31181541085243225
1769667978980303600,0.8153037109375,0.16855306923389435,1.2589257955551147,-0.34918543696403503
1769667978990292500,0.82529248046875,0.20398615300655365,1.3337153196334839,-0.39020130038261414
1769667979000281300,0.83528125,0.228485107421875,1.454526662826538,-0.4206385612487793
1769667979010269400,0.84526953125,0.279480904340744,1.582144021987915,-0.43466436862945557
1769667979020258300,0.85525830078125,0.3546781837940216,1.663067102432251,-0.44715461134910583
1769667979030247400,0.865247314453125,0.4032808840274811,1.6204527616500854,-0.4722309112548828
1769667979040236500,0.875236572265625,0.42889729142189026,1.4668885469436646,-0.5125927329063416
1769667979050224600,0.885224609375,0.44837644696235657,1.3665169477462769,-0.5743224024772644
1769667979060213500,0.895213623046875,0.47203463315963745,1.3406003713607788,-0.6201167702674866
1769667979070202400,0.905202392578125,0.5071234107017517,1.3321030139923096,-0.6409270167350769
1769667979080191500,0.91519140625,0.5242635011672974,1.299404263496399,-0.6128948330879211
1769667979090179300,0.925179443359375,0.46598687767982483,1.2585161924362183,-0.5399497747421265
1769667979100168400,0.93516845703125,0.39665281772613525,1.2169055938720703,-0.46793311834335327
1769667979110157600,0.945157470703125,0.34518003463745117,1.164394497871399,-0.4016302525997162
1769667979120146400,0.955146484375,0.2914574146270752,1.1035244464874268,-0.3289129137992859
1769667979130134300,0.96513427734375,0.2000742405653,1.1156740188598633,-0.22682516276836395
1769667979140123400,0.975123291015625,0.12334936857223511,1.138245701789856,-0.12725089490413666
1769667979150112500,0.985112548828125,0.07363054156303406,1.1369907855987549,-0.03664669394493103
1769667979160101400,0.995101318359375,0.037632063031196594,1.122472882270813,0.03924407437443733
1769667979170089500,1.00508935546875,0.016715331003069878,1.11359441280365,0.10883460193872452
1769667979180078600,1.01507861328125,0.014374145306646824,1.105431079864502,0.17585252225399017
1769667979190067500,1.0250673828125,0.015298528596758842,1.104923129081726,0.24852512776851654
1769667979200056600,1.035056640625,0.021748704835772514,1.1335854530334473,0.3341188430786133
1769667979210044400,1.04504443359375,0.03092116490006447,1.2155327796936035,0.4055030345916748
1769667979220033300,1.055033203125,0.04907699674367905,1.3426356315612793,0.4564359784126282
1769667979230022400,1.0650224609375,0.06530284136533737,1.4417935609817505,0.4955791234970093
1769667979240011500,1.075011474609375,0.07398048043251038,1.5359376668930054,0.5111897587776184
1769667979249999600,1.08499951171875,0.09011337906122208,1.652815580368042,0.5066887736320496
1769667979259988500,1.094988525390625,0.1252117156982422,1.6451756954193115,0.5135930180549622
1769667979269977300,1.104977294921875,0.11566108465194702,1.605318307876587,0.48707085847854614
1769667979279966500,1.114966552734375,0.09980808943510056,1.5918095111846924,0.45416855812072754
1769667979289954300,1.124954345703125,0.09227453917264938,1.5550909042358398,0.4324222505092621
1769667979299943400,1.134943359375,0.09691562503576279,1.5059916973114014,0.4136967658996582
1769667979309932500,1.1449326171875,0.10862847417593002,1.4501622915267944,0.4257214665412903
1769667979319921400,1.15492138671875,0.10581271350383759,1.4177199602127075,0.45522263646125793
1769667979329909500,1.164909423828125,0.10686226934194565,1.4245411157608032,0.48045581579208374
1769667979339898400,1.1748984375,0.11483070999383926,1.4210911989212036,0.51368248462677
1769667979349887500,1.184887451171875,0.12042707949876785,1.387369990348816,0.5637578964233398
1769667979359876400,1.19487646484375,0.12739044427871704,1.3993438482284546,0.6168307065963745
1769667979369864400,1.204864501953125,0.14303305745124817,1.4633177518844604,0.6504302024841309
1769667979379853600,1.214853515625,0.1597483903169632,1.5304286479949951,0.6540603637695312
1769667979389842400,1.224842529296875,0.18237486481666565,1.552250862121582,0.6442199945449829
1769667979399831600,1.23483154296875,0.19904598593711853,1.5629453659057617,0.6343343257904053
1769667979409820200,1.244820068359375,0.21587157249450684,1.5943927764892578,0.6206342577934265
1769667979419809000,1.25480908203125,0.22391831874847412,1.6164463758468628,0.6197495460510254
1769667979429798100,1.264798095703125,0.2263614982366562,1.6139509677886963,0.6196989417076111
1769667979439787300,1.274787353515625,0.23880459368228912,1.6114513874053955,0.6227067112922668
1769667979449775000,1.284775146484375,0.25518515706062317,1.6256954669952393,0.640773594379425
1769667979459764000,1.294763916015625,0.2723582983016968,1.6478489637374878,0.6588913202285767
1769667979469753000,1.304753173828125,0.2766757905483246,1.6539887189865112,0.6791084408760071
1769667979479742000,1.314741943359375,0.28159305453300476,1.6442567110061646,0.701072096824646
1769667979489730000,1.32472998046875,0.2866581380367279,1.6368978023529053,0.7181229591369629
1769667979499719200,1.33471923828125,0.280230313539505,1.6116305589675903,0.7369943857192993
1769667979509708000,1.3447080078125,0.2559542655944824,1.5786547660827637,0.7454382181167603
1769667979519696000,1.35469580078125,0.22978658974170685,1.560030221939087,0.7427716255187988
1769667979529685000,1.36468505859375,0.20084309577941895,1.5434304475784302,0.7310949563980103
1769667979539674000,1.374674072265625,0.18081238865852356,1.4986134767532349,0.704655110836029
1769667979549663000,1.3846630859375,0.1660694032907486,1.4486004114151,0.6731709241867065
1769667979559651000,1.394651123046875,0.14757613837718964,1.4098318815231323,0.6402454972267151
1769667979569640000,1.404639892578125,0.12499013543128967,1.361514687538147,0.6157351136207581
1769667979579629000,1.414629150390625,0.11488930135965347,1.3338754177093506,0.5966905355453491
1769667979589618000,1.424617919921875,0.1032952293753624,1.355603575706482,0.5703662633895874
1769667979599606000,1.43460595703125,0.0862206369638443,1.4113640785217285,0.5202586054801941
1769667979609595100,1.44459521484375,0.06942008435726166,1.4539735317230225,0.45265933871269226
1769667979619584000,1.454583984375,0.061291053891181946,1.4439291954040527,0.38099342584609985
1769667979629573000,1.464572998046875,0.05318385735154152,1.3890280723571777,0.3267115354537964
1769667979639561000,1.47456103515625,0.027278225868940353,1.3360722064971924,0.2605716586112976
1769667979649550000,1.484550048828125,0.005497563164681196,1.2869906425476074,0.21830064058303833
1769667979659539000,1.4945390625,-0.012732040137052536,1.2612677812576294,0.19909977912902832
1769667979669528000,1.504528076171875,-0.02341398037970066,1.267436146736145,0.1858620047569275
1769667979679516200,1.51451611328125,-0.028313130140304565,1.2912338972091675,0.18778374791145325
1769667979689505000,1.524505126953125,-0.03139574080705643,1.348054051399231,0.20446206629276276
1769667979699494100,1.534494140625,-0.030472688376903534,1.4191277027130127,0.2328319102525711
1769667979709483300,1.544483154296875,-0.020536167547106743,1.4800612926483154,0.2645280659198761
1769667979719471000,1.55447119140625,-0.00960042979568243,1.5129956007003784,0.2761754095554352
1769667979729460000,1.5644599609375,-0.00558251840993762,1.5057083368301392,0.2735564410686493
1769667979739449000,1.574448974609375,-0.0051654670387506485,1.4668835401535034,0.2775588929653168
1769667979749438000,1.58443798828125,-0.01182470191270113,1.4241104125976562,0.2769985795021057
1769667979759426000,1.594426025390625,-0.01449878141283989,1.394756555557251,0.27473488450050354
1769667979769415200,1.604415283203125,-0.016877517104148865,1.3607594966888428,0.28098398447036743
1769667979779404000,1.614404052734375,-0.018274344503879547,1.3187220096588135,0.29064327478408813
1769667979789393000,1.624392822265625,-0.0214214026927948,1.3022722005844116,0.3054121136665344
1769667979799381000,1.634381103515625,-0.015420234762132168,1.3185480833053589,0.33050307631492615
1769667979809370000,1.6443701171875,-0.0013600763631984591,1.338948130607605,0.36024072766304016
1769667979819359000,1.65435888671875,0.013442039489746094,1.3424718379974365,0.38531866669654846
1769667979829348000,1.66434814453125,0.033245038241147995,1.345960259437561,0.40462684631347656
1769667979839336000,1.6743359375,0.06347911059856415,1.3541852235794067,0.4325290620326996
1769667979849325000,1.684324951171875,0.08626031875610352,1.3529974222183228,0.4637436866760254
1769667979859314000,1.69431396484375,0.10092022269964218,1.3508727550506592,0.4790502190589905
1769667979869303000,1.704302978515625,0.1150917038321495,1.348138689994812,0.47460460662841797
1769667979879291100,1.714291015625,0.12479732930660248,1.3218411207199097,0.45875611901283264
1769667979889280000,1.724280029296875,0.13125894963741302,1.2877483367919922,0.46129411458969116
1769667979899269000,1.73426904296875,0.12575499713420868,1.2615638971328735,0.4432986080646515
1769667979909258200,1.74425830078125,0.11151507496833801,1.2212928533554077,0.4378204941749573
1769667979919246000,1.75424609375,0.08872028440237045,1.2048768997192383,0.45314857363700867
1769667979929235000,1.76423486328125,0.0767349898815155,1.221190094947815,0.4803825914859772
1769667979939224000,1.77422412109375,0.08475163578987122,1.2227169275283813,0.520258367061615
1769667979949213000,1.784212890625,0.11303707212209702,1.2049195766448975,0.5438145399093628
1769667979959201000,1.794200927734375,0.12378505617380142,1.2031102180480957,0.5278699398040771
1769667979969190100,1.804190185546875,0.11687655001878738,1.221174955368042,0.5102262496948242
1769667979979179300,1.81417919921875,0.11553937941789627,1.184188723564148,0.5053137540817261
1769667979989167900,1.82416796875,0.14653298258781433,1.0798667669296265,0.5166468620300293
1769667979999156000,1.834156005859375,0.15634433925151825,1.0220167636871338,0.5130941867828369
1769667980009145000,1.84414501953125,0.1497836410999298,0.9914802312850952,0.49375590682029724
1769667980019134000,1.854134033203125,0.1720609813928604,0.9249877333641052,0.4914831817150116
1769667980029123000,1.864123046875,0.18597200512886047,0.8734427690505981,0.4849933087825775
1769667980039111200,1.874111083984375,0.19488373398780823,0.8541108965873718,0.4881371855735779
1769667980049100000,1.88410009765625,0.1963319629430771,0.8354496359825134,0.5012428760528564
1769667980059089000,1.8940888671875,0.20055440068244934,0.810002863407135,0.5125101804733276
1769667980069078000,1.904078125,0.21195513010025024,0.7963756918907166,0.5285346508026123
1769667980079066000,1.914066162109375,0.23303191363811493,0.8051772117614746,0.5457791686058044
1769667980089055000,1.924054931640625,0.25046977400779724,0.8228837251663208,0.5611658692359924
1769667980099044000,1.934044189453125,0.26955530047416687,0.8388752341270447,0.5852760076522827
1769667980109032000,1.944031982421875,0.281720370054245,0.8513505458831787,0.6141169667243958
1769667980119021000,1.95402099609375,0.2918108105659485,0.8723836541175842,0.635695219039917
1769667980129010000,1.964010009765625,0.31431451439857483,0.8579322695732117,0.6540436148643494
1769667980138999000,1.9739990234375,0.32287952303886414,0.8356378674507141,0.6571911573410034
1769667980148987100,1.983987060546875,0.32512617111206055,0.8137943744659424,0.6486733555793762
1769667980158976000,1.99397607421875,0.32037854194641113,0.7804494500160217,0.6523759365081787
1769667980168965000,2.003965087890625,0.3052704334259033,0.7416767477989197,0.6558337807655334
1769667980178954200,2.013954345703125,0.2881055474281311,0.6897041201591492,0.6528621912002563
1769667980188942000,2.023942138671875,0.2722986340522766,0.6453608870506287,0.6350142359733582
1769667980198931000,2.033930908203125,0.2496977150440216,0.6234135031700134,0.603856086730957
1769667980208920000,2.043920166015625,0.2215808629989624,0.5977672934532166,0.5616511106491089
1769667980218909000,2.053908935546875,0.19940099120140076,0.5635342001914978,0.5056685209274292
1769667980228897000,2.06389697265625,0.1744391769170761,0.5423349142074585,0.45312806963920593
1769667980238886100,2.07388623046875,0.15213973820209503,0.528099536895752,0.4109047055244446
1769667980248875300,2.083875244140625,0.13712483644485474,0.5038328170776367,0.3809260427951813
1769667980258863900,2.09386376953125,0.12526337802410126,0.4829256534576416,0.373029500246048
1769667980268852000,2.10385205078125,0.11620170623064041,0.4847957193851471,0.37756139039993286
1769667980278841000,2.113841064453125,0.08861774951219559,0.5036605000495911,0.38426750898361206
1769667980288830000,2.123829833984375,0.05553196743130684,0.5290947556495667,0.37939712405204773
1769667980298819000,2.133819091796875,0.03370416909456253,0.5370501279830933,0.35185471177101135
1769667980308807200,2.14380712890625,0.006337258033454418,0.5301541686058044,0.31973326206207275
1769667980318796000,2.153796142578125,-0.03219202533364296,0.5232666730880737,0.283964604139328
1769667980328785000,2.163784912109375,-0.0773075744509697,0.5691651701927185,0.2462015151977539
1769667980338774000,2.17377392578125,-0.11081093549728394,0.6949260234832764,0.1862953007221222
1769667980348762000,2.18376220703125,-0.14717480540275574,0.854394257068634,0.0923355221748352
1769667980358751000,2.1937509765625,-0.15272456407546997,0.9386987686157227,-0.01726207695901394
1769667980368740000,2.203739990234375,-0.14242345094680786,0.9540218114852905,-0.12414351850748062
1769667980378729200,2.213729248046875,-0.09506180137395859,0.9756506681442261,-0.1564790904521942
1769667980388717000,2.223717041015625,-0.006171342916786671,0.9974467754364014,-0.07114874571561813
1769667980398706000,2.233705810546875,0.07717973738908768,0.9994558691978455,0.0886467769742012
1769667980408694300,2.2436943359375,0.11017923802137375,0.9434990882873535,0.2658194303512573
1769667980418683400,2.253683349609375,0.09837929904460907,0.8398488759994507,0.42689967155456543
1769667980428671500,2.26367138671875,0.058873169124126434,0.6807777285575867,0.5589796900749207
1769667980438660400,2.273660400390625,-0.012181032449007034,0.527208685874939,0.6222702264785767
1769667980448649200,2.283649169921875,-0.0819619745016098,0.44531676173210144,0.5877056121826172
1769667980458638000,2.29363818359375,-0.13500149548053741,0.4059986472129822,0.49821698665618896
1769667980468626200,2.303626220703125,-0.14483201503753662,0.39086443185806274,0.4016909897327423
1769667980478615300,2.313615234375,-0.09266761690378189,0.415395587682724,0.2925434410572052
1769667980488604400,2.3236044921875,0.0036674391012638807,0.47791463136672974,0.20405299961566925
1769667980498593300,2.33359326171875,0.08831121772527695,0.6038866639137268,0.16671361029148102
1769667980508581400,2.343581298828125,0.1523522585630417,0.7612472772598267,0.1446690410375595
1769667980518570200,2.3535703125,0.20652148127555847,0.9181612730026245,0.11255717277526855
1769667980528559000,2.36355908203125,0.25177446007728577,1.064889669418335,0.08314734697341919
1769667980538548200,2.37354833984375,0.284298300743103,1.1406476497650146,0.04902320355176926
1769667980548536300,2.383536376953125,0.29902878403663635,1.1228803396224976,0.008378837257623672
1769667980558525400,2.393525390625,0.2972732186317444,1.0985885858535767,-0.036314330995082855
1769667980568514300,2.403514404296875,0.28284555673599243,1.078464150428772,-0.07652460038661957
1769667980578502100,2.413502197265625,0.2815355360507965,1.03685462474823,-0.12104439735412598
1769667980588491300,2.4234912109375,0.26771000027656555,0.9657524824142456,-0.14082662761211395
1769667980598480100,2.433480224609375,0.2562227249145508,0.9247328639030457,-0.13585050404071808
1769667980608469200,2.44346923828125,0.26379916071891785,0.9447140693664551,-0.11601448804140091
1769667980618457300,2.453457275390625,0.27222007513046265,1.027457356452942,-0.1050284132361412
1769667980628446500,2.463446533203125,0.3006533086299896,1.0984621047973633,-0.09961766749620438
1769667980638435300,2.473435302734375,0.33235159516334534,1.1366618871688843,-0.08558493852615356
1769667980648424400,2.483424560546875,0.3557890057563782,1.1405937671661377,-0.06141915172338486
1769667980658412300,2.493412353515625,0.383375883102417,1.107771635055542,-0.039617449045181274
1769667980668401200,2.503401123046875,0.410724937915802,1.0816668272018433,-0.05835198983550072
1769667980678390300,2.513390380859375,0.3976339101791382,1.0650333166122437,-0.08321206271648407
1769667980688379400,2.52337939453125,0.3844163715839386,1.139591932296753,-0.10534372925758362
1769667980698367200,2.5333671875,0.41169700026512146,1.248969554901123,-0.14761395752429962
1769667980708356400,2.5433564453125,0.4969591796398163,1.3147642612457275,-0.19515031576156616
1769667980718345200,2.55334521484375,0.5212381482124329,1.3478410243988037,-0.22782064974308014
1769667980728334000,2.563333984375,0.5209963321685791,1.3727210760116577,-0.24580471217632294
1769667980738322200,2.573322265625,0.5066717267036438,1.3985025882720947,-0.24202115833759308
1769667980748311300,2.583311279296875,0.49559882283210754,1.312337040901184,-0.19704729318618774
1769667980758300400,2.593300537109375,0.4456978440284729,1.1873825788497925,-0.14752580225467682
1769667980768289300,2.603289306640625,0.36743980646133423,1.0596216917037964,-0.11918897181749344
1769667980778277400,2.61327734375,0.30809977650642395,0.9579331874847412,-0.08544352650642395
1769667980788266200,2.623266357421875,0.2658441960811615,0.8464735150337219,-0.06232941895723343
1769667980798255000,2.633255126953125,0.22233213484287262,0.7073840498924255,-0.053947921842336655
1769667980808244200,2.643244140625,0.18553631007671356,0.5915791392326355,-0.05566219612956047
1769667980818232300,2.653232421875,0.16700948774814606,0.5092267394065857,-0.05283152312040329
1769667980828221400,2.663221435546875,0.16507284343242645,0.49538177251815796,-0.051535364240407944
1769667980838210300,2.673210205078125,0.16451144218444824,0.5341001749038696,-0.058028947561979294
1769667980848199400,2.683199462890625,0.17498566210269928,0.5776875615119934,-0.058330949395895004
1769667980858187300,2.693187255859375,0.19053319096565247,0.6135715246200562,-0.06448338180780411
1769667980868176100,2.703176025390625,0.21069759130477905,0.6152980923652649,-0.08184906095266342
1769667980878165200,2.713165283203125,0.21667851507663727,0.6128634214401245,-0.08845183253288269
1769667980888154400,2.723154296875,0.21278230845928192,0.5813925862312317,-0.07883782684803009
1769667980898142500,2.733142578125,0.19972456991672516,0.5451445579528809,-0.06283116340637207
1769667980908131300,2.74313134765625,0.18759173154830933,0.4900378882884979,-0.04019082710146904
1769667980918120400,2.753120361328125,0.18117351830005646,0.4218127429485321,-0.017347831279039383
1769667980928109000,2.763109130859375,0.15456773340702057,0.3646506667137146,-0.0041374871507287025
1769667980938097200,2.77309716796875,0.13005760312080383,0.304133802652359,-0.005205947440117598
1769667980948086300,2.783086181640625,0.11109243333339691,0.22558359801769257,-0.011599131859838963
1769667980958075400,2.793075439453125,0.09938890486955643,0.14851704239845276,-0.025898708030581474
1769667980968064300,2.803064208984375,0.07987059652805328,0.10882101953029633,-0.05276068300008774
1769667980978052400,2.81305224609375,0.057680606842041016,0.12580506503582,-0.10722951591014862
1769667980988041500,2.82304150390625,0.007722367998212576,0.147025927901268,-0.15800374746322632
1769667980998030000,2.833030029296875,-0.05372288450598717,0.17083406448364258,-0.2329016923904419
1769667981008019200,2.843019287109375,-0.12483380734920502,0.12454619258642197,-0.31011897325515747
1769667981018007300,2.85300732421875,-0.1836627721786499,0.020837103947997093,-0.3186461627483368
1769667981027996400,2.862996337890625,-0.2087412327528,-0.045168545097112656,-0.26362738013267517
1769667981037985300,2.8729853515625,-0.2146020531654358,-0.03843926638364792,-0.1709911823272705
1769667981047974400,2.882974365234375,-0.21263690292835236,-0.004749747924506664,-0.07063928246498108
1769667981057962200,2.892962158203125,-0.20120687782764435,0.04254027083516121,0.02558019384741783
1769667981067951000,2.902951171875,-0.18587452173233032,0.11783449351787567,0.10669528692960739
1769667981077940200,2.912940185546875,-0.1809103935956955,0.19857114553451538,0.15215438604354858
1769667981087929300,2.922929443359375,-0.16739219427108765,0.24299028515815735,0.16378706693649292
1769667981097917400,2.93291748046875,-0.1549070179462433,0.21609234809875488,0.14818041026592255
1769667981107906300,2.94290625,-0.1606820821762085,0.16198384761810303,0.11991681903600693
1769667981117895400,2.9528955078125,-0.18107843399047852,0.09775372594594955,0.10085763782262802
1769667981127884300,2.96288427734375,-0.20828290283679962,0.014432468451559544,0.10186377912759781
1769667981137872100,2.9728720703125,-0.24021978676319122,-0.08852799981832504,0.1027708500623703
1769667981147861200,2.982861328125,-0.27930328249931335,-0.1566692441701889,0.1073664054274559
1769667981157850400,2.992850341796875,-0.30977383255958557,-0.20705890655517578,0.12153708189725876
1769667981167839200,3.002839111328125,-0.325504869222641,-0.2316710501909256,0.1389339119195938
1769667981177827300,3.012827392578125,-0.3401559889316559,-0.23659096658229828,0.1514369249343872
1769667981187816400,3.02281640625,-0.3377964198589325,-0.24659086763858795,0.16394393146038055
1769667981197805000,3.03280517578125,-0.3162842094898224,-0.25915247201919556,0.15843278169631958
1769667981207794200,3.042794189453125,-0.29712754487991333,-0.20510441064834595,0.1246338039636612
1769667981217782300,3.0527822265625,-0.27155375480651855,-0.1400412619113922,0.0883873850107193
1769667981227771400,3.062771484375,-0.23373658955097198,-0.10815150290727615,0.0667039304971695
1769667981237760300,3.07276025390625,-0.21158921718597412,-0.06742963939905167,0.05607525259256363
1769667981247749400,3.082749267578125,-0.19019897282123566,-0.027825240045785904,0.04367983713746071
1769667981257737500,3.092737548828125,-0.16343127191066742,0.002805906580761075,0.025851303711533546
1769667981267726000,3.10272607421875,-0.14079253375530243,0.007127418182790279,0.01745595596730709
1769667981277715200,3.112715087890625,-0.10778319090604782,0.008133560419082642,0.0021489046048372984
1769667981287703300,3.122703369140625,-0.075595423579216,0.004995291121304035,-0.004037352278828621
1769667981297692400,3.1326923828125,-0.051306597888469696,0.004507932811975479,-0.003878894029185176
1769667981307681300,3.142681396484375,-0.044802360236644745,-0.006057892460376024,-0.013285711407661438
1769667981317670400,3.15267041015625,-0.041261687874794006,-0.013350426219403744,-0.022170815616846085
1769667981327658200,3.162658203125,-0.035959865897893906,0.00273133791051805,-0.029167739674448967
1769667981337647000,3.172647216796875,-0.03819265961647034,0.04020547494292259,-0.03328179195523262
1769667981347636200,3.18263623046875,-0.04278288409113884,0.06021806597709656,-0.030954187735915184
1769667981357625300,3.192625244140625,-0.040820665657520294,0.06797345727682114,-0.021394504234194756
1769667981367613400,3.202613525390625,-0.04526069015264511,0.044625792652368546,-0.015409315936267376
1769667981377602300,3.212602294921875,-0.05933576077222824,-0.013921940699219704,-0.0009648632840253413
1769667981387591400,3.22259130859375,-0.06450868397951126,-0.07281775027513504,0.009588711895048618
1769667981397580300,3.232580322265625,-0.05940766632556915,-0.10821009427309036,0.019757725298404694
1769667981407568100,3.242568115234375,-0.057917095720767975,-0.12952789664268494,0.02045893669128418
1769667981417557200,3.25255712890625,-0.04604418948292732,-0.14663444459438324,0.01926317624747753
1769667981427546400,3.26254638671875,-0.03262292593717575,-0.13801220059394836,0.015564045868813992
1769667981437535200,3.27253515625,-0.016642892733216286,-0.11224451661109924,0.012684369459748268
1769667981447523300,3.2825234375,-0.0018226674292236567,-0.08846328407526016,0.014064952731132507
1769667981457512400,3.292512451171875,0.013587714172899723,-0.05380064621567726,0.017426660284399986
1769667981467501300,3.302501220703125,0.03183170035481453,-0.031185349449515343,0.01733398251235485
1769667981477490200,3.312490234375,0.044734712690114975,-0.021438445895910263,0.005578257143497467
1769667981487478300,3.322478271484375,0.04556828364729881,-0.03719823434948921,-0.005844573490321636
1769667981497467400,3.33246728515625,0.039924245327711105,-0.05279077589511871,-0.01714516431093216
1769667981507456300,3.342456298828125,0.035652268677949905,-0.06216856464743614,-0.03678144887089729
1769667981517445400,3.3524453125,0.03087748773396015,-0.06106388568878174,-0.05161392688751221
1769667981527433500,3.36243359375,0.03039545565843582,-0.04571635648608208,-0.05248850956559181
1769667981537422000,3.372422119140625,0.03399205580353737,-0.03652871772646904,-0.044810082763433456
1769667981547411200,3.3824111328125,0.03418753296136856,-0.025713086128234863,-0.043353334069252014
1769667981557400300,3.392400390625,0.03738971799612045,-0.018749453127384186,-0.05308398976922035
1769667981567388400,3.402388427734375,0.03394917771220207,-0.019647737964987755,-0.06608740985393524
1769667981577377300,3.412377197265625,0.028317125514149666,-0.026922693476080894,-0.06710260361433029
1769667981587366400,3.422366455078125,0.019776634871959686,-0.016599217429757118,-0.055335160344839096
1769667981597355300,3.432355224609375,0.020324446260929108,0.011069162748754025,-0.03829386085271835
1769667981607343000,3.442343017578125,0.02329280599951744,0.028150411322712898,-0.04844236746430397
1769667981617332200,3.452332275390625,0.02129223942756653,0.03314383700489998,-0.052975066006183624
1769667981627321300,3.4623212890625,0.028003139421343803,0.05615274980664253,-0.05341422185301781
1769667981637310200,3.472310302734375,0.021821942180395126,0.0949305072426796,-0.04506601020693779
1769667981647298300,3.48229833984375,0.016981912776827812,0.1079256683588028,-0.015196530148386955
1769667981657287400,3.492287353515625,0.018161160871386528,0.10263476520776749,0.005530053749680519
1769667981667276300,3.5022763671875,0.02040940150618553,0.11049535125494003,0.01678723655641079
1769667981677265200,3.51226513671875,0.01842241734266281,0.12706340849399567,0.026807911694049835
1769667981687253200,3.522253173828125,0.017433319240808487,0.13630618155002594,0.02851206809282303
1769667981697242400,3.532242431640625,0.018071943894028664,0.13451413810253143,0.03491723909974098
1769667981707231200,3.542231201171875,0.02991368994116783,0.13734987378120422,0.027728566899895668
1769667981717220400,3.552220458984375,0.04574192315340042,0.13798236846923828,0.015852998942136765
1769667981727208400,3.56220849609375,0.04586522653698921,0.14645788073539734,0.028242556378245354
1769667981737197300,3.572197265625,0.037882402539253235,0.15614113211631775,0.042812179774045944
1769667981747186200,3.582186279296875,0.02792377583682537,0.1487303525209427,0.05783427134156227
1769667981757175300,3.59217529296875,0.026094717904925346,0.1446882039308548,0.08134891837835312
1769667981767163400,3.602163330078125,0.03032514825463295,0.13596636056900024,0.10740715265274048
1769667981777152300,3.61215234375,0.035057052969932556,0.12192537635564804,0.1352694034576416
1769667981787141400,3.622141357421875,0.04048910364508629,0.09975215792655945,0.14958922564983368
1769667981797130200,3.632130126953125,0.044375453144311905,0.08115503937005997,0.15225477516651154
1769667981807118000,3.6421181640625,0.04500662162899971,0.06138000264763832,0.14951811730861664
1769667981817107200,3.652107177734375,0.044387705624103546,0.05602971464395523,0.14577904343605042
1769667981827096300,3.662096435546875,0.04880162701010704,0.055687498301267624,0.1454986035823822
1769667981837085200,3.672085205078125,0.05146372318267822,0.05355590209364891,0.15301299095153809
1769667981847073300,3.6820732421875,0.05735649913549423,0.056719206273555756,0.15982535481452942
1769667981857062400,3.6920625,0.06290146708488464,0.0689830631017685,0.15885409712791443
1769667981867051300,3.70205126953125,0.06804270297288895,0.08036301285028458,0.15129977464675903
1769667981877039000,3.7120390625,0.07461617887020111,0.08978794515132904,0.1425885707139969
1769667981887028200,3.7220283203125,0.07683512568473816,0.08599906414747238,0.1316634863615036
1769667981897017300,3.732017333984375,0.07638425379991531,0.08146928995847702,0.12095838040113449
1769667981907006200,3.742006103515625,0.07464174926280975,0.07797949016094208,0.11099869012832642
1769667981916995300,3.751995361328125,0.0716286450624466,0.07084541022777557,0.1067458838224411
1769667981926983400,3.7619833984375,0.06838332116603851,0.06818970292806625,0.1081315279006958
1769667981936972300,3.77197216796875,0.07119534909725189,0.06984592974185944,0.10562682896852493
1769667981946961200,3.781961181640625,0.07142464816570282,0.07083023339509964,0.09581254422664642
1769667981956949200,3.79194921875,0.0732763409614563,0.08499132096767426,0.09103403240442276
1769667981966938400,3.8019384765625,0.07211706787347794,0.10290054976940155,0.08928487449884415
1769667981976927200,3.81192724609375,0.07300390303134918,0.1245959922671318,0.08522408455610275
1769667981986916400,3.821916259765625,0.07336635887622833,0.1442176252603531,0.07572272419929504
1769667981996904400,3.831904541015625,0.07629690319299698,0.16555353999137878,0.06066467985510826
1769667982006893300,3.841893310546875,0.07562551647424698,0.18477357923984528,0.050453055649995804
1769667982016882200,3.851882080078125,0.07686948031187057,0.1943737417459488,0.04162494093179703
1769667982026871300,3.861871337890625,0.07517411559820175,0.19737859070301056,0.03251293674111366
1769667982036859400,3.871859375,0.07229044288396835,0.19589626789093018,0.021891450509428978
1769667982046848300,3.88184814453125,0.07009067386388779,0.19111482799053192,0.01055969949811697
1769667982056837400,3.89183740234375,0.06439656764268875,0.18560075759887695,-0.0019156117923557758
1769667982066826200,3.901826171875,0.061582937836647034,0.1822289228439331,0.003613909473642707
1769667982076814000,3.91181396484375,0.06227162852883339,0.18103210628032684,0.0031611721497029066
1769667982086803200,3.92180322265625,0.06143832579255104,0.17611217498779297,-0.002626942005008459
1769667982096792300,3.931792236328125,0.06320267170667648,0.16439959406852722,-0.00890880636870861
1769667982106781200,3.94178125,0.06087267026305199,0.15067152678966522,-0.017233049497008324
1769667982116769300,3.951769287109375,0.06520696729421616,0.12809431552886963,-0.02130981534719467
1769667982126758400,3.96175830078125,0.07026084512472153,0.10753604769706726,-0.0161289032548666
1769667982136747300,3.971747314453125,0.08478093147277832,0.09167665988206863,-0.008698949590325356
1769667982146736400,3.981736328125,0.0981084555387497,0.08422806113958359,0.0001358212175546214
1769667982156724200,3.99172412109375,0.10947775840759277,0.07993610948324203,0.007314904592931271
1769667982166713300,4.00171337890625,0.12383352965116501,0.07636081427335739,0.0075761605985462666
1769667982176702200,4.0117021484375,0.13041873276233673,0.06383304297924042,0.0027832696214318275
1769667982186691300,4.02169140625,0.12950366735458374,0.05792801454663277,0.004497013986110687
1769667982196679400,4.031679443359375,0.129970520734787,0.04831773042678833,0.00866113230586052
1769667982206668300,4.041668212890625,0.12772653996944427,0.02936454676091671,0.00860573910176754
1769667982216657400,4.051657470703125,0.11582620441913605,0.03379924222826958,0.008935172110795975
1769667982226646300,4.061646240234375,0.1145300418138504,0.04168353229761124,0.028377579525113106
1769667982236634400,4.07163427734375,0.1135137751698494,0.04327317327260971,0.04121161997318268
1769667982246623200,4.081623291015625,0.10387979447841644,0.05724251642823219,0.045455098152160645
1769667982256612400,4.0916123046875,0.09966747462749481,0.08476575464010239,0.037931401282548904
1769667982266601200,4.101601318359375,0.09777875989675522,0.10017932951450348,0.02569258026778698
1769667982276589300,4.11158935546875,0.09225296229124069,0.12719550728797913,0.025250760838389397
1769667982286578200,4.121578125,0.09480293840169907,0.1522478610277176,0.02443397045135498
1769667982296567300,4.1315673828125,0.08796340972185135,0.16118542850017548,0.014191186055541039
1769667982306556200,4.14155615234375,0.08659215271472931,0.159914031624794,0.0008665926288813353
1769667982316544300,4.151544189453125,0.07699065655469894,0.15126702189445496,-0.028306473046541214
1769667982326533400,4.161533447265625,0.0662783533334732,0.1327977329492569,-0.02809075638651848
1769667982336522200,4.171522216796875,0.06013337895274162,0.10981198400259018,-0.015905728563666344
1769667982346511400,4.181511474609375,0.03952823579311371,0.0813521146774292,-0.015791213139891624
1769667982356499200,4.191499267578125,0.023501863703131676,0.05005570873618126,-0.020834708586335182
1769667982366488300,4.20148828125,0.017434917390346527,0.024570856243371964,-0.04643887281417847
1769667982376477200,4.211477294921875,0.010000436566770077,-0.004560929723083973,-0.06192035973072052
1769667982386466300,4.22146630859375,0.014399179257452488,-0.032472722232341766,-0.05199076235294342
1769667982396454400,4.231454345703125,0.016381902620196342,-0.042387139052152634,-0.0538049079477787
1769667982406443500,4.241443603515625,0.019708989188075066,-0.04565776512026787,-0.04950949549674988
1769667982416432600,4.2514326171875,0.03435797244310379,-0.04156448692083359,-0.03489433601498604
1769667982426421800,4.261421875,0.041670482605695724,-0.04598879814147949,-0.0361739844083786
1769667982436409600,4.27140966796875,0.025776203721761703,-0.07321136444807053,-0.03093394823372364
1769667982446398700,4.281398681640625,0.03363971784710884,-0.08818711340427399,-0.03795989975333214
1769667982456387800,4.291387939453125,0.037529800087213516,-0.08747711777687073,-0.056166600435972214
1769667982466376700,4.301376708984375,0.03678864240646362,-0.07567691802978516,-0.08762705326080322
1769667982476364500,4.311364501953125,0.04355573281645775,-0.03682033345103264,-0.06746399402618408
1769667982486353700,4.321353759765625,0.05432582274079323,0.01293124444782734,-0.04562074691057205
1769667982496342800,4.3313427734375,0.04519863799214363,0.04392591118812561,-0.030365362763404846
1769667982506331600,4.34133154296875,0.040588706731796265,0.06185484677553177,-0.0362062081694603
1769667982516319700,4.35131982421875,0.043467048555612564,0.07816857099533081,-0.06351878494024277
1769667982526308900,4.361308837890625,0.03908934444189072,0.0861189067363739,-0.08571357280015945
1769667982536297700,4.371297607421875,0.03421948850154877,0.0955323800444603,-0.10284648835659027
1769667982546286600,4.38128662109375,0.02742896042764187,0.128646120429039,-0.10440976172685623
1769667982556274700,4.391274658203125,0.025490446016192436,0.13211995363235474,-0.09213898330926895
1769667982566263600,4.401263671875,0.015214905142784119,0.13375380635261536,-0.0768929198384285
1769667982576252700,4.411252685546875,0.0060083577409386635,0.12702931463718414,-0.07194902747869492
1769667982586241800,4.42124169921875,-0.004304467234760523,0.09651695191860199,-0.06631351262331009
1769667982596230000,4.43122998046875,-0.014444719068706036,0.0718158632516861,-0.06723416596651077
1769667982606218800,4.44121875,-0.0248454287648201,0.0446590818464756,-0.06790075451135635
1769667982616207600,4.45120751953125,-0.03237791359424591,0.021862154826521873,-0.0652056336402893
1769667982626196700,4.46119677734375,-0.037395309656858444,-0.00005246427463134751,-0.06319441646337509
1769667982636184600,4.4711845703125,-0.04055621474981308,-0.015916649252176285,-0.06465382874011993
1769667982646173700,4.481173583984375,-0.04135463014245033,-0.021741515025496483,-0.06609699130058289
1769667982656162800,4.491162841796875,-0.038543928414583206,-0.033551834523677826,-0.06905390322208405
1769667982666151000,4.50115087890625,-0.03672925382852554,-0.04410034790635109,-0.06486235558986664
1769667982676139500,4.511139404296875,-0.036557212471961975,-0.03961079195141792,-0.06308096647262573
1769667982686128600,4.521128662109375,-0.033066339790821075,-0.04224678874015808,-0.05451676994562149
1769667982696117800,4.53111767578125,-0.03116697445511818,-0.03930426388978958,-0.04523272439837456
1769667982706105600,4.541105712890625,-0.029143771156668663,-0.042881421744823456,-0.0338655561208725
1769667982716094700,4.5510947265625,-0.03274223208427429,-0.04595044627785683,-0.022760972380638123
1769667982726083800,4.561083740234375,-0.03536811098456383,-0.03909653425216675,-0.023506391793489456
1769667982736072700,4.57107275390625,-0.03472495824098587,-0.03522003814578056,-0.029412750154733658
1769667982746061800,4.581061767578125,-0.03502003476023674,-0.037159085273742676,-0.040354613214731216
1769667982756049700,4.591049560546875,-0.03454466164112091,-0.03669968992471695,-0.049257561564445496
1769667982766038800,4.601038818359375,-0.031690020114183426,-0.012164254672825336,-0.05386190116405487
1769667982776027600,4.611027587890625,-0.03025777079164982,-0.005998237524181604,-0.039793483912944794
1769667982786015700,4.621015625,-0.021809425204992294,0.000969656917732209,-0.040105607360601425
1769667982796004900,4.6310048828125,-0.018643192946910858,0.012916331179440022,-0.05118755251169205
1769667982805993700,4.64099365234375,-0.015847938135266304,0.01709829270839691,-0.049458097666502
1769667982815982800,4.65098291015625,-0.01594141498208046,0.03772580623626709,-0.04959231987595558
1769667982825970700,4.660970703125,-0.017906030640006065,0.04410194605588913,-0.04772251471877098
1769667982835959600,4.67095947265625,-0.01931271143257618,0.03845444694161415,-0.056953828781843185
1769667982845948700,4.68094873046875,-0.021136444061994553,0.02936800941824913,-0.06853964924812317
1769667982855937800,4.690937744140625,-0.019473565742373466,0.025728266686201096,-0.0796295776963234
1769667982865926000,4.70092578125,-0.016503343358635902,0.009124255739152431,-0.07215116173028946
1769667982875914800,4.710914794921875,-0.013437777757644653,-0.00782569870352745,-0.0514376237988472
1769667982885903600,4.720903564453125,-0.017305221408605576,-0.0028016455471515656,-0.03297632560133934
1769667982895892700,4.730892822265625,-0.02100914530456066,-0.008810003288090229,-0.01925705187022686
1769667982905880600,4.740880615234375,-0.022852318361401558,-0.027405790984630585,-0.013006079941987991
1769667982915869700,4.75086962890625,-0.02413729391992092,-0.04380181059241295,-0.01631585694849491
1769667982925858800,4.76085888671875,-0.030352046713232994,-0.05583583563566208,-0.016775252297520638
1769667982935847700,4.77084765625,-0.034514833241701126,-0.08213934302330017,-0.018618958070874214
1769667982945835500,4.78083544921875,-0.04092506319284439,-0.1027522087097168,-0.025072596967220306
1769667982955824600,4.79082470703125,-0.04165050759911537,-0.10410483181476593,-0.02352476678788662
1769667982965813800,4.800813720703125,-0.03810637444257736,-0.11028629541397095,-0.025899773463606834
1769667982975802600,4.810802734375,-0.04098737984895706,-0.09906932711601257,-0.016766196116805077
1769667982985790700,4.820790771484375,-0.028170917183160782,-0.07054900377988815,-0.0023276028223335743
1769667982995779800,4.83077978515625,-0.015049789100885391,-0.040591102093458176,-0.0015041533624753356
1769667983005768700,4.840768798828125,-0.0023193468805402517,-0.017471933737397194,0.00250470289029181
1769667983015757800,4.8507578125,0.009757023304700851,0.005478388629853725,0.004870389122515917
1769667983025745700,4.86074560546875,0.014229536056518555,0.024985510855913162,0.016922790557146072
1769667983035734500,4.870734619140625,0.013076387345790863,0.027413781732320786,0.030008232221007347
1769667983045723600,4.8807236328125,0.011098191142082214,0.019211245700716972,0.030730748549103737
1769667983055712800,4.890712646484375,0.006314621306955814,0.0006130596739239991,0.025020930916070938
1769667983065700900,4.900700927734375,-0.0026844663079828024,-0.02280624583363533,0.020566260442137718
1769667983075689700,4.910689697265625,-0.00948191899806261,-0.04188220202922821,0.01625114120543003
1769667983085678800,4.920678955078125,-0.015117167495191097,-0.05193350464105606,0.016439693048596382
1769667983095667700,4.930667724609375,-0.015365107916295528,-0.055020373314619064,0.012681440450251102
1769667983105655600,4.940655517578125,-0.013382917270064354,-0.05251274257898331,0.010848652571439743
1769667983115644700,4.950644775390625,-0.01047501154243946,-0.045528870075941086,0.011591408401727676
1769667983125633800,4.9606337890625,-0.008326106704771519,-0.032575253397226334,0.015305719338357449
1769667983135622700,4.97062255859375,-0.005323925521224737,-0.025404158979654312,0.022159630432724953
1769667983145610800,4.98061083984375,-0.005155880004167557,-0.020547086372971535,0.024055002257227898
1769667983155599600,4.990599609375,-0.007794539909809828,-0.012562396936118603,0.021257618442177773
1769667983165588700,5.000588623046875,-0.010913633741438389,-0.007732754573225975,0.01278716791421175
1769667983175577600,5.01057763671875,-0.012792494148015976,-0.008763664402067661,0.00410552928224206
1769667983185565700,5.020565673828125,-0.011824967339634895,-0.010525344870984554,0.002302835462614894
1769667983195554800,5.030554931640625,-0.010205499827861786,-0.008360727690160275,0.0025419872254133224
1769667983205543700,5.040543701171875,-0.00791251752525568,-0.004288488067686558,0.0068089039996266365
1769667983215532800,5.05053271484375,-0.0068272799253463745,0.00350418733432889,0.009363408200442791
1769667983225520600,5.060520751953125,-0.008312257938086987,0.007920773699879646,0.01230247225612402
1769667983235509800,5.070509765625,-0.006474677007645369,0.007277354132384062,0.013965084217488766
1769667983245498600,5.08049853515625,-0.006469883490353823,0.012122176587581635,0.011354386806488037
1769667983255487700,5.09048779296875,-0.0035502600949257612,0.010936536826193333,0.01233256608247757
1769667983265475800,5.100475830078125,-0.003659449517726898,0.00857111718505621,0.010937868617475033
1769667983275464700,5.110464599609375,-0.003979561384767294,0.00854501873254776,0.010326140560209751
1769667983285453800,5.120453857421875,-0.003966245800256729,0.012958142906427383,0.008136223070323467
1769667983295442700,5.130442626953125,-0.003284742822870612,0.022413697093725204,0.009681123308837414
1769667983305430500,5.140430419921875,-0.00033662354690022767,0.03254169598221779,0.016276441514492035
1769667983315419600,5.150419677734375,0.0023425165563821793,0.04056260734796524,0.01751294732093811
1769667983325408800,5.16040869140625,0.004741758108139038,0.04375360533595085,0.01919686421751976
1769667983335397600,5.170397705078125,0.007154582068324089,0.04296451061964035,0.021444305777549744
1769667983345385700,5.1803857421875,0.007720503956079483,0.037455495446920395,0.02274339646100998
1769667983355374800,5.190374755859375,0.005437642335891724,0.02901167795062065,0.026196183636784554
1769667983365363700,5.20036376953125,0.002680205274373293,0.02280784398317337,0.03177923336625099
1769667983375352600,5.2103525390625,-0.0012807141756638885,0.013850567862391472,0.030525417998433113
1769667983385340700,5.220340576171875,-0.002558765234425664,0.005800630897283554,0.02995949611067772
1769667983395329800,5.230329833984375,-0.006615824531763792,0.0008932242053560913,0.030721960589289665
1769667983405318700,5.240318603515625,-0.003213636577129364,0.0051710596308112144,0.025497902184724808
1769667983415307300,5.250307373046875,-0.006586263421922922,0.007837682962417603,0.022401712834835052
1769667983425295400,5.26029541015625,-0.006387325469404459,0.002237854292616248,0.018674084916710854
1769667983435284500,5.270284423828125,-0.006711432244628668,-0.011068097315728664,0.013936055824160576
1769667983445273300,5.2802734375,-0.007662713527679443,-0.01506896410137415,0.011242267675697803
1769667983455262500,5.290262451171875,-0.011937086470425129,-0.01690095290541649,0.010892861522734165
1769667983465250300,5.300250244140625,-0.011357849463820457,-0.022412365302443504,0.009363940916955471
1769667983475239200,5.3102392578125,-0.012614861130714417,-0.020681044086813927,0.007903995923697948
1769667983485228300,5.320228271484375,-0.01167609728872776,-0.018730543553829193,0.004793956410139799
1769667983495217400,5.330217529296875,-0.011581821367144585,-0.01677791401743889,0.005230448208749294
1769667983505205500,5.34020556640625,-0.01206997875124216,0.0030597057193517685,0.005567071959376335
1769667983515194400,5.3501943359375,-0.012536032125353813,0.024888304993510246,-0.0038578552193939686
1769667983525183500,5.36018359375,-0.008017978630959988,0.03982384502887726,-0.02022377960383892
1769667983535172400,5.37017236328125,-0.00224930583499372,0.04620584473013878,-0.03748026490211487
1769667983545160200,5.38016015625,0.0003640541108325124,0.057255301624536514,-0.04294959828257561
1769667983555149300,5.3901494140625,0.003683950752019882,0.0685548260807991,-0.030884679406881332
1769667983565138400,5.400138427734375,0.004736698232591152,0.06636464595794678,-0.01672518439590931
1769667983575127300,5.410127197265625,0.004926315508782864,0.04916808009147644,-0.00723500968888402
1769667983585115400,5.420115478515625,-0.000028229507734067738,0.029144570231437683,-0.002126534003764391
1769667983595104300,5.430104248046875,-0.0008564725867472589,0.018492192029953003,0.001776062068529427
1769667983605093000,5.440093017578125,-0.004260258749127388,0.012389558367431164,0.004622182343155146
1769667983615082200,5.450082275390625,-0.005019792355597019,0.01044305320829153,-0.0017188041238114238
1769667983625070300,5.4600703125,-0.004108192399144173,0.016338760033249855,-0.008654207922518253
1769667983635059500,5.4700595703125,-0.00024527712957933545,0.0359627939760685,-0.009319998323917389
1769667983645048300,5.48004833984375,0.0006767092272639275,0.05445844680070877,-0.00634817685931921
1769667983655037400,5.490037353515625,0.008701878599822521,0.07121772319078445,-0.00871945545077324
1769667983665025300,5.500025390625,0.013974404893815517,0.0846690833568573,-0.012309130281209946
1769667983675014100,5.51001416015625,0.016813866794109344,0.09408389031887054,-0.022009162232279778
1769667983685003300,5.520003173828125,0.017421867698431015,0.09449534863233566,-0.033356357365846634
1769667983694992400,5.529992431640625,0.01673184148967266,0.08306718617677689,-0.04073304682970047
1769667983704980500,5.53998046875,0.010128001682460308,0.07488329708576202,-0.04518105834722519
1769667983714969300,5.54996923828125,0.004735899157822132,0.05818074941635132,-0.0446644052863121
1769667983724958500,5.55995849609375,-0.0007012102869339287,0.03401415795087814,-0.03603203594684601
1769667983734947300,5.569947265625,-0.0005502090789377689,0.01666020229458809,-0.02816878817975521
1769667983744935200,5.57993505859375,0.0006213154993019998,0.010294715873897076,-0.01944160833954811
1769667983754924300,5.58992431640625,0.001998968655243516,0.006720220670104027,-0.011485947296023369
1769667983764913400,5.599913330078125,0.0065377941355109215,0.010191917419433594,-0.011504855938255787
1769667983774902300,5.60990234375,0.0098640825599432,0.01605912670493126,-0.019154518842697144
1769667983784890400,5.619890380859375,0.013305152766406536,0.021930066868662834,-0.029921947047114372
1769667983794879500,5.62987939453125,0.018085792660713196,0.01840350776910782,-0.03798306733369827
1769667983804868000,5.6398681640625,0.019343603402376175,0.01203775405883789,-0.04091520980000496
1769667983814857200,5.649857177734375,0.020283168181777,0.01968155987560749,-0.043238017708063126
1769667983824845300,5.65984521484375,0.020959610119462013,0.0174437053501606,-0.03827787935733795
1769667983834834400,5.66983447265625,0.016773121431469917,0.01793931983411312,-0.033360887318849564
1769667983844823300,5.6798232421875,0.01347452960908413,0.0157142486423254,-0.029498770833015442
1769667983854812400,5.6898125,0.012813267298042774,0.006747917737811804,-0.024927187711000443
1769667983864800300,5.69980029296875,0.013467072509229183,0.011271297000348568,-0.02634878270328045
1769667983874789000,5.7097890625,0.01404790859669447,0.013440174981951714,-0.02545875497162342
1769667983884778200,5.7197783203125,0.01661546155810356,0.011343201622366905,-0.02352716401219368
1769667983894767400,5.729767333984375,0.021470138803124428,0.005906358826905489,-0.01872282102704048
1769667983904755500,5.73975537109375,0.022413164377212524,0.004078364931046963,-0.013143232092261314
1769667983914744300,5.749744384765625,0.022340992465615273,-0.0035001926589757204,-0.010576478205621243
1769667983924733400,5.7597333984375,0.02039342187345028,-0.0026378610637038946,-0.009101619012653828
1769667983934722300,5.769722412109375,0.01956091821193695,0.0007582019316032529,-0.008871255442500114
1769667983944710100,5.779710205078125,0.01684183068573475,0.0002516687090974301,-0.008699482306838036
1769667983954699300,5.78969921875,0.016762202605605125,-0.0016128103015944362,-0.010877149179577827
1769667983964688400,5.7996884765625,0.015047659166157246,0.002116147894412279,-0.016935573890805244
1769667983974677200,5.80967724609375,0.013136308640241623,0.002831206424161792,-0.023365244269371033
1769667983984665300,5.819665283203125,0.010694456286728382,-0.0002495381922926754,-0.031679365783929825
1769667983994654500,5.829654541015625,0.009798035956919193,-0.006929811555892229,-0.03755296766757965
1769667984004643300,5.839643310546875,0.008203601464629173,-0.005144428461790085,-0.03816229850053787
1769667984014632200,5.849632080078125,0.007803861051797867,0.001945439144037664,-0.03399045765399933
1769667984024620300,5.859620361328125,0.008286692202091217,0.0006801713607273996,-0.025479260832071304
1769667984034609400,5.869609375,0.007676828186959028,0.0011552792275324464,-0.016458867117762566
1769667984044598300,5.879598388671875,0.00965395849198103,0.011711783707141876,-0.012620187364518642
1769667984054586400,5.88958642578125,0.012115252204239368,0.015239672735333443,-0.012368518859148026
1769667984064575500,5.899575439453125,0.013337111100554466,0.012135758996009827,-0.014185060746967793
1769667984074564000,5.909564208984375,0.012591958045959473,0.01649508625268936,-0.019653595983982086
1769667984084553200,5.91955322265625,0.013234845362603664,0.009134110063314438,-0.019627230241894722
1769667984094541300,5.929541259765625,0.012283829972147942,0.0021726067643612623,-0.01739177294075489
1769667984104530400,5.939530517578125,0.01414458081126213,-0.0005837649223394692,-0.0194927416741848
1769667984114519300,5.949519287109375,0.012484366074204445,-0.00780519237741828,-0.024930650368332863
1769667984124508400,5.95950830078125,0.01053599826991558,-0.013626862317323685,-0.02063869871199131
1769667984134496300,5.969496337890625,0.011036405339837074,-0.005197957623749971,-0.022899189963936806
1769667984144485000,5.979485107421875,0.008358065038919449,0.005588111001998186,-0.02371997758746147
1769667984154474200,5.98947412109375,0.007022755686193705,0.0232925396412611,-0.023014238104224205
1769667984164463400,5.99946337890625,0.005969741847366095,0.02925109677016735,-0.028782378882169724
1769667984174451500,6.009451416015625,0.010570086538791656,0.038061365485191345,-0.030975759029388428
1769667984184440300,6.0194404296875,0.012660401873290539,0.04302629828453064,-0.028367992490530014
1769667984194429400,6.029429443359375,0.014126204885542393,0.041194841265678406,-0.023479759693145752
1769667984204418300,6.039418212890625,0.013883857987821102,0.034755051136016846,-0.01817926950752735
1769667984214406100,6.04940625,0.010901383124291897,0.03032062202692032,-0.01188009511679411
1769667984224395300,6.059395263671875,0.006917560938745737,0.02785187028348446,-0.01744477078318596
1769667984234384400,6.06938427734375,0.003346794517710805,0.02804814651608467,-0.025956764817237854
1769667984244373200,6.079373291015625,0.006216084118932486,0.029859095811843872,-0.03332626447081566
1769667984254361300,6.089361328125,0.007188937161117792,0.03069532848894596,-0.03489060699939728
1769667984264350500,6.0993505859375,0.009968744590878487,0.033420540392398834,-0.030056435614824295
1769667984274339300,6.10933935546875,0.008211856707930565,0.03044818714261055,-0.019235214218497276
1769667984284328200,6.119328125,0.0024738102219998837,0.021856030449271202,-0.009969810023903847
1769667984294316300,6.12931640625,-0.0023608922492712736,0.010134393349289894,-0.0007305050967261195
1769667984304305400,6.139305419921875,-0.007448861375451088,-0.001609348226338625,-0.003805124433711171
1769667984314294300,6.149294189453125,-0.012713397853076458,-0.01672864705324173,-0.004012584686279297
1769667984324283400,6.159283447265625,-0.014336595311760902,-0.028173314407467842,-0.005361475981771946
1769667984334271500,6.169271484375,-0.013788516633212566,-0.026153307408094406,-0.006114884279668331
1769667984344260000,6.179260009765625,-0.009132245555520058,-0.02231622487306595,-0.008040882647037506
1769667984354249200,6.189249267578125,-0.003453853540122509,-0.01423672679811716,-0.006330600008368492
1769667984364238300,6.19923828125,0.0017012272728607059,-0.0051902346312999725,-0.0036157737486064434
1769667984374226400,6.209226318359375,0.005583050660789013,0.002204298507422209,-0.003457315731793642
1769667984384215300,6.21921533203125,0.007492803502827883,0.0065290057100355625,-0.006016347091645002
1769667984394204400,6.229204345703125,0.009304552339017391,0.012596485204994678,-0.014537397772073746
1769667984404193300,6.239193359375,0.011995675973594189,0.01926157809793949,-0.01429238636046648
1769667984414181600,6.249181640625,0.01582130789756775,0.029022596776485443,-0.022547919303178787
1769667984424170800,6.259170654296875,0.016936106607317924,0.037695180624723434,-0.024028636515140533
1769667984434159900,6.269159912109375,0.021347366273403168,0.04801945760846138,-0.022290658205747604
1769667984444148700,6.279148681640625,0.019087674096226692,0.05089141055941582,-0.014155233278870583
1769667984454136600,6.289136474609375,0.015507587231695652,0.0430220365524292,-0.0049063414335250854
1769667984464125700,6.299125732421875,0.012656140141189098,0.03976765275001526,-0.006201703101396561
1769667984474114600,6.309114501953125,0.010404704138636589,0.02563239261507988,-0.012323778122663498
1769667984484103700,6.319103759765625,0.0024972460232675076,0.01708098314702511,-0.02430320903658867
1769667984494091800,6.329091796875,0.007247526664286852,0.015673501417040825,-0.030590932816267014
1769667984504081000,6.339080810546875,-0.0014367754338309169,0.016628777608275414,-0.038173217326402664
1769667984514069800,6.34906982421875,-0.0004649879119824618,0.024765001609921455,-0.03250814229249954
1769667984524059000,6.359058837890625,-0.0015970977256074548,0.032637838274240494,-0.033847711980342865
1769667984534046700,6.369046630859375,-0.003344131400808692,0.022727416828274727,-0.025168202817440033
1769667984544035600,6.37903564453125,-0.004866394214332104,0.016292953863739967,-0.021135644987225533
1769667984554024700,6.389024658203125,-0.008040083572268486,0.014690263196825981,-0.01968129351735115
1769667984564013800,6.399013916015625,-0.012546950951218605,-0.0038163098506629467,-0.015682822093367577
1769667984574001700,6.409001708984375,-0.015901202335953712,-0.002767823403701186,-0.01672465167939663
1769667984583990800,6.41899072265625,-0.010422813706099987,-0.00436039362102747,-0.0059779975563287735
1769667984593979600,6.428979736328125,-0.015065236017107964,-0.01480584405362606,-0.018505241721868515
1769667984603968500,6.438968505859375,-0.012708604335784912,-0.03026203252375126,-0.027157584205269814
1769667984613956600,6.44895654296875,-0.009938917122781277,-0.034804850816726685,-0.029383188113570213
1769667984623945700,6.45894580078125,-0.011146394535899162,-0.031863391399383545,-0.00962919183075428
1769667984633934800,6.468934814453125,-0.012911004945635796,-0.028774389997124672,0.001678057829849422
1769667984643923700,6.478923828125,-0.007604124024510384,-0.02334340661764145,-0.0004266384057700634
1769667984653911600,6.48891162109375,-0.0028762139845639467,-0.022646989673376083,-0.012140818871557713
1769667984663900700,6.498900634765625,-0.0003515372518450022,-0.02700924687087536,-0.015335546806454659
1769667984673889500,6.5088896484375,-0.004340153653174639,-0.0327339768409729,-0.011715511791408062
1769667984683878700,6.518878662109375,-0.003135872073471546,-0.040157806128263474,-0.00971627701073885
1769667984693866800,6.52886669921875,-0.004542553797364235,-0.04574618116021156,-0.006105563137680292
1769667984703855900,6.53885595703125,0.00010333064710721374,-0.058890748769044876,0.0007044061203487217
1769667984713844700,6.5488447265625,-0.002709500025957823,-0.06383730471134186,0.009222527034580708
1769667984723833900,6.558833740234375,-0.00010759170982055366,-0.06388497352600098,0.012200740166008472
1769667984733821700,6.56882177734375,-0.005946039687842131,-0.058939747512340546,0.009034507907927036
1769667984743810600,6.578810546875,-0.0008221178431995213,-0.04261324182152748,0.005969741847366095
1769667984753799700,6.588799560546875,0.00544376764446497,-0.018201107159256935,-0.0049489522352814674
1769667984763788800,6.598788818359375,0.015627695247530937,-0.0026754115242511034,-0.00851705577224493
1769667984773777000,6.60877685546875,0.017838384956121445,0.004222175572067499,-0.011041998863220215
1769667984783765800,6.618765869140625,0.01534593291580677,0.0041278996504843235,0.010581005364656448
1769667984793755000,6.6287548828125,0.01793612353503704,0.00708747049793601,0.011492072604596615
1769667984803743500,6.638743408203125,0.006360693834722042,-0.009957026690244675,0.009023322723805904
1769667984813731600,6.648731689453125,0.000472977408207953,-0.024929052218794823,0.0020034960471093655
1769667984823720700,6.658720703125,-0.006885603070259094,-0.02888837270438671,-0.0008530105114914477
1769667984833709800,6.668709716796875,-0.0101362569257617,-0.02905695140361786,0.000051399008953012526
1769667984843698700,6.67869873046875,-0.011036405339837074,-0.0311664417386055,-0.004514856729656458
1769667984853686800,6.688686767578125,-0.0093892402946949,-0.028370654210448265,-0.005535114090889692
1769667984863675600,6.698675537109375,-0.007966846227645874,-0.025425465777516365,-0.003907656297087669
1769667984873664500,6.70866455078125,-0.009667274542152882,-0.023729298263788223,0.0016391756944358349
1769667984883653600,6.718653564453125,-0.007924768142402172,-0.012563728727400303,0.006048837676644325
1769667984893641700,6.728641845703125,-0.008830775506794453,-0.008619320578873158,0.008443818427622318
1769667984903630800,6.738630859375,-0.007011304143816233,-0.01443752832710743,0.009531719610095024
1769667984913619700,6.74861962890625,-0.0035337484441697598,-0.0193710345774889,0.014535000547766685
1769667984923608800,6.75860888671875,-0.006767624989151955,-0.022436067461967468,0.021316740661859512
1769667984933596700,6.7685966796875,-0.007638212293386459,-0.021159080788493156,0.02809315361082554
1769667984943585500,6.77858544921875,-0.011846805922687054,-0.019956130534410477,0.030706780031323433
1769667984953574700,6.78857470703125,-0.017046362161636353,-0.01853533461689949,0.02551761083304882
1769667984963563800,6.798563720703125,-0.01840084418654442,-0.008638229221105576,0.013498764485120773
1769667984973551900,6.8085517578125,-0.0167976226657629,-0.0046935551799833775,-0.0006687197601422668
1769667984983540700,6.818540771484375,-0.014621819369494915,-0.001064998097717762,-0.012899287045001984
1769667984993529900,6.82852978515625,-0.01107235811650753,0.0026466494891792536,-0.011688614264130592
1769667985003518500,6.8385185546875,-0.005592904519289732,0.011480621062219143,-0.0049643986858427525
1769667985013506600,6.848506591796875,-0.001529453438706696,0.01278823334723711,0.008585498668253422
1769667985023495700,6.85849560546875,0.0008426241693086922,0.00842570886015892,0.019233349710702896
1769667985033484800,6.86848486328125,-0.001326786819845438,0.005741509143263102,0.03116324543952942
1769667985043473700,6.8784736328125,-0.007127950433641672,0.004868258256465197,0.039078425616025925
1769667985053461800,6.888461669921875,-0.009191900491714478,-0.0080898841843009,0.04764315113425255
1769667985063451000,6.898450927734375,-0.007771636825054884,-0.020896758884191513,0.04513125866651535
1769667985073439500,6.908439453125,-0.00977273564785719,-0.029686523601412773,0.034513767808675766
1769667985083428600,6.9184287109375,-0.009922938421368599,-0.03550872579216957,0.029204756021499634
1769667985093416700,6.928416748046875,-0.007261374965310097,-0.032033033668994904,0.02226509153842926
1769667985103405800,6.93840576171875,-0.0028184233233332634,-0.025360750034451485,0.017258882522583008
1769667985113394700,6.948394775390625,0.0013496900210157037,-0.014473747462034225,0.015079882927238941
1769667985123383800,6.9583837890625,0.004445614758878946,-0.007543670013546944,0.014296647161245346
1769667985133371600,6.96837158203125,0.0059742690064013,-0.013324860483407974,0.012529906816780567
1769667985143360500,6.978360595703125,0.003867975203320384,-0.01912655681371689,0.011383149772882462
1769667985153349600,6.988349609375,0.0016437029698863626,-0.021952703595161438,0.011098191142082214
1769667985163338800,6.9983388671875,-0.0014064153656363487,-0.02911500819027424,0.014539261348545551
1769667985173326800,7.008326904296875,-0.00318913534283638,-0.026388730853796005,0.024413198232650757
1769667985183315700,7.018315673828125,-0.0013614079216495156,-0.02389201708137989,0.027161845937371254
1769667985193304800,7.028304931640625,0.00038056570338085294,-0.020856013521552086,0.024053670465946198
1769667985203293700,7.038293701171875,0.0057196710258722305,-0.024119984358549118,0.015989352017641068
1769667985213281500,7.048281494140625,0.005763879511505365,-0.010511230677366257,0.01480451226234436
1769667985223270700,7.058270751953125,0.0007829693495295942,-0.001984587637707591,0.01492169126868248
1769667985233259800,7.068259765625,0.0009174589649774134,0.000815193576272577,0.012062521651387215
1769667985243247900,7.078247802734375,-0.0004524710529949516,-0.008079764433205128,0.017242370173335075
1769667985253236700,7.08823681640625,-0.0038634478114545345,-0.011989018879830837,0.01709483005106449
1769667985263225900,7.098225830078125,-0.0054541537538170815,-0.017597103491425514,0.0153190353885293
1769667985273214700,7.108214599609375,-0.00814820732921362,-0.016884973272681236,0.012016715481877327
1769667985283203600,7.11820361328125,-0.007860053330659866,-0.01894652657210827,0.008978314697742462
1769667985293191700,7.128191650390625,-0.009472863748669624,-0.009996707551181316,0.0018895127577707171
1769667985303180800,7.138180908203125,-0.006665891967713833,-0.0005435511702671647,-0.00538464542478323
1769667985313169700,7.148169677734375,-0.00592473428696394,0.004608067683875561,-0.007021158002316952
1769667985323157800,7.15815771484375,-0.003483148291707039,0.013748835772275925,-0.007989749312400818
1769667985333147000,7.16814697265625,-0.002912699244916439,0.02058650180697441,-0.005191832315176725
1769667985343135500,7.178135498046875,-0.000529436394572258,0.02322649210691452,-0.000773381965700537
1769667985353124600,7.18812451171875,-0.00035206988104619086,0.02375726029276848,0.0002519350382499397
1769667985363113700,7.19811376953125,-0.0004564658156596124,0.024204138666391373,-0.0037886130157858133
1769667985373101800,7.208101806640625,-0.0015939018921926618,0.020199012011289597,-0.009251289069652557
1769667985383090700,7.218090576171875,-0.0004980111261829734,0.018198978155851364,-0.013097958639264107
1769667985393079800,7.228079833984375,0.0006149238906800747,0.02033509872853756,-0.012896889820694923
1769667985403068700,7.238068603515625,-0.00004447478931979276,0.021807560697197914,-0.014170147478580475
1769667985413056500,7.248056396484375,0.00038535939529538155,0.02135349251329899,-0.015627961605787277
1769667985423045600,7.258045654296875,0.0007922904333099723,0.02171781286597252,-0.012827381491661072
1769667985433034500,7.268034423828125,-0.001368598430417478,0.019516443833708763,-0.010726680047810078
1769667985443022600,7.278022705078125,-0.0003235740587115288,0.012781575322151184,-0.006572415120899677
1769667985453011500,7.288011474609375,-0.001716939965263009,0.0075844163075089455,-0.005276787560433149
1769667985463000600,7.29800048828125,0.0009403621661476791,0.00276116537861526,-0.007817708887159824
1769667985472989400,7.307989501953125,0.0022564963437616825,-0.001288171042688191,-0.00458809407427907
1769667985482978600,7.317978515625,0.0056954361498355865,0.0036048549227416515,-0.004017644561827183
1769667985492966700,7.327966552734375,0.007855792529881,0.007045126520097256,-0.0007986819837242365
1769667985502955500,7.33795556640625,0.01028672605752945,0.014487596228718758,0.000021837920940015465
1769667985512944400,7.3479443359375,0.013939783908426762,0.022214224562048912,-0.0013342436868697405
1769667985522932500,7.357932373046875,0.015729960054159164,0.02702229656279087,-0.0004948153509758413
1769667985532921600,7.367921630859375,0.016825051978230476,0.024599885568022728,0.0016945693641901016
1769667985542910500,7.377910400390625,0.015515043400228024,0.026990605518221855,0.002502306131646037
1769667985552899600,7.387899658203125,0.01413685828447342,0.02510189078748226,0.008828911930322647
1769667985562887400,7.397887451171875,0.01266759168356657,0.020983045920729637,0.00250550196506083
1769667985572876500,7.40787646484375,0.011175156570971012,0.016835970804095268,0.0013488910626620054
1769667985582865400,7.417865478515625,0.011724300682544708,0.013520602136850357,-0.0005456816870719194
1769667985592854500,7.4278544921875,0.010304569266736507,0.00766005041077733,-0.000535561703145504
1769667985602842600,7.437842529296875,0.008144479244947433,0.005919141694903374,0.0027947211638092995
1769667985612831500,7.44783154296875,0.005319397896528244,0.005860552191734314,0.009664345532655716
1769667985622820600,7.457820556640625,0.002682602033019066,0.0011827098205685616,0.015222894959151745
1769667985632809700,7.467809814453125,0.003686081152409315,-0.0036016590893268585,0.016497217118740082
1769667985642797600,7.477797607421875,0.002555303042754531,-0.008551676757633686,0.01702079549431801
1769667985652786400,7.487786376953125,0.005435245577245951,-0.010220413096249104,0.017241571098566055
1769667985662775600,7.497775634765625,0.007098655682057142,-0.014278005808591843,0.01720188930630684
1769667985672764400,7.507764404296875,0.0062363240867853165,-0.015153652988374233,0.01780429668724537
1769667985682752500,7.51775244140625,0.008562861941754818,-0.015008244663476944,0.019761187955737114
1769667985692741600,7.52774169921875,0.010178867727518082,-0.015533152967691422,0.016232766211032867
1769667985702730500,7.53773046875,0.011258780024945736,-0.01629854552447796,0.006135923322290182
1769667985712719400,7.54771923828125,0.011362909339368343,-0.016476711258292198,-0.0001233043585671112
1769667985722707500,7.55770751953125,0.007976965978741646,-0.010909639298915863,-0.0064989118836820126
1769667985732696600,7.567696533203125,0.01034638099372387,-0.010861435905098915,-0.0028764803428202868
1769667985742685400,7.577685546875,0.010041182860732079,-0.006479470990598202,0.0015736619243398309
1769667985752674600,7.587674560546875,0.005893841851502657,-0.005262140184640884,0.0065324679017066956
1769667985762662700,7.59766259765625,0.0002716424351092428,-0.014187191613018513,0.012971725314855576
1769667985772651500,7.607651611328125,-0.006118612363934517,-0.03211639076471329,0.013373595662415028
1769667985782640400,7.617640380859375,-0.01635553687810898,-0.051540687680244446,0.011577294208109379
1769667985792629500,7.62762939453125,-0.020743627101182938,-0.07120680063962936,0.007244330830872059
1769667985802617600,7.63761767578125,-0.023751135915517807,-0.08600199222564697,0.004831240512430668
1769667985812606500,7.6476064453125,-0.025502696633338928,-0.09234031289815903,0.011195396073162556
1769667985822595600,7.657595703125,-0.02160968817770481,-0.0871807113289833,0.016465526074171066
1769667985832584700,7.667584716796875,-0.020740432664752007,-0.08585099130868912,0.023550866171717644
1769667985842572500,7.677572509765625,-0.02159903571009636,-0.08276811987161636,0.024507474154233932
1769667985852561400,7.6875615234375,-0.018617892637848854,-0.0749400183558464,0.019113773480057716
1769667985862550500,7.697550537109375,-0.019288476556539536,-0.06593054533004761,0.011847338639199734
1769667985872539600,7.70753955078125,-0.018704978749155998,-0.049319878220558167,0.010773018933832645
1769667985882527500,7.717527587890625,-0.01709749363362789,-0.02773522399365902,0.004739361349493265
1769667985892516600,7.7275166015625,-0.013660418801009655,-0.009529323317110538,0.0024517059791833162
1769667985902505700,7.737505615234375,-0.009319731965661049,0.0067963870242238045,0.002692722249776125
1769667985912494300,7.747494384765625,-0.008775648660957813,0.01960592530667782,-0.0007920240750536323
1769667985922482400,7.757482421875,-0.009968478232622147,0.026800455525517464,-0.004763063509017229
1769667985932471600,7.767471435546875,-0.013471334241330624,0.03659050166606903,-0.012856143526732922
1769667985942460400,7.77746044921875,-0.008588960394263268,0.044984783977270126,-0.03289589658379555
1769667985952449500,7.787449462890625,-0.006632602773606777,0.05848461389541626,-0.04893451929092407
1769667985962437600,7.797437744140625,-0.0065476479940116405,0.0738033801317215,-0.04718189314007759
1769667985972426500,7.807426513671875,-0.008050736039876938,0.09054294973611832,-0.036559343338012695
1769667985982415400,7.817415283203125,-0.014968296512961388,0.08815941959619522,-0.021031782031059265
1769667985992404500,7.827404541015625,-0.01913507841527462,0.07189576327800751,-0.006922620814293623
1769667986002392600,7.837392578125,-0.025607092306017876,0.05794878676533699,0.0002668487431947142
1769667986012381400,7.84738134765625,-0.030460437759757042,0.03834765404462814,0.004679440520703793
1769667986022370600,7.85737060546875,-0.037461619824171066,0.025782061740756035,0.0075455340556800365
1769667986032359700,7.867359619140625,-0.04345879331231117,0.01209847442805767,0.004859736189246178
1769667986042347500,7.877347412109375,-0.0451994352042675,0.008100536651909351,0.0027768779546022415
1769667986052336400,7.88733642578125,-0.04646390303969383,0.012956544756889343,0.008747152984142303
1769667986062325500,7.897325439453125,-0.04348995164036751,0.019397133961319923,0.0093905720859766
1769667986072314600,7.907314697265625,-0.03692952170968056,0.024469656869769096,0.0070403325371444225
1769667986082302500,7.917302490234375,-0.030116356909275055,0.030532343313097954,0.000898550555575639
1769667986092291600,7.92729150390625,-0.022339927032589912,0.03764884173870087,-0.004703674931079149
1769667986102280700,7.93728076171875,-0.013398895971477032,0.049796052277088165,-0.011542938649654388
1769667986112269600,7.94726953125,-0.006220345385372639,0.06330280750989914,-0.016228504478931427
1769667986122257400,7.95725732421875,0.0015028218040242791,0.07987432926893234,-0.023935692384839058
1769667986132246500,7.96724658203125,0.012382101267576218,0.09754440188407898,-0.027298199012875557
1769667986142235400,7.9772353515625,0.015441540628671646,0.10459618270397186,-0.029931001365184784
1769667986152224500,7.987224609375,0.018455972895026207,0.09398055821657181,-0.027771709486842155
1769667986162212600,7.997212646484375,0.01727219671010971,0.07824820280075073,-0.02491253986954689
1769667986172201700,8.00720166015625,0.010945325717329979,0.05343899130821228,-0.01889858953654766
1769667986182190300,8.0171904296875,0.009132245555520058,0.02774401381611824,-0.013943245634436607
1769667986192179500,8.027179443359374,0.007427822332829237,0.012777847237884998,-0.01733318343758583
1769667986202167600,8.03716748046875,0.011726430617272854,0.012558402493596077,-0.02671443484723568
1769667986212156400,8.047156494140625,0.013940316624939442,0.014387461356818676,-0.03887389600276947
1769667986222145500,8.0571455078125,0.01980007067322731,0.02159743756055832,-0.04619972035288811
1769667986232133600,8.067133544921875,0.02417990379035473,0.03419125825166702,-0.05482703074812889
1769667986242122800,8.077122802734374,0.028685707598924637,0.046778690069913864,-0.061285994946956635
1769667986252111400,8.087111328125,0.03308285027742386,0.05615195259451866,-0.057551443576812744
1769667986262100500,8.0971005859375,0.036968670785427094,0.05829446390271187,-0.07239643484354019
1769667986272088600,8.107088623046875,0.036683447659015656,0.05434446409344673,-0.08361819386482239
1769667986282077400,8.117077392578125,0.041969552636146545,0.048642635345458984,-0.08279075473546982
1769667986292066600,8.127066650390624,0.03795510530471802,0.04225397855043411,-0.07138177007436752
1769667986302055700,8.1370556640625,0.033551301807165146,0.035716187208890915,-0.05577671155333519
1769667986312043500,8.14704345703125,0.032943036407232285,0.022941801697015762,-0.04542500525712967
1769667986322032400,8.157032470703125,0.03110598772764206,0.008876049891114235,-0.043180227279663086
1769667986332021500,8.167021484375,0.02749261073768139,0.011121626943349838,-0.03863261267542839
1769667986342010600,8.1770107421875,0.02629818208515644,0.008143946528434753,-0.0343148298561573
1769667986351998500,8.18699853515625,0.02528192102909088,0.0032900692895054817,-0.02827744372189045
1769667986361987600,8.196987548828124,0.023389212787151337,0.01158847939223051,-0.026510968804359436
1769667986371976700,8.206976806640625,0.02364221215248108,0.013974138535559177,-0.026917101815342903
1769667986381965600,8.216965576171875,0.021436849609017372,0.007361509837210178,-0.029686523601412773
1769667986391953400,8.226953369140626,0.023497601971030235,0.0007605988066643476,-0.03310975059866905
1769667986401942500,8.236942626953125,0.0214815903455019,0.000019707391402334906,-0.03521977365016937
1769667986411932200,8.24693212890625,0.019832827150821686,0.00040959418402053416,-0.03309536725282669
1769667986421921300,8.25692138671875,0.015932360664010048,0.0041521345265209675,-0.029800239950418472
1769667986431909000,8.2669091796875,0.011681157164275646,0.005915945861488581,-0.030586138367652893
1769667986441898000,8.27689794921875,0.01203961856663227,0.003736947663128376,-0.0345878042280674
1769667986451887000,8.28688720703125,0.010133594274520874,0.004265052266418934,-0.04151015728712082
1769667986461876200,8.296876220703124,0.010438526049256325,-0.00101146858651191,-0.044982388615608215
1769667986471864300,8.3068642578125,0.010153568349778652,-0.006632336415350437,-0.04276290908455849
1769667986481853200,8.316853271484375,0.014700915664434433,0.00037497308221645653,-0.032404545694589615
1769667986491842300,8.32684228515625,0.016055133193731308,0.009296562522649765,-0.020421652123332024
1769667986501831200,8.3368310546875,0.013375992886722088,0.013572268187999725,-0.004349208436906338
1769667986511819000,8.346819091796876,0.01118953712284565,0.012029498815536499,-0.0006881608278490603
1769667986521808100,8.35680810546875,0.00583685003221035,0.0062339273281395435,-0.0015883093001320958
1769667986531797200,8.36679736328125,0.0003259709046687931,-0.0010418286547064781,-0.0034559841733425856
1769667986541786000,8.3767861328125,-0.0019558256026357412,-0.005526858381927013,-0.010570086538791656
1769667986551774200,8.386774169921875,-0.0037438718136399984,-0.004426706116646528,-0.015443405136466026
1769667986561763300,8.396763427734374,-0.003176884725689888,0.0023579627741128206,-0.014396250247955322
1769667986571752200,8.406752197265625,0.0007291734800674021,0.008139685727655888,-0.016580041497945786
1769667986581741000,8.416740966796874,0.0029260150622576475,0.01728231832385063,-0.018931346014142036
1769667986591729200,8.426729248046875,0.006199039984494448,0.024823591113090515,-0.024285631254315376
1769667986601718300,8.43671826171875,0.00788482092320919,0.024203872308135033,-0.03284955769777298
1769667986611707100,8.44670703125,0.008333830162882805,0.019267970696091652,-0.04448091611266136
1769667986621696300,8.4566962890625,0.011913917027413845,0.009404687210917473,-0.04721784591674805
1769667986631684400,8.466684326171874,0.010397247038781643,0.01079805288463831,-0.04405081644654274
1769667986641673200,8.476673095703125,0.008696019649505615,0.017420269548892975,-0.04391259700059891
1769667986651662000,8.486662109375,0.009667274542152882,0.02044988051056862,-0.046599727123975754
1769667986661651200,8.496651123046876,0.009786318056285381,0.01661466248333454,-0.040162332355976105
1769667986671639300,8.506639404296875,0.011230017989873886,0.021411815658211708,-0.03170866146683693
1769667986681628200,8.516628173828124,0.007738080807030201,0.02183366008102894,-0.027696609497070312
1769667986691617300,8.5266171875,0.0057588196359574795,0.018980614840984344,-0.024767398834228516
1769667986701606400,8.5366064453125,0.001612544059753418,0.02075215056538582,-0.026690199971199036
1769667986711594000,8.546593994140625,-0.0025129588320851326,0.015657523646950722,-0.028803685680031776
1769667986721583000,8.5565830078125,-0.004204865079373121,0.010854777880012989,-0.030235666781663895
1769667986731572200,8.566572265625,-0.003965446725487709,0.005881324876099825,-0.035233888775110245
1769667986741561000,8.57656103515625,-0.004959604702889919,0.0034847462084144354,-0.03666507080197334
1769667986751549200,8.586549072265624,-0.006434996146708727,0.004434429574757814,-0.030891869217157364
1769667986761538300,8.596538330078126,-0.0054328483529388905,0.008439024910330772,-0.025493642315268517
1769667986771527200,8.606527099609375,-0.006563626695424318,0.004203000571578741,-0.020052270963788033
1769667986781516300,8.616516357421874,-0.006503439508378506,0.000892691605258733,-0.01882748305797577
1769667986791504100,8.626504150390625,-0.0068184914998710155,0.00024234765442088246,-0.016243951395154
1769667986801493200,8.6364931640625,-0.0090542146936059,-0.0030716899782419205,-0.014270015992224216
1769667986811482000,8.646482177734375,-0.009471000172197819,-0.0028969866689294577,-0.01563728228211403
1769667986821471200,8.65647119140625,-0.011814581230282784,-0.0027475832030177116,-0.018606973811984062
1769667986831459300,8.666459228515626,-0.011434814892709255,-0.003079146845266223,-0.020620590075850487
1769667986841448200,8.6764482421875,-0.009213471785187721,-0.0031249532476067543,-0.02305605076253414
1769667986851437000,8.68643701171875,-0.0075689698569476604,-0.0014743260107934475,-0.02208985574543476
1769667986861426200,8.69642626953125,-0.004159857518970966,0.0018136126454919577,-0.0214227344840765
1769667986871414300,8.706414306640625,-0.007366836071014404,0.0026881948579102755,-0.018219750374555588
1769667986881403100,8.716403076171876,-0.008759669028222561,-0.0020357202738523483,-0.01859019510447979
1769667986891392300,8.726392333984375,-0.008466188795864582,-0.0015632755821570754,-0.016159528866410255
1769667986901381400,8.73638134765625,-0.008755674585700035,-0.0010982876410707831,-0.012917396612465382
1769667986911369000,8.746368896484375,-0.009610016830265522,-0.0027241474017500877,-0.011913917027413845
1769667986921358000,8.756358154296874,-0.009768208488821983,-0.0030975225381553173,-0.012222577817738056
1769667986931347200,8.76634716796875,-0.012635900638997555,-0.001303084660321474,-0.010432134382426739
1769667986941336000,8.776336181640625,-0.00495054991915822,0.0009094694978557527,-0.010449711233377457
1769667986951324200,8.78632421875,0.0000399474156438373,-0.0009414274245500565,-0.019421102479100227
1769667986961313300,8.796313232421875,0.005489573813974857,0.009369267150759697,-0.014130466617643833
1769667986971302100,8.80630224609375,0.009468869306147099,0.020808609202504158,-0.005418733693659306
1769667986981291300,8.816291259765626,0.012181831523776054,0.02303847298026085,-0.0027869981713593006
1769667986991279000,8.826279052734375,0.015558719635009766,0.02178172767162323,-0.007895207032561302
1769667987001268200,8.836268310546876,0.012833240441977978,0.01709536276757717,-0.006613960489630699
1769667987011257000,8.846257080078125,0.008097074925899506,0.0028011128306388855,-0.0009869674686342478
1769667987021246200,8.85624609375,0.0006314354832284153,-0.017125457525253296,-0.00014753911818843335
1769667987031234300,8.866234375,-0.005307147279381752,-0.032344888895750046,0.0015337144723162055
1769667987041223200,8.87622314453125,-0.010162356309592724,-0.04115462675690651,-0.002326537622138858
1769667987051212300,8.88621240234375,-0.011331750079989433,-0.044191163033246994,-0.00808935146778822
1769667987061201200,8.896201171875,-0.008220112882554531,-0.039143141359090805,-0.016800284385681152
1769667987071189200,8.906189208984374,-0.006764961872249842,-0.03280002251267433,-0.022473083809018135
1769667987081178000,8.91617822265625,-0.004338555503636599,-0.023990554735064507,-0.020484235137701035
1769667987091167200,8.926167236328125,-0.0031318773981183767,-0.0171454306691885,-0.01811322383582592
1769667987101156400,8.93615625,-0.0018077536951750517,-0.012492888607084751,-0.02051885798573494
1769667987111144200,8.946144287109375,-0.0027363980188965797,-0.012693691067397594,-0.022348714992403984
1769667987121133000,8.956133056640626,-0.006909837480634451,-0.013425793498754501,-0.01986771449446678
1769667987131122200,8.9661220703125,-0.010457701049745083,-0.021863752976059914,-0.017343036830425262
1769667987141111000,8.976111083984375,-0.015510516241192818,-0.03332732990384102,-0.021030183881521225
1769667987151099100,8.98609912109375,-0.018332134932279587,-0.03789465129375458,-0.02232474647462368
1769667987161088300,8.996088134765625,-0.018379006534814835,-0.04109177738428116,-0.01829458586871624
1769667987171077400,9.006077392578124,-0.017679128795862198,-0.03967257961630821,-0.014029799029231071
1769667987181065000,9.01606494140625,-0.015136875212192535,-0.03368126600980759,-0.011287542060017586
1769667987191054000,9.02605419921875,-0.01239115558564663,-0.029043102636933327,-0.015204519033432007
1769667987201043200,9.036043212890625,-0.014298778027296066,-0.02563558891415596,-0.031612787395715714
1769667987211032000,9.046031982421875,-0.011639079079031944,-0.025790052488446236,-0.03511883690953255
1769667987221020200,9.056020263671876,-0.007212639320641756,-0.006521282717585564,-0.04142360761761665
1769667987231009300,9.06600927734375,-0.004256530199199915,0.0008317052270285785,-0.03213956207036972
1769667987240998100,9.075998046875,0.0016932378057390451,0.008825182914733887,-0.01792813464999199
1769667987250987300,9.0859873046875,-0.000621848099399358,0.01230247225612402,-0.0031308121979236603
1769667987260975000,9.09597509765625,-0.00748987402766943,-0.0037851508241146803,0.005632585845887661
1769667987270964200,9.105964111328126,-0.00956687331199646,-0.03111557476222515,0.008798285387456417
1769667987280953000,9.115953125,-0.009696036577224731,-0.055991362780332565,0.00878949649631977
1769667987290942200,9.125942138671874,-0.010959440842270851,-0.06619179993867874,0.0051739891059696674
1769667987300930300,9.135930419921875,-0.005465605296194553,-0.06434410065412521,-0.0012082761386409402
1769667987310919200,9.145919189453124,-0.0015997608425095677,-0.05213057994842529,-0.006657902617007494
1769667987320908300,9.155908203125,0.00737269502133131,-0.033004023134708405,-0.007864580489695072
1769667987330897200,9.165897216796875,0.016338760033249855,-0.008825981989502907,-0.012555738911032677
1769667987340885200,9.17588525390625,0.024941302835941315,0.00589757040143013,-0.014284397475421429
1769667987350874000,9.1858740234375,0.025432921946048737,0.011272894218564034,-0.015365374274551868
1769667987360863200,9.19586328125,0.024268854409456253,0.011063037440180779,-0.012632704339921474
1769667987370852400,9.205852294921876,0.018688466399908066,0.006139651406556368,-0.009350624866783619
1769667987380840200,9.215840087890625,0.013939783908426762,-0.0035987296141684055,-0.006895722821354866
1769667987390829000,9.2258291015625,0.007678958587348461,-0.011848137713968754,-0.004471980035305023
1769667987400818200,9.235818115234375,0.002910036128014326,-0.017372865229845047,-0.0032495891209691763
1769667987410806300,9.24580615234375,0.00686003640294075,-0.017304688692092896,0.0003195793251506984
1769667987420794400,9.25579443359375,0.01044411864131689,-0.010761301033198833,0.002225070958957076
1769667987430783200,9.265783203125,0.01233336515724659,0.0038575888611376286,0.007272293791174889
1769667987440772000,9.275772216796875,0.01125265471637249,0.018562233075499535,0.007360444404184818
1769667987450761000,9.285760986328125,0.017427725717425346,0.021878667175769806,0.003940679598599672
1769667987460749000,9.2957490234375,0.019096462056040764,0.020101273432374,-0.0011664645280689
1769667987470738200,9.30573828125,0.016231700778007507,0.02779780887067318,0.0008354336023330688
1769667987480727300,9.315727294921874,0.01338584627956152,0.02835121378302574,-0.00007829693640815094
1769667987490716200,9.325716064453125,0.012781308963894844,0.021290108561515808,0.0041276332922279835
1769667987500704000,9.3357041015625,0.009169530123472214,0.011095527559518814,0.008912800811231136
1769667987510693000,9.345693115234376,0.0054972972720861435,0.006019542925059795,0.01870764046907425
1769667987520682000,9.355681884765625,0.0005315669695846736,0.0028075044974684715,0.024817997589707375
1769667987530671000,9.365671142578124,0.00019867181254085153,-0.000913197931367904,0.02665451355278492
1769667987540659200,9.3756591796875,-0.00019281286222394556,-0.002171541564166546,0.02624092437326908
1769667987550648300,9.3856484375,0.0020301276817917824,0.00023222764139063656,0.022158831357955933
1769667987560637200,9.39563720703125,0.004688494838774204,0.00965582299977541,0.020551614463329315
1769667987570626300,9.405626220703125,0.00589517317712307,0.020085826516151428,0.016330236569046974
1769667987580614100,9.4156142578125,0.0062789348885416985,0.023917583748698235,0.012959741055965424
1769667987590603000,9.42560302734375,0.00669305631890893,0.02694826014339924,0.011959990486502647
1769667987600592100,9.435592041015624,0.002526274649426341,0.02473304234445095,0.013286510482430458
1769667987610581200,9.445581298828126,0.0031140341889113188,0.016019979491829872,0.0150402020663023
1769667987620569300,9.4555693359375,0.002602973720058799,0.01062041986733675,0.014956578612327576
1769667987630558200,9.46555810546875,-0.00014940333494450897,0.010846256278455257,0.018857577815651894
1769667987640547300,9.47554736328125,-0.0010780475568026304,0.008958607912063599,0.02058836631476879
1769667987650536000,9.485535888671874,0.001148355077020824,0.01327053178101778,0.023182017728686333
1769667987660524000,9.49552392578125,0.002600576728582382,0.017783524468541145,0.02118438109755516
1769667987670513200,9.50551318359375,0.0024644893128424883,0.017595505341887474,0.012414325028657913
1769667987680502300,9.515502197265626,0.0024533038958907127,0.019283948466181755,0.002916427794843912
1769667987690491100,9.5254912109375,0.0034120420459657907,0.01798911951482296,-0.00004234426160110161
1769667987700479200,9.535479248046874,0.002763828495517373,0.019050922244787216,-0.0019169433508068323
1769667987710468000,9.545468017578125,0.002055427758023143,0.01654009521007538,-0.0015257250051945448
1769667987720457000,9.55545703125,0.002397377509623766,0.01275760680437088,-0.0007936219917610288
1769667987730446000,9.565446044921876,0.002555835759267211,0.016524115577340126,0.0024498419370502234
1769667987740434200,9.57543408203125,0.0037121803034096956,0.021740449592471123,0.002400573343038559
1769667987750423300,9.58542333984375,0.005020325072109699,0.027185281738638878,-0.0030162963084876537
1769667987760412200,9.595412109375,0.008787366561591625,0.0362141951918602,-0.011596468277275562
1769667987770401300,9.6054013671875,0.010118680074810982,0.044203415513038635,-0.014756308868527412
1769667987780389000,9.61538916015625,0.008835037238895893,0.049543317407369614,-0.011712582781910896
1769667987790378000,9.6253779296875,0.011126154102385044,0.055327702313661575,-0.005618737079203129
1769667987800367000,9.6353671875,0.009986321441829205,0.057675812393426895,-0.0030546458438038826
1769667987810356200,9.645356201171875,0.011321097612380981,0.0506216324865818,-0.0024868599139153957
1769667987820344300,9.65534423828125,0.01125158928334713,0.050220560282468796,-0.008989499881863594
1769667987830333200,9.665333251953125,0.0092307822778821,0.04622795060276985,-0.008550344966351986
1769667987840322300,9.675322265625,0.008045676164329052,0.03717053681612015,-0.009200156666338444
1769667987850311200,9.685311279296876,0.008166050538420677,0.034700989723205566,-0.015174691565334797
1769667987860299000,9.695299072265625,0.003862382611259818,0.03290814906358719,-0.018678346648812294
1769667987870288100,9.7052880859375,0.004564125556498766,0.03385703265666962,-0.019721772521734238
1769667987880277200,9.71527734375,0.000904409505892545,0.029329925775527954,-0.025071531534194946
1769667987890266000,9.72526611328125,-0.0014197311829775572,0.02219398505985737,-0.023204920813441277
1769667987900254200,9.735254150390626,-0.005020325072109699,0.020832844078540802,-0.022432871162891388
1769667987910243300,9.745243408203125,-0.009368468075990677,0.023754065856337547,-0.022286396473646164
1769667987920232000,9.75523193359375,-0.011089668609201908,0.026162628084421158,-0.02365712635219097
1769667987930221000,9.765220947265625,-0.011285144835710526,0.023315709084272385,-0.02027890644967556
1769667987940209200,9.775209228515624,-0.00900015328079462,0.020133763551712036,-0.015438344329595566
1769667987950198300,9.7851982421875,-0.004483431577682495,0.019625898450613022,-0.013598100282251835
1769667987960187100,9.795187255859375,-0.0006764429272152483,0.017239173874258995,-0.008199340663850307
1769667987970176300,9.80517626953125,-0.0005241101025603712,0.014582138508558273,-0.004729241598397493
1769667987980164000,9.8151640625,-0.005642971955239773,0.01290274877101183,-0.0028035095892846584
1769667987990153000,9.825153076171874,-0.011117099784314632,0.006539658177644014,0.002799248555675149
1769667988000142000,9.83514208984375,-0.016044214367866516,-0.00276063266210258,0.0039292280562222
1769667988010131200,9.845131103515625,-0.018639197573065758,-0.018764900043606758,0.001160072977654636
1769667988020119300,9.855119384765626,-0.022366823628544807,-0.029034314677119255,0.00029081720276735723
1769667988030108200,9.865108154296875,-0.022771624848246574,-0.036132704466581345,-0.001748897833749652
1769667988040097300,9.87509716796875,-0.019820310175418854,-0.03500565513968468,-0.004735632799565792
1769667988050086100,9.885086181640625,-0.0181097611784935,-0.02605636790394783,-0.008320514112710953
1769667988060074000,9.895073974609375,-0.013949637301266193,-0.011608186177909374,-0.012462794780731201
1769667988070063000,9.90506298828125,-0.006463758181780577,-0.0010479538468644023,-0.02046985551714897
1769667988080052200,9.91505224609375,-0.003552923211827874,0.00977539923042059,-0.023391075432300568
1769667988090041000,9.925041015625,-0.0013193299528211355,0.017123593017458916,-0.025142904371023178
1769667988100029200,9.935029296875,-0.0010479538468644023,0.014703844673931599,-0.02629871480166912
1769667988110018300,9.945018310546875,-0.0034645062405616045,0.008093879558146,-0.028259335085749626
1769667988120007200,9.955007080078126,-0.006074403878301382,0.0006998787284828722,-0.026497388258576393
1769667988129996000,9.96499609375,-0.005684783682227135,-0.015238340944051743,-0.030431142076849937
1769667988139984100,9.974984130859376,-0.00552179804071784,-0.0198618546128273,-0.03039252758026123
1769667988149973200,9.98497314453125,-0.005889580585062504,-0.014502509497106075,-0.027222832664847374
1769667988159962000,9.994962158203125,-0.004023769870400429,-0.01098367478698492,-0.02672029472887516
1769667988169951200,10.004951171875,-0.001586178783327341,-0.010307498276233673,-0.02165602706372738
1769667988179939300,10.014939208984375,-0.004883971065282822,-0.012457202188670635,-0.0057553574442863464
1769667988189928000,10.024927978515626,-0.008054730482399464,-0.02413090318441391,0.006296511739492416
1769667988199917000,10.0349169921875,-0.012947756797075272,-0.03623843193054199,0.012840963900089264
1769667988209906200,10.04490625,-0.022224612534046173,-0.044675592333078384,0.01290727686136961
1769667988219894300,10.054894287109375,-0.022352444007992744,-0.05236626788973808,0.01251259632408619
1769667988229883100,10.064883056640625,-0.026503778994083405,-0.065350241959095,0.01691613346338272
1769667988239872300,10.074872314453126,-0.026571955531835556,-0.06023404374718666,0.023122629150748253
1769667988249861000,10.084861083984375,-0.025229189544916153,-0.05608031153678894,0.03851969540119171
1769667988259849000,10.094848876953124,-0.02870381623506546,-0.042938679456710815,0.047022104263305664
1769667988269838000,10.104838134765625,-0.02773921936750412,-0.029335251078009605,0.04300738871097565
1769667988279827200,10.1148271484375,-0.028863871470093727,-0.024900289252400398,0.03935965523123741
1769667988289816000,10.124816162109376,-0.02979038655757904,-0.024927187711000443,0.041796181350946426
1769667988299804200,10.13480419921875,-0.033912427723407745,-0.026095250621438026,0.04765034466981888
1769667988309793300,10.144793212890624,-0.036503151059150696,-0.02960929088294506,0.058107245713472366
1769667988319782100,10.1547822265625,-0.045702241361141205,-0.02678634040057659,0.0684773251414299
1769667988329771000,10.16477099609375,-0.052380383014678955,-0.04759015515446663,0.08943454176187515
1769667988339759000,10.174759033203125,-0.0516730472445488,-0.0727386549115181,0.10067387670278549
1769667988349748200,10.184748291015625,-0.05044666305184364,-0.09099382162094116,0.11132599413394928
1769667988359737000,10.194737060546874,-0.053415022790431976,-0.10552775859832764,0.12653397023677826
1769667988369726200,10.204726318359375,-0.05246001109480858,-0.09195549041032791,0.13136042654514313
1769667988379714300,10.21471435546875,-0.03825684264302254,-0.07345264405012131,0.12629322707653046
1769667988389703200,10.224703125,-0.02383342757821083,-0.04472832381725311,0.10744709521532059
1769667988399692000,10.234692138671875,-0.0054693338461220264,-0.023254722356796265,0.08926116675138474
1769667988409681200,10.24468115234375,0.009370598942041397,0.011877698823809624,0.07423295080661774
1769667988419669500,10.25466943359375,0.02660497836768627,0.03386768698692322,0.06627622246742249
1769667988429658400,10.264658447265624,0.03969681262969971,0.05054280161857605,0.05907077714800835
1769667988439647500,10.2746474609375,0.04572540894150734,0.06604186445474625,0.050986483693122864
1769667988449636400,10.28463623046875,0.04544870927929878,0.06714042276144028,0.04478558152914047
1769667988459624200,10.294624267578126,0.04145289957523346,0.06378776580095291,0.044080108404159546
1769667988469613300,10.30461328125,0.03802355006337166,0.06329881399869919,0.04814781993627548
1769667988479602400,10.3146025390625,0.03575959429144859,0.05465232580900192,0.05217292159795761
1769667988489591300,10.32459130859375,0.03015044517815113,0.04658294841647148,0.05133376270532608
1769667988499579400,10.334579345703125,0.027697142213582993,0.037405695766210556,0.055155929177999496
1769667988509568500,10.344568603515626,0.027124561369419098,0.032223716378211975,0.06235898286104202
1769667988519557400,10.354557373046875,0.024623854085803032,0.035230956971645355,0.07585721462965012
1769667988529546500,10.36454638671875,0.023499466478824615,0.03845444694161415,0.08269993960857391
1769667988539534300,10.374534423828125,0.021732458844780922,0.028729915618896484,0.08501742035150528
1769667988549523500,10.3845234375,0.017581922933459282,0.028314195573329926,0.0913056805729866
1769667988559512300,10.39451220703125,0.015156315639615059,0.030908115208148956,0.09488683193922043
1769667988569501400,10.40450146484375,0.009705091826617718,0.02961275354027748,0.08336865901947021
1769667988579489500,10.414489501953126,0.009313340298831463,0.02436712570488453,0.07095007598400116
1769667988589478400,10.424478515625,0.008274441584944725,0.02328641340136528,0.057304300367832184
1769667988599467500,10.434467529296874,0.009217733517289162,0.030183201655745506,0.05457722395658493
1769667988609456400,10.444456298828126,0.009034507907927036,0.037884265184402466,0.04818510636687279
1769667988619444500,10.454444580078125,0.009180182591080666,0.03627065569162369,0.03990640491247177
1769667988629433300,10.464433349609376,0.009241967462003231,0.02924390509724617,0.03184794262051582
1769667988639422500,10.47442236328125,0.004995557479560375,0.018314026296138763,0.026997795328497887
1769667988649411300,10.484411376953124,0.0029531794134527445,0.00612260727211833,0.02745000086724758
1769667988659399400,10.4943994140625,0.0004546015989035368,-0.0004748416249640286,0.025475265458226204
1769667988669388300,10.50438818359375,0.0019744676537811756,0.0035891421139240265,0.023566579446196556
1769667988679377400,10.51437744140625,0.004917793441563845,0.01540771871805191,0.022821959108114243
1769667988689366300,10.5243662109375,0.010147176682949066,0.01708817295730114,0.02165096625685692
1769667988699354400,10.534354248046874,0.013198892585933208,0.016393886879086494,0.022707443684339523
1769667988709343500,10.544343505859375,0.01607270911335945,0.0171494260430336,0.02502732165157795
1769667988719332400,10.554332275390625,0.01350648794323206,0.012909140437841415,0.023383619263768196
1769667988729320400,10.564320556640626,0.017532920464873314,0.0034844798501580954,0.015682822093367577
1769667988739309300,10.574309326171875,0.022188393399119377,0.004942027851939201,0.013573865406215191
1769667988749298400,10.58429833984375,0.02700791507959366,0.017714016139507294,0.011031878180801868
1769667988759287300,10.594287353515625,0.03335396200418472,0.03204901143908501,0.009065666235983372
1769667988769275400,10.604275390625,0.040769267827272415,0.04496214911341667,0.004826180636882782
1769667988779264500,10.614264404296875,0.04715978726744652,0.05752694234251976,0.0031971249263733625
1769667988789253400,10.62425341796875,0.049743056297302246,0.06439124047756195,-0.001847701147198677
1769667988799242500,10.634242431640626,0.05277293175458908,0.06489910185337067,-0.002232261700555682
1769667988809230300,10.644230224609375,0.05043947324156761,0.06217282637953758,-0.0012239888310432434
1769667988819219500,10.654219482421874,0.048702023923397064,0.061597585678100586,0.006179332733154297
1769667988829208300,10.664208251953125,0.04543272778391838,0.05553250014781952,0.013626862317323685
1769667988839197400,10.674197509765625,0.04309047758579254,0.04543938860297203,0.021824073046445847
1769667988849185500,10.684185546875,0.04030481353402138,0.03898654878139496,0.021334849298000336
1769667988859174400,10.69417431640625,0.038607846945524216,0.036379579454660416,0.022291457280516624
1769667988869163500,10.70416357421875,0.03422454744577408,0.03362933173775673,0.020328175276517868
1769667988879152400,10.71415234375,0.03164900466799736,0.03725789114832878,0.013914749957621098
1769667988889140500,10.724140380859374,0.029873210936784744,0.039087481796741486,0.006670419592410326
1769667988899129300,10.73412939453125,0.02840367890894413,0.042224153876304626,-0.003299123840406537
1769667988909118500,10.744118408203125,0.03039572201669216,0.04153918847441673,-0.009995375759899616
1769667988919107300,10.754107421875,0.030515031889081,0.03965659812092781,-0.009177252650260925
1769667988929095400,10.764095458984375,0.028715001419186592,0.03530898690223694,-0.0007486145477741957
1769667988939084300,10.774084228515624,0.02551175095140934,0.021313278004527092,0.007721835747361183
1769667988949073400,10.784073486328126,0.021339111030101776,0.00818176381289959,0.011395932175219059
1769667988959062300,10.794062255859375,0.017059942707419395,-0.001273523666895926,0.01335655152797699
1769667988969050400,10.80405029296875,0.015291870571672916,-0.0020130835473537445,0.014751248992979527
1769667988979039500,10.81403955078125,0.013526461087167263,-0.0012458267156034708,0.012222045101225376
1769667988989028400,10.8240283203125,0.014690529555082321,0.004055195488035679,0.006850449368357658
1769667988999017500,10.834017578125,0.014298511669039726,0.009446232579648495,0.0031577101908624172
1769667989009005300,10.84400537109375,0.014624482952058315,0.006879477761685848,0.004716724622994661
1769667989018994400,10.853994384765626,0.012552277185022831,0.0005270395777188241,0.009141300804913044
1769667989028983300,10.8639833984375,0.010178068652749062,-0.003631752682849765,0.009101352654397488
1769667989038972400,10.873972412109374,0.011024953797459602,-0.004024302586913109,0.00974610447883606
1769667989048960500,10.88396044921875,0.01062175165861845,-0.000526506919413805,0.012238556519150734
1769667989058949400,10.893949462890625,0.015504124574363232,0.007285077124834061,0.019465044140815735
1769667989068938500,10.9039384765625,0.01756807416677475,0.011622567661106586,0.02101100981235504
1769667989078927600,10.913927734375,0.020051205530762672,0.010134393349289894,0.019997144117951393
1769667989088915500,10.92391552734375,0.01902269385755062,0.012311793863773346,0.020919928327202797
1769667989098904300,10.933904296875,0.020440027117729187,0.006739927921444178,0.02857598476111889
1769667989108893400,10.9438935546875,0.022840334102511406,-0.006836334243416786,0.03635348007082939
1769667989118882300,10.95388232421875,0.020051471889019012,-0.013037504628300667,0.049317747354507446
1769667989128870400,10.963870361328125,0.01859605498611927,-0.011727229692041874,0.05783826485276222
1769667989138859500,10.973859619140624,0.02003362961113453,-0.010861968621611595,0.059477709233760834
1769667989148848400,10.983848388671875,0.0212421715259552,-0.005565740168094635,0.05337321013212204
1769667989158837200,10.993837158203124,0.023937556892633438,0.0011459582019597292,0.050400055944919586
1769667989168825300,11.003825439453125,0.02834215946495533,0.015776831656694412,0.05114654079079628
1769667989178814500,11.013814453125,0.0358637236058712,0.024456340819597244,0.06023138388991356
1769667989188803300,11.02380322265625,0.043233491480350494,0.022404907271265984,0.08063466101884842
1769667989198792400,11.03379248046875,0.04683195427060127,0.04023530334234238,0.1033780574798584
1769667989208780500,11.043780517578124,0.04333282634615898,0.05178862810134888,0.1231355145573616
1769667989218769400,11.053769287109375,0.03876204416155815,0.05488455295562744,0.1276674121618271
1769667989228758300,11.06375830078125,0.03700675442814827,0.05772321671247482,0.12884452939033508
1769667989238747400,11.073747314453126,0.04075408726930618,0.03726028650999069,0.12183801829814911
1769667989248735500,11.083735595703125,0.045755770057439804,0.016094280406832695,0.12488894164562225
1769667989258724400,11.093724365234374,0.04805833846330643,0.01912629045546055,0.14599396288394928
1769667989268713500,11.10371337890625,0.04398529976606369,0.02690298669040203,0.16732987761497498
1769667989278702600,11.11370263671875,0.04589531943202019,0.021518608555197716,0.18099933862686157
1769667989288690400,11.1236904296875,0.04542793706059456,0.02341584302484989,0.1895555555820465
1769667989298679300,11.13367919921875,0.03792208060622215,0.028475049883127213,0.20276989042758942
1769667989308668400,11.14366845703125,0.03123488463461399,0.027115773409605026,0.19711706042289734
1769667989318657300,11.1536572265625,0.03020983375608921,0.011980762705206871,0.1829242706298828
1769667989328645400,11.163645263671874,0.03844565898180008,0.009695770218968391,0.17599153518676758
1769667989338634500,11.173634521484376,0.04258580878376961,0.02822018601000309,0.18937738239765167
1769667989348623600,11.18362353515625,0.0524754598736763,0.054603323340415955,0.20130515098571777
1769667989358612200,11.1936123046875,0.06444822996854782,0.08141656219959259,0.21291866898536682
1769667989368600300,11.203600341796875,0.07005444914102554,0.09910581260919571,0.2048972249031067
1769667989378589400,11.21358935546875,0.0709167867898941,0.10407447069883347,0.1848023384809494
1769667989388578300,11.223578369140625,0.06765254586935043,0.09488309919834137,0.15963760018348694
1769667989398567400,11.2335673828125,0.06686132401227951,0.08991657197475433,0.13952487707138062
1769667989408555500,11.243555419921876,0.07057616859674454,0.08364562690258026,0.13743136823177338
1769667989418545000,11.253544921875,0.06626397371292114,0.08334203064441681,0.13220250606536865
1769667989428533800,11.26353369140625,0.06713589280843735,0.07846098393201828,0.1310264617204666
1769667989438523000,11.27352294921875,0.07311282306909561,0.06865256279706955,0.1306307166814804
1769667989448511000,11.283510986328125,0.07071065157651901,0.07635948807001114,0.1409243643283844
1769667989458499600,11.29349951171875,0.06861607730388641,0.08164425939321518,0.14729571342468262
1769667989468488700,11.30348876953125,0.06372411549091339,0.06808770447969437,0.13945695757865906
1769667989478477800,11.313477783203124,0.06205325201153755,0.04613953083753586,0.12225107848644257
1769667989488465700,11.323465576171875,0.05877330154180527,0.046007703989744186,0.12214828282594681
1769667989498454800,11.333454833984375,0.04957181215286255,0.0579591728746891,0.12958435714244843
1769667989508444000,11.34344384765625,0.044263068586587906,0.06879451125860214,0.12996944785118103
1769667989518432800,11.353432861328125,0.042631082236766815,0.05566219612956047,0.1293071210384369
1769667989528420600,11.363420654296876,0.04439835622906685,0.05198170989751816,0.12595632672309875
1769667989538409700,11.37340966796875,0.05168157070875168,0.04548599198460579,0.1347476989030838
1769667989548398800,11.38339892578125,0.04971802234649658,0.05192045494914055,0.1367245614528656
1769667989558387700,11.3933876953125,0.04960190877318382,0.06095895916223526,0.13681989908218384
1769667989568375800,11.403375732421875,0.05030524730682373,0.07008028775453568,0.1332981288433075
1769667989578365000,11.413364990234374,0.04947008192539215,0.07555228471755981,0.1217605248093605
1769667989588353800,11.423353759765625,0.050163835287094116,0.07688945531845093,0.1130908653140068
1769667989598343000,11.433343017578125,0.050625625997781754,0.09113603830337524,0.09968611598014832
1769667989608330800,11.443330810546875,0.04825727641582489,0.09609830379486084,0.08844225108623505
1769667989618320000,11.45331982421875,0.04476267844438553,0.10174527019262314,0.07585588097572327
1769667989628308700,11.463308837890626,0.04284653440117836,0.10770675539970398,0.06470416486263275
1769667989638297900,11.4732978515625,0.04162547364830971,0.10518927127122879,0.05203230679035187
1769667989648286000,11.483285888671874,0.03934980183839798,0.10635839402675629,0.0395205095410347
1769667989658274800,11.49327490234375,0.03856523707509041,0.10799810290336609,0.028495291247963905
1769667989668263700,11.503263671875,0.04007018730044365,0.10983941704034805,0.020488230511546135
1769667989678251800,11.513251708984376,0.04051839932799339,0.11414282023906708,0.016532104462385178
1769667989688240600,11.52324072265625,0.0396086610853672,0.11460700631141663,0.011535482481122017
1769667989698229800,11.533229736328124,0.03851010650396347,0.1130858063697815,0.010460896417498589
1769667989708219000,11.543218994140625,0.03723258897662163,0.11302322149276733,0.010174606926739216
1769667989718207000,11.55320703125,0.0341116301715374,0.11630317568778992,0.004277036525309086
1769667989728195600,11.563195556640625,0.03313851356506348,0.11139310151338577,0.00033902039285749197
1769667989738184700,11.573184814453125,0.029193837195634842,0.10801355540752411,-0.005301554687321186
1769667989748173800,11.583173828125,0.028244420886039734,0.10523267835378647,-0.01318051666021347
1769667989758162700,11.59316259765625,0.02365339733660221,0.10317325592041016,-0.018995262682437897
1769667989768150800,11.60315087890625,0.022967366501688957,0.10435064136981964,-0.025136511772871017
1769667989778140000,11.613139892578126,0.018981946632266045,0.10340096056461334,-0.028729382902383804
1769667989788128800,11.623128662109375,0.017829064279794693,0.09833455830812454,-0.035533491522073746
1769667989798116600,11.63311669921875,0.01576538011431694,0.09180129319429398,-0.033365678042173386
1769667989808105700,11.643105712890625,0.009386311285197735,0.08650559931993484,-0.035418976098299026
1769667989818094800,11.6530947265625,0.004466121084988117,0.08038405328989029,-0.0413849912583828
1769667989828083700,11.663083740234375,-0.002525475574657321,0.07544122636318207,-0.04878831282258034
1769667989838071800,11.67307177734375,-0.00126766471657902,0.06979718804359436,-0.05272632837295532
1769667989848061000,11.68306103515625,-0.0014596786350011826,0.062429822981357574,-0.05523902177810669
1769667989858049800,11.6930498046875,-0.002897519152611494,0.05782787874341011,-0.05511917918920517
1769667989868039000,11.703038818359374,-0.00028389296494424343,0.05162697657942772,-0.05177078768610954
1769667989878026800,11.71302685546875,-0.002886600326746702,0.04336904361844063,-0.0495435856282711
1769667989888016000,11.723015869140625,-0.004743622615933418,0.027883030474185944,-0.05055931210517883
1769667989898004700,11.733004638671876,-0.009399094618856907,0.01888900250196457,-0.04826979339122772
1769667989907993900,11.742993896484375,-0.01281513087451458,0.014080931432545185,-0.05155826732516289
1769667989917982000,11.75298193359375,-0.015134211629629135,0.016322514042258263,-0.05537084862589836
1769667989927970800,11.762970703125,-0.017519338056445122,0.021700767800211906,-0.05770883709192276
1769667989937959700,11.772959716796874,-0.022062690928578377,0.02509975992143154,-0.06322450935840607
1769667989947948800,11.78294873046875,-0.02580896019935608,0.02468270994722843,-0.07407236099243164
1769667989957936600,11.7929365234375,-0.0317067950963974,0.02046506106853485,-0.08211244642734528
1769667989967925800,11.80292578125,-0.03217870742082596,0.01314909104257822,-0.09036292135715485
1769667989977915000,11.812914794921875,-0.03368605673313141,0.005661880597472191,-0.0947190523147583
1769667989987903700,11.82290380859375,-0.03335289657115936,-0.004571848548948765,-0.09566421061754227
1769667989997891600,11.8328916015625,-0.0336943157017231,-0.014760304242372513,-0.08516602963209152
1769667990007880700,11.842880615234375,-0.03784884512424469,-0.019147595390677452,-0.0674528107047081
1769667990017869800,11.852869873046876,-0.03755563125014305,-0.025946112349629402,-0.049491386860609055
1769667990027858700,11.862858642578125,-0.039796147495508194,-0.038243792951107025,-0.043419912457466125
1769667990037846800,11.8728466796875,-0.0430380143225193,-0.04928206279873848,-0.04731691628694534
1769667990047836000,11.8828359375,-0.04283907637000084,-0.0568571574985981,-0.05609389394521713
1769667990057824800,11.89282470703125,-0.042568497359752655,-0.06660246104001999,-0.06272969394922256
1769667990067814000,11.90281396484375,-0.03852129355072975,-0.07798641175031662,-0.06937588006258011
1769667990077801700,11.9128017578125,-0.03593216836452484,-0.07927990704774857,-0.06624453514814377
1769667990087790800,11.922790771484374,-0.032578449696302414,-0.07864367961883545,-0.05922337621450424
1769667990097779700,11.93277978515625,-0.030470823869109154,-0.08400622010231018,-0.04881254583597183
1769667990107768800,11.942768798828125,-0.026337331160902977,-0.08840842545032501,-0.04205557331442833
1769667990117757000,11.9527568359375,-0.018397916108369827,-0.09218079596757889,-0.06338802725076675
1769667990127745800,11.962745849609375,-0.013622867874801159,-0.0982261672616005,-0.07824394106864929
1769667990137735000,11.97273486328125,-0.0133850472047925,-0.0816999226808548,-0.08921483159065247
1769667990147723800,11.982723876953125,-0.011815913021564484,-0.04831480234861374,-0.09337415546178818
1769667990157712000,11.9927119140625,-0.009328787215054035,-0.03225088119506836,-0.09340158849954605
1769667990167700700,12.00270068359375,-0.0038903458043932915,-0.01846369542181492,-0.1062883585691452
1769667990177689900,12.01268994140625,0.00037816885742358863,-0.02094629406929016,-0.11447624117136002
1769667990187678700,12.0226787109375,0.005881058517843485,-0.03756575286388397,-0.10302811115980148
1769667990197666800,12.032666748046875,0.00743261631578207,-0.0551103912293911,-0.07661594450473785
1769667990207655700,12.04265576171875,0.00013981595111545175,-0.03605706989765167,-0.08091455698013306
1769667990217644800,12.052644775390625,-0.009075786918401718,-0.04096847027540207,-0.1175929456949234
1769667990227633700,12.062633544921875,-0.01787726767361164,-0.05306002125144005,-0.13978932797908783
1769667990237621800,12.072621826171876,-0.025138908997178078,-0.047154463827610016,-0.13858291506767273
1769667990247611000,12.08261083984375,-0.029533125460147858,-0.04288887605071068,-0.12244708836078644
1769667990257599700,12.092599853515624,-0.035589154809713364,-0.06477952748537064,-0.11344054341316223
