time,seconds_elapsed,z,y,x
1769667978241137200,0.07613720703125,0.032320618629455566,0.042794644832611084,0.03195313364267349
1769667978251126300,0.086126220703125,0.036713771522045135,0.015079662203788757,0.033731859177351
1769667978261114000,0.096114013671875,0.04112619161605835,-0.0282024834305048,0.007474156562238932
1769667978271103200,0.106103271484375,0.04655478149652481,-0.07060506939888,-0.034099917858839035
1769667978281092000,0.116092041015625,0.05630616098642349,-0.08708301186561584,-0.07300460338592529
1769667978291081200,0.126081298828125,0.03714605048298836,-0.22871710360050201,-0.17725218832492828
1769667978301069300,0.1360693359375,0.07863730937242508,-0.18929916620254517,-0.2178194373846054
1769667978311058200,0.14605810546875,0.09299654513597488,-0.13990098237991333,-0.23408576846122742
1769667978321047300,0.15604736328125,0.09983659535646439,-0.16261079907417297,-0.2852123975753784
1769667978331035100,0.16603515625,0.12236454337835312,-0.2121349424123764,-0.3785066604614258
1769667978341024300,0.176024169921875,0.16559544205665588,-0.2061738669872284,-0.48665836453437805
1769667978351013000,0.18601318359375,0.18161195516586304,-0.07383713126182556,-0.5492594242095947
1769667978361002200,0.196002197265625,0.16224472224712372,0.1098577156662941,-0.5608323216438293
1769667978370990300,0.205990234375,0.12565527856349945,0.23871663212776184,-0.5289020538330078
1769667978380979200,0.215979248046875,0.06921457499265671,0.2921730875968933,-0.4823759198188782
1769667978390968000,0.225968017578125,0.024368541315197945,0.25626301765441895,-0.41142478585243225
1769667978400957200,0.235957275390625,-0.011262689717113972,0.1375240981578827,-0.3316181004047394
1769667978410944500,0.245944580078125,-0.012855940498411655,0.05965544655919075,-0.2688698470592499
1769667978420933400,0.255933349609375,0.030181074514985085,0.04780583456158638,-0.20736514031887054
1769667978430922500,0.265922607421875,0.07626920938491821,0.06121058762073517,-0.15080812573432922
1769667978440911600,0.27591162109375,0.06473082304000854,0.03289208188652992,-0.08756712079048157
1769667978450899500,0.2858994140625,0.02848946303129196,-0.032495979219675064,-0.012916048057377338
1769667978460888300,0.295888427734375,0.027260227128863335,-0.074993796646595,0.056042447686195374
1769667978470877400,0.30587744140625,0.03721752017736435,-0.10612934827804565,0.09435628354549408
1769667978480866600,0.315866455078125,0.030946839600801468,-0.12876327335834503,0.08675269037485123
1769667978490854400,0.3258544921875,0.0237917248159647,-0.12473099678754807,0.05175715684890747
1769667978500843500,0.335843505859375,0.016783012077212334,-0.1026519164443016,0.0213491041213274
1769667978510832600,0.34583251953125,0.011076655238866806,-0.04653458297252655,0.0007114713080227375
1769667978520821200,0.3558212890625,0.01080409437417984,-0.002003355184569955,-0.02220507338643074
1769667978530809300,0.365809326171875,-0.008703027851879597,-0.01932615414261818,-0.055795520544052124
1769667978540798500,0.375798583984375,0.012617003172636032,0.08558622747659683,-0.1038309633731842
1769667978550787300,0.385787353515625,0.027608202770352364,0.14250092208385468,-0.059476546943187714
1769667978560776400,0.3957763671875,0.02043561078608036,0.10980295389890671,0.01384173333644867
1769667978570764500,0.4057646484375,0.046445105224847794,0.10069014877080917,0.04464305564761162
1769667978580753700,0.415753662109375,0.05292011424899101,0.0663570761680603,0.033910807222127914
1769667978590742300,0.4257421875,0.03011413663625717,0.01946493238210678,-0.006020363420248032
1769667978600731400,0.4357314453125,0.024176551029086113,0.06654949486255646,-0.0335996150970459
1769667978610719500,0.445719482421875,0.026235973462462425,0.11934160441160202,-0.03108905255794525
1769667978620708400,0.455708251953125,0.008505955338478088,0.15843258798122406,-0.02793632075190544
1769667978630697500,0.465697509765625,0.006863318383693695,0.20854315161705017,-0.022959139198064804
1769667978640686600,0.4756865234375,0.009078471921384335,0.23706546425819397,-0.018819263204932213
1769667978650674400,0.48567431640625,0.008086711168289185,0.238035649061203,-0.022090690210461617
1769667978660663300,0.495663330078125,0.011793410405516624,0.2285282164812088,-0.02116340585052967
1769667978670652400,0.50565234375,0.02078317664563656,0.23471979796886444,-0.011548861861228943
1769667978680641500,0.5156416015625,0.02030998095870018,0.26077234745025635,-0.016864636912941933
1769667978690629400,0.52562939453125,0.02150574140250683,0.31382012367248535,-0.0183408260345459
1769667978700618500,0.535618408203125,0.01988876610994339,0.33792179822921753,-0.0069176675751805305
1769667978710607600,0.545607666015625,0.019147075712680817,0.35321712493896484,0.022023702040314674
1769667978720596500,0.555596435546875,0.015335749834775925,0.3262578248977661,0.058771923184394836
1769667978730584300,0.565584228515625,0.010509569197893143,0.3162515461444855,0.07508485019207001
1769667978740573400,0.575573486328125,0.010654713027179241,0.35366547107696533,0.05026964098215103
1769667978750562300,0.585562255859375,0.011486684903502464,0.39853042364120483,-0.004166168160736561
1769667978760551400,0.595551513671875,0.010710611008107662,0.3942963182926178,-0.05602867156267166
1769667978770539500,0.60553955078125,0.008120154030621052,0.4037865102291107,-0.088721364736557
1769667978780528600,0.615528564453125,0.01280625257641077,0.43100854754447937,-0.09462638944387436
1769667978790517500,0.625517578125,0.014149283990263939,0.4590090215206146,-0.08639109879732132
1769667978800506400,0.63550634765625,0.009617025032639503,0.505359411239624,-0.08558277785778046
1769667978810494500,0.645494384765625,-0.0016244433354586363,0.5539674162864685,-0.08599822223186493
1769667978820483300,0.6554833984375,-0.009791921824216843,0.6094396114349365,-0.09825821220874786
1769667978830472400,0.665472412109375,-0.01662372797727585,0.6572390794754028,-0.12427464127540588
1769667978840461600,0.675461669921875,-0.019867654889822006,0.6903958916664124,-0.1604842245578766
1769667978850449700,0.68544970703125,-0.021171271800994873,0.7192744016647339,-0.19755275547504425
1769667978860438300,0.695438232421875,-0.014398613944649696,0.7449896335601807,-0.21940290927886963
1769667978870427400,0.705427490234375,-0.0015536556020379066,0.7633572220802307,-0.23277731239795685
1769667978880416500,0.71541650390625,0.021787963807582855,0.7769138813018799,-0.22810165584087372
1769667978890404400,0.725404296875,0.032557252794504166,0.8081684708595276,-0.21503831446170807
1769667978900393500,0.7353935546875,0.020940639078617096,0.8702811598777771,-0.19900822639465332
1769667978910382600,0.745382568359375,-0.00096918735653162,0.9460955262184143,-0.18863867223262787
1769667978920371500,0.755371337890625,-0.02127893455326557,1.0175104141235352,-0.18134485185146332
1769667978930359300,0.765359375,-0.015506000258028507,1.0759423971176147,-0.18280558288097382
1769667978940348400,0.775348388671875,0.008423566818237305,1.10722815990448,-0.2022828906774521
1769667978950337500,0.785337646484375,0.03987709805369377,1.1303304433822632,-0.23587146401405334
1769667978960326400,0.795326416015625,0.06636065989732742,1.157227873802185,-0.27405694127082825
1769667978970314500,0.805314453125,0.1125611811876297,1.2045708894729614,-0.3088785707950592
1769667978980303600,0.8153037109375,0.16711601614952087,1.260999321937561,-0.3462495803833008
1769667978990292500,0.82529248046875,0.20254909992218018,1.3357888460159302,-0.3872654438018799
1769667979000281300,0.83528125,0.22704863548278809,1.4565989971160889,-0.41770073771476746
1769667979010269400,0.84526953125,0.2780444324016571,1.5842163562774658,-0.4317265450954437
1769667979020258300,0.85525830078125,0.35324132442474365,1.6651402711868286,-0.44421809911727905
1769667979030247400,0.865247314453125,0.4018440246582031,1.622525930404663,-0.46929439902305603
1769667979040236500,0.875236572265625,0.427460640668869,1.4689613580703735,-0.5096555948257446
1769667979050224600,0.885224609375,0.4469397962093353,1.3685897588729858,-0.5713852643966675
1769667979060213500,0.895213623046875,0.4705979824066162,1.3426731824874878,-0.6171796321868896
1769667979070202400,0.905202392578125,0.5056867599487305,1.3341758251190186,-0.63798987865448
1769667979080191500,0.91519140625,0.5228263735771179,1.3014780282974243,-0.6099593043327332
1769667979090179300,0.925179443359375,0.464549720287323,1.2605899572372437,-0.5370142459869385
1769667979100168400,0.93516845703125,0.39521604776382446,1.2189785242080688,-0.4649962782859802
1769667979110157600,0.945157470703125,0.3437432646751404,1.1664674282073975,-0.39869341254234314
1769667979120146400,0.955146484375,0.29002198576927185,1.1055947542190552,-0.32597148418426514
1769667979130134300,0.96513427734375,0.19863882660865784,1.1177443265914917,-0.2238837331533432
1769667979140123400,0.975123291015625,0.12191250920295715,1.1403188705444336,-0.12431439757347107
1769667979150112500,0.985112548828125,0.0721936821937561,1.1390639543533325,-0.03371019288897514
1769667979160101400,0.995101318359375,0.03619510680437088,1.1245461702346802,0.042180247604846954
1769667979170089500,1.00508935546875,0.015278373844921589,1.115667700767517,0.11177077889442444
1769667979180078600,1.01507861328125,0.012938105501234531,1.1075025796890259,0.178791806101799
1769667979190067500,1.0250673828125,0.01386248879134655,1.10699462890625,0.2514644265174866
1769667979200056600,1.035056640625,0.02031194232404232,1.1356583833694458,0.33705568313598633
1769667979210044400,1.04504443359375,0.029484402388334274,1.217605710029602,0.40843987464904785
1769667979220033300,1.055033203125,0.04764062166213989,1.3447078466415405,0.4593741297721863
1769667979230022400,1.0650224609375,0.06386646628379822,1.4438657760620117,0.4985172748565674
1769667979240011500,1.075011474609375,0.07254453748464584,1.5380089282989502,0.5141294002532959
1769667979249999600,1.08499951171875,0.08867743611335754,1.6548868417739868,0.509628415107727
1769667979259988500,1.094988525390625,0.12377528846263885,1.6472480297088623,0.5165309906005859
1769667979269977300,1.104977294921875,0.11422465741634369,1.6073906421661377,0.4900088310241699
1769667979279966500,1.114966552734375,0.09837181121110916,1.5938814878463745,0.4571070373058319
1769667979289954300,1.124954345703125,0.09083826094865799,1.557162880897522,0.43536072969436646
1769667979299943400,1.134943359375,0.09547915309667587,1.5080640316009521,0.41663458943367004
1769667979309932500,1.1449326171875,0.10719200223684311,1.4522346258163452,0.4286592900753021
1769667979319921400,1.15492138671875,0.10437647998332977,1.4197918176651,0.45816126465797424
1769667979329909500,1.164909423828125,0.10542603582143784,1.4266129732131958,0.48339444398880005
1769667979339898400,1.1748984375,0.11339350789785385,1.423164963722229,0.5166178345680237
1769667979349887500,1.184887451171875,0.11898987740278244,1.3894437551498413,0.5666932463645935
1769667979359876400,1.19487646484375,0.12595319747924805,1.4014177322387695,0.6197658777236938
1769667979369864400,1.204864501953125,0.14159581065177917,1.4653916358947754,0.6533653736114502
1769667979379853600,1.214853515625,0.15831182897090912,1.532501220703125,0.6569978594779968
1769667979389842400,1.224842529296875,0.18093830347061157,1.554323434829712,0.6471574902534485
1769667979399831600,1.23483154296875,0.19760970771312714,1.5650173425674438,0.6372727751731873
1769667979409820200,1.244820068359375,0.21443529427051544,1.59646475315094,0.6235727071762085
1769667979419809000,1.25480908203125,0.22248193621635437,1.618518590927124,0.6226876974105835
1769667979429798100,1.264798095703125,0.22492511570453644,1.6160231828689575,0.6226370930671692
1769667979439787300,1.274787353515625,0.2373679280281067,1.6135241985321045,0.6256438493728638
1769667979449775000,1.284775146484375,0.25374850630760193,1.6277682781219482,0.643710732460022
1769667979459764000,1.294763916015625,0.27092164754867554,1.6499217748641968,0.6618284583091736
1769667979469753000,1.304753173828125,0.27523913979530334,1.6560615301132202,0.682045578956604
1769667979479742000,1.314741943359375,0.2801566421985626,1.6463290452957153,0.7040100693702698
1769667979489730000,1.32472998046875,0.28522172570228577,1.638970136642456,0.7210609316825867
1769667979499719200,1.33471923828125,0.27879369258880615,1.6137032508850098,0.7399317026138306
1769667979509708000,1.3447080078125,0.25451764464378357,1.580727458000183,0.7483755350112915
1769667979519696000,1.35469580078125,0.22834958136081696,1.5621036291122437,0.745707631111145
1769667979529685000,1.36468505859375,0.19940608739852905,1.545503854751587,0.7340309619903564
1769667979539674000,1.374674072265625,0.17937572300434113,1.5006862878799438,0.707592248916626
1769667979549663000,1.3846630859375,0.16463273763656616,1.450673222541809,0.6761080622673035
1769667979559651000,1.394651123046875,0.14613957703113556,1.4119044542312622,0.6431829929351807
1769667979569640000,1.404639892578125,0.123553566634655,1.3635872602462769,0.6186726093292236
1769667979579629000,1.414629150390625,0.11345349997282028,1.3359464406967163,0.5996306538581848
1769667979589618000,1.424617919921875,0.1018594279885292,1.3576745986938477,0.5733063817024231
1769667979599606000,1.43460595703125,0.08478333801031113,1.413438081741333,0.5231936573982239
1769667979609595100,1.44459521484375,0.06798278540372849,1.456047534942627,0.45559436082839966
1769667979619584000,1.454583984375,0.05985482409596443,1.4460010528564453,0.38393205404281616
1769667979629573000,1.464572998046875,0.051747627556324005,1.3910999298095703,0.3296501636505127
1769667979639561000,1.47456103515625,0.0258413664996624,1.33814537525177,0.2635081708431244
1769667979649550000,1.484550048828125,0.004060703795403242,1.289063811302185,0.22123713791370392
1769667979659539000,1.4945390625,-0.01416880264878273,1.263340711593628,0.20203660428524017
1769667979669528000,1.504528076171875,-0.024850742891430855,1.2695090770721436,0.18879882991313934
1769667979679516200,1.51451611328125,-0.02975013479590416,1.2933073043823242,0.19071975350379944
1769667979689505000,1.524505126953125,-0.03283274546265602,1.3501274585723877,0.20739807188510895
1769667979699494100,1.534494140625,-0.031908728182315826,1.4211992025375366,0.23577119410037994
1769667979709483300,1.544483154296875,-0.021972207352519035,1.4821327924728394,0.26746734976768494
1769667979719471000,1.55447119140625,-0.011037337593734264,1.5150688886642456,0.27911174297332764
1769667979729460000,1.5644599609375,-0.007019426673650742,1.5077816247940063,0.27649277448654175
1769667979739449000,1.574448974609375,-0.00660237530246377,1.4689568281173706,0.28049522638320923
1769667979749438000,1.58443798828125,-0.013261609710752964,1.4261837005615234,0.27993491291999817
1769667979759426000,1.594426025390625,-0.015935592353343964,1.396829605102539,0.27767154574394226
1769667979769415200,1.604415283203125,-0.01831432804465294,1.3628325462341309,0.28392064571380615
1769667979779404000,1.614404052734375,-0.01971076801419258,1.3207943439483643,0.2935812473297119
1769667979789393000,1.624392822265625,-0.022857826203107834,1.3043445348739624,0.3083500862121582
1769667979799381000,1.634381103515625,-0.016856754198670387,1.3206205368041992,0.33344072103500366
1769667979809370000,1.6443701171875,-0.0027965966146439314,1.3410205841064453,0.3631783723831177
1769667979819359000,1.65435888671875,0.012006381526589394,1.3445426225662231,0.38825926184654236
1769667979829348000,1.66434814453125,0.031809378415346146,1.3480310440063477,0.40756744146347046
1769667979839336000,1.6743359375,0.062042105942964554,1.3562586307525635,0.4354650676250458
1769667979849325000,1.684324951171875,0.08482331037521362,1.3550708293914795,0.4666796922683716
1769667979859314000,1.69431396484375,0.09948316961526871,1.3529462814331055,0.48198607563972473
1769667979869303000,1.704302978515625,0.11365465074777603,1.3502122163772583,0.4775404632091522
1769667979879291100,1.714291015625,0.12336046993732452,1.3239142894744873,0.4616926312446594
1769667979889280000,1.724280029296875,0.12982209026813507,1.2898215055465698,0.46423062682151794
1769667979899269000,1.73426904296875,0.12431705743074417,1.2636390924453735,0.44623151421546936
1769667979909258200,1.74425830078125,0.1100771352648735,1.2233680486679077,0.44075340032577515
1769667979919246000,1.75424609375,0.08728313446044922,1.2069506645202637,0.45608410239219666
1769667979929235000,1.76423486328125,0.07529783993959427,1.2232638597488403,0.48331812024116516
1769667979939224000,1.77422412109375,0.0833149254322052,1.2247897386550903,0.5231953859329224
1769667979949213000,1.784212890625,0.111600361764431,1.2069923877716064,0.5467515587806702
1769667979959201000,1.794200927734375,0.12234853953123093,1.205182671546936,0.530807614326477
1769667979969190100,1.804190185546875,0.11544003337621689,1.2232474088668823,0.5131639242172241
1769667979979179300,1.81417919921875,0.11410314589738846,1.1862605810165405,0.5082523822784424
1769667979989167900,1.82416796875,0.14509674906730652,1.081938624382019,0.5195854902267456
1769667979999156000,1.834156005859375,0.15490694344043732,1.0240910053253174,0.516028881072998
1769667980009145000,1.84414501953125,0.14834624528884888,0.993554413318634,0.4966906011104584
1769667980019134000,1.854134033203125,0.17062442004680634,0.9270603060722351,0.4944206774234772
1769667980029123000,1.864123046875,0.1845354437828064,0.875515341758728,0.4879308044910431
1769667980039111200,1.874111083984375,0.19344745576381683,0.856182873249054,0.49107566475868225
1769667980049100000,1.88410009765625,0.1948956847190857,0.8375216126441956,0.5041813254356384
1769667980059089000,1.8940888671875,0.199117973446846,0.812075138092041,0.5154481530189514
1769667980069078000,1.904078125,0.2105187028646469,0.7984479665756226,0.5314726233482361
1769667980079066000,1.914066162109375,0.23159494996070862,0.8072505593299866,0.548715353012085
1769667980089055000,1.924054931640625,0.24903281033039093,0.8249570727348328,0.564102053642273
1769667980099044000,1.934044189453125,0.26811888813972473,0.8409475088119507,0.5882139801979065
1769667980109032000,1.944031982421875,0.28028395771980286,0.8534228205680847,0.6170549392700195
1769667980119021000,1.95402099609375,0.29037442803382874,0.8744558095932007,0.6386333703994751
1769667980129010000,1.964010009765625,0.3128781318664551,0.8600044250488281,0.6569817662239075
1769667980138999000,1.9739990234375,0.32144320011138916,0.8377099633216858,0.6601294875144958
1769667980148987100,1.983987060546875,0.32368984818458557,0.8158664703369141,0.6516116857528687
1769667980158976000,1.99397607421875,0.31894129514694214,0.7825233340263367,0.655311107635498
1769667980168965000,2.003965087890625,0.3038331866264343,0.7437506318092346,0.6587689518928528
1769667980178954200,2.013954345703125,0.2866683900356293,0.6917778253555298,0.6557977199554443
1769667980188942000,2.023942138671875,0.2708614766597748,0.6474345922470093,0.6379497647285461
1769667980198931000,2.033930908203125,0.24826109409332275,0.6254861950874329,0.6067934036254883
1769667980208920000,2.043920166015625,0.22014424204826355,0.599839985370636,0.5645884275436401
1769667980218909000,2.053908935546875,0.19796456396579742,0.5656064748764038,0.508606493473053
1769667980228897000,2.06389697265625,0.17300274968147278,0.5444071888923645,0.4560660421848297
1769667980238886100,2.07388623046875,0.1507025808095932,0.5301732420921326,0.41384023427963257
1769667980248875300,2.083875244140625,0.1356876790523529,0.5059065222740173,0.38386157155036926
1769667980258863900,2.09386376953125,0.12382714450359344,0.48499754071235657,0.3759681284427643
1769667980268852000,2.10385205078125,0.1147654727101326,0.48686760663986206,0.38050001859664917
1769667980278841000,2.113841064453125,0.08718132227659225,0.5057327747344971,0.38720548152923584
1769667980288830000,2.123829833984375,0.054095543920993805,0.5311670303344727,0.3823350965976715
1769667980298819000,2.133819091796875,0.032267939299345016,0.5391220450401306,0.35479333996772766
1769667980308807200,2.14380712890625,0.004901026841253042,0.5322260856628418,0.32267189025878906
1769667980318796000,2.153796142578125,-0.033628981560468674,0.5253400206565857,0.2869007885456085
1769667980328785000,2.163784912109375,-0.07874453067779541,0.5712385177612305,0.24913768470287323
1769667980338774000,2.17377392578125,-0.11224754899740219,0.6969987154006958,0.18923261761665344
1769667980348762000,2.18376220703125,-0.1486114263534546,0.8564669489860535,0.09527283906936646
1769667980358751000,2.1937509765625,-0.15416166186332703,0.9407724142074585,-0.014326393604278564
1769667980368740000,2.203739990234375,-0.14386054873466492,0.9560954570770264,-0.1212078332901001
1769667980378729200,2.213729248046875,-0.09649915248155594,0.9777247905731201,-0.15354421734809875
1769667980388717000,2.223717041015625,-0.007608690764755011,0.9995208978652954,-0.06821388006210327
1769667980398706000,2.233705810546875,0.07574302703142166,1.0015287399291992,0.09158376604318619
1769667980408694300,2.2436943359375,0.10874252766370773,0.9455719590187073,0.2687564194202423
1769667980418683400,2.253683349609375,0.0969427302479744,0.8419214487075806,0.429837167263031
1769667980428671500,2.26367138671875,0.05743660032749176,0.6828503012657166,0.5619171857833862
1769667980438660400,2.273660400390625,-0.013617649674415588,0.5292813777923584,0.6252075433731079
1769667980448649200,2.283649169921875,-0.08339858800172806,0.4473894238471985,0.5906429290771484
1769667980458638000,2.29363818359375,-0.1364380568265915,0.40807121992111206,0.5011544823646545
1769667980468626200,2.303626220703125,-0.1462685763835907,0.3929370045661926,0.4046284854412079
1769667980478615300,2.313615234375,-0.09410437941551208,0.4174685478210449,0.29548028111457825
1769667980488604400,2.3236044921875,0.0022306768223643303,0.47998759150505066,0.2069898247718811
1769667980498593300,2.33359326171875,0.08687464892864227,0.6059592366218567,0.1696510910987854
1769667980508581400,2.343581298828125,0.1509156972169876,0.7633198499679565,0.1476065218448639
1769667980518570200,2.3535703125,0.20508477091789246,0.9202341437339783,0.11549416184425354
1769667980528559000,2.36355908203125,0.25033774971961975,1.066962480545044,0.08608433604240417
1769667980538548200,2.37354833984375,0.28286153078079224,1.1427205801010132,0.05196002870798111
1769667980548536300,2.383536376953125,0.29759201407432556,1.124953269958496,0.011315664276480675
1769667980558525400,2.393525390625,0.29583674669265747,1.1006609201431274,-0.03337652236223221
1769667980568514300,2.403514404296875,0.2814090847969055,1.0805364847183228,-0.07358679175376892
1769667980578502100,2.413502197265625,0.28009888529777527,1.038927435874939,-0.11810724437236786
1769667980588491300,2.4234912109375,0.2662733495235443,0.9678252339363098,-0.13788947463035583
1769667980598480100,2.433480224609375,0.25478532910346985,0.9268070459365845,-0.13291579484939575
1769667980608469200,2.44346923828125,0.2623617649078369,0.9467882513999939,-0.11307978630065918
1769667980618457300,2.453457275390625,0.2707839012145996,1.0295292139053345,-0.10208962112665176
1769667980628446500,2.463446533203125,0.2992171347141266,1.1005339622497559,-0.09667887538671494
1769667980638435300,2.473435302734375,0.33091482520103455,1.1387348175048828,-0.08264811336994171
1769667980648424400,2.483424560546875,0.3543522357940674,1.1426666975021362,-0.058482326567173004
1769667980658412300,2.493412353515625,0.3819395899772644,1.1098436117172241,-0.0366789847612381
1769667980668401200,2.503401123046875,0.4092886447906494,1.0837388038635254,-0.05541352555155754
1769667980678390300,2.513390380859375,0.3961966633796692,1.0671072006225586,-0.08027686923742294
1769667980688379400,2.52337939453125,0.3829791247844696,1.1416658163070679,-0.10240853577852249
1769667980698367200,2.5333671875,0.41026028990745544,1.251042366027832,-0.14467696845531464
1769667980708356400,2.5433564453125,0.49552246928215027,1.3168370723724365,-0.19221332669258118
1769667980718345200,2.55334521484375,0.5198021531105042,1.349912405014038,-0.22488120198249817
1769667980728334000,2.563333984375,0.5195603370666504,1.374792456626892,-0.24286526441574097
1769667980738322200,2.573322265625,0.5052351355552673,1.4005751609802246,-0.2390836775302887
1769667980748311300,2.583311279296875,0.49416226148605347,1.314409613609314,-0.19410981237888336
1769667980758300400,2.593300537109375,0.444260835647583,1.1894559860229492,-0.14458979666233063
1769667980768289300,2.603289306640625,0.36600279808044434,1.0616950988769531,-0.11625295877456665
1769667980778277400,2.61327734375,0.3066626191139221,0.9600068926811218,-0.08250800520181656
1769667980788266200,2.623266357421875,0.26440703868865967,0.8485472202301025,-0.05939389765262604
1769667980798255000,2.633255126953125,0.2208949774503708,0.7094577550888062,-0.05101240053772926
1769667980808244200,2.643244140625,0.18409915268421173,0.5936528444290161,-0.05272667482495308
1769667980818232300,2.653232421875,0.1655735969543457,0.5112979412078857,-0.049891743808984756
1769667980828221400,2.663221435546875,0.1636369526386261,0.4974530041217804,-0.04859558492898941
1769667980838210300,2.673210205078125,0.16307468712329865,0.5361731052398682,-0.05509212240576744
1769667980848199400,2.683199462890625,0.17354890704154968,0.5797604918479919,-0.05539412423968315
1769667980858187300,2.693187255859375,0.189096137881279,0.6156450510025024,-0.06154753640294075
1769667980868176100,2.703176025390625,0.20926053822040558,0.6173716187477112,-0.07891321182250977
1769667980878165200,2.713165283203125,0.21524199843406677,0.6149358749389648,-0.08551418781280518
1769667980888154400,2.723154296875,0.21134579181671143,0.583465039730072,-0.07590018212795258
1769667980898142500,2.733142578125,0.19828814268112183,0.5472168326377869,-0.05989319086074829
1769667980908131300,2.74313134765625,0.186155304312706,0.49211016297340393,-0.03725285455584526
1769667980918120400,2.753120361328125,0.17973709106445312,0.4238850176334381,-0.014409858733415604
1769667980928109000,2.763109130859375,0.15313130617141724,0.3667229413986206,-0.001199514139443636
1769667980938097200,2.77309716796875,0.12862136960029602,0.306205689907074,-0.002267318544909358
1769667980948086300,2.783086181640625,0.1096561998128891,0.22765550017356873,-0.00866050273180008
1769667980958075400,2.793075439453125,0.09795252978801727,0.1505892276763916,-0.022960571572184563
1769667980968064300,2.803064208984375,0.07843422144651413,0.11089320480823517,-0.049822546541690826
1769667980978052400,2.81305224609375,0.0562441349029541,0.12787744402885437,-0.10429170727729797
1769667980988041500,2.82304150390625,0.006285896059125662,0.14909830689430237,-0.15506593883037567
1769667980998030000,2.833030029296875,-0.0551590658724308,0.17290586233139038,-0.22996290028095245
1769667981008019200,2.843019287109375,-0.12626999616622925,0.12661799788475037,-0.30718016624450684
1769667981018007300,2.85300732421875,-0.1850987672805786,0.022908518090844154,-0.31570670008659363
1769667981027996400,2.862996337890625,-0.2101772278547287,-0.043097130954265594,-0.260687917470932
1769667981037985300,2.8729853515625,-0.21603813767433167,-0.03636765852570534,-0.1680520623922348
1769667981047974400,2.882974365234375,-0.21407298743724823,-0.002678140765056014,-0.06770016252994537
1769667981057962200,2.892962158203125,-0.20264363288879395,0.044613223522901535,0.028517020866274834
1769667981067951000,2.902951171875,-0.18731127679347992,0.119907446205616,0.10963211208581924
1769667981077940200,2.912940185546875,-0.18234778940677643,0.2006453424692154,0.1550890952348709
1769667981087929300,2.922929443359375,-0.16882959008216858,0.24506448209285736,0.16672177612781525
1769667981097917400,2.93291748046875,-0.15634363889694214,0.21816501021385193,0.1511177271604538
1769667981107906300,2.94290625,-0.16211870312690735,0.16405650973320007,0.12285413593053818
1769667981117895400,2.9528955078125,-0.18251509964466095,0.09982648491859436,0.10379479080438614
1769667981127884300,2.96288427734375,-0.20971956849098206,0.016505230218172073,0.10480093210935593
1769667981137872100,2.9728720703125,-0.2416566014289856,-0.08645495027303696,0.10570751130580902
1769667981147861200,2.982861328125,-0.28074008226394653,-0.15459619462490082,0.11030306667089462
1769667981157850400,2.992850341796875,-0.31121036410331726,-0.20498643815517426,0.12447472661733627
1769667981167839200,3.002839111328125,-0.3269414007663727,-0.22959858179092407,0.14187155663967133
1769667981177827300,3.012827392578125,-0.34159255027770996,-0.2345183938741684,0.1543744057416916
1769667981187816400,3.02281640625,-0.3392329812049866,-0.24451829493045807,0.16688141226768494
1769667981197805000,3.03280517578125,-0.31772106885910034,-0.2570793330669403,0.16136927902698517
1769667981207794200,3.042794189453125,-0.2985644042491913,-0.2030312716960907,0.12757030129432678
1769667981217782300,3.0527822265625,-0.2729908227920532,-0.13796773552894592,0.09132323414087296
1769667981227771400,3.062771484375,-0.23517364263534546,-0.10607797652482986,0.06963977962732315
1769667981237760300,3.07276025390625,-0.21302540600299835,-0.06535784155130386,0.05901404470205307
1769667981247749400,3.082749267578125,-0.1916351616382599,-0.025753440335392952,0.04661862924695015
1769667981257737500,3.092737548828125,-0.1648675501346588,0.004877898842096329,0.028789767995476723
1769667981267726000,3.10272607421875,-0.14222881197929382,0.009199410676956177,0.020394420251250267
1769667981277715200,3.112715087890625,-0.10922073572874069,0.010208046063780785,0.005083121359348297
1769667981287703300,3.122703369140625,-0.07703296840190887,0.007069776766002178,-0.0011031352914869785
1769667981297692400,3.1326923828125,-0.05274360254406929,0.006581365596503019,-0.0009428842458873987
1769667981307681300,3.142681396484375,-0.04623936489224434,-0.003984459675848484,-0.010349702090024948
1769667981317670400,3.15267041015625,-0.04269854724407196,-0.011277280747890472,-0.019234316423535347
1769667981327658200,3.162658203125,-0.03739672526717186,0.004804483149200678,-0.02623124048113823
1769667981337647000,3.172647216796875,-0.03962888941168785,0.042277369648218155,-0.03034316375851631
1769667981347636200,3.18263623046875,-0.044219113886356354,0.06228996068239212,-0.028015559539198875
1769667981357625300,3.192625244140625,-0.04225675389170647,0.07004506140947342,-0.0184553824365139
1769667981367613400,3.202613525390625,-0.046696778386831284,0.04669740051031113,-0.012470195069909096
1769667981377602300,3.212602294921875,-0.060773011296987534,-0.011848028749227524,0.0019703309517353773
1769667981387591400,3.22259130859375,-0.06594593077898026,-0.07074383646249771,0.01252390630543232
1769667981397580300,3.232580322265625,-0.06084413826465607,-0.106137715280056,0.02269553393125534
1769667981407568100,3.242568115234375,-0.05935356765985489,-0.12745551764965057,0.023396745324134827
1769667981417557200,3.25255712890625,-0.047481097280979156,-0.14456120133399963,0.022199513390660286
1769667981427546400,3.26254638671875,-0.034059833735227585,-0.13593895733356476,0.01850038208067417
1769667981437535200,3.27253515625,-0.018079848960042,-0.11017117649316788,0.01562054269015789
1769667981447523300,3.2825234375,-0.0032596243545413017,-0.0863899439573288,0.01700112596154213
1769667981457512400,3.292512451171875,0.012151290662586689,-0.05172836408019066,0.020364632830023766
1769667981467501300,3.302501220703125,0.030395276844501495,-0.02911306917667389,0.02027195505797863
1769667981477490200,3.312490234375,0.04329761117696762,-0.019364820793271065,0.008513940498232841
1769667981487478300,3.322478271484375,0.04413118213415146,-0.03512461110949516,-0.0029088901355862617
1769667981497467400,3.33246728515625,0.03848782181739807,-0.05071849375963211,-0.01420719176530838
1769667981507456300,3.342456298828125,0.03421584516763687,-0.06009628251194954,-0.033843476325273514
1769667981517445400,3.3524453125,0.02944018878042698,-0.05898987874388695,-0.04867889732122421
1769667981527433500,3.36243359375,0.02895815670490265,-0.043642349541187286,-0.04955347999930382
1769667981537422000,3.372422119140625,0.032555293291807175,-0.034455765038728714,-0.0418732576072216
1769667981547411200,3.3824111328125,0.03275077044963837,-0.023640133440494537,-0.04041650891304016
1769667981557400300,3.392400390625,0.03595246747136116,-0.016675541177392006,-0.050148796290159225
1769667981567388400,3.402388427734375,0.03251192718744278,-0.017573826014995575,-0.06315221637487411
1769667981577377300,3.412377197265625,0.026880845427513123,-0.02485070191323757,-0.06416413933038712
1769667981587366400,3.422366455078125,0.018340354785323143,-0.01452722493559122,-0.05239669606089592
1769667981597355300,3.432355224609375,0.018887829035520554,0.013141827657818794,-0.0353565439581871
1769667981607343000,3.442343017578125,0.021856188774108887,0.030223077163100243,-0.04550505056977272
1769667981617332200,3.452332275390625,0.01985681802034378,0.03521409258246422,-0.05003364011645317
1769667981627321300,3.4623212890625,0.026567718014121056,0.05822300538420677,-0.050472795963287354
1769667981637310200,3.472310302734375,0.020385615527629852,0.09700259566307068,-0.042127709835767746
1769667981647298300,3.48229833984375,0.015545585192739964,0.10999775677919388,-0.012258229777216911
1769667981657287400,3.492287353515625,0.016724057495594025,0.10470838844776154,0.008465737104415894
1769667981667276300,3.5022763671875,0.018972298130393028,0.11256897449493408,0.019722919911146164
1769667981677265200,3.51226513671875,0.016986137256026268,0.129135400056839,0.02974637597799301
1769667981687253200,3.522253173828125,0.015997039154171944,0.13837817311286926,0.031450532376766205
1769667981697242400,3.532242431640625,0.016636285930871964,0.13658487796783447,0.037857841700315475
1769667981707231200,3.542231201171875,0.02847803197801113,0.13942061364650726,0.03066916950047016
1769667981717220400,3.552220458984375,0.04430602863430977,0.14005358517169952,0.018792778253555298
1769667981727208400,3.56220849609375,0.04442933201789856,0.14852909743785858,0.031182335689663887
1769667981737197300,3.572197265625,0.0364454947412014,0.15821437537670135,0.0457485169172287
1769667981747186200,3.582186279296875,0.026486868038773537,0.1508035957813263,0.060770608484745026
1769667981757175300,3.59217529296875,0.024657566100358963,0.1467619240283966,0.08428443968296051
1769667981767163400,3.602163330078125,0.028887996450066566,0.13804008066654205,0.11034267395734787
1769667981777152300,3.61215234375,0.033619802445173264,0.12399929016828537,0.13820460438728333
1769667981787141400,3.622141357421875,0.039051853120326996,0.10182607173919678,0.1525244265794754
1769667981797130200,3.632130126953125,0.04293864220380783,0.08322808891534805,0.15519143640995026
1769667981807118000,3.6421181640625,0.043569810688495636,0.06345304846763611,0.15245477855205536
1769667981817107200,3.652107177734375,0.042951617389917374,0.05810132250189781,0.14871816337108612
1769667981827096300,3.662096435546875,0.04736553877592087,0.057759106159210205,0.1484377235174179
1769667981837085200,3.672085205078125,0.05002705752849579,0.055628664791584015,0.1559501439332962
1769667981847073300,3.6820732421875,0.0559198334813118,0.05879196897149086,0.16276250779628754
1769667981857062400,3.6920625,0.06146480143070221,0.0710558220744133,0.16179125010967255
1769667981867051300,3.70205126953125,0.06660603731870651,0.08243577182292938,0.15423692762851715
1769667981877039000,3.7120390625,0.0731792226433754,0.0918612852692604,0.1455247402191162
1769667981887028200,3.7220283203125,0.07539816945791245,0.08807240426540375,0.13459965586662292
1769667981897017300,3.732017333984375,0.07494676113128662,0.08354368060827255,0.12389276176691055
1769667981907006200,3.742006103515625,0.07320425659418106,0.08005388081073761,0.11393307149410248
1769667981916995300,3.751995361328125,0.07019303739070892,0.07291605323553085,0.10968665033578873
1769667981926983400,3.7619833984375,0.06694771349430084,0.07026034593582153,0.11107229441404343
1769667981936972300,3.77197216796875,0.06975911557674408,0.071917824447155,0.10856545716524124
1769667981946961200,3.781961181640625,0.06998841464519501,0.0729021281003952,0.09875117242336273
1769667981956949200,3.79194921875,0.07183967530727386,0.08706407994031906,0.09397118538618088
1769667981966938400,3.8019384765625,0.0706804022192955,0.10497330874204636,0.09222202748060226
1769667981976927200,3.81192724609375,0.07156733423471451,0.1266685575246811,0.08816156536340714
1769667981986916400,3.821916259765625,0.07192979007959366,0.14629019796848297,0.07866020500659943
1769667981996904400,3.831904541015625,0.07485935837030411,0.16762802004814148,0.06359889358282089
1769667982006893300,3.841893310546875,0.07418797165155411,0.18684805929660797,0.053387273102998734
1769667982016882200,3.851882080078125,0.07543247193098068,0.19644717872142792,0.04456095024943352
1769667982026871300,3.861871337890625,0.07373710721731186,0.19945202767848969,0.03544894605875015
1769667982036859400,3.871859375,0.0708543062210083,0.19796797633171082,0.0248304083943367
1769667982046848300,3.88184814453125,0.06865453720092773,0.19318653643131256,0.013498656451702118
1769667982056837400,3.89183740234375,0.0629597082734108,0.1876738965511322,0.0010208880994468927
1769667982066826200,3.901826171875,0.06014607846736908,0.18430206179618835,0.0065504093654453754
1769667982076814000,3.91181396484375,0.060835205018520355,0.18310438096523285,0.0060991449281573296
1769667982086803200,3.92180322265625,0.06000190228223801,0.17818444967269897,0.0003110310062766075
1769667982096792300,3.931792236328125,0.06176644191145897,0.16647149622440338,-0.005970177240669727
1769667982106781200,3.94178125,0.05943644046783447,0.15274342894554138,-0.01429442036896944
1769667982116769300,3.951769287109375,0.06377054005861282,0.13016659021377563,-0.018371842801570892
1769667982126758400,3.96175830078125,0.0688244178891182,0.10960832983255386,-0.01319093070924282
1769667982136747300,3.971747314453125,0.08334450423717499,0.09374894201755524,-0.005760976579040289
1769667982146736400,3.981736328125,0.09667202830314636,0.08630034327507019,0.003073794301599264
1769667982156724200,3.99172412109375,0.10804099589586258,0.08200906217098236,0.010251731611788273
1769667982166713300,4.00171337890625,0.12239676713943481,0.07843376696109772,0.010512987151741982
1769667982176702200,4.0117021484375,0.12898163497447968,0.06590666621923447,0.005718952976167202
1769667982186691300,4.02169140625,0.12806656956672668,0.060001637786626816,0.007432697340846062
1769667982196679400,4.031679443359375,0.12853428721427917,0.05038962513208389,0.011599761433899403
1769667982206668300,4.041668212890625,0.12629030644893646,0.03143644332885742,0.011544368229806423
1769667982216657400,4.051657470703125,0.11438977718353271,0.03587152436375618,0.011873144656419754
1769667982226646300,4.061646240234375,0.11309361457824707,0.04375581443309784,0.031315553933382034
1769667982236634400,4.07163427734375,0.11207807064056396,0.04534400999546051,0.04415205866098404
1769667982246623200,4.081623291015625,0.10244408994913101,0.05931335315108299,0.048395536839962006
1769667982256612400,4.0916123046875,0.09823109954595566,0.08683793991804123,0.040869537740945816
1769667982266601200,4.101601318359375,0.09634238481521606,0.10225151479244232,0.02863071672618389
1769667982276589300,4.11158935546875,0.09081735461950302,0.1292661428451538,0.028191527351737022
1769667982286578200,4.121578125,0.0933673307299614,0.15431849658489227,0.027374736964702606
1769667982296567300,4.1315673828125,0.08652664721012115,0.1632583886384964,0.01712801307439804
1769667982306556200,4.14155615234375,0.08515539020299911,0.16198699176311493,0.003803419414907694
1769667982316544300,4.151544189453125,0.07555345445871353,0.15334083139896393,-0.025371115654706955
1769667982326533400,4.161533447265625,0.06484115123748779,0.13487154245376587,-0.02515539899468422
1769667982336522200,4.171522216796875,0.05869690701365471,0.11188436299562454,-0.012967919930815697
1769667982346511400,4.181511474609375,0.038091763854026794,0.08342449367046356,-0.012853404507040977
1769667982356499200,4.191499267578125,0.02206510119140148,0.052128661423921585,-0.01789788156747818
1769667982366488300,4.20148828125,0.015998154878616333,0.02664380893111229,-0.043502047657966614
1769667982376477200,4.211477294921875,0.008563674055039883,-0.002487976336851716,-0.05898353457450867
1769667982386466300,4.22146630859375,0.012962416745722294,-0.03039976954460144,-0.04905393719673157
1769667982396454400,4.231454345703125,0.01494445651769638,-0.04031284525990486,-0.050870366394519806
1769667982406443500,4.241443603515625,0.018271543085575104,-0.043583471328020096,-0.04657495394349098
1769667982416432600,4.2514326171875,0.032921597361564636,-0.039492301642894745,-0.03195619955658913
1769667982426421800,4.261421875,0.04023410752415657,-0.04391661286354065,-0.03323584794998169
1769667982436409600,4.27140966796875,0.02434011548757553,-0.07113976031541824,-0.027994826436042786
1769667982446398700,4.281398681640625,0.03220362961292267,-0.0861155092716217,-0.03502077981829643
1769667982456387800,4.291387939453125,0.036093808710575104,-0.08540569990873337,-0.053227148950099945
1769667982466376700,4.301376708984375,0.03535265102982521,-0.0736055001616478,-0.08468760550022125
1769667982476364500,4.311364501953125,0.042119551450014114,-0.03474853187799454,-0.06452520191669464
1769667982486353700,4.321353759765625,0.052889641374349594,0.015003044158220291,-0.04268195480108261
1769667982496342800,4.3313427734375,0.04376177862286568,0.045999057590961456,-0.02742886357009411
1769667982506331600,4.34133154296875,0.03915184736251831,0.06392799317836761,-0.03326970711350441
1769667982516319700,4.35131982421875,0.04203033447265625,0.08024142682552338,-0.06058179587125778
1769667982526308900,4.361308837890625,0.0376526303589344,0.08819176256656647,-0.08277658373117447
1769667982536297700,4.371297607421875,0.03278330713510513,0.0976041778922081,-0.09990769624710083
1769667982546286600,4.38128662109375,0.025992777198553085,0.1307179182767868,-0.10147096961736679
1769667982556274700,4.391274658203125,0.024054359644651413,0.13419155776500702,-0.08919986337423325
1769667982566263600,4.401263671875,0.01377881783992052,0.13582541048526764,-0.07395379990339279
1769667982576252700,4.411252685546875,0.004572413861751556,0.12910063564777374,-0.06900941580533981
1769667982586241800,4.42124169921875,-0.00574041111394763,0.09858827292919159,-0.06337390094995499
1769667982596230000,4.43122998046875,-0.015880998224020004,0.07388785481452942,-0.0642957016825676
1769667982606218800,4.44121875,-0.026281708851456642,0.046731073409318924,-0.06496229022741318
1769667982616207600,4.45120751953125,-0.03381357342004776,0.023932892829179764,-0.06226503103971481
1769667982626196700,4.46119677734375,-0.038830969482660294,0.002018274739384651,-0.0602538138628006
1769667982636184600,4.4711845703125,-0.041993025690317154,-0.013843599706888199,-0.061717163771390915
1769667982646173700,4.481173583984375,-0.04279144108295441,-0.019668465480208397,-0.06316033005714417
1769667982656162800,4.491162841796875,-0.0399802066385746,-0.0314798429608345,-0.06611543893814087
1769667982666151000,4.50115087890625,-0.03816553205251694,-0.04202835634350777,-0.06192389130592346
1769667982676139500,4.511139404296875,-0.03799358755350113,-0.03753860667347908,-0.06014283001422882
1769667982686128600,4.521128662109375,-0.03450271487236023,-0.04017460346221924,-0.05157863348722458
1769667982696117800,4.53111767578125,-0.03260325267910957,-0.03723227232694626,-0.04229426011443138
1769667982706105600,4.541105712890625,-0.030580051243305206,-0.04080943018198013,-0.03092709183692932
1769667982716094700,4.5510947265625,-0.034179531037807465,-0.043876439332962036,-0.01982594095170498
1769667982726083800,4.561083740234375,-0.036805409938097,-0.03702252730727196,-0.020571360364556313
1769667982736072700,4.57107275390625,-0.03616099804639816,-0.03314852714538574,-0.02647346444427967
1769667982746061800,4.581061767578125,-0.03645607456564903,-0.035087574273347855,-0.03741532564163208
1769667982756049700,4.591049560546875,-0.03598065301775932,-0.03462827578186989,-0.04631811007857323
1769667982766038800,4.601038818359375,-0.03312601149082184,-0.010092840529978275,-0.0509224496781826
1769667982776027600,4.611027587890625,-0.03169390559196472,-0.003926534205675125,-0.03685452789068222
1769667982786015700,4.621015625,-0.023245560005307198,0.003041360527276993,-0.03716665133833885
1769667982796004900,4.6310048828125,-0.02008039318025112,0.014990147203207016,-0.04825219511985779
1769667982805993700,4.64099365234375,-0.017285138368606567,0.01917210966348648,-0.04652274027466774
1769667982815982800,4.65098291015625,-0.017378177493810654,0.039798758924007416,-0.04665549471974373
1769667982825970700,4.660970703125,-0.01934279315173626,0.046174898743629456,-0.04478568956255913
1769667982835959600,4.67095947265625,-0.020749766379594803,0.04052797704935074,-0.05401798337697983
1769667982845948700,4.68094873046875,-0.022573499009013176,0.03144153952598572,-0.06560380011796951
1769667982855937800,4.690937744140625,-0.020909510552883148,0.027799583971500397,-0.07668996602296829
1769667982865926000,4.70092578125,-0.017939288169145584,0.011195573955774307,-0.06921155005693436
1769667982875914800,4.710914794921875,-0.014874491840600967,-0.005752841010689735,-0.04850063472986221
1769667982885903600,4.720903564453125,-0.01874193549156189,-0.0007287880871444941,-0.030039334669709206
1769667982895892700,4.730892822265625,-0.022445520386099815,-0.006737818475812674,-0.01631891541182995
1769667982905880600,4.740880615234375,-0.024288693442940712,-0.025333605706691742,-0.01006794348359108
1769667982915869700,4.75086962890625,-0.025573862716555595,-0.041729241609573364,-0.013378376141190529
1769667982925858800,4.76085888671875,-0.03178861364722252,-0.053763266652822495,-0.013837771490216255
1769667982935847700,4.77084765625,-0.03595130518078804,-0.08006696403026581,-0.015681149438023567
1769667982945835500,4.78083544921875,-0.042361535131931305,-0.10067982971668243,-0.02213478833436966
1769667982955824600,4.79082470703125,-0.043087366968393326,-0.10203168541193008,-0.020588267594575882
1769667982965813800,4.800813720703125,-0.039543233811855316,-0.1082131490111351,-0.022963274270296097
1769667982975802600,4.810802734375,-0.042423900216817856,-0.09699685126543045,-0.013828551396727562
1769667982985790700,4.820790771484375,-0.029607437551021576,-0.06847652792930603,0.0006100423634052277
1769667982995779800,4.83077978515625,-0.016486844047904015,-0.03851757198572159,0.0014316932065412402
1769667983005768700,4.840768798828125,-0.003756401129066944,-0.015398405492305756,0.005440549459308386
1769667983015757800,4.8507578125,0.008320551365613937,0.007550765760242939,0.007808198221027851
1769667983025745700,4.86074560546875,0.01279306411743164,0.027057887986302376,0.01986059918999672
1769667983035734500,4.870734619140625,0.011639818549156189,0.02948635071516037,0.03294571489095688
1769667983045723600,4.8807236328125,0.00966162234544754,0.021283814683556557,0.03366823121905327
1769667983055712800,4.890712646484375,0.004878390114754438,0.002684955717995763,0.027959559112787247
1769667983065700900,4.900700927734375,-0.004120697733014822,-0.020734349265694618,0.023504888638854027
1769667983075689700,4.910689697265625,-0.010918006300926208,-0.03981059417128563,0.019190263003110886
1769667983085678800,4.920678955078125,-0.016553254798054695,-0.04986189678311348,0.019378814846277237
1769667983095667700,4.930667724609375,-0.016801627352833748,-0.05294790118932724,0.015619086101651192
1769667983105655600,4.940655517578125,-0.014819437637925148,-0.05044027045369148,0.013786297291517258
1769667983115644700,4.950644775390625,-0.01191019732505083,-0.043459098786115646,0.014533660374581814
1769667983125633800,4.9606337890625,-0.009761292487382889,-0.030505482107400894,0.018247971311211586
1769667983135622700,4.97062255859375,-0.00675911083817482,-0.023334387689828873,0.025101881474256516
1769667983145610800,4.98061083984375,-0.006591065786778927,-0.018477315083146095,0.02699725329875946
1769667983155599600,4.990599609375,-0.009231301955878735,-0.010489443317055702,0.024194445461034775
1769667983165588700,5.000588623046875,-0.012350396253168583,-0.0056598009541630745,0.015723994001746178
1769667983175577600,5.01057763671875,-0.01422906294465065,-0.00669109495356679,0.007043010555207729
1769667983185565700,5.020565673828125,-0.01326153613626957,-0.008452774956822395,0.00524031650274992
1769667983195554800,5.030554931640625,-0.0116422139108181,-0.006287869997322559,0.00547897769138217
1769667983205543700,5.040543701171875,-0.009349231608211994,-0.0022156306076794863,0.009745893999934196
1769667983215532800,5.05053271484375,-0.008263655006885529,0.005576372146606445,0.012301544658839703
1769667983225520600,5.060520751953125,-0.009748633950948715,0.009992958977818489,0.015240608714520931
1769667983235509800,5.070509765625,-0.00791153684258461,0.009350499138236046,0.016901584342122078
1769667983245498600,5.08049853515625,-0.007906743325293064,0.014195322059094906,0.01429088693112135
1769667983255487700,5.09048779296875,-0.004986395128071308,0.0130082406103611,0.015271523036062717
1769667983265475800,5.100475830078125,-0.005095584783703089,0.010642820969223976,0.01387682557106018
1769667983275464700,5.110464599609375,-0.0054156966507434845,0.010616722516715527,0.013265097513794899
1769667983285453800,5.120453857421875,-0.00540238106623292,0.01502984669059515,0.011075180023908615
1769667983295442700,5.130442626953125,-0.004720306023955345,0.024484243243932724,0.012622054666280746
1769667983305430500,5.140430419921875,-0.001772186835296452,0.03461224213242531,0.019217373803257942
1769667983315419600,5.150419677734375,0.0009065726771950722,0.04263392463326454,0.02045256271958351
1769667983325408800,5.16040869140625,0.003305814228951931,0.04582492262125015,0.02213647961616516
1769667983335397600,5.170397705078125,0.005718542728573084,0.04503602162003517,0.02438359148800373
1769667983345385700,5.1803857421875,0.006284464616328478,0.039527006447315216,0.025682682171463966
1769667983355374800,5.190374755859375,0.004001314751803875,0.031083766371011734,0.029134484007954597
1769667983365363700,5.20036376953125,0.001243877806700766,0.024879932403564453,0.034717533737421036
1769667983375352600,5.2103525390625,-0.0027174281422048807,0.015923425555229187,0.03346240893006325
1769667983385340700,5.220340576171875,-0.003995479084551334,0.00787348859012127,0.032896485179662704
1769667983395329800,5.230329833984375,-0.008051720447838306,0.0029644458554685116,0.03366173803806305
1769667983405318700,5.240318603515625,-0.004649532958865166,0.00724228098988533,0.02843768149614334
1769667983415307300,5.250307373046875,-0.008022351190447807,0.009909289889037609,0.025340834632515907
1769667983425295400,5.26029541015625,-0.007823413237929344,0.004309461452066898,0.02161320671439171
1769667983435284500,5.270284423828125,-0.008148000575602055,-0.008995527401566505,0.016873536631464958
1769667983445273300,5.2802734375,-0.009099282324314117,-0.01299639418721199,0.01417974941432476
1769667983455262500,5.290262451171875,-0.013373800553381443,-0.014828095212578773,0.013829851523041725
1769667983465250300,5.300250244140625,-0.012794563546776772,-0.02033950760960579,0.012300930917263031
1769667983475239200,5.3102392578125,-0.0140510443598032,-0.018609244376420975,0.010842788964509964
1769667983485228300,5.320228271484375,-0.013112280517816544,-0.01665874384343624,0.007732749450951815
1769667983495217400,5.330217529296875,-0.013018053025007248,-0.014706017449498177,0.008169077336788177
1769667983505205500,5.34020556640625,-0.013506210409104824,0.005131601821631193,0.008505701087415218
1769667983515194400,5.3501943359375,-0.013972989283502102,0.026961641386151314,-0.0009216819889843464
1769667983525183500,5.36018359375,-0.009454935789108276,0.041897181421518326,-0.0172876063734293
1769667983535172400,5.37017236328125,-0.003684964030981064,0.04827658459544182,-0.034539662301540375
1769667983545160200,5.38016015625,-0.0010716040851548314,0.059326041489839554,-0.040008995682001114
1769667983555149300,5.3901494140625,0.002246701158583164,0.07062873989343643,-0.027949485927820206
1769667983565138400,5.400138427734375,0.003299448639154434,0.0684385597705841,-0.013789989985525608
1769667983575127300,5.410127197265625,0.003489407245069742,0.05124131962656975,-0.004298673011362553
1769667983585115400,5.420115478515625,-0.001465137698687613,0.03121781162917614,0.0008098026737570763
1769667983595104300,5.430104248046875,-0.002292944584041834,0.020564569160342216,0.0047138710506260395
1769667983605093000,5.440093017578125,-0.005696730688214302,0.014461935497820377,0.00755999144166708
1769667983615082200,5.450082275390625,-0.006455402821302414,0.012513695284724236,0.001221962389536202
1769667983625070300,5.4600703125,-0.005543802864849567,0.018409403041005135,-0.005713441409170628
1769667983635059500,5.4700595703125,-0.0016814603004604578,0.0380345955491066,-0.006381205283105373
1769667983645048300,5.48004833984375,-0.000759473885409534,0.05653024837374687,-0.0034093838185071945
1769667983655037400,5.490037353515625,0.007265695370733738,0.07328952103853226,-0.005780662409961224
1769667983665025300,5.500025390625,0.012538221664726734,0.0867408812046051,-0.00937033724039793
1769667983675014100,5.51001416015625,0.01537695899605751,0.09615713357925415,-0.019072825089097023
1769667983685003300,5.520003173828125,0.01598495990037918,0.09656859189271927,-0.03042002022266388
1769667983694992400,5.529992431640625,0.015295272693037987,0.08513975888490677,-0.03779556602239609
1769667983704980500,5.53998046875,0.008691432885825634,0.0769558697938919,-0.04224357753992081
1769667983714969300,5.54996923828125,0.0032992337364703417,0.06025351211428642,-0.041727252304553986
1769667983724958500,5.55995849609375,-0.0021378756500780582,0.03608692064881325,-0.03309488296508789
1769667983734947300,5.569947265625,-0.001986248418688774,0.01873171329498291,-0.025229502469301224
1769667983744935200,5.57993505859375,-0.0008147239568643272,0.012366226874291897,-0.016502322629094124
1769667983754924300,5.58992431640625,0.0005630247760564089,0.008791538886725903,-0.008546332828700542
1769667983764913400,5.599913330078125,0.005101850256323814,0.01226323563605547,-0.00856524147093296
1769667983774902300,5.60990234375,0.008427223190665245,0.018132271245121956,-0.016218019649386406
1769667983784890400,5.619890380859375,0.011868293397128582,0.02400321140885353,-0.026985447853803635
1769667983794879500,5.62987939453125,0.016648640856146812,0.020477227866649628,-0.03504754602909088
1769667983804868000,5.6398681640625,0.01790645159780979,0.0141114741563797,-0.03797968849539757
1769667983814857200,5.649857177734375,0.018846550956368446,0.021754225715994835,-0.040300700813531876
1769667983824845300,5.65984521484375,0.01952299289405346,0.019516371190547943,-0.0353405624628067
1769667983834834400,5.66983447265625,0.015337889082729816,0.02000918798148632,-0.030418800190091133
1769667983844823300,5.6798232421875,0.012039297260344028,0.0177841167896986,-0.02655668370425701
1769667983854812400,5.6898125,0.01137765683233738,0.008818560279905796,-0.021986421197652817
1769667983864800300,5.69980029296875,0.012031462043523788,0.013341939076781273,-0.023408016189932823
1769667983874789000,5.7097890625,0.012611194513738155,0.015513032674789429,-0.022521764039993286
1769667983884778200,5.7197783203125,0.015178747475147247,0.01341605931520462,-0.020590173080563545
1769667983894767400,5.729767333984375,0.020033858716487885,0.007978350855410099,-0.015784356743097305
1769667983904755500,5.73975537109375,0.02097688429057598,0.00615035742521286,-0.010204766876995564
1769667983914744300,5.749744384765625,0.02090359479188919,-0.0014259940944612026,-0.007641772739589214
1769667983924733400,5.7597333984375,0.018956024199724197,-0.0005636624991893768,-0.0061669135466217995
1769667983934722300,5.769722412109375,0.018124878406524658,0.0028297128155827522,-0.005931969732046127
1769667983944710100,5.779710205078125,0.015405790880322456,0.002323179505765438,-0.0057601965963840485
1769667983954699300,5.78969921875,0.015325633808970451,0.0004597591469064355,-0.007939668372273445
1769667983964688400,5.7996884765625,0.013611090369522572,0.004188717342913151,-0.013998093083500862
1769667983974677200,5.80967724609375,0.011699691414833069,0.004903871566057205,-0.020427927374839783
1769667983984665300,5.819665283203125,0.009257839061319828,0.0018231271533295512,-0.028742048889398575
1769667983994654500,5.829654541015625,0.0083615155890584,-0.004857338033616543,-0.034615322947502136
1769667984004643300,5.839643310546875,0.006767081096768379,-0.0030719551723450422,-0.03522465378046036
1769667984014632200,5.849632080078125,0.006368250586092472,0.004016081336885691,-0.031049691140651703
1769667984024620300,5.859620361328125,0.006851081736385822,0.002750813728198409,-0.02253849431872368
1769667984034609400,5.869609375,0.006240452639758587,0.00322746392339468,-0.013520730659365654
1769667984044598300,5.879598388671875,0.0082175824791193,0.013783968985080719,-0.00968205090612173
1769667984054586400,5.88958642578125,0.010678586550056934,0.017312433570623398,-0.009431364946067333
1769667984064575500,5.899575439453125,0.011900445446372032,0.014208519831299782,-0.0112479068338871
1769667984074564000,5.909564208984375,0.011156252585351467,0.018565921112895012,-0.016713159158825874
1769667984084553200,5.91955322265625,0.011799139901995659,0.011204944923520088,-0.01668679341673851
1769667984094541300,5.929541259765625,0.01084807701408863,0.004243538714945316,-0.014451500028371811
1769667984104530400,5.939530517578125,0.01270882785320282,0.0014871670864522457,-0.01655246876180172
1769667984114519300,5.949519287109375,0.011048231273889542,-0.0057334890589118,-0.02199169248342514
1769667984124508400,5.95950830078125,0.009099863469600677,-0.011555158533155918,-0.017699740827083588
1769667984134496300,5.969496337890625,0.00959954597055912,-0.0031248123850673437,-0.019962690770626068
1769667984144485000,5.979485107421875,0.006921205669641495,0.00766125600785017,-0.020783478394150734
1769667984154474200,5.98947412109375,0.005586331710219383,0.025364819914102554,-0.020076265558600426
1769667984164463400,5.99946337890625,0.004533317871391773,0.031323377043008804,-0.025844406336545944
1769667984174451500,6.009451416015625,0.009134190157055855,0.040132585912942886,-0.028035979717969894
1769667984184440300,6.0194404296875,0.011224505491554737,0.04509751871228218,-0.02542821317911148
1769667984194429400,6.029429443359375,0.012689684517681599,0.04326731339097023,-0.020542114973068237
1769667984204418300,6.039418212890625,0.012447337619960308,0.03682752326130867,-0.015241624787449837
1769667984214406100,6.04940625,0.009465630166232586,0.03239155560731888,-0.008939823135733604
1769667984224395300,6.059395263671875,0.005481807515025139,0.02992280200123787,-0.01450449787080288
1769667984234384400,6.06938427734375,0.001909789047203958,0.0301215797662735,-0.023020755499601364
1769667984244373200,6.079373291015625,0.004779078532010317,0.0319325290620327,-0.03039025515317917
1769667984254361300,6.089361328125,0.005752513185143471,0.032767608761787415,-0.0319526344537735
1769667984264350500,6.0993505859375,0.008532321080565453,0.03549282252788544,-0.027118463069200516
1769667984274339300,6.10933935546875,0.006774753797799349,0.0325218103826046,-0.016299530863761902
1769667984284328200,6.119328125,0.0010367071954533458,0.0239296555519104,-0.007034126669168472
1769667984294316300,6.12931640625,-0.0037963136564940214,0.012204648926854134,0.0022109211422502995
1769667984304305400,6.139305419921875,-0.008884282782673836,0.00046090735122561455,-0.000863698311150074
1769667984314294300,6.149294189453125,-0.014149725437164307,-0.014656558632850647,-0.0010742838494479656
1769667984324283400,6.159283447265625,-0.015772921964526176,-0.02610122598707676,-0.0024231751449406147
1769667984334271500,6.169271484375,-0.0152254244312644,-0.02408006601035595,-0.003178547602146864
1769667984344260000,6.179260009765625,-0.010569153353571892,-0.020242983475327492,-0.005104545969516039
1769667984354249200,6.189249267578125,-0.004891005344688892,-0.012163006700575352,-0.0033950796350836754
1769667984364238300,6.19923828125,0.00026407535187900066,-0.00311651430092752,-0.0006802533753216267
1769667984374226400,6.209226318359375,0.004146288149058819,0.004277251660823822,-0.0005204889457672834
1769667984384215300,6.21921533203125,0.006056040991097689,0.008601958863437176,-0.0030795203056186438
1769667984394204400,6.229204345703125,0.007868128828704357,0.014668766409158707,-0.011599425226449966
1769667984404193300,6.239193359375,0.010559252463281155,0.021333858370780945,-0.011354412883520126
1769667984414181600,6.249181640625,0.014385507442057133,0.031093625351786613,-0.01960781216621399
1769667984424170800,6.259170654296875,0.015500306151807308,0.039766207337379456,-0.021088529378175735
1769667984434159900,6.269159912109375,0.019910214468836784,0.05009317770600319,-0.019355136901140213
1769667984444148700,6.279148681640625,0.01765052229166031,0.052965130656957626,-0.011219712905585766
1769667984454136600,6.289136474609375,0.014071738347411156,0.04509316012263298,-0.001966397976502776
1769667984464125700,6.299125732421875,0.011220291256904602,0.04183877632021904,-0.0032617596443742514
1769667984474114600,6.309114501953125,0.00896769855171442,0.027705825865268707,-0.009387768805027008
1769667984484103700,6.319103759765625,0.0010602405527606606,0.019154416397213936,-0.02136719971895218
1769667984494091800,6.329091796875,0.005811582785099745,0.017744818702340126,-0.027651317417621613
1769667984504081000,6.339080810546875,-0.002872719429433346,0.018700094893574715,-0.03523360192775726
1769667984514069800,6.34906982421875,-0.0019010752439498901,0.026836609467864037,-0.029569020494818687
1769667984524059000,6.359058837890625,-0.003033184912055731,0.034709446132183075,-0.03090859018266201
1769667984534046700,6.369046630859375,-0.004780170973390341,0.024798927828669548,-0.022228917106986046
1769667984544035600,6.37903564453125,-0.006302433554083109,0.01836446486413479,-0.018196359276771545
1769667984554024700,6.389024658203125,-0.00947684608399868,0.016763215884566307,-0.016744466498494148
1769667984564013800,6.399013916015625,-0.0139837134629488,-0.0017433564644306898,-0.012745995074510574
1769667984574001700,6.409001708984375,-0.017337674275040627,-0.0006954462733119726,-0.013786843046545982
1769667984583990800,6.41899072265625,-0.011859285645186901,-0.002288016490638256,-0.003040188690647483
1769667984593979600,6.428979736328125,-0.016502290964126587,-0.012732315808534622,-0.015569395385682583
1769667984603968500,6.438968505859375,-0.01414565835148096,-0.02818850427865982,-0.024221736937761307
1769667984613956600,6.44895654296875,-0.011374717578291893,-0.032733820378780365,-0.026443079113960266
1769667984623945700,6.45894580078125,-0.012582194991409779,-0.029792362824082375,-0.0066890837624669075
1769667984633934800,6.468934814453125,-0.01434738002717495,-0.02670220471918583,0.004616194404661655
1769667984643923700,6.478923828125,-0.009040499106049538,-0.021271221339702606,0.002511498285457492
1769667984653911600,6.48891162109375,-0.004312685690820217,-0.02057461254298687,-0.009203010238707066
1769667984663900700,6.498900634765625,-0.0017880091909319162,-0.024936869740486145,-0.012397738173604012
1769667984673889500,6.5088896484375,-0.005775812081992626,-0.03066323697566986,-0.008774910122156143
1769667984683878700,6.518878662109375,-0.004571530036628246,-0.038087066262960434,-0.006775675341486931
1769667984693866800,6.52886669921875,-0.005979364737868309,-0.04367313161492348,-0.0031688997987657785
1769667984703855900,6.53885595703125,-0.0013334802351891994,-0.05681769922375679,0.0036410694010555744
1769667984713844700,6.5488447265625,-0.004146359395235777,-0.06176415830850601,0.01215902715921402
1769667984723833900,6.558833740234375,-0.00154445122461766,-0.06181182712316513,0.015137240290641785
1769667984733821700,6.56882177734375,-0.007383094169199467,-0.05686621740460396,0.011970354244112968
1769667984743810600,6.578810546875,-0.0022591720335185528,-0.040539711713790894,0.008905588649213314
1769667984753799700,6.588799560546875,0.004007966723293066,-0.016130078583955765,-0.002008844166994095
1769667984763788800,6.598788818359375,0.014191894792020321,-0.000604382948949933,-0.005576947703957558
1769667984773777000,6.60877685546875,0.01640200987458229,0.006294360384345055,-0.008103862404823303
1769667984783765800,6.618765869140625,0.013909557834267616,0.006200084462761879,0.01351914182305336
1769667984793755000,6.6287548828125,0.016499700024724007,0.009159751236438751,0.014430046081542969
1769667984803743500,6.638743408203125,0.004924270324409008,-0.007884745486080647,0.011961296200752258
1769667984813731600,6.648731689453125,-0.0009639794006943703,-0.022855715826153755,0.004939669277518988
1769667984823720700,6.658720703125,-0.008322560228407383,-0.026815036311745644,0.0020831627771258354
1769667984833709800,6.668709716796875,-0.011572971008718014,-0.026984093710780144,0.0029883894603699446
1769667984843698700,6.67869873046875,-0.012473119422793388,-0.029093584045767784,-0.0015778662636876106
1769667984853686800,6.688686767578125,-0.010826392099261284,-0.026296934112906456,-0.0025995937176048756
1769667984863675600,6.698675537109375,-0.009403998032212257,-0.023351745679974556,-0.0009721359238028526
1769667984873664500,6.70866455078125,-0.011102790012955666,-0.021658848971128464,0.0045802718959748745
1769667984883653600,6.718653564453125,-0.009360283613204956,-0.010493279434740543,0.008989933878183365
1769667984893641700,6.728641845703125,-0.010266815312206745,-0.006547809578478336,0.011383104138076305
1769667984903630800,6.738630859375,-0.008447343483567238,-0.012366017326712608,0.012471005320549011
1769667984913619700,6.74861962890625,-0.004970027599483728,-0.017299043014645576,0.017473464831709862
1769667984923608800,6.75860888671875,-0.008203904144465923,-0.020364075899124146,0.02425520494580269
1769667984933596700,6.7685966796875,-0.009074395522475243,-0.019087281078100204,0.03103194758296013
1769667984943585500,6.77858544921875,-0.013282989151775837,-0.017884330824017525,0.03364557400345802
1769667984953574700,6.78857470703125,-0.018482688814401627,-0.016463246196508408,0.028455911204218864
1769667984963563800,6.798563720703125,-0.019837170839309692,-0.006566140800714493,0.016437064856290817
1769667984973551900,6.8085517578125,-0.018233757466077805,-0.0026218516286462545,0.0022702370770275593
1769667984983540700,6.818540771484375,-0.016057955101132393,0.001006705453619361,-0.009960330091416836
1769667984993529900,6.82852978515625,-0.012508541345596313,0.004718449432402849,-0.008749821223318577
1769667985003518500,6.8385185546875,-0.007029087748378515,0.013552420772612095,-0.002025605645030737
1769667985013506600,6.848506591796875,-0.0029657327104359865,0.014860225841403008,0.011523963883519173
1769667985023495700,6.85849560546875,-0.0005936551024205983,0.010497701354324818,0.022171813994646072
1769667985033484800,6.86848486328125,-0.002763500902801752,0.00781436637043953,0.034100234508514404
1769667985043473700,6.8784736328125,-0.008564664050936699,0.0069411154836416245,0.04201541468501091
1769667985053461800,6.888461669921875,-0.010628566145896912,-0.006017122883349657,0.050580304116010666
1769667985063451000,6.898450927734375,-0.00920830201357603,-0.018823998048901558,0.04806841164827347
1769667985073439500,6.908439453125,-0.011208870448172092,-0.02761482074856758,0.03745272383093834
1769667985083428600,6.9184287109375,-0.011359073221683502,-0.03343702107667923,0.03214371204376221
1769667985093416700,6.928416748046875,-0.00869813747704029,-0.029960080981254578,0.025201918557286263
1769667985103405800,6.93840576171875,-0.0042551858350634575,-0.02328779734671116,0.02019570954144001
1769667985113394700,6.948394775390625,-0.00008678191807121038,-0.012401370331645012,0.018017692491412163
1769667985123383800,6.9583837890625,0.0030091428197920322,-0.00547129288315773,0.017234455794095993
1769667985133371600,6.96837158203125,0.004537458065897226,-0.011251810938119888,0.015466569922864437
1769667985143360500,6.978360595703125,0.00243116426281631,-0.017053507268428802,0.014319812878966331
1769667985153349600,6.988349609375,0.00020650215446949005,-0.01987888664007187,0.014033548533916473
1769667985163338800,6.9983388671875,-0.0028436160646378994,-0.02704119309782982,0.017474617809057236
1769667985173326800,7.008326904296875,-0.0046251267194747925,-0.024317316710948944,0.027352647855877876
1769667985183315700,7.018315673828125,-0.0027973996475338936,-0.02182060293853283,0.030101295560598373
1769667985193304800,7.028304931640625,-0.0010557135101407766,-0.018784021958708763,0.026992134749889374
1769667985203293700,7.038293701171875,0.004283391870558262,-0.022047992795705795,0.018927816301584244
1769667985213281500,7.048281494140625,0.004327648319303989,-0.008439334109425545,0.01774314045906067
1769667985223270700,7.058270751953125,-0.0006532619590871036,0.00008730846457183361,0.01786031946539879
1769667985233259800,7.068259765625,-0.0005189165822230279,0.0028873784467577934,0.015000658109784126
1769667985243247900,7.078247802734375,-0.0018888466292992234,-0.006007579620927572,0.020180506631731987
1769667985253236700,7.08823681640625,-0.0053006974048912525,-0.009915106929838657,0.020030023530125618
1769667985263225900,7.098225830078125,-0.0068914033472537994,-0.015523191541433334,0.018254229798913002
1769667985273214700,7.108214599609375,-0.009584630839526653,-0.014812692068517208,0.014954688027501106
1769667985283203600,7.11820361328125,-0.0092964768409729,-0.016874246299266815,0.011916287243366241
1769667985293191700,7.128191650390625,-0.010909626260399818,-0.007923753932118416,0.004826339427381754
1769667985303180800,7.138180908203125,-0.008102654479444027,0.0015294022159650922,-0.0024478186387568712
1769667985313169700,7.148169677734375,-0.007360630668699741,0.0066792890429496765,-0.004081379156559706
1769667985323157800,7.15815771484375,-0.004919044673442841,0.015820058062672615,-0.005049970466643572
1769667985333147000,7.16814697265625,-0.004349413327872753,0.022659359499812126,-0.002254841849207878
1769667985343135500,7.178135498046875,-0.001966150477528572,0.025299349799752235,0.0021636085584759712
1769667985353124600,7.18812451171875,-0.0017890753224492073,0.025830693542957306,0.0031879448797553778
1769667985363113700,7.19811376953125,-0.0018934712279587984,0.0262775719165802,-0.0008526032324880362
1769667985373101800,7.208101806640625,-0.003029370680451393,0.022269364446401596,-0.006310028024017811
1769667985383090700,7.218090576171875,-0.001933479798026383,0.020269330590963364,-0.01015669759362936
1769667985393079800,7.228079833984375,-0.0008205447811633348,0.02240545116364956,-0.009955628775060177
1769667985403068700,7.238068603515625,-0.0014799435157328844,0.023877913132309914,-0.011228886432945728
1769667985413056500,7.248056396484375,-0.0010508719133213162,0.0234253890812397,-0.012689332477748394
1769667985423045600,7.258045654296875,-0.0006439408753067255,0.02378970943391323,-0.009888752363622189
1769667985433034500,7.268034423828125,-0.002805848140269518,0.021590355783700943,-0.007791485637426376
1769667985443022600,7.278022705078125,-0.0017608237685635686,0.014855487272143364,-0.0036372209433466196
1769667985453011500,7.288011474609375,-0.003154238685965538,0.00965842418372631,-0.0023417563643306494
1769667985463000600,7.29800048828125,-0.0004969365545548499,0.004835172556340694,-0.004882677458226681
1769667985472989400,7.307989501953125,0.0008203132310882211,0.0007836289005354047,-0.0016493010334670544
1769667985482978600,7.317978515625,0.004259252920746803,0.005676655098795891,-0.0010788515210151672
1769667985492966700,7.327966552734375,0.006418933160603046,0.009118271991610527,0.002137817908078432
1769667985502955500,7.33795556640625,0.008849866688251495,0.016560740768909454,0.002958337776362896
1769667985512944400,7.3479443359375,0.012502729892730713,0.02428775280714035,0.0016016028821468353
1769667985522932500,7.357932373046875,0.014292906038463116,0.02909582480788231,0.0024410311598330736
1769667985532921600,7.367921630859375,0.015388046391308308,0.026673318818211555,0.004630579147487879
1769667985542910500,7.377910400390625,0.014078037813305855,0.029064038768410683,0.005438315682113171
1769667985552899600,7.387899658203125,0.012700144201517105,0.027174748480319977,0.011765902861952782
1769667985562887400,7.397887451171875,0.011230877600610256,0.023055903613567352,0.005442492663860321
1769667985572876500,7.40787646484375,0.009738539345562458,0.018908636644482613,0.004286208655685186
1769667985582865400,7.417865478515625,0.010287683457136154,0.015593267977237701,0.0023916359059512615
1769667985592854500,7.4278544921875,0.008868337608873844,0.009731946513056755,0.0024030671920627356
1769667985602842600,7.437842529296875,0.0067082480527460575,0.007991038262844086,0.005733350291848183
1769667985612831500,7.44783154296875,0.0038832146674394608,0.007932351902127266,0.012603138573467731
1769667985622820600,7.457820556640625,0.0012464189203456044,0.003254509763792157,0.01816168799996376
1769667985632809700,7.467809814453125,0.002249367069453001,-0.001528801629319787,0.019434208050370216
1769667985642797600,7.477797607421875,0.0011185890762135386,-0.006478819064795971,0.019957786425948143
1769667985652786400,7.487786376953125,0.003998483065515757,-0.008147459477186203,0.020178398117423058
1769667985662775600,7.497775634765625,0.005661893170326948,-0.012205052189528942,0.02013871632516384
1769667985672764400,7.507764404296875,0.004800188820809126,-0.013081949204206467,0.02074325457215309
1769667985682752500,7.51775244140625,0.007126726675778627,-0.012936540879309177,0.022700145840644836
1769667985692741600,7.52774169921875,0.008741910569369793,-0.013459816575050354,0.01916893944144249
1769667985702730500,7.53773046875,0.009821822866797447,-0.014225209131836891,0.009072097018361092
1769667985712719400,7.54771923828125,0.00992643740028143,-0.014404334127902985,0.002814504550769925
1769667985722707500,7.55770751953125,0.006540494039654732,-0.00883726216852665,-0.003561103018000722
1769667985732696600,7.567696533203125,0.008910628035664558,-0.008790504187345505,0.00006379210390150547
1769667985742685400,7.577685546875,0.008605429902672768,-0.004408539272844791,0.004513934254646301
1769667985752674600,7.587674560546875,0.004457127768546343,-0.003189282724633813,0.00946945883333683
1769667985762662700,7.59766259765625,-0.001165071502327919,-0.012114333920180798,0.01590871624648571
1769667985772651500,7.607651611328125,-0.007555715274065733,-0.03004276566207409,0.016309279948472977
1769667985782640400,7.617640380859375,-0.01779264025390148,-0.0494670644402504,0.014512977562844753
1769667985792629500,7.62762939453125,-0.0221798587590456,-0.0691349059343338,0.010182959958910942
1769667985802617600,7.63761767578125,-0.02518736757338047,-0.08393009752035141,0.007769869640469551
1769667985812606500,7.6476064453125,-0.026939459145069122,-0.0902673602104187,0.014132223092019558
1769667985822595600,7.657595703125,-0.023046450689435005,-0.08510775864124298,0.01940235309302807
1769667985832584700,7.667584716796875,-0.022175949066877365,-0.08378054201602936,0.026491962373256683
1769667985842572500,7.677572509765625,-0.023034552112221718,-0.0806976705789566,0.027448570355772972
1769667985852561400,7.6875615234375,-0.020055437460541725,-0.07286553084850311,0.022047990933060646
1769667985862550500,7.697550537109375,-0.020726021379232407,-0.06385605782270432,0.014781555160880089
1769667985872539600,7.70753955078125,-0.02014237642288208,-0.047245681285858154,0.013707724399864674
1769667985882527500,7.717527587890625,-0.018534891307353973,-0.025661025196313858,0.007674066815525293
1769667985892516600,7.7275166015625,-0.015097278170287609,-0.007456177845597267,0.005388205870985985
1769667985902505700,7.737505615234375,-0.010756591334939003,0.008869532495737076,0.00562922190874815
1769667985912494300,7.747494384765625,-0.010212217457592487,0.021678494289517403,0.0021454570814967155
1769667985922482400,7.757482421875,-0.01140504702925682,0.028873024508357048,-0.0018255822360515594
1769667985932471600,7.767471435546875,-0.014907661825418472,0.038662590086460114,-0.009917842224240303
1769667985942460400,7.77746044921875,-0.010025287978351116,0.04705687239766121,-0.029957596212625504
1769667985952449500,7.787449462890625,-0.008069219999015331,0.060557279735803604,-0.04599720239639282
1769667985962437600,7.797437744140625,-0.007984264753758907,0.07587604224681854,-0.04424457624554634
1769667985972426500,7.807426513671875,-0.009486919268965721,0.09261474758386612,-0.033620551228523254
1769667985982415400,7.817415283203125,-0.01640447974205017,0.09023121744394302,-0.018092989921569824
1769667985992404500,7.827404541015625,-0.020570926368236542,0.07396689057350159,-0.00398267712444067
1769667986002392600,7.837392578125,-0.027042940258979797,0.06001991033554077,0.003206792287528515
1769667986012381400,7.84738134765625,-0.031897298991680145,0.04042080044746399,0.007615940645337105
1769667986022370600,7.85737060546875,-0.03889847919344902,0.02785520628094673,0.010482033714652061
1769667986032359700,7.867359619140625,-0.044895023107528687,0.014170370995998383,0.007798365317285061
1769667986042347500,7.877347412109375,-0.046635664999485016,0.010172432288527489,0.005715507082641125
1769667986052336400,7.88733642578125,-0.047900762408971786,0.015029690228402615,0.011683653108775616
1769667986062325500,7.897325439453125,-0.04492681100964546,0.02147027850151062,0.012327072210609913
1769667986072314600,7.907314697265625,-0.03836667537689209,0.026543376967310905,0.009975852444767952
1769667986082302500,7.917302490234375,-0.03155351057648659,0.03260606527328491,0.003834070870652795
1769667986092291600,7.92729150390625,-0.023776110261678696,0.03972064331173897,-0.0017648818902671337
1769667986102280700,7.93728076171875,-0.014835079200565815,0.051867853850126266,-0.008604145608842373
1769667986112269600,7.94726953125,-0.007657204754650593,0.06537595391273499,-0.013292004354298115
1769667986122257400,7.95725732421875,0.00006596231833100319,0.08194747567176819,-0.02099919319152832
1769667986132246500,7.96724658203125,0.010946061462163925,0.0996159091591835,-0.02435891330242157
1769667986142235400,7.9772353515625,0.014005500823259354,0.10666768997907639,-0.026991715654730797
1769667986152224500,7.987224609375,0.017019597813487053,0.09605274349451065,-0.024833573028445244
1769667986162212600,7.997212646484375,0.015835821628570557,0.08032038807868958,-0.02197440341114998
1769667986172201700,8.00720166015625,0.009508853778243065,0.05551137030124664,-0.015960780903697014
1769667986182190300,8.0171904296875,0.007695773616433144,0.029816390946507454,-0.01100543700158596
1769667986192179500,8.027179443359374,0.00599115714430809,0.014850609004497528,-0.014396029524505138
1769667986202167600,8.03716748046875,0.01028976496309042,0.014631163328886032,-0.023777280002832413
1769667986212156400,8.047156494140625,0.012503940612077713,0.016459645703434944,-0.03593575954437256
1769667986222145500,8.0571455078125,0.018363695591688156,0.023669622838497162,-0.043261583894491196
1769667986232133600,8.067133544921875,0.022743720561265945,0.036263059824705124,-0.05188823863863945
1769667986242122800,8.077122802734374,0.027249524369835854,0.048850491642951965,-0.058347202837467194
1769667986252111400,8.087111328125,0.031645845621824265,0.05822538584470749,-0.054615434259176254
1769667986262100500,8.0971005859375,0.0355316661298275,0.060367897152900696,-0.0694604218006134
1769667986272088600,8.107088623046875,0.03524687886238098,0.056417033076286316,-0.080680713057518
1769667986282077400,8.117077392578125,0.04053298383951187,0.05071520432829857,-0.07985327392816544
1769667986292066600,8.127066650390624,0.036517854779958725,0.04432788863778114,-0.0684465765953064
1769667986302055700,8.1370556640625,0.03211405128240585,0.037790097296237946,-0.05284151807427406
1769667986312043500,8.14704345703125,0.03150608018040657,0.02501513808965683,-0.04248883202672005
1769667986322032400,8.157032470703125,0.029669031500816345,0.010949386283755302,-0.040244054049253464
1769667986332021500,8.167021484375,0.026055555790662766,0.013195155188441277,-0.03569676727056503
1769667986342010600,8.1770107421875,0.024861127138137817,0.010217474773526192,-0.031378984451293945
1769667986351998500,8.18699853515625,0.023845449090003967,0.005362446419894695,-0.025339635089039803
1769667986361987600,8.196987548828124,0.021952740848064423,0.013660856522619724,-0.02357316017150879
1769667986371976700,8.206976806640625,0.022205788642168045,0.016046419739723206,-0.023979129269719124
1769667986381965600,8.216965576171875,0.020000426098704338,0.009433791041374207,-0.026748551055788994
1769667986391953400,8.226953369140626,0.022061610594391823,0.0028320131823420525,-0.030170300975441933
1769667986401942500,8.236942626953125,0.020045598968863487,0.0020911218598484993,-0.032280322164297104
1769667986411932200,8.24693212890625,0.01839591935276985,0.0024828354362398386,-0.030159030109643936
1769667986421921300,8.25692138671875,0.014495452865958214,0.006225375458598137,-0.026863902807235718
1769667986431909000,8.2669091796875,0.010244973935186863,0.00798774603754282,-0.027647346258163452
1769667986441898000,8.27689794921875,0.010603435337543488,0.005808747373521328,-0.03164901211857796
1769667986451887000,8.28688720703125,0.008697315119206905,0.006337044760584831,-0.03857169300317764
1769667986461876200,8.296876220703124,0.009002246893942356,0.0010605236748233438,-0.04204392433166504
1769667986471864300,8.3068642578125,0.00871752854436636,-0.004560825414955616,-0.03982362151145935
1769667986481853200,8.316853271484375,0.01326487585902214,0.0024464838206768036,-0.029465259984135628
1769667986491842300,8.32684228515625,0.014618273824453354,0.011369707994163036,-0.017485152930021286
1769667986501831200,8.3368310546875,0.011939133517444134,0.015645412728190422,-0.0014127085451036692
1769667986511819000,8.346819091796876,0.009753065183758736,0.014101875945925713,0.0022496480960398912
1769667986521808100,8.35680810546875,0.004400378093123436,0.00830630399286747,0.0013494995655491948
1769667986531797200,8.36679736328125,-0.0011102603748440742,0.0010300674475729465,-0.000517355278134346
1769667986541786000,8.3767861328125,-0.003392057027667761,-0.0034549622796475887,-0.007631457410752773
1769667986551774200,8.386774169921875,-0.005181072745472193,-0.0023528900928795338,-0.012508047744631767
1769667986561763300,8.396763427734374,-0.004614085424691439,0.0044317785650491714,-0.011460892856121063
1769667986571752200,8.406752197265625,-0.0007075404864735901,0.010212543420493603,-0.013643050566315651
1769667986581741000,8.416740966796874,0.0014893010957166553,0.019355176016688347,-0.015994355082511902
1769667986591729200,8.426729248046875,0.004762471187859774,0.0268961600959301,-0.021348150447010994
1769667986601718300,8.43671826171875,0.006448252126574516,0.026276441290974617,-0.029912076890468597
1769667986611707100,8.44670703125,0.0068969218991696835,0.02134121209383011,-0.04154457896947861
1769667986621696300,8.4566962890625,0.010477009229362011,0.01147792860865593,-0.04428150877356529
1769667986631684400,8.466684326171874,0.008960678242146969,0.012870622798800468,-0.04111333563923836
1769667986641673200,8.476673095703125,0.007259450852870941,0.01949283853173256,-0.040975116193294525
1769667986651662000,8.486662109375,0.008231616578996181,0.02252062037587166,-0.04365912452340126
1769667986661651200,8.496651123046876,0.008350660093128681,0.01868540048599243,-0.03722172975540161
1769667986671639300,8.506639404296875,0.009793690405786037,0.02348390407860279,-0.028770361095666885
1769667986681628200,8.516628173828124,0.006301753222942352,0.02390574850142002,-0.02475830912590027
1769667986691617300,8.5266171875,0.004322347696870565,0.021052991971373558,-0.02182959020137787
1769667986701606400,8.5366064453125,0.0001760721206665039,0.022824527695775032,-0.02375239133834839
1769667986711594000,8.546593994140625,-0.003949382342398167,0.017729803919792175,-0.025865713134407997
1769667986721583000,8.5565830078125,-0.005641289055347443,0.012927059084177017,-0.027297694236040115
1769667986731572200,8.566572265625,-0.005401390604674816,0.007952642627060413,-0.032294273376464844
1769667986741561000,8.57656103515625,-0.006395548582077026,0.0055560641922056675,-0.03372545540332794
1769667986751549200,8.586549072265624,-0.00787079706788063,0.006505458150058985,-0.027951762080192566
1769667986761538300,8.596538330078126,-0.006868649274110794,0.010510053485631943,-0.02255353331565857
1769667986771527200,8.606527099609375,-0.007999714463949203,0.006274607963860035,-0.017113149166107178
1769667986781516300,8.616516357421874,-0.007939526811242104,0.0029642987065017223,-0.015888361260294914
1769667986791504100,8.626504150390625,-0.008254626765847206,0.0023140511475503445,-0.013304994441568851
1769667986801493200,8.6364931640625,-0.010490349493920803,-0.0009999864269047976,-0.011331059038639069
1769667986811482000,8.646482177734375,-0.010907039977610111,-0.0008254759013652802,-0.012697996571660042
1769667986821471200,8.65647119140625,-0.013250621035695076,-0.0006760724354535341,-0.015667688101530075
1769667986831459300,8.666459228515626,-0.012871868908405304,-0.0010056181345134974,-0.01768474280834198
1769667986841448200,8.6764482421875,-0.01065052580088377,-0.0010514245368540287,-0.020120203495025635
1769667986851437000,8.68643701171875,-0.009004770778119564,0.0005967025645077229,-0.019149746745824814
1769667986861426200,8.69642626953125,-0.00559565844014287,0.003884641220793128,-0.018482625484466553
1769667986871414300,8.706414306640625,-0.008803987875580788,0.004761915188282728,-0.015284230001270771
1769667986881403100,8.716403076171876,-0.010196820832788944,0.00003800005652010441,-0.015654675662517548
1769667986891392300,8.726392333984375,-0.009902951307594776,0.0005096778040751815,-0.013222701847553253
1769667986901381400,8.73638134765625,-0.01019243709743023,0.0009746657451614738,-0.00998056959360838
1769667986911369000,8.746368896484375,-0.011045913212001324,-0.0006529258098453283,-0.008974138647317886
1769667986921358000,8.756358154296874,-0.011204104870557785,-0.001026300946250558,-0.009282799437642097
1769667986931347200,8.76634716796875,-0.014073493890464306,0.000771496444940567,-0.007498079910874367
1769667986941336000,8.776336181640625,-0.006388143636286259,0.0029840506613254547,-0.007515656761825085
1769667986951324200,8.78632421875,-0.0013965244870632887,0.001130949705839157,-0.01648329384624958
1769667986961313300,8.796313232421875,0.004053101874887943,0.01144164428114891,-0.011192657984793186
1769667986971302100,8.80630224609375,0.008032445795834064,0.02288088947534561,-0.002480760682374239
1769667986981291300,8.816291259765626,0.01074540801346302,0.025110753253102303,0.000150974839925766
1769667986991279000,8.826279052734375,0.014122679829597473,0.02385323867201805,-0.004955921322107315
1769667987001268200,8.836268310546876,0.011397200636565685,0.019166873767971992,-0.003674674779176712
1769667987011257000,8.846257080078125,0.006660069338977337,0.004874545615166426,0.0019490423146635294
1769667987021246200,8.85624609375,-0.0008055699872784317,-0.015052024275064468,0.0027884705923497677
1769667987031234300,8.866234375,-0.006743716076016426,-0.03027231991291046,0.004471195861697197
1769667987041223200,8.87622314453125,-0.011598925106227398,-0.039082057774066925,0.0006109436508268118
1769667987051212300,8.88621240234375,-0.012767837382853031,-0.04211955517530441,-0.005150230135768652
1769667987061201200,8.896201171875,-0.009656200185418129,-0.037071533501148224,-0.013861162588000298
1769667987071189200,8.906189208984374,-0.00820071529597044,-0.03072909079492092,-0.019532810896635056
1769667987081178000,8.91617822265625,-0.005774308927357197,-0.021919623017311096,-0.017543962225317955
1769667987091167200,8.926167236328125,-0.004568639677017927,-0.015072477050125599,-0.015176396816968918
1769667987101156400,8.93615625,-0.003244515974074602,-0.01041993498802185,-0.017582030966877937
1769667987111144200,8.946144287109375,-0.004172437358647585,-0.010622180067002773,-0.019409429281949997
1769667987121133000,8.956133056640626,-0.008345876820385456,-0.01135428249835968,-0.016928428784012794
1769667987131122200,8.9661220703125,-0.011894077062606812,-0.01979156769812107,-0.01440490037202835
1769667987141111000,8.976111083984375,-0.016946891322731972,-0.031255144625902176,-0.018092047423124313
1769667987151099100,8.98609912109375,-0.019767936319112778,-0.03582362085580826,-0.019384637475013733
1769667987161088300,8.996088134765625,-0.019814807921648026,-0.03902074694633484,-0.015354477800428867
1769667987171077400,9.006077392578124,-0.019115891307592392,-0.037599626928567886,-0.01109297201037407
1769667987181065000,9.01606494140625,-0.01657363772392273,-0.03160831332206726,-0.008350715041160583
1769667987191054000,9.02605419921875,-0.013826766051352024,-0.026972459629178047,-0.012263752520084381
1769667987201043200,9.036043212890625,-0.015734389424324036,-0.02356494590640068,-0.028672020882368088
1769667987211032000,9.046031982421875,-0.013075502589344978,-0.023717772215604782,-0.03218086436390877
1769667987221020200,9.056020263671876,-0.008649063296616077,-0.0044490015134215355,-0.038485635071992874
1769667987231009300,9.06600927734375,-0.005692954175174236,0.002903986256569624,-0.02920158952474594
1769667987240998100,9.075998046875,0.00025681406259536743,0.010897464118897915,-0.01499016210436821
1769667987250987300,9.0859873046875,-0.002058562124148011,0.014375329948961735,-0.000193821731954813
1769667987260975000,9.09597509765625,-0.008926588110625744,-0.0017122933641076088,0.008569575846195221
1769667987270964200,9.105964111328126,-0.011003587394952774,-0.029042717069387436,0.011735275387763977
1769667987280953000,9.115953125,-0.011132750660181046,-0.05391850695014,0.011726487427949905
1769667987290942200,9.125942138671874,-0.012396009638905525,-0.06411922723054886,0.008111470378935337
1769667987300930300,9.135930419921875,-0.0069021740928292274,-0.06227153167128563,0.0017292051343247294
1769667987310919200,9.145919189453124,-0.0030355616472661495,-0.05005954951047897,-0.0037177945487201214
1769667987320908300,9.155908203125,0.005936894100159407,-0.030932994559407234,-0.0049244724214077
1769667987330897200,9.165897216796875,0.014902045950293541,-0.006753124296665192,-0.009618747979402542
1769667987340885200,9.17588525390625,0.023504588752985,0.007970428094267845,-0.011347407475113869
1769667987350874000,9.1858740234375,0.023996159434318542,0.013345847837626934,-0.012428547255694866
1769667987360863200,9.19586328125,0.02283209189772606,0.013135991059243679,-0.009695877321064472
1769667987370852400,9.205852294921876,0.017252186313271523,0.008211643435060978,-0.006412159651517868
1769667987380840200,9.215840087890625,0.012503504753112793,-0.0015267373528331518,-0.003957257606089115
1769667987390829000,9.2258291015625,0.0062426794320344925,-0.009776145219802856,-0.001533515052869916
1769667987400818200,9.235818115234375,0.0014737568562850356,-0.01530087273567915,-0.00031112413853406906
1769667987410806300,9.24580615234375,0.00542437843978405,-0.01523394975811243,0.003260181285440922
1769667987420794400,9.25579443359375,0.00900846067816019,-0.008690562099218369,0.0051656728610396385
1769667987430783200,9.265783203125,0.010896359570324421,0.005931021645665169,0.010208303108811378
1769667987440772000,9.275772216796875,0.009815649129450321,0.020635666325688362,0.010296454653143883
1769667987450761000,9.285760986328125,0.015991639345884323,0.023950275033712387,0.00687980093061924
1769667987460749000,9.2957490234375,0.01766037568449974,0.02217288129031658,0.0017726568039506674
1769667987470738200,9.30573828125,0.014796090312302113,0.02986845187842846,0.0037762001156806946
1769667987480727300,9.315727294921874,0.011950235813856125,0.03042185679078102,0.0028624695260077715
1769667987490716200,9.325716064453125,0.01134444959461689,0.023363253101706505,0.007064132951200008
1769667987500704000,9.3357041015625,0.00773267075419426,0.013168673031032085,0.011849300935864449
1769667987510693000,9.345693115234376,0.00406149635091424,0.008090571500360966,0.021647747606039047
1769667987520682000,9.355681884765625,-0.0009042338351719081,0.004878533072769642,0.027758106589317322
1769667987530671000,9.365671142578124,-0.0012378484243527055,0.0011592754162847996,0.029592158272862434
1769667987540659200,9.3756591796875,-0.001629333128221333,-0.00009906827472150326,0.029178569093346596
1769667987550648300,9.3856484375,0.0005929757608100772,0.002305947942659259,0.025094352662563324
1769667987560637200,9.39563720703125,0.003251343034207821,0.011729543097317219,0.023487135767936707
1769667987570626300,9.405626220703125,0.004458604380488396,0.022158395498991013,0.019267717376351357
1769667987580614100,9.4156142578125,0.004842366091907024,0.02599015273153782,0.015897221863269806
1769667987590603000,9.42560302734375,0.0052566323429346085,0.029020540416240692,0.014897963032126427
1769667987600592100,9.435592041015624,0.0010898509062826633,0.026805322617292404,0.016224483028054237
1769667987610581200,9.445581298828126,0.0016778510762378573,0.018091779202222824,0.01797899603843689
1769667987620569300,9.4555693359375,0.0011667906073853374,0.012692219577729702,0.017895370721817017
1769667987630558200,9.46555810546875,-0.001585634658113122,0.012918151915073395,0.021796206012368202
1769667987640547300,9.47554736328125,-0.00251427898183465,0.01103050448000431,0.0235269945114851
1769667987650536000,9.485535888671874,-0.00028787623159587383,0.015342427417635918,0.02612064592540264
1769667987660524000,9.49552392578125,0.0011643454199656844,0.019855421036481857,0.02412300929427147
1769667987670513200,9.50551318359375,0.0010283541632816195,0.019667208194732666,0.015353281982243061
1769667987680502300,9.515502197265626,0.001017168746329844,0.021355651319026947,0.00585538474842906
1769667987690491100,9.5254912109375,0.0019754734821617603,0.020061688497662544,0.0028951370622962713
1769667987700479200,9.535479248046874,0.0013272598152980208,0.0211234912276268,0.0010205379221588373
1769667987710468000,9.545468017578125,0.000619196449406445,0.01861199177801609,0.0014129038900136948
1769667987720457000,9.55545703125,0.0009611462010070682,0.014829503372311592,0.002145006787031889
1769667987730446000,9.565446044921876,0.0011186838382855058,0.018597835674881935,0.005385362543165684
1769667987740434200,9.57543408203125,0.0022750282660126686,0.023814169690012932,0.005336093716323376
1769667987750423300,9.58542333984375,0.003583804704248905,0.02925775572657585,-0.00007865112274885178
1769667987760412200,9.595412109375,0.007350846193730831,0.03828666731715202,-0.008658822625875473
1769667987770401300,9.6054013671875,0.008681528270244598,0.046277135610580444,-0.011820788495242596
1769667987780389000,9.61538916015625,0.00739788543432951,0.05161703750491142,-0.00877706240862608
1769667987790378000,9.6253779296875,0.00968944001942873,0.05740055814385414,-0.0026817466132342815
1769667987800367000,9.6353671875,0.00854960735887289,0.05974866822361946,-0.00011765537783503532
1769667987810356200,9.645356201171875,0.009885057806968689,0.052693143486976624,0.0004524257965385914
1769667987820344300,9.65534423828125,0.009815549477934837,0.05229207128286362,-0.006050214171409607
1769667987830333200,9.665333251953125,0.007794406730681658,0.048300135880708694,-0.005612208507955074
1769667987840322300,9.675322265625,0.006609300617128611,0.03924272209405899,-0.006262020207941532
1769667987850311200,9.685311279296876,0.0067301541566848755,0.03677221015095711,-0.012234913185238838
1769667987860299000,9.695299072265625,0.00242648646235466,0.03497936949133873,-0.01573856733739376
1769667987870288100,9.7052880859375,0.0031278464011847973,0.03592902421951294,-0.01678330823779106
1769667987880277200,9.71527734375,-0.0005318697658367455,0.03140191733837128,-0.02213306725025177
1769667987890266000,9.72526611328125,-0.0028564934618771076,0.024266937747597694,-0.020268093794584274
1769667987900254200,9.735254150390626,-0.006457087583839893,0.022905796766281128,-0.019496044144034386
1769667987910243300,9.745243408203125,-0.010805473662912846,0.025827499106526375,-0.019350387156009674
1769667987920232000,9.75523193359375,-0.012526674196124077,0.028236061334609985,-0.02072111703455448
1769667987930221000,9.765220947265625,-0.012721328064799309,0.025387508794665337,-0.01734011247754097
1769667987940209200,9.775209228515624,-0.010436336509883404,0.022205563262104988,-0.01249955128878355
1769667987950198300,9.7851982421875,-0.005919422954320908,0.021697312593460083,-0.010658650659024715
1769667987960187100,9.795187255859375,-0.0021124344784766436,0.019310588017106056,-0.005259891040623188
1769667987970176300,9.80517626953125,-0.0019608240108937025,0.01665499620139599,-0.001792251132428646
1769667987980164000,9.8151640625,-0.007079686038196087,0.014975606463849545,0.00013348087668418884
1769667987990153000,9.825153076171874,-0.012553475797176361,0.00861184298992157,0.005737385246902704
1769667988000142000,9.83514208984375,-0.01748058944940567,-0.0006884478498250246,0.006867364980280399
1769667988010131200,9.845131103515625,-0.020075766369700432,-0.016692331060767174,0.004097554367035627
1769667988020119300,9.855119384765626,-0.02380339242517948,-0.02696174569427967,0.0032282983884215355
1769667988030108200,9.865108154296875,-0.024207759648561478,-0.034060999751091,0.001190059119835496
1769667988040097300,9.87509716796875,-0.021256444975733757,-0.032933950424194336,-0.0017966758459806442
1769667988050086100,9.885086181640625,-0.019546816125512123,-0.023982839658856392,-0.005384667776525021
1769667988060074000,9.895073974609375,-0.015386691316962242,-0.009534657001495361,-0.009526948444545269
1769667988070063000,9.90506298828125,-0.007900182157754898,0.0010243271244689822,-0.017531882971525192
1769667988080052200,9.91505224609375,-0.004989346954971552,0.011847680434584618,-0.02045310288667679
1769667988090041000,9.925041015625,-0.002755850087851286,0.01919606700539589,-0.022205259650945663
1769667988100029200,9.935029296875,-0.0024844740983098745,0.016776317730545998,-0.023361070081591606
1769667988110018300,9.945018310546875,-0.004901123233139515,0.01016654446721077,-0.025322018191218376
1769667988120007200,9.955007080078126,-0.007511021103709936,0.0027725440450012684,-0.023560071364045143
1769667988129996000,9.96499609375,-0.007121691945940256,-0.013165099546313286,-0.027494804933667183
1769667988139984100,9.974984130859376,-0.006958706304430962,-0.017788613215088844,-0.027456190437078476
1769667988149973200,9.98497314453125,-0.007326343096792698,-0.012429555878043175,-0.02428600564599037
1769667988159962000,9.994962158203125,-0.005460532382130623,-0.00891072116792202,-0.023783467710018158
1769667988169951200,10.004951171875,-0.0030224579386413097,-0.008235505782067776,-0.018717562779784203
1769667988179939300,10.014939208984375,-0.00632025022059679,-0.010385209694504738,-0.002816892461851239
1769667988189928000,10.024927978515626,-0.009491299279034138,-0.022058334201574326,0.009233992546796799
1769667988199917000,10.0349169921875,-0.014384325593709946,-0.03416586294770241,0.015778444707393646
1769667988209906200,10.04490625,-0.023660555481910706,-0.04260427504777908,0.015846891328692436
1769667988219894300,10.054894287109375,-0.023788388818502426,-0.05029495060443878,0.015452210791409016
1769667988229883100,10.064883056640625,-0.02794015407562256,-0.06327805668115616,0.019854269921779633
1769667988239872300,10.074872314453126,-0.02800833061337471,-0.05816185846924782,0.026060765609145164
1769667988249861000,10.084861083984375,-0.026665758341550827,-0.054007742553949356,0.041457176208496094
1769667988259849000,10.094848876953124,-0.030140385031700134,-0.04086611047387123,0.049959585070610046
1769667988269838000,10.104838134765625,-0.029175307601690292,-0.027263643220067024,0.04594650864601135
1769667988279827200,10.1148271484375,-0.03029995784163475,-0.022828681394457817,0.04229877516627312
1769667988289816000,10.124816162109376,-0.031227637082338333,-0.022853275761008263,0.04473137483000755
1769667988299804200,10.13480419921875,-0.03534967824816704,-0.024021338671445847,0.050585538148880005
1769667988309793300,10.144793212890624,-0.03793986514210701,-0.027536433190107346,0.06104423478245735
1769667988319782100,10.1547822265625,-0.04713895544409752,-0.024713482707738876,0.07141431421041489
1769667988329771000,10.16477099609375,-0.05381714552640915,-0.0455172024667263,0.092371366918087
1769667988339759000,10.174759033203125,-0.05310980975627899,-0.07066570222377777,0.10361070185899734
1769667988349748200,10.184748291015625,-0.051882751286029816,-0.08892221748828888,0.11426511406898499
1769667988359737000,10.194737060546874,-0.05485111102461815,-0.10345615446567535,0.12947309017181396
1769667988369726200,10.204726318359375,-0.05389687046408653,-0.08988234400749207,0.13429692387580872
1769667988379714300,10.21471435546875,-0.03969370201230049,-0.07137949764728546,0.12922972440719604
1769667988389703200,10.224703125,-0.025269947946071625,-0.04265585169196129,0.1103847399353981
1769667988399692000,10.234692138671875,-0.0069058542139828205,-0.02118224836885929,0.09219881147146225
1769667988409681200,10.24468115234375,0.007933544926345348,0.013951227068901062,0.07716879993677139
1769667988419669500,10.25466943359375,0.02516792342066765,0.035941217094659805,0.06921207159757614
1769667988429658400,10.264658447265624,0.03826014697551727,0.052615564316511154,0.062007930129766464
1769667988439647500,10.2746474609375,0.044288743287324905,0.06811462342739105,0.05392363667488098
1769667988449636400,10.28463623046875,0.04401276633143425,0.06921174377202988,0.04772519692778587
1769667988459624200,10.294624267578126,0.04001695662736893,0.06585908681154251,0.04701972380280495
1769667988469613300,10.30461328125,0.036587510257959366,0.06537032127380371,0.05108710378408432
1769667988479602400,10.3146025390625,0.0343235544860363,0.056723836809396744,0.05511220544576645
1769667988489591300,10.32459130859375,0.028713194653391838,0.04865685850381851,0.05426895618438721
1769667988499579400,10.334579345703125,0.0262598916888237,0.03947960585355759,0.05809112265706062
1769667988509568500,10.344568603515626,0.025688186287879944,0.03429590165615082,0.06529711931943893
1769667988519557400,10.354557373046875,0.023187479004263878,0.0373031422495842,0.07879535108804703
1769667988529546500,10.36454638671875,0.022063331678509712,0.04052615165710449,0.08563889563083649
1769667988539534300,10.374534423828125,0.02029632404446602,0.030801618471741676,0.08795637637376785
1769667988549523500,10.3845234375,0.016146831214427948,0.030383773148059845,0.09424826502799988
1769667988559512300,10.39451220703125,0.013721223920583725,0.032977692782878876,0.0978294163942337
1769667988569501400,10.40450146484375,0.008267744444310665,0.03168685734272003,0.08630352467298508
1769667988579489500,10.414489501953126,0.00787599291652441,0.02644122950732708,0.07388494163751602
1769667988589478400,10.424478515625,0.006837289780378342,0.02536013349890709,0.060239821672439575
1769667988599467500,10.434467529296874,0.007780581712722778,0.032256923615932465,0.05751274526119232
1769667988609456400,10.444456298828126,0.007597648538649082,0.03995741158723831,0.051121607422828674
1769667988619444500,10.454444580078125,0.0077433232218027115,0.038343802094459534,0.04284290596842766
1769667988629433300,10.464433349609376,0.007805398665368557,0.031316474080085754,0.034785423427820206
1769667988639422500,10.47442236328125,0.003558988682925701,0.020386595278978348,0.02993527613580227
1769667988649411300,10.484411376953124,0.0015164654469117522,0.008195464499294758,0.030386991798877716
1769667988659399400,10.4943994140625,-0.0009821123676374555,0.0015980158932507038,0.02841225638985634
1769667988669388300,10.50438818359375,0.0005378989735618234,0.005661711562424898,0.02650406025350094
1769667988679377400,10.51437744140625,0.0034812246449291706,0.017480287700891495,0.025759439915418625
1769667988689366300,10.5243662109375,0.008710511028766632,0.019160933792591095,0.024588121101260185
1769667988699354400,10.534354248046874,0.011762226931750774,0.01846664771437645,0.02564459852874279
1769667988709343500,10.544343505859375,0.014636237174272537,0.019221803173422813,0.027965130284428596
1769667988719332400,10.554332275390625,0.012070016004145145,0.014981517568230629,0.026321427896618843
1769667988729320400,10.564320556640626,0.016096975654363632,0.0055557978339493275,0.01862243562936783
1769667988739309300,10.574309326171875,0.020752448588609695,0.007013346068561077,0.016513479873538017
1769667988749298400,10.58429833984375,0.025570763275027275,0.019787736237049103,0.013967398554086685
1769667988759287300,10.594287353515625,0.03191680833697319,0.034122731536626816,0.012001186609268188
1769667988769275400,10.604275390625,0.0393323116004467,0.04703548550605774,0.007762353867292404
1769667988779264500,10.614264404296875,0.045722831040620804,0.05960027873516083,0.006133298389613628
1769667988789253400,10.62425341796875,0.048305805772542953,0.06646515429019928,0.0010874930303543806
1769667988799242500,10.634242431640626,0.05133568122982979,0.066973015666008,0.0007029324769973755
1769667988809230300,10.644230224609375,0.0490030013024807,0.06424520164728165,0.0017138200346380472
1769667988819219500,10.654219482421874,0.04726555198431015,0.06366996467113495,0.009117141366004944
1769667988829208300,10.664208251953125,0.04399644955992699,0.05760449171066284,0.01656532660126686
1769667988839197400,10.674197509765625,0.04165419936180115,0.04751138016581535,0.024762537330389023
1769667988849185500,10.684185546875,0.03886795416474342,0.041059695184230804,0.024271348491311073
1769667988859174400,10.69417431640625,0.03717098757624626,0.03845272585749626,0.025227956473827362
1769667988869163500,10.70416357421875,0.032788075506687164,0.03570170700550079,0.023265983909368515
1769667988879152400,10.71415234375,0.030212532728910446,0.039330266416072845,0.01685255952179432
1769667988889140500,10.724140380859374,0.028437171131372452,0.04115899279713631,0.009609704837203026
1769667988899129300,10.73412939453125,0.026967639103531837,0.04429566487669945,-0.00035983812995254993
1769667988909118500,10.744118408203125,0.028959153220057487,0.04361175745725632,-0.007057894486933947
1769667988919107300,10.754107421875,0.029078463092446327,0.041729167103767395,-0.006239771377295256
1769667988929095400,10.764095458984375,0.0272792000323534,0.03738001734018326,0.002191493520513177
1769667988939084300,10.774084228515624,0.02407594956457615,0.023384306579828262,0.010661943815648556
1769667988949073400,10.784073486328126,0.019903358072042465,0.010252695530653,0.014336204156279564
1769667988959062300,10.794062255859375,0.015624189749360085,0.000797408283688128,0.01629682444036007
1769667988969050400,10.80405029296875,0.013855253346264362,0.000059581827372312546,0.01768856681883335
1769667988979039500,10.81403955078125,0.012089843861758709,0.0008268386591225863,0.0151593629270792
1769667988989028400,10.8240283203125,0.013254297897219658,0.0061270915903151035,0.009789078496396542
1769667988999017500,10.834017578125,0.012862280011177063,0.011518128216266632,0.006096338853240013
1769667989009005300,10.84400537109375,0.013187623582780361,0.00895262323319912,0.007653224281966686
1769667989018994400,10.853994384765626,0.011115417815744877,0.0026001848746091127,0.012077800929546356
1769667989028983300,10.8639833984375,0.008742077276110649,-0.00156033830717206,0.012040802277624607
1769667989038972400,10.873972412109374,0.00958896242082119,-0.001952888211235404,0.012685554102063179
1769667989048960500,10.88396044921875,0.009184892289340496,0.0015466383192688227,0.015175056643784046
1769667989058949400,10.893949462890625,0.014067265205085278,0.009358222596347332,0.022401543334126472
1769667989068938500,10.9039384765625,0.01613246276974678,0.013693209737539291,0.023951776325702667
1769667989078927600,10.913927734375,0.018615594133734703,0.012205035425722599,0.02293791063129902
1769667989088915500,10.92391552734375,0.01758694089949131,0.014382725581526756,0.023860201239585876
1769667989098904300,10.933904296875,0.019004274159669876,0.008810860104858875,0.03151625767350197
1769667989108893400,10.9438935546875,0.021403426304459572,-0.0047630928456783295,0.039289817214012146
1769667989118882300,10.95388232421875,0.01861456409096718,-0.01096426323056221,0.0522540844976902
1769667989128870400,10.963870361328125,0.017159728333353996,-0.009655141271650791,0.060776565223932266
1769667989138859500,10.973859619140624,0.018597302958369255,-0.008789880201220512,0.06241600960493088
1769667989148848400,10.983848388671875,0.019805748015642166,-0.0034934591967612505,0.05631118267774582
1769667989158837200,10.993837158203124,0.022501133382320404,0.0032182391732931137,0.053338028490543365
1769667989168825300,11.003825439453125,0.026905976235866547,0.017848631367087364,0.05408533290028572
1769667989178814500,11.013814453125,0.034427542239427567,0.026528140529990196,0.0631701797246933
1769667989188803300,11.02380322265625,0.0417969711124897,0.024477381259202957,0.08357230573892593
1769667989198792400,11.03379248046875,0.04539543390274048,0.0423077754676342,0.10631570219993591
1769667989208780500,11.043780517578124,0.04189616069197655,0.05386139079928398,0.12607267498970032
1769667989218769400,11.053769287109375,0.03732537850737572,0.056957315653562546,0.1306045651435852
1769667989228758300,11.06375830078125,0.035569749772548676,0.05979664996266365,0.13178053498268127
1769667989238747400,11.073747314453126,0.03931708261370659,0.03933371976017952,0.1247740313410759
1769667989248735500,11.083735595703125,0.04431905597448349,0.01816713809967041,0.12782593071460724
1769667989258724400,11.093724365234374,0.04662162438035011,0.021199148148298264,0.14893095195293427
1769667989268713500,11.10371337890625,0.042548391968011856,0.028976228088140488,0.17026621103286743
1769667989278702600,11.11370263671875,0.04445841163396835,0.023591849952936172,0.18393567204475403
1769667989288690400,11.1236904296875,0.043991126120090485,0.025488892570137978,0.19249221682548523
1769667989298679300,11.13367919921875,0.03648526966571808,0.0305480994284153,0.20570655167102814
1769667989308668400,11.14366845703125,0.029798509553074837,0.02918795868754387,0.20005519688129425
1769667989318657300,11.1536572265625,0.028773458674550056,0.014052947983145714,0.18586240708827972
1769667989328645400,11.163645263671874,0.03700976446270943,0.011766991578042507,0.1789313107728958
1769667989338634500,11.173634521484376,0.041149914264678955,0.03029140830039978,0.1923171579837799
1769667989348623600,11.18362353515625,0.051038697361946106,0.05667627602815628,0.20424197614192963
1769667989358612200,11.1936123046875,0.06301146745681763,0.08348951488733292,0.21585549414157867
1769667989368600300,11.203600341796875,0.06861783564090729,0.10117847472429276,0.20783454179763794
1769667989378589400,11.21358935546875,0.06948017328977585,0.10614713281393051,0.18773965537548065
1769667989388578300,11.223578369140625,0.066215880215168,0.09695585817098618,0.16257475316524506
1769667989398567400,11.2335673828125,0.06542465835809708,0.09198933094739914,0.14246203005313873
1769667989408555500,11.243555419921876,0.06913959980010986,0.08571819961071014,0.14036884903907776
1769667989418545000,11.253544921875,0.06482740491628647,0.08541460335254669,0.13513998687267303
1769667989428533800,11.26353369140625,0.06569913029670715,0.0805339366197586,0.13396328687667847
1769667989438523000,11.27352294921875,0.07167606055736542,0.07072551548480988,0.13356754183769226
1769667989448511000,11.283510986328125,0.06927422434091568,0.07843177020549774,0.14386233687400818
1769667989458499600,11.29349951171875,0.06717965006828308,0.08371654152870178,0.1502336859703064
1769667989468488700,11.30348876953125,0.06228769198060036,0.07015998661518097,0.14239493012428284
1769667989478477800,11.313477783203124,0.06061682850122452,0.04821181297302246,0.12518905103206635
1769667989488465700,11.323465576171875,0.05733620002865791,0.048081327229738235,0.12508396804332733
1769667989498454800,11.333454833984375,0.048134710639715195,0.06003279611468315,0.13252003490924835
1769667989508444000,11.34344384765625,0.04282620921730995,0.07086765766143799,0.13290594518184662
1769667989518432800,11.353432861328125,0.04119422286748886,0.057735342532396317,0.13224361836910248
1769667989528420600,11.363420654296876,0.042961448431015015,0.054054949432611465,0.1288926601409912
1769667989538409700,11.37340966796875,0.050244662910699844,0.0475592315196991,0.13768403232097626
1769667989548398800,11.38339892578125,0.04828106611967087,0.053993791341781616,0.13966073095798492
1769667989558387700,11.3933876953125,0.04816495254635811,0.06303229928016663,0.13975606858730316
1769667989568375800,11.403375732421875,0.048868678510189056,0.07215286046266556,0.13623560965061188
1769667989578365000,11.413364990234374,0.04803351312875748,0.0776248574256897,0.12469800561666489
1769667989588353800,11.423353759765625,0.04872707277536392,0.07896240800619125,0.11602769047021866
1769667989598343000,11.433343017578125,0.04918886348605156,0.09320899099111557,0.10262294113636017
1769667989608330800,11.443330810546875,0.046820756047964096,0.09817077964544296,0.09137989580631256
1769667989618320000,11.45331982421875,0.043326158076524734,0.10381774604320526,0.07879352569580078
1769667989628308700,11.463308837890626,0.041410110890865326,0.10977903753519058,0.06764213740825653
1769667989638297900,11.4732978515625,0.040189050137996674,0.1072615534067154,0.05497027933597565
1769667989648286000,11.483285888671874,0.037913087755441666,0.10843124985694885,0.042457498610019684
1769667989658274800,11.49327490234375,0.037128522992134094,0.11007095873355865,0.03143228217959404
1769667989668263700,11.503263671875,0.03863414749503136,0.11191092431545258,0.023427516222000122
1769667989678251800,11.513251708984376,0.0390823595225811,0.1162143275141716,0.019471390172839165
1769667989688240600,11.52324072265625,0.03817199543118477,0.11667976528406143,0.01447263639420271
1769667989698229800,11.533229736328124,0.037073440849781036,0.1151585653424263,0.01339805033057928
1769667989708219000,11.543218994140625,0.035795729607343674,0.11509636789560318,0.013111107051372528
1769667989718207000,11.55320703125,0.032674770802259445,0.11837632209062576,0.007213536649942398
1769667989728195600,11.563195556640625,0.03170228376984596,0.11346499621868134,0.0032776491716504097
1769667989738184700,11.573184814453125,0.02775760553777218,0.11008545011281967,-0.0023629257921129465
1769667989748173800,11.583173828125,0.0268070250749588,0.10730687528848648,-0.010245811194181442
1769667989758162700,11.59316259765625,0.02221599966287613,0.10524745285511017,-0.01606055721640587
1769667989768150800,11.60315087890625,0.021531280130147934,0.10642224550247192,-0.022197389975190163
1769667989778140000,11.613139892578126,0.01754586026072502,0.10547256469726562,-0.02579026110470295
1769667989788128800,11.623128662109375,0.016393262892961502,0.10040558874607086,-0.03259338438510895
1769667989798116600,11.63311669921875,0.014329579658806324,0.0938723236322403,-0.030425570905208588
1769667989808105700,11.643105712890625,0.0079494034871459,0.08857884258031845,-0.03248263895511627
1769667989818094800,11.6530947265625,0.003029212821274996,0.0824572965502739,-0.03844865411520004
1769667989828083700,11.663083740234375,-0.003962480928748846,0.0775146558880806,-0.04585230350494385
1769667989838071800,11.67307177734375,-0.002704670187085867,0.07187061756849289,-0.04979031905531883
1769667989848061000,11.68306103515625,-0.002895813900977373,0.06450152397155762,-0.052300065755844116
1769667989858049800,11.6930498046875,-0.004333654418587685,0.05989958345890045,-0.052180223166942596
1769667989868039000,11.703038818359374,-0.0017205583862960339,0.053699739277362823,-0.048833634704351425
1769667989878026800,11.71302685546875,-0.004323265515267849,0.04544180631637573,-0.046606432646512985
1769667989888016000,11.723015869140625,-0.00618057930842042,0.02995636686682701,-0.04762313887476921
1769667989898004700,11.733004638671876,-0.010836051777005196,0.020962338894605637,-0.0453336201608181
1769667989907993900,11.742993896484375,-0.014252380467951298,0.01615484245121479,-0.04862307384610176
1769667989917982000,11.75298193359375,-0.016571462154388428,0.018396425992250443,-0.052435655146837234
1769667989927970800,11.762970703125,-0.018956538289785385,0.023774582892656326,-0.0547734797000885
1769667989937959700,11.772959716796874,-0.02349989116191864,0.02717357501387596,-0.06028915196657181
1769667989947948800,11.78294873046875,-0.027245383709669113,0.026754990220069885,-0.07113438844680786
1769667989957936600,11.7929365234375,-0.033143218606710434,0.022537341341376305,-0.0791744738817215
1769667989967925800,11.80292578125,-0.03361542150378227,0.015221948735415936,-0.08742593228816986
1769667989977915000,11.812914794921875,-0.03512277081608772,0.007734738290309906,-0.09178206324577332
1769667989987903700,11.82290380859375,-0.03478951379656792,-0.0024991831742227077,-0.09272689372301102
1769667989997891600,11.8328916015625,-0.03513093292713165,-0.012687638401985168,-0.08222871273756027
1769667990007880700,11.842880615234375,-0.039285268634557724,-0.017075315117836,-0.06451483815908432
1769667990017869800,11.852869873046876,-0.038992054760456085,-0.02387383207678795,-0.046553414314985275
1769667990027858700,11.862858642578125,-0.04123257100582123,-0.03617151081562042,-0.040481939911842346
1769667990037846800,11.8728466796875,-0.044474437832832336,-0.04720978066325188,-0.044378943741321564
1769667990047836000,11.8828359375,-0.04427574202418327,-0.054784394800662994,-0.053156740963459015
1769667990057824800,11.89282470703125,-0.04400516301393509,-0.06452970206737518,-0.05979254096746445
1769667990067814000,11.90281396484375,-0.039958056062459946,-0.0759134590625763,-0.06643905490636826
1769667990077801700,11.9128017578125,-0.037368930876255035,-0.07720695436000824,-0.06330770999193192
1769667990087790800,11.922790771484374,-0.034015994518995285,-0.07656919211149216,-0.05628915876150131
1769667990097779700,11.93277978515625,-0.031908366829156876,-0.08193173259496689,-0.0458783283829689
1769667990107768800,11.942768798828125,-0.02777375467121601,-0.08633614331483841,-0.03911760076880455
1769667990117757000,11.9527568359375,-0.01983433961868286,-0.09010851383209229,-0.060450054705142975
1769667990127745800,11.962745849609375,-0.015059243887662888,-0.09615398198366165,-0.07530580461025238
1769667990137735000,11.97273486328125,-0.014821423217654228,-0.07962773740291595,-0.08627669513225555
1769667990147723800,11.982723876953125,-0.013252772390842438,-0.04624165594577789,-0.09043765813112259
1769667990157712000,11.9927119140625,-0.01076564658433199,-0.030177736654877663,-0.09046509116888046
1769667990167700700,12.00270068359375,-0.0053270598873496056,-0.016390837728977203,-0.10335136950016022
1769667990177689900,12.01268994140625,-0.0010585450800135732,-0.018873436376452446,-0.11153925210237503
1769667990187678700,12.0226787109375,0.004444827325642109,-0.03549385815858841,-0.10008948296308517
1769667990197666800,12.032666748046875,0.005996385123580694,-0.053038496524095535,-0.07367731630802155
1769667990207655700,12.04265576171875,-0.0012967527145519853,-0.03398450091481209,-0.07797707617282867
1769667990217644800,12.052644775390625,-0.010512355715036392,-0.038895901292562485,-0.11465546488761902
1769667990227633700,12.062633544921875,-0.019314419478178024,-0.05098630115389824,-0.13685381412506104
1769667990237621800,12.072621826171876,-0.02657606080174446,-0.04508074373006821,-0.13564740121364594
1769667990247611000,12.08261083984375,-0.030969742685556412,-0.040816210210323334,-0.11950977146625519
1769667990257599700,12.092599853515624,-0.03702577203512192,-0.06270686537027359,-0.11050322651863098
1769667990267588900,12.1025888671875,-0.039105020463466644,-0.08366890251636505,-0.11125101149082184
