time,seconds_elapsed,acc_z,acc_y,acc_x,gyro_z,gyro_y,gyro_x
1.76967E+18,0.076137207,0.074540569,0.001227496,-0.116472416,0.032320619,0.042794645,0.031953134
1.76967E+18,0.086126221,0.181670572,-0.041775779,-0.116258043,0.036713772,0.015079662,0.033731859
1.76967E+18,0.096114014,0.23929917,-0.094646953,-0.169610132,0.041126192,-0.028202483,0.007474157
1.76967E+18,0.106103271,0.265505771,-0.09433365,-0.250268454,0.046554781,-0.070605069,-0.034099918
1.76967E+18,0.116092041,0.155413849,-0.094846275,-0.282610196,0.056306161,-0.087083012,-0.073004603
1.76967E+18,0.126081299,-0.097402243,-0.111696288,-0.351470382,0.03714605,-0.228717104,-0.177252188
1.76967E+18,0.136069336,-0.010129472,-0.175448921,-0.380505484,0.078637309,-0.189299166,-0.217819437
1.76967E+18,0.146058105,-0.366384166,-0.155693251,-0.269908682,0.092996545,-0.139900982,-0.234085768
1.76967E+18,0.156047363,-0.542820052,-0.139062434,-0.510242309,0.099836595,-0.162610799,-0.285212398
1.76967E+18,0.166035156,-0.356167015,-0.163305479,-0.580579874,0.122364543,-0.212134942,-0.37850666
1.76967E+18,0.17602417,-0.240434165,-0.235632464,-0.49681628,0.165595442,-0.206173867,-0.486658365
1.76967E+18,0.186013184,-0.244952958,-0.32668227,-0.580251665,0.181611955,-0.073837131,-0.549259424
1.76967E+18,0.196002197,-0.429180521,-0.381954075,-0.750164433,0.162244722,0.109857716,-0.560832322
1.76967E+18,0.205990234,-0.595032762,-0.208921567,-0.80160046,0.125655279,0.238716632,-0.528902054
1.76967E+18,0.215979248,-0.586695727,-0.020411504,-0.701928956,0.069214575,0.292173088,-0.48237592
1.76967E+18,0.225968018,-0.478445195,0.08496844,-0.648859922,0.024368541,0.256263018,-0.411424786
1.76967E+18,0.235957275,-0.35027182,0.241596341,-0.542349512,-0.01126269,0.137524098,-0.3316181
1.76967E+18,0.24594458,-0.051122284,0.180626032,-0.502812452,-0.01285594,0.059655447,-0.268869847
1.76967E+18,0.25593335,0.198371093,0.083835052,-0.339201267,0.030181075,0.047805835,-0.20736514
1.76967E+18,0.265922607,0.273236511,-0.068947864,-0.190975869,0.076269209,0.061210588,-0.150808126
1.76967E+18,0.275911621,0.260468069,0.165427878,-0.182091428,0.064730823,0.032892082,-0.087567121
1.76967E+18,0.285899414,0.088634123,0.269868496,-0.464907376,0.028489463,-0.032495979,-0.012916048
1.76967E+18,0.295888428,-0.238411866,0.236305249,-0.655362436,0.027260227,-0.074993797,0.056042448
1.76967E+18,0.305877441,-0.559598315,0.218347567,-0.529205953,0.03721752,-0.106129348,0.094356284
1.76967E+18,0.315866455,-0.672949384,0.097428693,-0.458021124,0.03094684,-0.128763273,0.08675269
1.76967E+18,0.325854492,-0.624218379,0.049296238,-0.443966587,0.023791725,-0.124730997,0.051757157
1.76967E+18,0.335843506,-0.712410457,0.036634909,-0.361029068,0.016783012,-0.102651916,0.021349104
1.76967E+18,0.34583252,-0.847594296,0.064535308,-0.386279829,0.011076655,-0.046534583,0.000711471
1.76967E+18,0.355821289,-0.91700364,0.088698859,-0.455223894,0.010804094,-0.002003355,-0.022205073
1.76967E+18,0.365809326,-0.843008575,0.243401345,-0.570130376,-0.008703028,-0.019326154,-0.055795521
1.76967E+18,0.375798584,-0.675597414,0.185432555,-0.730851684,0.012617003,0.085586227,-0.103830963
1.76967E+18,0.385787354,-0.882135155,0.149949154,-0.634409664,0.027608203,0.142500922,-0.059476547
1.76967E+18,0.395776367,-1.061687128,0.32429216,-0.943557154,0.020435611,0.109802954,0.013841733
1.76967E+18,0.405764648,-0.728032535,0.317958281,-1.109142561,0.046445105,0.100690149,0.044643056
1.76967E+18,0.415753662,-0.292985314,0.240997791,-0.869255654,0.052920114,0.066357076,0.033910807
1.76967E+18,0.425742188,0.014808131,0.054559273,-0.908832462,0.030114137,0.019464932,-0.006020363
1.76967E+18,0.435731445,0.147671272,-0.151038703,-0.896480345,0.024176551,0.066549495,-0.033599615
1.76967E+18,0.445719482,-0.164339498,-0.101868137,-0.659148092,0.026235973,0.119341604,-0.031089053
1.76967E+18,0.455708252,-0.364128496,-0.093951372,-0.763529088,0.008505955,0.158432588,-0.027936321
1.76967E+18,0.46569751,-0.199203306,0.013358079,-0.934952992,0.006863318,0.208543152,-0.022959139
1.76967E+18,0.475686523,-0.22501214,0.046214054,-0.879709243,0.009078472,0.237065464,-0.018819263
1.76967E+18,0.485674316,-0.202756323,-0.022618659,-0.935026641,0.008086711,0.238035649,-0.02209069
1.76967E+18,0.49566333,-0.163126615,-0.029470425,-0.952698492,0.01179341,0.228528216,-0.021163406
1.76967E+18,0.505652344,-0.205863349,0.007681787,-0.861095436,0.020783177,0.234719798,-0.011548862
1.76967E+18,0.515641602,-0.263887522,0.079546415,-0.773009449,0.020309981,0.260772347,-0.016864637
1.76967E+18,0.525629395,-0.266115281,0.029163551,-0.764982794,0.021505741,0.313820124,-0.018340826
1.76967E+18,0.535618408,-0.368747972,-0.014370471,-0.650078065,0.019888766,0.337921798,-0.006917668
1.76967E+18,0.545607666,-0.377286083,0.001208207,-0.573636631,0.019147076,0.353217125,0.022023702
1.76967E+18,0.555596436,-0.463067009,-0.075933485,-0.565518206,0.01533575,0.326257825,0.058771923
1.76967E+18,0.565584229,-0.529051347,-0.03209259,-0.552199875,0.010509569,0.316251546,0.07508485
1.76967E+18,0.575573486,-0.479352958,-0.121354928,-0.559489155,0.010654713,0.353665471,0.050269641
1.76967E+18,0.585562256,-0.430168948,-0.169872583,-0.55821782,0.011486685,0.398530424,-0.004166168
1.76967E+18,0.595551514,-0.241630389,-0.17330548,-0.489346236,0.010710611,0.394296318,-0.056028672
1.76967E+18,0.605539551,-0.156900288,-0.253177473,-0.432914739,0.008120154,0.40378651,-0.088721365
1.76967E+18,0.615528564,-0.241163795,-0.244580325,-0.540374705,0.012806253,0.431008548,-0.094626389
1.76967E+18,0.625517578,-0.379458605,-0.043567924,-0.629248336,0.014149284,0.459009022,-0.086391099
1.76967E+18,0.635506348,-0.446589775,0.061282444,-0.550771011,0.009617025,0.505359411,-0.085582778
1.76967E+18,0.645494385,-0.362525006,0.124064771,-0.539398846,-0.001624443,0.553967416,-0.085998222
1.76967E+18,0.655483398,-0.319112711,0.111084293,-0.560839985,-0.009791922,0.609439611,-0.098258212
1.76967E+18,0.665472412,-0.231099059,0.078477324,-0.588096533,-0.016623728,0.657239079,-0.124274641
1.76967E+18,0.67546167,-0.102650666,0.029802433,-0.621330987,-0.019867655,0.690395892,-0.160484225
1.76967E+18,0.685449707,0.020272534,0.040147301,-0.684242201,-0.021171272,0.719274402,-0.197552755
1.76967E+18,0.695438232,0.083070644,0.055172437,-0.751973967,-0.014398614,0.744989634,-0.219402909
1.76967E+18,0.70542749,0.060298694,0.021218145,-0.773444041,-0.001553656,0.763357222,-0.232777312
1.76967E+18,0.715416504,0.075272391,-0.008890578,-0.764326376,0.021787964,0.776913881,-0.228101656
1.76967E+18,0.725404297,0.01872852,-0.074929277,-0.725106126,0.032557253,0.808168471,-0.215038314
1.76967E+18,0.735393555,-0.00885273,-0.188349319,-0.71419661,0.020940639,0.87028116,-0.199008226
1.76967E+18,0.745382568,0.03805749,-0.335365343,-0.704508452,-0.000969187,0.946095526,-0.188638672
1.76967E+18,0.755371338,0.106136316,-0.511375989,-0.620299306,-0.021278935,1.017510414,-0.181344852
1.76967E+18,0.765359375,0.178694771,-0.630018151,-0.486647499,-0.015506,1.075942397,-0.182805583
1.76967E+18,0.775348389,0.312338103,-0.611494652,-0.243350783,0.008423567,1.10722816,-0.202282891
1.76967E+18,0.785337646,0.44537302,-0.472334603,-0.008522329,0.039877098,1.130330443,-0.235871464
1.76967E+18,0.795326416,0.557650907,-0.235002934,0.163494864,0.06636066,1.157227874,-0.274056941
1.76967E+18,0.805314453,0.603313757,0.02769114,0.289079977,0.112561181,1.204570889,-0.308878571
1.76967E+18,0.815303711,0.549766145,0.216649531,0.448503354,0.167116016,1.260999322,-0.34624958
1.76967E+18,0.82529248,0.54880183,0.422493591,0.529691691,0.2025491,1.335788846,-0.387265444
1.76967E+18,0.83528125,0.570042771,0.623537557,0.539072098,0.227048635,1.456598997,-0.417700738
1.76967E+18,0.845269531,0.503613539,0.690869218,0.679364366,0.278044432,1.584216356,-0.431726545
1.76967E+18,0.855258301,0.383190924,0.646235711,1.072019868,0.353241324,1.665140271,-0.444218099
1.76967E+18,0.865247314,0.302729184,0.4921195,1.347423786,0.401844025,1.62252593,-0.469294399
1.76967E+18,0.875236572,0.503766099,0.292779416,1.04147743,0.427460641,1.468961358,-0.509655595
1.76967E+18,0.885224609,0.943154711,0.184426009,0.840543354,0.446939796,1.368589759,-0.571385264
1.76967E+18,0.895213623,1.112600592,0.128572019,0.853949071,0.470597982,1.342673182,-0.617179632
1.76967E+18,0.905202393,1.054062478,0.175984928,0.926192178,0.50568676,1.334175825,-0.637989879
1.76967E+18,0.915191406,1.01855745,0.224657481,1.022325862,0.522826374,1.301478028,-0.609959304
1.76967E+18,0.925179443,1.00727267,0.099728787,1.064412608,0.46454972,1.260589957,-0.537014246
1.76967E+18,0.935168457,0.923255832,-0.132035896,0.739824972,0.395216048,1.218978524,-0.464996278
1.76967E+18,0.945157471,0.894172361,-0.219092833,0.628423283,0.343743265,1.166467428,-0.398693413
1.76967E+18,0.955146484,0.893664923,-0.171298231,0.629471623,0.290021986,1.105594754,-0.325971484
1.76967E+18,0.965134277,0.92285843,-0.253543968,0.586551934,0.198638827,1.117744327,-0.223883733
1.76967E+18,0.975123291,0.887640913,-0.42618134,0.277258022,0.121912509,1.140318871,-0.124314398
1.76967E+18,0.985112549,0.908764365,-0.438918656,0.204486508,0.072193682,1.139063954,-0.033710193
1.76967E+18,0.995101318,1.054300963,-0.425672221,0.124735218,0.036195107,1.12454617,0.042180248
1.76967E+18,1.005089355,1.15592477,-0.356267845,0.001725509,0.015278374,1.115667701,0.111770779
1.76967E+18,1.015078613,1.158085163,-0.257236393,-0.005391338,0.012938106,1.10750258,0.178791806
1.76967E+18,1.025067383,1.160313287,-0.162787593,0.03204992,0.013862489,1.106994629,0.251464427
1.76967E+18,1.035056641,1.095328482,-0.111003045,0.083355744,0.020311942,1.135658383,0.337055683
1.76967E+18,1.045044434,0.95079485,-0.085473467,0.212077986,0.029484402,1.21760571,0.408439875
1.76967E+18,1.055033203,0.870107521,-0.098721656,0.236056827,0.047640622,1.344707847,0.45937413
1.76967E+18,1.065022461,0.841131675,-0.140354227,0.308641294,0.063866466,1.443865776,0.498517275
1.76967E+18,1.075011475,0.810849934,-0.114985393,0.316827815,0.072544537,1.538008928,0.5141294
1.76967E+18,1.084999512,0.780907289,-0.037154549,0.463982078,0.088677436,1.654886842,0.509628415
1.76967E+18,1.094988525,0.783511919,-0.170273565,0.978715853,0.123775288,1.64724803,0.516530991
1.76967E+18,1.104977295,0.71901212,-0.407602311,1.239432782,0.114224657,1.607390642,0.490008831
1.76967E+18,1.114966553,0.902734364,-0.464310871,0.851234844,0.098371811,1.593881488,0.457107037
1.76967E+18,1.124954346,0.93934655,-0.519706011,0.782247233,0.090838261,1.557162881,0.43536073
1.76967E+18,1.134943359,0.925302754,-0.377976988,0.854062761,0.095479153,1.508064032,0.416634589
1.76967E+18,1.144932617,1.031490654,-0.335049116,0.90491675,0.107192002,1.452234626,0.42865929
1.76967E+18,1.154921387,0.950566083,-0.306379487,0.923221637,0.10437648,1.419791818,0.458161265
1.76967E+18,1.164909424,0.916508111,-0.231461316,0.739269676,0.105426036,1.426612973,0.483394444
1.76967E+18,1.174898438,1.0525322,-0.088591307,0.655972384,0.113393508,1.423164964,0.516617835
1.76967E+18,1.184887451,1.092179078,0.031530864,0.658581398,0.118989877,1.389443755,0.566693246
1.76967E+18,1.194876465,1.027632664,0.020660511,0.598762304,0.125953197,1.401417732,0.619765878
1.76967E+18,1.204864502,0.994091702,-0.07696692,0.637339288,0.141595811,1.465391636,0.653365374
1.76967E+18,1.214853516,1.029274001,-0.220190565,0.633715836,0.158311829,1.532501221,0.656997859
1.76967E+18,1.224842529,1.089186399,-0.302086758,0.65146572,0.180938303,1.554323435,0.64715749
1.76967E+18,1.234831543,1.103610061,-0.309132585,0.741753017,0.197609708,1.565017343,0.637272775
1.76967E+18,1.244820068,1.036661262,-0.354194546,0.727400082,0.214435294,1.596464753,0.623572707
1.76967E+18,1.254809082,0.973611151,-0.376304087,0.728664111,0.222481936,1.618518591,0.622687697
1.76967E+18,1.264798096,0.976810896,-0.514475125,0.729489456,0.224925116,1.616023183,0.622637093
1.76967E+18,1.274787354,1.053468677,-0.618421821,0.688290892,0.237367928,1.613524199,0.625643849
1.76967E+18,1.284775146,1.023075877,-0.673436437,0.746712393,0.253748506,1.627768278,0.643710732
1.76967E+18,1.294763916,1.003501262,-0.746781659,0.794701348,0.270921648,1.649921775,0.661828458
1.76967E+18,1.304753174,1.033185695,-0.789236653,0.839053992,0.27523914,1.65606153,0.682045579
1.76967E+18,1.314741943,1.065762196,-0.843115543,0.817567844,0.280156642,1.646329045,0.704010069
1.76967E+18,1.32472998,1.072592991,-0.81114921,0.888506006,0.285221726,1.638970137,0.721060932
1.76967E+18,1.334719238,1.128393862,-0.666958765,0.987418507,0.278793693,1.613703251,0.739931703
1.76967E+18,1.344708008,1.113883618,-0.626488808,1.008356082,0.254517645,1.580727458,0.748375535
1.76967E+18,1.354695801,1.16575051,-0.512146974,0.997565515,0.228349581,1.562103629,0.745707631
1.76967E+18,1.364685059,1.151115397,-0.411753586,1.034665704,0.199406087,1.545503855,0.734030962
1.76967E+18,1.374674072,1.207394334,-0.29587329,0.964514017,0.179375723,1.500686288,0.707592249
1.76967E+18,1.384663086,1.332993986,-0.143127783,0.769923758,0.164632738,1.450673223,0.676108062
1.76967E+18,1.394651123,1.37882284,-0.037768297,0.658959291,0.146139577,1.411904454,0.643182993
1.76967E+18,1.404639893,1.308030225,-0.037496495,0.495396038,0.123553567,1.36358726,0.618672609
1.76967E+18,1.41462915,1.215204569,-0.15053426,0.27365386,0.1134535,1.335946441,0.599630654
1.76967E+18,1.42461792,0.976492917,-0.296651289,0.194103353,0.101859428,1.357674599,0.573306382
1.76967E+18,1.434605957,0.722086705,-0.459279892,0.092223526,0.084783338,1.413438082,0.523193657
1.76967E+18,1.444595215,0.559559225,-0.59252984,0.000309212,0.067982785,1.456047535,0.455594361
1.76967E+18,1.454583984,0.44609074,-0.691799192,-0.152425481,0.059854824,1.446001053,0.383932054
1.76967E+18,1.464572998,0.364658584,-0.79067107,-0.280390767,0.051747628,1.39109993,0.329650164
1.76967E+18,1.474561035,0.287306537,-0.888023775,-0.406553094,0.025841366,1.338145375,0.263508171
1.76967E+18,1.484550049,0.334901744,-0.876330415,-0.635341684,0.004060704,1.289063811,0.221237138
1.76967E+18,1.494539063,0.305569412,-0.870982624,-0.657888155,-0.014168803,1.263340712,0.202036604
1.76967E+18,1.504528076,0.27158056,-0.78960724,-0.680455084,-0.024850743,1.269509077,0.18879883
1.76967E+18,1.514516113,0.330454774,-0.608515929,-0.630874183,-0.029750135,1.293307304,0.190719754
1.76967E+18,1.524505127,0.338399596,-0.395709044,-0.572458527,-0.032832745,1.350127459,0.207398072
1.76967E+18,1.534494141,0.272076235,-0.175026897,-0.439056311,-0.031908728,1.421199203,0.235771194
1.76967E+18,1.544483154,0.182866431,-0.076321608,-0.257859201,-0.021972207,1.482132792,0.26746735
1.76967E+18,1.554471191,0.139832907,0.001250292,-0.125945763,-0.011037338,1.515068889,0.279111743
1.76967E+18,1.564459961,0.241972262,0.073147654,-0.00520546,-0.007019427,1.507781625,0.276492774
1.76967E+18,1.574448975,0.257341534,0.090256025,-0.044274611,-0.006602375,1.468956828,0.280495226
1.76967E+18,1.584437988,0.149891432,0.149113288,-0.018385259,-0.01326161,1.426183701,0.279934913
1.76967E+18,1.594426025,0.047341597,0.2582067,0.036145372,-0.015935592,1.396829605,0.277671546
1.76967E+18,1.604415283,0.007217676,0.319977804,0.046242403,-0.018314328,1.362832546,0.283920646
1.76967E+18,1.614404053,-0.015282763,0.35763095,0.02132102,-0.019710768,1.320794344,0.293581247
1.76967E+18,1.624392822,-0.090991354,0.444285151,0.024314649,-0.022857826,1.304344535,0.308350086
1.76967E+18,1.634381104,-0.208479084,0.570667552,-0.042003451,-0.016856754,1.320620537,0.333440721
1.76967E+18,1.644370117,-0.379001655,0.663979457,-0.074149232,-0.002796597,1.341020584,0.363178372
1.76967E+18,1.654358887,-0.531360793,0.739208009,-0.101670276,0.012006382,1.344542623,0.388259262
1.76967E+18,1.664348145,-0.634851416,0.838506003,-0.151453713,0.031809378,1.348031044,0.407567441
1.76967E+18,1.674335938,-0.713739806,0.978842695,-0.110213356,0.062042106,1.356258631,0.435465068
1.76967E+18,1.684324951,-0.869404999,1.060165472,-0.037678281,0.08482331,1.355070829,0.466679692
1.76967E+18,1.694313965,-0.922705066,1.061007183,-0.065953943,0.09948317,1.352946281,0.481986076
1.76967E+18,1.704302979,-0.855427766,0.995457145,-0.106710608,0.113654651,1.350212216,0.477540463
1.76967E+18,1.714291016,-0.655328533,0.920554172,-0.15013094,0.12336047,1.323914289,0.461692631
1.76967E+18,1.724280029,-0.459431867,0.750799663,-0.243516203,0.12982209,1.289821506,0.464230627
1.76967E+18,1.734269043,-0.390131975,0.452882299,-0.295277662,0.124317057,1.263639092,0.446231514
1.76967E+18,1.744258301,-0.096684743,0.462645569,-0.347464653,0.110077135,1.223368049,0.4407534
1.76967E+18,1.754246094,-0.015305267,0.345327934,-0.367425199,0.087283134,1.206950665,0.456084102
1.76967E+18,1.764234863,-0.129055419,0.188767253,-0.404848629,0.07529784,1.22326386,0.48331812
1.76967E+18,1.774224121,-0.133369191,0.016087796,-0.396417777,0.083314925,1.224789739,0.523195386
1.76967E+18,1.784212891,-0.148059249,-0.259632348,-0.222503518,0.111600362,1.206992388,0.546751559
1.76967E+18,1.794200928,-0.001894874,-0.413362774,-0.114322545,0.12234854,1.205182672,0.530807614
1.76967E+18,1.804190186,0.165173027,-0.457666611,-0.116098322,0.115440033,1.223247409,0.513163924
1.76967E+18,1.814179199,0.171462336,-0.373527023,-0.079830785,0.114103146,1.186260581,0.508252382
1.76967E+18,1.824167969,0.082660748,-0.338376215,0.040109892,0.145096749,1.081938624,0.51958549
1.76967E+18,1.834156006,-0.046816696,-0.452581271,0.213837689,0.154906943,1.024091005,0.516028881
1.76967E+18,1.84414502,-0.031773587,-0.364197469,0.127651982,0.148346245,0.993554413,0.496690601
1.76967E+18,1.854134033,-0.019230624,-0.246495803,0.147280227,0.17062442,0.927060306,0.494420677
1.76967E+18,1.864123047,-0.086501056,-0.122320558,0.272378725,0.184535444,0.875515342,0.487930804
1.76967E+18,1.874111084,-0.089275197,0.025810149,0.17933833,0.193447456,0.856182873,0.491075665
1.76967E+18,1.884100098,-0.216384231,0.079112115,0.248783038,0.194895685,0.837521613,0.504181325
1.76967E+18,1.894088867,-0.295073737,0.122637369,0.212383106,0.199117973,0.812075138,0.515448153
1.76967E+18,1.904078125,-0.245721239,0.173251119,0.167172384,0.210518703,0.798447967,0.531472623
1.76967E+18,1.914066162,-0.261038124,0.167879363,0.178322723,0.23159495,0.807250559,0.548715353
1.76967E+18,1.924054932,-0.253429987,0.210244925,0.090338735,0.24903281,0.824957073,0.564102054
1.76967E+18,1.934044189,-0.219720609,0.29024376,-0.037725335,0.268118888,0.840947509,0.58821398
1.76967E+18,1.944031982,-0.303695435,0.283200856,-0.036235681,0.280283958,0.853422821,0.617054939
1.76967E+18,1.954020996,-0.35151992,0.189632345,-0.058047992,0.290374428,0.87445581,0.63863337
1.76967E+18,1.96401001,-0.324228447,0.077777652,-0.043772214,0.312878132,0.860004425,0.656981766
1.76967E+18,1.973999023,-0.234597787,-0.01023264,-0.086814945,0.3214432,0.837709963,0.660129488
1.76967E+18,1.983987061,-0.070215107,-0.090253102,-0.215198456,0.323689848,0.81586647,0.651611686
1.76967E+18,1.993976074,-0.002816226,-0.086693364,-0.136194769,0.318941295,0.782523334,0.655311108
1.76967E+18,2.003965088,-0.081882091,-0.177862412,-0.126414841,0.303833187,0.743750632,0.658768952
1.76967E+18,2.013954346,-0.097985742,-0.29760932,-0.114457569,0.28666839,0.691777825,0.65579772
1.76967E+18,2.023942139,-0.037727381,-0.379848043,-0.127230249,0.270861477,0.647434592,0.637949765
1.76967E+18,2.033930908,0.022967034,-0.385273575,-0.09926,0.248261094,0.625486195,0.606793404
1.76967E+18,2.043920166,0.102947164,-0.438296725,-0.15467589,0.220144242,0.599839985,0.564588428
1.76967E+18,2.053908936,0.165840551,-0.489846295,-0.209411397,0.197964564,0.565606475,0.508606493
1.76967E+18,2.063896973,0.274775521,-0.459357633,-0.262770062,0.17300275,0.544407189,0.456066042
1.76967E+18,2.07388623,0.262225836,-0.40128363,-0.315294907,0.150702581,0.530173242,0.413840234
1.76967E+18,2.083875244,0.172999775,-0.354872007,-0.357879372,0.135687679,0.505906522,0.383861572
1.76967E+18,2.09386377,0.071706844,-0.283529357,-0.413392877,0.123827145,0.484997541,0.375968128
1.76967E+18,2.103852051,-0.043923331,-0.225142634,-0.414770303,0.114765473,0.486867607,0.380500019
1.76967E+18,2.113841064,-0.123989952,-0.272358559,-0.371200918,0.087181322,0.505732775,0.387205482
1.76967E+18,2.123829834,-0.081480032,-0.3664093,-0.447927307,0.054095544,0.53116703,0.382335097
1.76967E+18,2.133819092,0.097008422,-0.421673507,-0.51082537,0.032267939,0.539122045,0.35479334
1.76967E+18,2.143807129,0.328593656,-0.274288066,-0.435348396,0.004901027,0.532226086,0.32267189
1.76967E+18,2.153796143,0.474838695,0.090322076,-0.318403102,-0.033628982,0.525340021,0.286900789
1.76967E+18,2.163784912,0.575455955,0.699387455,-0.128323598,-0.078744531,0.571238518,0.249137685
1.76967E+18,2.173773926,0.60809215,1.317836749,0.096212595,-0.112247549,0.696998715,0.189232618
1.76967E+18,2.183762207,0.679804803,1.886623894,0.258554782,-0.148611426,0.856466949,0.095272839
1.76967E+18,2.193750977,0.784036746,2.051774124,0.30864334,-0.154161662,0.940772414,-0.014326394
1.76967E+18,2.20373999,0.843110867,1.727589516,0.213497789,-0.143860549,0.956095457,-0.121207833
1.76967E+18,2.213729248,0.900467661,0.982012557,-0.163710553,-0.096499152,0.977724791,-0.153544217
1.76967E+18,2.223717041,0.534175814,-0.14936054,-0.232164788,-0.007608691,0.999520898,-0.06821388
1.76967E+18,2.233705811,0.035708479,-1.159866201,-0.068635145,0.075743027,1.00152874,0.091583766
1.76967E+18,2.243694336,-0.155899039,-1.774528962,-0.001046879,0.108742528,0.945571959,0.268756419
1.76967E+18,2.25368335,-0.052806913,-1.955689247,-0.093206984,0.09694273,0.841921449,0.429837167
1.76967E+18,2.263671387,0.023268574,-1.736609274,-0.119438573,0.0574366,0.682850301,0.561917186
1.76967E+18,2.2736604,-0.000981997,-1.273192136,-0.055886722,-0.01361765,0.529281378,0.625207543
1.76967E+18,2.28364917,0.019273988,-0.834971399,-0.119736971,-0.083398588,0.447389424,0.590642929
1.76967E+18,2.293638184,0.145861592,-0.333527021,-0.163858145,-0.136438057,0.40807122,0.501154482
1.76967E+18,2.303626221,0.127504098,-0.048892333,-0.28227205,-0.146268576,0.392937005,0.404628485
1.76967E+18,2.313615234,0.00588261,0.07510171,-0.490560873,-0.094104379,0.417468548,0.295480281
1.76967E+18,2.323604492,-0.06247138,0.109730541,-0.643093906,0.002230677,0.479987592,0.206989825
1.76967E+18,2.333593262,-0.190719008,0.049541737,-0.653751786,0.086874649,0.605959237,0.169651091
1.76967E+18,2.343581299,-0.411854123,-0.148026661,-0.556782527,0.150915697,0.76331985,0.147606522
1.76967E+18,2.353570313,-0.375840561,-0.394958518,-0.425446011,0.205084771,0.920234144,0.115494162
1.76967E+18,2.363559082,-0.151653035,-0.531000727,-0.235798468,0.25033775,1.066962481,0.086084336
1.76967E+18,2.37354834,-0.035219745,-0.531792755,-0.067663377,0.282861531,1.14272058,0.051960029
1.76967E+18,2.383536377,0.131351421,-0.406507502,0.145511756,0.297592014,1.12495327,0.011315664
1.76967E+18,2.393525391,0.36348965,-0.351563613,0.300738558,0.295836747,1.10066092,-0.033376522
1.76967E+18,2.403514404,0.58069444,-0.27983284,0.437108976,0.281409085,1.080536485,-0.073586792
1.76967E+18,2.413502197,0.716969874,-0.32534313,0.435109327,0.280098885,1.038927436,-0.118107244
1.76967E+18,2.423491211,0.864710119,-0.26704584,0.413012061,0.26627335,0.967825234,-0.137889475
1.76967E+18,2.433480225,0.829154822,-0.24957448,0.26782793,0.254785329,0.926807046,-0.132915795
1.76967E+18,2.443469238,0.6147066,-0.28428339,0.207306241,0.262361765,0.946788251,-0.113079786
1.76967E+18,2.453457275,0.392425785,-0.327497678,0.219937467,0.270783901,1.029529214,-0.102089621
1.76967E+18,2.463446533,0.227937745,-0.341866395,0.238410697,0.299217135,1.100533962,-0.096678875
1.76967E+18,2.473435303,0.048134136,-0.331390009,0.330988735,0.330914825,1.138734818,-0.082648113
1.76967E+18,2.483424561,-0.232929708,-0.255459447,0.433382357,0.354352236,1.142666698,-0.058482327
1.76967E+18,2.493412354,-0.47811326,-0.160174195,0.365880892,0.38193959,1.109843612,-0.036678985
1.76967E+18,2.503401123,-0.67686232,-0.061575874,0.431458403,0.409288645,1.083738804,-0.055413526
1.76967E+18,2.513390381,-0.607471388,0.011873393,0.496043396,0.396196663,1.067107201,-0.080276869
1.76967E+18,2.523379395,-0.58670581,-0.031873979,0.382307126,0.382979125,1.141665816,-0.102408536
1.76967E+18,2.533367188,-0.63531823,-0.05642156,0.467421989,0.41026029,1.251042366,-0.144676968
1.76967E+18,2.543356445,-0.372799878,0.069593176,0.907988705,0.495522469,1.316837072,-0.192213327
1.76967E+18,2.553345215,-0.155819507,0.189700734,1.246902972,0.519802153,1.349912405,-0.224881202
1.76967E+18,2.563333984,0.097669955,0.027045828,1.006345911,0.519560337,1.374792457,-0.242865264
1.76967E+18,2.573322266,0.301193608,-0.103092126,1.154820608,0.505235136,1.400575161,-0.239083678
1.76967E+18,2.583311279,0.401958314,-0.205993697,1.327479314,0.494162261,1.314409614,-0.194109812
1.76967E+18,2.593300537,0.417574401,-0.430163687,1.376946817,0.444260836,1.189455986,-0.144589797
1.76967E+18,2.603289307,0.491268436,-0.671202394,1.055454225,0.366002798,1.061695099,-0.116252959
1.76967E+18,2.613277344,0.711988432,-0.877214796,0.764981333,0.306662619,0.960006893,-0.082508005
1.76967E+18,2.623266357,0.649830667,-1.065685112,0.903513021,0.264407039,0.84854722,-0.059393898
1.76967E+18,2.633255127,0.583934007,-1.075215157,0.91324531,0.220894977,0.709457755,-0.051012401
1.76967E+18,2.643244141,0.523698734,-1.035512092,0.763277451,0.184099153,0.593652844,-0.052726675
1.76967E+18,2.653232422,0.36348859,-0.983666754,0.608264584,0.165573597,0.511297941,-0.049891744
1.76967E+18,2.663221436,0.159943894,-0.895022256,0.526959343,0.163636953,0.497453004,-0.048595585
1.76967E+18,2.673210205,-0.075279551,-0.711507517,0.617684447,0.163074687,0.536173105,-0.055092122
1.76967E+18,2.683199463,-0.224762987,-0.558356936,0.530928831,0.173548907,0.579760492,-0.055394124
1.76967E+18,2.693187256,-0.412584922,-0.370979677,0.572844019,0.189096138,0.615645051,-0.061547536
1.76967E+18,2.703176025,-0.516107986,-0.20610008,0.672240505,0.209260538,0.617371619,-0.078913212
1.76967E+18,2.713165283,-0.515652059,-0.089115623,0.742149031,0.215241998,0.614935875,-0.085514188
1.76967E+18,2.723154297,-0.595148644,-0.124133745,0.744853321,0.211345792,0.58346504,-0.075900182
1.76967E+18,2.733142578,-0.620682898,-0.10616145,0.700145872,0.198288143,0.547216833,-0.059893191
1.76967E+18,2.743131348,-0.555680411,-0.044935705,0.847279677,0.186155304,0.492110163,-0.037252855
1.76967E+18,2.753120361,-0.399093718,-0.094599607,0.844215613,0.179737091,0.423885018,-0.014409859
1.76967E+18,2.763109131,-0.242628314,-0.101940033,0.808924519,0.153131306,0.366722941,-0.001199514
1.76967E+18,2.773097168,-0.199983351,0.031007133,0.856135476,0.12862137,0.30620569,-0.002267319
1.76967E+18,2.783086182,-0.03729805,0.072687635,0.804912946,0.1096562,0.2276555,-0.008660503
1.76967E+18,2.793075439,0.090454032,0.044669747,0.712296037,0.09795253,0.150589228,-0.022960572
1.76967E+18,2.803064209,0.124143389,0.122449153,0.786159145,0.078434221,0.110893205,-0.049822547
1.76967E+18,2.813052246,0.113267775,0.211261409,0.801774063,0.056244135,0.127877444,-0.104291707
1.76967E+18,2.823041504,0.150953655,0.243605343,0.645075143,0.006285896,0.149098307,-0.155065939
1.76967E+18,2.833030029,0.146617087,0.177355632,0.460038309,-0.055159066,0.172905862,-0.2299629
1.76967E+18,2.843019287,0.291856456,0.147772979,0.438994936,-0.126269996,0.126617998,-0.307180166
1.76967E+18,2.853007324,0.437311221,0.182248665,0.193111419,-0.185098767,0.022908518,-0.3157067
1.76967E+18,2.862996338,0.172188458,0.323391996,-0.049015083,-0.210177228,-0.043097131,-0.260687917
1.76967E+18,2.872985352,-0.222955061,0.604055442,-0.199481247,-0.216038138,-0.036367659,-0.168052062
1.76967E+18,2.882974365,-0.480482108,0.775643012,-0.385268314,-0.214072987,-0.002678141,-0.067700163
1.76967E+18,2.892962158,-0.584045066,0.924569837,-0.458827764,-0.202643633,0.044613224,0.028517021
1.76967E+18,2.902951172,-0.708350514,0.953800023,-0.425274162,-0.187311277,0.119907446,0.109632112
1.76967E+18,2.912940186,-0.771724523,0.860325036,-0.382085885,-0.182347789,0.200645342,0.155089095
1.76967E+18,2.922929443,-0.608085136,0.663062342,-0.495061399,-0.16882959,0.245064482,0.166721776
1.76967E+18,2.93291748,-0.318932386,0.396938294,-0.458520598,-0.156343639,0.21816501,0.151117727
1.76967E+18,2.94290625,-0.106782797,0.183498372,-0.369279887,-0.162118703,0.16405651,0.122854136
1.76967E+18,2.952895508,-0.004711246,0.019964345,-0.286265796,-0.1825151,0.099826485,0.103794791
1.76967E+18,2.962884277,0.026731355,-0.04592004,-0.146281864,-0.209719568,0.01650523,0.104800932
1.76967E+18,2.97287207,0.057424892,-0.126568863,-0.025985505,-0.241656601,-0.08645495,0.105707511
1.76967E+18,2.982861328,0.227186123,-0.089662151,0.003561492,-0.280740082,-0.154596195,0.110303067
1.76967E+18,2.992850342,0.33356823,-0.063844988,-0.04846534,-0.311210364,-0.204986438,0.124474727
1.76967E+18,3.002839111,0.330822146,-0.038439329,-0.069449676,-0.326941401,-0.229598582,0.141871557
1.76967E+18,3.012827393,0.358471201,0.087514033,-0.089449677,-0.34159255,-0.234518394,0.154374406
1.76967E+18,3.022816406,0.324705125,0.207792856,-0.093461835,-0.339232981,-0.244518295,0.166881412
1.76967E+18,3.032805176,0.299874927,0.238081611,-0.094190734,-0.317721069,-0.257079333,0.161369279
1.76967E+18,3.042794189,0.32224458,0.166985044,-0.134265263,-0.298564404,-0.203031272,0.127570301
1.76967E+18,3.052782227,0.302078575,0.133920395,-0.255548586,-0.272990823,-0.137967736,0.091323234
1.76967E+18,3.062771484,0.218944072,0.12231179,-0.313429405,-0.235173643,-0.106077977,0.06963978
1.76967E+18,3.072760254,0.037272915,0.006582886,-0.321240663,-0.213025406,-0.065357842,0.059014045
1.76967E+18,3.082749268,-0.138706168,-0.051858198,-0.376769074,-0.191635162,-0.02575344,0.046618629
1.76967E+18,3.092737549,-0.178578744,-0.135130355,-0.387911522,-0.16486755,0.004877899,0.028789768
1.76967E+18,3.102726074,-0.164001645,-0.341257323,-0.340147901,-0.142228812,0.009199411,0.02039442
1.76967E+18,3.112715088,-0.121387661,-0.499282816,-0.409435664,-0.109220736,0.010208046,0.005083121
1.76967E+18,3.122703369,-0.019498189,-0.431127564,-0.468230967,-0.077032968,0.007069777,-0.001103135
1.76967E+18,3.132692383,0.06888269,-0.280164849,-0.501945606,-0.052743603,0.006581366,-0.000942884
1.76967E+18,3.142681396,0.044928691,-0.161231595,-0.369378671,-0.046239365,-0.00398446,-0.010349702
1.76967E+18,3.15267041,0.111430915,0.027076807,-0.373289415,-0.042698547,-0.011277281,-0.019234316
1.76967E+18,3.162658203,0.123235919,0.174257666,-0.284560161,-0.037396725,0.004804483,-0.02623124
1.76967E+18,3.172647217,0.083106445,0.191177236,-0.171295893,-0.039628889,0.04227737,-0.030343164
1.76967E+18,3.18263623,0.059000763,0.200174782,-0.069567457,-0.044219114,0.062289961,-0.02801556
1.76967E+18,3.192625244,0.007993629,0.239265852,0.024040509,-0.042256754,0.070045061,-0.018455382
1.76967E+18,3.202613525,-0.07068594,0.2171341,0.18224165,-0.046696778,0.046697401,-0.012470195
1.76967E+18,3.212602295,-0.058916592,0.208290868,0.090676588,-0.060773011,-0.011848029,0.001970331
1.76967E+18,3.222591309,-0.093504505,0.173615861,-0.016895897,-0.065945931,-0.070743836,0.012523906
1.76967E+18,3.232580322,-0.155081548,0.073883567,-0.007670388,-0.060844138,-0.106137715,0.022695534
1.76967E+18,3.242568115,-0.203684544,-0.100750531,0.018388182,-0.059353568,-0.127455518,0.023396745
1.76967E+18,3.252557129,-0.18950112,-0.203846748,-0.055766019,-0.047481097,-0.144561201,0.022199513
1.76967E+18,3.262546387,-0.216216693,-0.231534381,-0.164662739,-0.034059834,-0.135938957,0.018500382
1.76967E+18,3.272535156,-0.20115634,-0.143487849,-0.289908536,-0.018079849,-0.110171176,0.015620543
1.76967E+18,3.282523438,-0.1676457,0.015718963,-0.313233883,-0.003259624,-0.086389944,0.017001126
1.76967E+18,3.292512451,-0.169517485,0.099281043,-0.282329918,0.012151291,-0.051728364,0.020364633
1.76967E+18,3.302501221,-0.151698628,0.101072603,-0.149573891,0.030395277,-0.029113069,0.020271955
1.76967E+18,3.312490234,-0.049216451,0.033227147,-0.04961188,0.043297611,-0.019364821,0.00851394
1.76967E+18,3.322478271,0.09650018,-0.055698506,-0.063519994,0.044131182,-0.035124611,-0.00290889
1.76967E+18,3.332467285,0.111268272,-0.146773447,-0.139199796,0.038487822,-0.050718494,-0.014207192
1.76967E+18,3.342456299,0.133891607,-0.143723411,-0.210157539,0.034215845,-0.060096283,-0.033843476
1.76967E+18,3.352445313,0.205262314,-0.125633628,-0.26789252,0.029440189,-0.058989879,-0.048678897
1.76967E+18,3.362433594,0.175172296,-0.065758128,-0.299857684,0.028958157,-0.04364235,-0.04955348
1.76967E+18,3.372422119,0.109847153,0.006879823,-0.318723128,0.032555293,-0.034455765,-0.041873258
1.76967E+18,3.382411133,0.142349054,-0.108058808,-0.354414911,0.03275077,-0.023640133,-0.040416509
1.76967E+18,3.392400391,0.201262431,-0.142776486,-0.369853888,0.035952467,-0.016675541,-0.050148796
1.76967E+18,3.402388428,0.261313726,-0.114061848,-0.314715938,0.032511927,-0.017573826,-0.063152216
1.76967E+18,3.412377197,0.315840558,-0.096898532,-0.307350962,0.026880845,-0.024850702,-0.064164139
1.76967E+18,3.422366455,0.233641875,-0.059254738,-0.243416834,0.018340355,-0.014527225,-0.052396696
1.76967E+18,3.432355225,0.110000444,-0.027602293,-0.192592948,0.018887829,0.013141828,-0.035356544
1.76967E+18,3.442343018,0.072935472,0.037064533,-0.105430798,0.021856189,0.030223077,-0.045505051
1.76967E+18,3.452332275,0.211061794,0.154743402,-0.109715928,0.019856818,0.035214093,-0.05003364
1.76967E+18,3.462321289,0.175773623,0.082884619,-0.216734287,0.026567718,0.058223005,-0.050472796
1.76967E+18,3.472310303,0.059482117,0.152187873,-0.204660111,0.020385616,0.097002596,-0.04212771
1.76967E+18,3.48229834,-0.026274259,0.126251467,-0.271826644,0.015545585,0.109997757,-0.01225823
1.76967E+18,3.492287354,-0.08736498,0.107996849,-0.27759266,0.016724057,0.104708388,0.008465737
1.76967E+18,3.502276367,-0.069616703,0.085612583,-0.29423546,0.018972298,0.112568974,0.01972292
1.76967E+18,3.512265137,-0.041767888,0.060710197,-0.335374695,0.016986137,0.1291354,0.029746376
1.76967E+18,3.522253174,-0.048577568,0.039876083,-0.327611367,0.015997039,0.138378173,0.031450532
1.76967E+18,3.532242432,-0.014710224,0.075949852,-0.309909414,0.016636286,0.136584878,0.037857842
1.76967E+18,3.542231201,0.02711334,0.096391167,-0.273051217,0.028478032,0.139420614,0.03066917
1.76967E+18,3.552220459,0.14401538,0.159473354,-0.240428759,0.044306029,0.140053585,0.018792778
1.76967E+18,3.562208496,0.233446645,0.230102887,-0.268030174,0.044429332,0.148529097,0.031182336
1.76967E+18,3.572197266,0.136781922,0.206880417,-0.150220372,0.036445495,0.158214375,0.045748517
1.76967E+18,3.582186279,0.193472362,0.244720026,-0.045900166,0.026486868,0.150803596,0.060770608
1.76967E+18,3.592175293,0.267491245,0.260066648,-0.016485271,0.024657566,0.146761924,0.08428444
1.76967E+18,3.60216333,0.292548237,0.241931857,-0.017927579,0.028887996,0.138040081,0.110342674
1.76967E+18,3.612152344,0.281932151,0.205275904,-0.033839141,0.033619802,0.12399929,0.138204604
1.76967E+18,3.622141357,0.250579858,0.187681795,-0.037952714,0.039051853,0.101826072,0.152524427
1.76967E+18,3.632130127,0.256011235,0.15532734,-0.048681906,0.042938642,0.083228089,0.155191436
1.76967E+18,3.642118164,0.245988877,0.090505031,-0.041350832,0.043569811,0.063453048,0.152454779
1.76967E+18,3.652107178,0.220377612,0.015116905,-0.08166706,0.042951617,0.058101323,0.148718163
1.76967E+18,3.662096436,0.167350809,-0.031454876,-0.16724165,0.047365539,0.057759106,0.148437724
1.76967E+18,3.672085205,0.109970779,-0.075983754,-0.195942551,0.050027058,0.055628665,0.155950144
1.76967E+18,3.682073242,0.044285716,-0.099925186,-0.23618776,0.055919833,0.058791969,0.162762508
1.76967E+18,3.6920625,0.028392859,-0.106364279,-0.215746153,0.061464801,0.071055822,0.16179125
1.76967E+18,3.70205127,0.05624065,-0.121754156,-0.202885794,0.066606037,0.082435772,0.154236928
1.76967E+18,3.712039063,0.085075846,-0.155789697,-0.166342363,0.073179223,0.091861285,0.14552474
1.76967E+18,3.72202832,0.13207126,-0.177588271,-0.12113807,0.075398169,0.088072404,0.134599656
1.76967E+18,3.732017334,0.171363113,-0.192443895,-0.090505908,0.074946761,0.083543681,0.123892762
1.76967E+18,3.742006104,0.195548583,-0.185226804,-0.063319503,0.073204257,0.080053881,0.113933071
1.76967E+18,3.751995361,0.188931796,-0.189340669,-0.067493281,0.070193037,0.072916053,0.10968665
1.76967E+18,3.761983398,0.131519471,-0.208815184,-0.08956775,0.066947713,0.070260346,0.111072294
1.76967E+18,3.771972168,0.05122516,-0.229283387,-0.073239716,0.069759116,0.071917824,0.108565457
1.76967E+18,3.781961182,0.055198448,-0.194990657,-0.03748042,0.069988415,0.072902128,0.098751172
1.76967E+18,3.791949219,0.019558102,-0.195750536,-0.062059858,0.071839675,0.08706408,0.093971185
1.76967E+18,3.801938477,-0.072242522,-0.181738961,-0.070536595,0.070680402,0.104973309,0.092222027
1.76967E+18,3.811927246,-0.15677184,-0.203702956,-0.094731125,0.071567334,0.126668558,0.088161565
1.76967E+18,3.82191626,-0.155037125,-0.17266309,-0.07568594,0.07192979,0.146290198,0.078660205
1.76967E+18,3.831904541,-0.126987088,-0.180355983,-0.043021688,0.074859358,0.16762802,0.063598894
1.76967E+18,3.841893311,-0.091314886,-0.169412564,-0.012680326,0.074187972,0.186848059,0.053387273
1.76967E+18,3.85188208,-0.069439009,-0.19315935,-0.048198214,0.075432472,0.196447179,0.04456095
1.76967E+18,3.861871338,-0.018693887,-0.197554955,-0.020497721,0.073737107,0.199452028,0.035448946
1.76967E+18,3.871859375,0.050618427,-0.212545019,-0.029892157,0.070854306,0.197967976,0.024830408
1.76967E+18,3.881848145,0.114347679,-0.196041043,-0.035671033,0.068654537,0.193186536,0.013498656
1.76967E+18,3.891837402,0.158837686,-0.156872816,-0.019028526,0.062959708,0.187673897,0.001020888
1.76967E+18,3.901826172,0.17236703,-0.108188572,-0.058569093,0.060146078,0.184302062,0.006550409
1.76967E+18,3.911813965,0.103311614,-0.135614339,-0.035932606,0.060835205,0.183104381,0.006099145
1.76967E+18,3.921803223,0.103366851,-0.06000351,-0.011307868,0.060001902,0.17818445,0.000311031
1.76967E+18,3.931792236,0.127787883,-0.006113514,0.007956804,0.061766442,0.166471496,-0.005970177
1.76967E+18,3.94178125,0.142009885,-0.008500117,0.029020927,0.05943644,0.152743429,-0.01429442
1.76967E+18,3.951769287,0.196713682,0.046510991,0.004671499,0.06377054,0.13016659,-0.018371843
1.76967E+18,3.961758301,0.186991767,0.119553431,0.022619244,0.068824418,0.10960833,-0.013190931
1.76967E+18,3.971747314,0.124813251,0.159932788,0.029944472,0.083344504,0.093748942,-0.005760977
1.76967E+18,3.981736328,0.094359076,0.202346281,0.043858431,0.096672028,0.086300343,0.003073794
1.76967E+18,3.991724121,0.078165482,0.183923904,0.000365618,0.108040996,0.082009062,0.010251732
1.76967E+18,4.001713379,0.044362727,0.113011462,-0.022546763,0.122396767,0.078433767,0.010512987
1.76967E+18,4.011702148,0.076111472,0.025028643,-0.05014321,0.128981635,0.065906666,0.005718953
1.76967E+18,4.021691406,0.166788499,-0.045536009,-0.078872461,0.12806657,0.060001638,0.007432697
1.76967E+18,4.031679443,0.173670514,-0.124127315,-0.031112347,0.128534287,0.050389625,0.011599761
1.76967E+18,4.041668213,0.211926887,-0.120276485,0.040401276,0.126290306,0.031436443,0.011544368
1.76967E+18,4.051657471,0.26312136,-0.097221772,0.076429452,0.114389777,0.035871524,0.011873145
1.76967E+18,4.06164624,0.249878432,-0.088410689,0.010533669,0.113093615,0.043755814,0.031315554
1.76967E+18,4.071634277,0.119981593,-0.084510759,0.080785601,0.112078071,0.04534401,0.044152059
1.76967E+18,4.081623291,0.095473175,-0.089513098,0.044687868,0.10244409,0.059313353,0.048395537
1.76967E+18,4.091612305,0.082843118,-0.147957688,-0.018830665,0.0982311,0.08683794,0.040869538
1.76967E+18,4.101601318,0.015638299,-0.130332599,0.036768473,0.096342385,0.102251515,0.028630717
1.76967E+18,4.111589355,-0.058398121,-0.057861237,0.01484218,0.090817355,0.129266143,0.028191527
1.76967E+18,4.121578125,-0.210948397,-0.127604051,-0.015674247,0.093367331,0.154318497,0.027374737
1.76967E+18,4.131567383,-0.314269655,-0.216976279,0.037366439,0.086526647,0.163258389,0.017128013
1.76967E+18,4.141556152,-0.235088567,-0.179359957,0.013532851,0.08515539,0.161986992,0.003803419
1.76967E+18,4.151544189,-0.197582427,-0.189741066,0.084173782,0.075553454,0.153340831,-0.025371116
1.76967E+18,4.161533447,-0.041296179,-0.07095219,0.055753159,0.064841151,0.134871542,-0.025155399
1.76967E+18,4.171522217,-0.129745155,-0.042383682,0.082455873,0.058696907,0.111884363,-0.01296792
1.76967E+18,4.181511475,-0.198857854,-0.076662968,0.167806005,0.038091764,0.083424494,-0.012853405
1.76967E+18,4.191499268,-0.113486386,-0.078870708,0.112526017,0.022065101,0.052128661,-0.017897882
1.76967E+18,4.201488281,-0.005573124,-0.114649292,0.093420042,0.015998155,0.026643809,-0.043502048
1.76967E+18,4.211477295,0.143675334,-0.086718499,0.044461658,0.008563674,-0.002487976,-0.058983535
1.76967E+18,4.221466309,0.219350315,-0.010346037,-0.048512394,0.012962417,-0.03039977,-0.049053937
1.76967E+18,4.231454346,0.154577106,-0.021931846,-0.02194149,0.014944457,-0.040312845,-0.050870366
1.76967E+18,4.241443604,0.231805015,0.073987612,-0.049526832,0.018271543,-0.043583471,-0.046574954
1.76967E+18,4.251432617,0.248142694,0.041229836,-0.085746146,0.032921597,-0.039492302,-0.0319562
1.76967E+18,4.261421875,0.133383219,0.041112932,0.106939741,0.040234108,-0.043916613,-0.033235848
1.76967E+18,4.271409668,0.048089639,0.056602177,0.115378191,0.024340115,-0.07113976,-0.027994826
1.76967E+18,4.281398682,-0.003570406,-0.142654905,-0.066847969,0.03220363,-0.086115509,-0.03502078
1.76967E+18,4.291387939,0.055455638,-0.114252987,0.031076106,0.036093809,-0.0854057,-0.053227149
1.76967E+18,4.301376709,0.102352413,-0.040396308,-0.031413668,0.035352651,-0.0736055,-0.084687606
1.76967E+18,4.311364502,0.189264973,-0.022108371,-0.090062256,0.042119551,-0.034748532,-0.064525202
1.76967E+18,4.32135376,-0.036769057,-0.216280113,0.036705052,0.052889641,0.015003044,-0.042681955
1.76967E+18,4.331342773,-0.166046302,-0.052294251,0.08894728,0.043761779,0.045999058,-0.027428864
1.76967E+18,4.341331543,-0.154083185,-0.126735452,0.006329203,0.039151847,0.063927993,-0.033269707
1.76967E+18,4.351319824,-0.038094168,-0.220619604,-0.018281214,0.042030334,0.080241427,-0.060581796
1.76967E+18,4.361308838,0.026094226,-0.225994867,0.00599661,0.03765263,0.088191763,-0.082776584
1.76967E+18,4.371297607,-0.042726212,-0.276478854,0.011021745,0.032783307,0.097604178,-0.099907696
1.76967E+18,4.381286621,-0.083595983,-0.242417594,0.026836277,0.025992777,0.130717918,-0.10147097
1.76967E+18,4.391274658,-0.103546591,-0.126630822,0.099477735,0.02405436,0.134191558,-0.089199863
1.76967E+18,4.401263672,-0.073129241,-0.074864395,0.066144789,0.013778818,0.13582541,-0.0739538
1.76967E+18,4.411252686,0.003354863,0.017356793,0.125866268,0.004572414,0.129100636,-0.069009416
1.76967E+18,4.421241699,0.099526542,0.063258712,0.175116913,-0.005740411,0.098588273,-0.063373901
1.76967E+18,4.43122998,0.163973003,-0.017023031,0.108990244,-0.015880998,0.073887855,-0.064295702
1.76967E+18,4.44121875,0.213777921,-0.007792261,0.113328565,-0.026281709,0.046731073,-0.06496229
1.76967E+18,4.45120752,0.200848736,-0.032862405,0.121080495,-0.033813573,0.023932893,-0.062265031
1.76967E+18,4.461196777,0.18703999,-0.009202713,0.112352414,-0.038830969,0.002018275,-0.060253814
1.76967E+18,4.47118457,0.167431473,-0.006940028,0.124755091,-0.041993026,-0.0138436,-0.061717164
1.76967E+18,4.481173584,0.176044988,-0.004180501,0.080635087,-0.042791441,-0.019668465,-0.06316033
1.76967E+18,4.491162842,0.1715921,0.054606619,0.046240065,-0.039980207,-0.031479843,-0.066115439
1.76967E+18,4.501150879,0.175335524,0.05012509,0.054093409,-0.038165532,-0.042028356,-0.061923891
1.76967E+18,4.511139404,0.19253625,0.03573533,-0.000214812,-0.037993588,-0.037538607,-0.06014283
1.76967E+18,4.521128662,0.215385503,0.083111414,-0.01014993,-0.034502715,-0.040174603,-0.051578633
1.76967E+18,4.531117676,0.235265092,0.078204353,-0.011105916,-0.032603253,-0.037232272,-0.04229426
1.76967E+18,4.541105713,0.245389596,0.086432667,-0.022252456,-0.030580051,-0.04080943,-0.030927092
1.76967E+18,4.551094727,0.209739021,0.066986793,-0.037322892,-0.034179531,-0.043876439,-0.019825941
1.76967E+18,4.56108374,0.123222183,0.020944588,-0.075167761,-0.03680541,-0.037022527,-0.02057136
1.76967E+18,4.571072754,0.069852996,-0.048638066,-0.102431616,-0.036160998,-0.033148527,-0.026473464
1.76967E+18,4.581061768,0.014781682,-0.104842184,-0.120432844,-0.036456075,-0.035087574,-0.037415326
1.76967E+18,4.591049561,-0.069428487,-0.16056524,-0.149725867,-0.035980653,-0.034628276,-0.04631811
1.76967E+18,4.601038818,-0.128656775,-0.197507024,-0.151901749,-0.033126011,-0.010092841,-0.05092245
1.76967E+18,4.611027588,-0.162278182,-0.188402511,-0.14049159,-0.031693906,-0.003926534,-0.036854528
1.76967E+18,4.621015625,-0.221296626,-0.250952198,-0.163319215,-0.02324556,0.003041361,-0.037166651
1.76967E+18,4.631004883,-0.109398825,-0.088398999,-0.079052202,-0.020080393,0.014990147,-0.048252195
1.76967E+18,4.640993652,-0.029365795,0.049158875,-0.048421209,-0.017285138,0.01917211,-0.04652274
1.76967E+18,4.65098291,-0.092926998,0.04258242,-0.044949733,-0.017378177,0.039798759,-0.046655495
1.76967E+18,4.660970703,-0.128027537,0.015181203,-0.036075522,-0.019342793,0.046174899,-0.04478569
1.76967E+18,4.670959473,-0.10501491,-0.083228318,-0.028233869,-0.020749766,0.040527977,-0.054017983
1.76967E+18,4.68094873,-0.021059155,-0.129627081,-0.025535131,-0.022573499,0.03144154,-0.0656038
1.76967E+18,4.690937744,0.0882932,-0.082407065,-0.049254445,-0.020909511,0.027799584,-0.076689966
1.76967E+18,4.700925781,0.12135259,0.016215222,-0.071917235,-0.017939288,0.011195574,-0.06921155
1.76967E+18,4.710914795,0.097567517,0.142674194,-0.035160453,-0.014874492,-0.005752841,-0.048500635
1.76967E+18,4.720903564,0.082951547,0.201798584,-0.00137538,-0.018741935,-0.000728788,-0.030039335
1.76967E+18,4.730892822,0.107199269,0.173833887,-0.010861878,-0.02244552,-0.006737818,-0.016318915
1.76967E+18,4.740880615,0.097608434,0.044422495,-0.060665189,-0.024288693,-0.025333606,-0.010067943
1.76967E+18,4.750869629,0.111129156,-0.025880291,-0.086926881,-0.025573863,-0.041729242,-0.013378376
1.76967E+18,4.760858887,0.091917236,-0.041277182,-0.086402564,-0.031788614,-0.053763267,-0.013837771
1.76967E+18,4.770847656,0.069098378,-0.030792029,-0.068480247,-0.035951305,-0.080066964,-0.015681149
1.76967E+18,4.780835449,0.046832917,-0.012653145,-0.049306467,-0.042361535,-0.10067983,-0.022134788
1.76967E+18,4.790824707,0.074461951,-0.015949849,-0.092379885,-0.043087367,-0.102031685,-0.020588268
1.76967E+18,4.800813721,0.048696226,0.00058686,-0.065950728,-0.039543234,-0.108213149,-0.022963274
1.76967E+18,4.810802734,0.080715459,0.06545067,-0.048947279,-0.0424239,-0.096996851,-0.013828551
1.76967E+18,4.820790771,0.031653906,0.057512862,-0.069755089,-0.029607438,-0.068476528,0.000610042
1.76967E+18,4.830779785,-0.020049247,0.045832361,-0.073474402,-0.016486844,-0.038517572,0.001431693
1.76967E+18,4.840768799,0.056462476,0.040879123,-0.137309453,-0.003756401,-0.015398405,0.005440549
1.76967E+18,4.850757813,0.100376729,0.048788873,-0.140325293,0.008320551,0.007550766,0.007808198
1.76967E+18,4.860745605,0.119962596,0.052027709,-0.124106857,0.012793064,0.027057888,0.019860599
1.76967E+18,4.870734619,0.071710168,0.022390696,-0.102179687,0.011639819,0.029486351,0.032945715
1.76967E+18,4.880723633,0.065436349,-0.034260582,-0.067644672,0.009661622,0.021283815,0.033668231
1.76967E+18,4.890712646,0.133164608,-0.055833531,-0.051453124,0.00487839,0.002684956,0.027959559
1.76967E+18,4.900700928,0.137282272,-0.070410338,-0.041371875,-0.004120698,-0.020734349,0.023504889
1.76967E+18,4.910689697,0.087503511,-0.05392799,-0.025293139,-0.010918006,-0.039810594,0.019190263
1.76967E+18,4.920678955,0.029580607,-0.033186815,-0.038958968,-0.016553255,-0.049861897,0.019378815
1.76967E+18,4.930667725,-0.009883242,-0.015347791,-0.061345865,-0.016801627,-0.052947901,0.015619086
1.76967E+18,4.940655518,0.035501375,0.012661329,-0.078351652,-0.014819438,-0.05044027,0.013786297
1.76967E+18,4.950644775,0.037926118,0.039611295,-0.107997726,-0.011910197,-0.043459099,0.01453366
1.76967E+18,4.960633789,0.015651158,0.06878186,-0.127663672,-0.009761292,-0.030505482,0.018247971
1.76967E+18,4.970622559,-0.004825813,0.052817982,-0.134201842,-0.006759111,-0.023334388,0.025101881
1.76967E+18,4.98061084,0.004304127,0.040834115,-0.109700438,-0.006591066,-0.018477315,0.026997253
1.76967E+18,4.990599609,0.015863924,0.001260814,-0.100411801,-0.009231302,-0.010489443,0.024194445
1.76967E+18,5.000588623,0.024167496,-0.053739773,-0.077438337,-0.012350396,-0.005659801,0.015723994
1.76967E+18,5.010577637,0.054890113,-0.076819036,-0.084348555,-0.014229063,-0.006691095,0.007043011
1.76967E+18,5.020565674,0.089034666,-0.081718498,-0.078130703,-0.013261536,-0.008452775,0.005240317
1.76967E+18,5.030554932,0.065216569,-0.039589668,-0.07422522,-0.011642214,-0.00628787,0.005478978
1.76967E+18,5.040543701,0.050656128,-0.027488311,-0.070401278,-0.009349232,-0.002215631,0.009745894
1.76967E+18,5.050532715,0.067151628,-0.027954175,-0.087130294,-0.008263655,0.005576372,0.012301545
1.76967E+18,5.060520752,0.073887805,-0.057598787,-0.114913789,-0.009748634,0.009992959,0.015240609
1.76967E+18,5.070509766,0.039574762,-0.057788172,-0.162156309,-0.007911537,0.009350499,0.016901584
1.76967E+18,5.080498535,0.026232466,-0.042167409,-0.153732764,-0.007906743,0.014195322,0.014290887
1.76967E+18,5.090487793,0.035999826,-0.03242869,-0.132545015,-0.004986395,0.013008241,0.015271523
1.76967E+18,5.10047583,0.043408057,-0.016729601,-0.12414865,-0.005095585,0.010642821,0.013876826
1.76967E+18,5.1104646,0.059675886,0.007476035,-0.072619538,-0.005415697,0.010616723,0.013265098
1.76967E+18,5.120453857,0.03961451,0.04469722,-0.029995325,-0.005402381,0.015029847,0.01107518
1.76967E+18,5.130442627,0.034619186,0.069475687,-0.033497196,-0.004720306,0.024484243,0.012622055
1.76967E+18,5.14043042,0.02194792,0.045015784,-0.020499475,-0.001772187,0.034612242,0.019217374
1.76967E+18,5.150419678,0.010250468,0.003163432,-0.012701076,0.000906573,0.042633925,0.020452563
1.76967E+18,5.160408691,0.0361141,-0.021107085,-0.041437926,0.003305814,0.045824923,0.02213648
1.76967E+18,5.170397705,0.060316814,-0.064766779,-0.047421676,0.005718543,0.045036022,0.024383591
1.76967E+18,5.180385742,0.079536186,-0.068736852,-0.028943478,0.006284465,0.039527006,0.025682682
1.76967E+18,5.190374756,0.073667586,-0.052276715,-0.022123277,0.004001315,0.031083766,0.029134484
1.76967E+18,5.20036377,0.074360244,-0.066699208,-6.95581E-05,0.001243878,0.024879932,0.034717534
1.76967E+18,5.210352539,0.086589904,-0.067983987,0.014650749,-0.002717428,0.015923426,0.033462409
1.76967E+18,5.220340576,0.06349106,-0.044346507,0.010359481,-0.003995479,0.007873489,0.032896485
1.76967E+18,5.230329834,0.028357787,-0.049093994,-0.001460428,-0.00805172,0.002964446,0.033661738
1.76967E+18,5.240318604,-0.002057955,-0.035060207,-0.018179215,-0.004649533,0.007242281,0.028437681
1.76967E+18,5.250307373,0.005989011,-0.01847966,-0.008567922,-0.008022351,0.00990929,0.025340835
1.76967E+18,5.26029541,0.000277063,0.002913842,0.007894553,-0.007823413,0.004309461,0.021613207
1.76967E+18,5.270284424,0.013819267,-0.014501988,-2.07505E-05,-0.008148001,-0.008995527,0.016873537
1.76967E+18,5.280273438,0.066496671,-0.042134091,-0.04795213,-0.009099282,-0.012996394,0.014179749
1.76967E+18,5.290262451,0.090838209,-0.045453007,-0.057063365,-0.013373801,-0.014828095,0.013829852
1.76967E+18,5.300250244,0.08219313,-0.050379942,-0.05287965,-0.012794564,-0.020339508,0.012300931
1.76967E+18,5.310239258,0.098765787,-0.063690674,-0.052084115,-0.014051044,-0.018609244,0.010842789
1.76967E+18,5.320228271,0.097338092,-0.038632221,-0.076461601,-0.013112281,-0.016658744,0.007732749
1.76967E+18,5.330217529,0.077742434,-0.03206804,-0.071525021,-0.013018053,-0.014706017,0.008169077
1.76967E+18,5.340205566,-0.001053601,-0.07058511,-0.081916067,-0.01350621,0.005131602,0.008505701
1.76967E+18,5.350194336,-0.073124857,-0.145260119,-0.075566698,-0.013972989,0.026961641,-0.000921682
1.76967E+18,5.360183594,-0.080171123,-0.207736157,-0.056507192,-0.009454936,0.041897181,-0.017287606
1.76967E+18,5.370172363,-0.016870617,-0.198235923,-0.054241586,-0.003684964,0.048276585,-0.034539662
1.76967E+18,5.380160156,0.013723259,-0.127716864,-0.051595163,-0.001071604,0.059326041,-0.040008996
1.76967E+18,5.390149414,0.010360066,-0.077483637,-0.057986325,0.002246701,0.07062874,-0.027949486
1.76967E+18,5.400138428,0.024210897,-0.050711366,-0.007052257,0.003299449,0.06843856,-0.01378999
1.76967E+18,5.410127197,0.13343378,-0.037394788,0.025391046,0.003489407,0.05124132,-0.004298673
1.76967E+18,5.420115479,0.239248317,-0.049949149,0.021079613,-0.001465138,0.031217812,0.000809803
1.76967E+18,5.430104248,0.288506268,-0.062971128,0.010555589,-0.002292945,0.020564569,0.004713871
1.76967E+18,5.440093018,0.209689629,-0.078662618,0.015827391,-0.005696731,0.014461935,0.007559991
1.76967E+18,5.450082275,0.151454006,-0.065803721,-0.000789689,-0.006455403,0.012513695,0.001221962
1.76967E+18,5.460070313,0.127956518,-0.05837094,-0.018579321,-0.005543803,0.018409403,-0.005713441
1.76967E+18,5.47005957,0.073607673,-0.061439096,-0.072860946,-0.00168146,0.038034596,-0.006381205
1.76967E+18,5.48004834,-0.023692133,-0.067642042,-0.106862876,-0.000759474,0.056530248,-0.003409384
1.76967E+18,5.490037354,-0.081986355,-0.036892099,-0.124971365,0.007265695,0.073289521,-0.005780662
1.76967E+18,5.500025391,-0.08235855,-0.038556233,-0.098407183,0.012538222,0.086740881,-0.009370337
1.76967E+18,5.51001416,-0.073893796,-0.078340546,-0.072667177,0.015376959,0.096157134,-0.019072825
1.76967E+18,5.520003174,-0.038193829,-0.09931553,-0.047278469,0.01598496,0.096568592,-0.03042002
1.76967E+18,5.529992432,0.007134528,-0.122407067,-0.01191431,0.015295273,0.085139759,-0.037795566
1.76967E+18,5.539980469,0.04006766,-0.132498253,0.01056348,0.008691433,0.07695587,-0.042243578
1.76967E+18,5.549969238,0.120845809,-0.084633509,0.024275194,0.003299234,0.060253512,-0.041727252
1.76967E+18,5.559958496,0.162491825,-0.036435003,0.038856969,-0.002137876,0.036086921,-0.033094883
1.76967E+18,5.569947266,0.193865453,-0.00844751,0.032041444,-0.001986248,0.018731713,-0.025229502
1.76967E+18,5.579935059,0.205926623,0.031465398,0.021669103,-0.000814724,0.012366227,-0.016502323
1.76967E+18,5.589924316,0.162210231,0.054706573,-0.0081269,0.000563025,0.008791539,-0.008546333
1.76967E+18,5.59991333,0.103426764,0.040467035,-0.011442308,0.00510185,0.012263236,-0.008565241
1.76967E+18,5.609902344,0.048064066,0.024996494,-0.023535482,0.008427223,0.018132271,-0.01621802
1.76967E+18,5.619890381,0.019212065,0.017450316,-0.042385144,0.011868293,0.024003211,-0.026985448
1.76967E+18,5.629879395,0.014354689,0.02228139,-0.064182842,0.016648641,0.020477228,-0.035047546
1.76967E+18,5.639868164,0.000560264,-0.004817629,-0.07516367,0.017906452,0.014111474,-0.037979688
1.76967E+18,5.649857178,-0.005699673,-0.012055764,-0.090487203,0.018846551,0.021754226,-0.040300701
1.76967E+18,5.659845215,0.011995558,-0.029081133,-0.073652388,0.019522993,0.019516371,-0.035340562
1.76967E+18,5.669834473,0.032378713,-0.060533087,-0.050092357,0.015337889,0.020009188,-0.0304188
1.76967E+18,5.679823242,0.039902825,-0.073272741,-0.031755905,0.012039297,0.017784117,-0.026556684
1.76967E+18,5.6898125,0.032041006,-0.039835167,-0.03644494,0.011377657,0.00881856,-0.021986421
1.76967E+18,5.699800293,0.02804916,-0.045668111,-0.02064882,0.012031462,0.013341939,-0.023408016
1.76967E+18,5.709789063,0.030293431,-0.050617842,0.001289748,0.012611195,0.015513033,-0.022521764
1.76967E+18,5.71977832,0.013790333,-0.070753452,-0.004546704,0.015178747,0.013416059,-0.020590173
1.76967E+18,5.729767334,0.023963059,-0.047959437,0.014039924,0.020033859,0.007978351,-0.015784357
1.76967E+18,5.739755371,0.02475947,-0.017927286,-0.004472761,0.020976884,0.006150357,-0.010204767
1.76967E+18,5.749744385,0.049191316,0.007556114,-0.016924539,0.020903595,-0.001425994,-0.007641773
1.76967E+18,5.759733398,0.073847619,0.016114099,-0.015407705,0.018956024,-0.000563662,-0.006166914
1.76967E+18,5.769722412,0.055827978,-0.004754501,-0.021427403,0.018124878,0.002829713,-0.00593197
1.76967E+18,5.779710205,0.008687164,-0.002923778,-0.017708967,0.015405791,0.00232318,-0.005760197
1.76967E+18,5.789699219,-0.006844459,-0.027767712,-0.055664312,0.015325634,0.000459759,-0.007939668
1.76967E+18,5.799688477,-0.04462357,-0.029809447,-0.056246788,0.01361109,0.004188717,-0.013998093
1.76967E+18,5.809677246,-0.02122019,-0.041941784,-0.078041856,0.011699691,0.004903872,-0.020427927
1.76967E+18,5.819665283,0.001812018,-0.048577276,-0.066305241,0.009257839,0.001823127,-0.028742049
1.76967E+18,5.829654541,0.020308921,-0.035972062,-0.070324998,0.008361516,-0.004857338,-0.034615323
1.76967E+18,5.839643311,0.04433277,-0.036484687,-0.064785191,0.006767081,-0.003071955,-0.035224654
1.76967E+18,5.84963208,0.058951078,-0.033171617,-0.090732703,0.006368251,0.004016081,-0.031049691
1.76967E+18,5.859620361,0.057826604,0.022431028,-0.063906363,0.006851082,0.002750814,-0.022538494
1.76967E+18,5.869609375,0.038538697,0.000287,-0.05202274,0.006240453,0.003227464,-0.013520731
1.76967E+18,5.879598389,0.037781449,-0.026611528,-0.054047232,0.008217582,0.013783969,-0.009682051
1.76967E+18,5.889586426,0.044031157,-0.029863808,-0.047439504,0.010678587,0.017312434,-0.009431365
1.76967E+18,5.899575439,0.042021571,-0.060363576,-0.062532736,0.011900445,0.01420852,-0.011247907
1.76967E+18,5.909564209,0.058681322,-0.063358666,-0.085382281,0.011156253,0.018565921,-0.016713159
1.76967E+18,5.919553223,0.059033934,-0.006298808,-0.034542613,0.01179914,0.011204945,-0.016686793
1.76967E+18,5.92954126,0.011332418,-0.011722586,-0.00995733,0.010848077,0.004243539,-0.0144515
1.76967E+18,5.939530518,0.001904957,-0.02521569,-0.052749886,0.012708828,0.001487167,-0.016552469
1.76967E+18,5.949519287,0.019193361,0.016060908,-0.025133564,0.011048231,-0.005733489,-0.021991692
1.76967E+18,5.959508301,0.04654957,0.000441314,-0.052319385,0.009099863,-0.011555159,-0.017699741
1.76967E+18,5.969496338,-0.017771073,-0.041431496,-0.066817282,0.009599546,-0.003124812,-0.019962691
1.76967E+18,5.979485107,-0.025355391,0.01427344,-0.081730773,0.006921206,0.007661256,-0.020783478
1.76967E+18,5.989474121,-0.025559096,-0.035165421,-0.092328447,0.005586332,0.02536482,-0.020076266
1.76967E+18,5.999463379,-0.031324674,-0.041588732,-0.077853932,0.004533318,0.031323377,-0.025844406
1.76967E+18,6.009451416,0.018915421,-0.032599955,-0.076389704,0.00913419,0.040132586,-0.02803598
1.76967E+18,6.01944043,0.026209962,-0.020246669,-0.067964406,0.011224505,0.045097519,-0.025428213
1.76967E+18,6.029429443,0.016893413,-0.021631986,-0.045777124,0.012689685,0.043267313,-0.020542115
1.76967E+18,6.039418213,0.033341129,-0.008798223,-0.009425415,0.012447338,0.036827523,-0.015241625
1.76967E+18,6.04940625,0.015331132,-0.004698387,-0.01877835,0.00946563,0.032391556,-0.008939823
1.76967E+18,6.059395264,-0.007760113,-0.046953474,-0.016930384,0.005481808,0.029922802,-0.014504498
1.76967E+18,6.069384277,-0.004639935,-0.060081836,-0.021730478,0.001909789,0.03012158,-0.023020755
1.76967E+18,6.079373291,0.010175649,-0.049184594,-0.021073475,0.004779079,0.031932529,-0.030390255
1.76967E+18,6.089361328,0.002615443,-0.01749474,-0.011876023,0.005752513,0.032767609,-0.031952634
1.76967E+18,6.099350586,0.03671645,-0.013282091,-0.018858137,0.008532321,0.035492823,-0.027118463
1.76967E+18,6.109339355,0.085750823,-0.02129121,0.001025251,0.006774754,0.03252181,-0.016299531
1.76967E+18,6.119328125,0.135427438,-0.00439502,0.029632045,0.001036707,0.023929656,-0.007034127
1.76967E+18,6.129316406,0.145639766,0.008162848,0.057444473,-0.003796314,0.012204649,0.002210921
1.76967E+18,6.13930542,0.17837723,-0.019916414,0.055442193,-0.008884283,0.000460907,-0.000863698
1.76967E+18,6.149294189,0.153732472,-0.021183658,0.046600131,-0.014149725,-0.014656559,-0.001074284
1.76967E+18,6.159283447,0.087896018,-0.057440966,0.026565351,-0.015772922,-0.026101226,-0.002423175
1.76967E+18,6.169271484,0.015843174,-0.051382981,0.005065467,-0.015225424,-0.024080066,-0.003178548
1.76967E+18,6.17926001,-0.036840515,-0.028713469,-0.036146541,-0.010569153,-0.020242983,-0.005104546
1.76967E+18,6.189249268,-0.034484161,-0.008153496,-0.06389438,-0.004891005,-0.012163007,-0.00339508
1.76967E+18,6.199238281,-0.036373628,0.023199089,-0.075742931,0.000264075,-0.003116514,-0.000680253
1.76967E+18,6.209226318,-0.047542672,0.041850014,-0.057655486,0.004146288,0.004277252,-0.000520489
1.76967E+18,6.219215332,-0.03980331,-0.000400982,-0.069742229,0.006056041,0.008601959,-0.00307952
1.76967E+18,6.229204346,-0.004810615,0.002490063,-0.056361354,0.007868129,0.014668766,-0.011599425
1.76967E+18,6.239193359,0.01690788,-0.003806991,-0.070007894,0.010559252,0.021333858,-0.011354413
1.76967E+18,6.249181641,-0.019276947,-0.040194648,-0.068869246,0.014385507,0.031093625,-0.019607812
1.76967E+18,6.259170654,0.072776775,0.003625789,-0.053541621,0.015500306,0.039766207,-0.021088529
1.76967E+18,6.269159912,0.108055447,-0.096458971,-0.06616174,0.019910214,0.050093178,-0.019355137
1.76967E+18,6.279148682,0.110526075,-0.094758597,-0.023956922,0.017650522,0.052965131,-0.011219713
1.76967E+18,6.289136475,0.085260993,-0.065517305,-0.0141843,0.014071738,0.04509316,-0.001966398
1.76967E+18,6.299125732,0.102530108,-0.048460372,0.003700024,0.011220291,0.041838776,-0.00326176
1.76967E+18,6.309114502,0.131784844,-0.058221303,0.011030805,0.008967699,0.027705826,-0.009387769
1.76967E+18,6.31910376,0.10764409,-0.009823475,0.028975042,0.001060241,0.019154416,-0.0213672
1.76967E+18,6.329091797,0.09702625,-0.07836685,-0.046470367,0.005811583,0.017744819,-0.027651317
1.76967E+18,6.339080811,0.04713643,-0.079339494,0.013987901,-0.002872719,0.018700095,-0.035233602
1.76967E+18,6.349069824,0.043348436,-0.06231471,-0.06427695,-0.001901075,0.026836609,-0.02956902
1.76967E+18,6.359058838,-0.091503395,-0.082982235,-0.001681962,-0.003033185,0.034709446,-0.03090859
1.76967E+18,6.369046631,-0.054943596,-0.029629999,-0.008440788,-0.004780171,0.024798928,-0.022228917
1.76967E+18,6.379035645,-0.105553547,-0.010546528,-0.028246436,-0.006302434,0.018364465,-0.018196359
1.76967E+18,6.389024658,-0.098323304,-0.012998013,-0.012813012,-0.009476846,0.016763216,-0.016744466
1.76967E+18,6.399013916,-0.098778062,-0.003092705,-0.009008651,-0.013983713,-0.001743356,-0.012745995
1.76967E+18,6.409001709,-0.101973351,0.022038813,-0.013413608,-0.017337674,-0.000695446,-0.013786843
1.76967E+18,6.418990723,-0.074788407,-0.028414778,-0.005496844,-0.011859286,-0.002288016,-0.003040189
1.76967E+18,6.428979736,-0.091859953,-0.006979191,0.038406303,-0.016502291,-0.012732316,-0.015569395
1.76967E+18,6.438968506,0.026074352,0.018377953,-0.04302578,-0.014145658,-0.028188504,-0.024221737
1.76967E+18,6.448956543,0.070770111,0.034908816,-0.037482174,-0.011374718,-0.03273382,-0.026443079
1.76967E+18,6.458945801,0.081136607,-0.014237784,-0.067483344,-0.012582195,-0.029792363,-0.006689084
1.76967E+18,6.468934814,-0.040496553,0.059150108,-0.029931028,-0.01434738,-0.026702205,0.004616194
1.76967E+18,6.478923828,0.011046879,0.023955461,-0.01767185,-0.009040499,-0.021271221,0.002511498
1.76967E+18,6.488911621,0.158017894,-0.033674891,0.033637773,-0.004312686,-0.020574613,-0.00920301
1.76967E+18,6.498900635,0.214589384,-0.057063949,0.042967912,-0.001788009,-0.02493687,-0.012397738
1.76967E+18,6.508889648,0.166373635,-0.046188335,0.024898587,-0.005775812,-0.030663237,-0.00877491
1.76967E+18,6.518878662,0.146323657,-0.063541037,0.015164251,-0.00457153,-0.038087066,-0.006775675
1.76967E+18,6.528866699,0.155964761,-0.044898295,0.028095337,-0.005979365,-0.043673132,-0.0031689
1.76967E+18,6.538855957,0.140094699,-0.034211482,0.002532733,-0.00133348,-0.056817699,0.003641069
1.76967E+18,6.548844727,0.083064068,-0.028012043,0.001783961,-0.004146359,-0.061764158,0.012159027
1.76967E+18,6.55883374,-0.039945934,-0.034185763,-0.070796122,-0.001544451,-0.061811827,0.01513724
1.76967E+18,6.568821777,-0.093516926,-4.67618E-06,-0.072297759,-0.007383094,-0.056866217,0.011970354
1.76967E+18,6.578810547,-0.077160835,-0.010310966,-0.126405197,-0.002259172,-0.040539712,0.008905589
1.76967E+18,6.588799561,-0.066946607,0.014175825,-0.106341191,0.004007967,-0.016130079,-0.002008844
1.76967E+18,6.598788818,-0.005401859,-0.002187865,-0.096572076,0.014191895,-0.000604383,-0.005576948
1.76967E+18,6.608776855,0.019645635,0.006800328,-0.056496086,0.01640201,0.00629436,-0.008103862
1.76967E+18,6.618765869,0.067335607,-0.010521394,-0.063786536,0.013909558,0.006200084,0.013519142
1.76967E+18,6.628754883,-0.023348288,-0.058740943,-0.053458326,0.0164997,0.009159751,0.014430046
1.76967E+18,6.638743408,0.040522565,-0.036007717,-0.009503741,0.00492427,-0.007884745,0.011961296
1.76967E+18,6.648731689,0.111802671,-0.10044658,-0.046100072,-0.000963979,-0.022855716,0.004939669
1.76967E+18,6.658720703,0.098205523,-0.108650344,-0.035381402,-0.00832256,-0.026815036,0.002083163
1.76967E+18,6.668709717,0.060811027,-0.087957685,-0.055620765,-0.011572971,-0.026984094,0.002988389
1.76967E+18,6.67869873,0.012096096,-0.035283495,-0.039392099,-0.012473119,-0.029093584,-0.001577866
1.76967E+18,6.688686768,0.024136078,-0.023476737,-0.057848086,-0.010826392,-0.026296934,-0.002599594
1.76967E+18,6.698675537,0.002919687,0.008059972,-0.058124564,-0.009403998,-0.023351746,-0.000972136
1.76967E+18,6.708664551,-0.010537907,0.007432196,-0.072212711,-0.01110279,-0.021658849,0.004580272
1.76967E+18,6.718653564,-0.050445408,0.023680151,-0.069038173,-0.009360284,-0.010493279,0.008989934
1.76967E+18,6.728641846,-0.049470133,0.012064532,-0.046163201,-0.010266815,-0.00654781,0.011383104
1.76967E+18,6.738630859,0.0038482,0.001042203,-0.036767596,-0.008447343,-0.012366017,0.012471005
1.76967E+18,6.748619629,0.045856911,0.005119827,-0.012111001,-0.004970028,-0.017299043,0.017473465
1.76967E+18,6.758608887,0.04252046,0.037590018,-0.008987901,-0.008203904,-0.020364076,0.024255205
1.76967E+18,6.76859668,0.024020343,0.058439329,0.008575521,-0.009074396,-0.019087281,0.031031948
1.76967E+18,6.778585449,0.011229835,0.059176412,0.01969225,-0.013282989,-0.017884331,0.033645574
1.76967E+18,6.788574707,0.022876725,0.005528408,-0.016298516,-0.018482689,-0.016463246,0.028455911
1.76967E+18,6.798563721,0.003470599,-0.096088384,-0.036192719,-0.019837171,-0.006566141,0.016437065
1.76967E+18,6.808551758,0.027125177,-0.165934659,-0.065037705,-0.018233757,-0.002621852,0.002270237
1.76967E+18,6.818540771,0.038199675,-0.15944062,-0.10164748,-0.016057955,0.001006705,-0.00996033
1.76967E+18,6.828529785,0.049320203,-0.115139122,-0.116089262,-0.012508541,0.004718449,-0.008749821
1.76967E+18,6.838518555,0.046702422,-0.024059506,-0.064271981,-0.007029088,0.013552421,-0.002025606
1.76967E+18,6.848506592,0.056998483,0.001250877,-0.04914134,-0.002965733,0.014860226,0.011523964
1.76967E+18,6.858495605,0.090789401,0.028175709,-0.033463294,-0.000593655,0.010497701,0.022171814
1.76967E+18,6.868484863,0.119171154,0.023424715,0.00249094,-0.002763501,0.007814366,0.034100235
1.76967E+18,6.878473633,0.102620709,0.006765256,0.005732406,-0.008564664,0.006941115,0.042015415
1.76967E+18,6.88846167,0.079050594,0.026889176,0.022621874,-0.010628566,-0.006017123,0.050580304
1.76967E+18,6.898450928,0.059176704,0.023133038,0.036426527,-0.009208302,-0.018823998,0.048068412
1.76967E+18,6.908439453,0.084284403,0.008572598,0.014627368,-0.01120887,-0.027614821,0.037452724
1.76967E+18,6.918428711,0.071464669,-0.010485738,-0.027855391,-0.011359073,-0.033437021,0.032143712
1.76967E+18,6.928416748,0.014709786,-0.055381695,-0.064320789,-0.008698137,-0.029960081,0.025201919
1.76967E+18,6.938405762,-0.002217384,-0.080941669,-0.099505792,-0.004255186,-0.023287797,0.02019571
1.76967E+18,6.948394775,0.006473872,-0.099966687,-0.075508245,-8.67819E-05,-0.01240137,0.018017692
1.76967E+18,6.958383789,0.032801615,-0.067781158,-0.03388678,0.003009143,-0.005471293,0.017234456
1.76967E+18,6.968371582,0.026901743,-0.060179451,-0.042257425,0.004537458,-0.011251811,0.01546657
1.76967E+18,6.978360596,0.043587359,-0.050487494,-0.018978549,0.002431164,-0.017053507,0.014319813
1.76967E+18,6.988349609,0.074137249,-0.035731823,-0.023591888,0.000206502,-0.019878887,0.014033549
1.76967E+18,6.998338867,0.071518299,-0.02041735,-0.027686464,-0.002843616,-0.027041193,0.017474618
1.76967E+18,7.008326904,0.060306585,0.003560907,-0.024684359,-0.004625127,-0.024317317,0.027352648
1.76967E+18,7.018315674,-0.043094169,0.011519173,-0.021292087,-0.0027974,-0.021820603,0.030101296
1.76967E+18,7.028304932,-0.019131401,-0.009585574,-0.028410979,-0.001055714,-0.018784022,0.026992135
1.76967E+18,7.038293701,-0.000450082,-0.035078912,-0.034752457,0.004283392,-0.022047993,0.018927816
1.76967E+18,7.048281494,-0.013323592,-0.023531098,-0.029688451,0.004327648,-0.008439334,0.01774314
1.76967E+18,7.058270752,-0.061864335,-0.045364744,-0.014364918,-0.000653262,8.73085E-05,0.017860319
1.76967E+18,7.068259766,-0.067312372,-0.055897244,-0.017686171,-0.000518917,0.002887378,0.015000658
1.76967E+18,7.078247803,-0.023553602,-0.063346391,-0.019600188,-0.001888847,-0.00600758,0.020180507
1.76967E+18,7.088236816,0.003282967,-0.090980248,-0.035937283,-0.005300697,-0.009915107,0.020030024
1.76967E+18,7.09822583,0.022036183,-0.124184598,-0.036110593,-0.006891403,-0.015523192,0.01825423
1.76967E+18,7.1082146,0.050173021,-0.126415134,-0.045736792,-0.009584631,-0.014812692,0.014954688
1.76967E+18,7.118203613,0.043693011,-0.10391221,-0.0395318,-0.009296477,-0.016874246,0.011916287
1.76967E+18,7.12819165,0.00872925,-0.075616674,-0.026076983,-0.010909626,-0.007923754,0.004826339
1.76967E+18,7.138180908,0.015201369,-0.053300213,-0.05476181,-0.008102654,0.001529402,-0.002447819
1.76967E+18,7.148169678,0.001793313,-0.050830608,-0.051299395,-0.007360631,0.006679289,-0.004081379
1.76967E+18,7.158157715,-0.005246668,-0.066941785,-0.054236033,-0.004919045,0.015820058,-0.00504997
1.76967E+18,7.168146973,0.023905338,-0.063301383,-0.01891016,-0.004349413,0.022659359,-0.002254842
1.76967E+18,7.178135498,0.056003627,-0.050920624,-0.026491409,-0.00196615,0.02529935,0.002163609
1.76967E+18,7.188124512,0.089360245,-0.046498716,-0.030400691,-0.001789075,0.025830694,0.003187945
1.76967E+18,7.19811377,0.133383511,-0.058197337,-0.038076633,-0.001893471,0.026277572,-0.000852603
1.76967E+18,7.208101807,0.146338854,-0.075669866,-0.025095278,-0.003029371,0.022269364,-0.006310028
1.76967E+18,7.218090576,0.1268205,-0.073753803,-0.04040303,-0.00193348,0.020269331,-0.010156698
1.76967E+18,7.228079834,0.086113226,-0.060571081,-0.053664662,-0.000820545,0.022405451,-0.009955629
1.76967E+18,7.238068604,0.070786478,-0.065879124,-0.04389964,-0.001479944,0.023877913,-0.011228886
1.76967E+18,7.248056396,0.046343964,-0.056906129,-0.040933191,-0.001050872,0.023425389,-0.012689332
1.76967E+18,7.258045654,0.060524027,-0.040181204,-0.03117489,-0.000643941,0.023789709,-0.009888752
1.76967E+18,7.268034424,0.075437518,-0.042556116,-0.033543081,-0.002805848,0.021590356,-0.007791486
1.76967E+18,7.278022705,0.076914897,-0.043906362,-0.024696342,-0.001760824,0.014855487,-0.003637221
1.76967E+18,7.288011475,0.103268651,-0.040700844,-0.010723931,-0.003154239,0.009658424,-0.002341756
1.76967E+18,7.298000488,0.110164841,-0.04707447,-0.004769114,-0.000496937,0.004835173,-0.004882677
1.76967E+18,7.307989502,0.092841658,-0.02677461,-0.005242869,0.000820313,0.000783629,-0.001649301
1.76967E+18,7.317978516,0.053888242,-0.006270751,-0.002537994,0.004259253,0.005676655,-0.001078852
1.76967E+18,7.327966553,-0.008493103,0.000192892,-0.002237842,0.006418933,0.009118272,0.002137818
1.76967E+18,7.337955566,-0.028096506,-0.012800445,-0.029049569,0.008849867,0.016560741,0.002958338
1.76967E+18,7.347944336,-0.051263885,-0.040985506,-0.042837563,0.01250273,0.024287753,0.001601603
1.76967E+18,7.357932373,-0.028989948,-0.048443421,-0.054192778,0.014292906,0.029095825,0.002441031
1.76967E+18,7.367921631,-0.000248714,-0.03656652,-0.038707916,0.015388046,0.026673319,0.004630579
1.76967E+18,7.3779104,0.004252981,-0.020527824,-0.014573592,0.014078038,0.029064039,0.005438316
1.76967E+18,7.387899658,0.00897621,-0.032436873,-0.012100772,0.012700144,0.027174748,0.011765903
1.76967E+18,7.397887451,0.018954584,-0.038722822,0.003581073,0.011230878,0.023055904,0.005442493
1.76967E+18,7.407876465,0.053203475,-0.041580549,0.003415069,0.009738539,0.018908637,0.004286209
1.76967E+18,7.417865479,0.052315878,-0.044317865,0.007784663,0.010287683,0.015593268,0.002391636
1.76967E+18,7.427854492,0.07206132,-0.041819619,-0.016201193,0.008868338,0.009731947,0.002403067
1.76967E+18,7.437842529,0.095371614,-0.018874796,-0.01530366,0.006708248,0.007991038,0.00573335
1.76967E+18,7.447831543,0.0960368,0.017609891,-0.000605272,0.003883215,0.007932352,0.012603139
1.76967E+18,7.457820557,0.070469959,0.030198739,0.010200784,0.001246419,0.00325451,0.018161688
1.76967E+18,7.467809814,0.088686291,0.025944589,0.00300152,0.002249367,-0.001528802,0.019434208
1.76967E+18,7.477797607,0.110543026,0.035574587,-0.032080315,0.001118589,-0.006478819,0.019957786
1.76967E+18,7.487786377,0.086837595,0.046477674,-0.037314708,0.003998483,-0.008147459,0.020178398
1.76967E+18,7.497775635,0.067447104,0.031244449,-0.044836336,0.005661893,-0.012205052,0.020138716
1.76967E+18,7.507764404,0.065533379,0.038761985,-0.064773501,0.004800189,-0.013081949,0.020743255
1.76967E+18,7.517752441,0.050893152,0.020891397,-0.060974985,0.007126727,-0.012936541,0.022700146
1.76967E+18,7.527741699,0.016490824,-0.032741409,-0.055073652,0.008741911,-0.013459817,0.019168939
1.76967E+18,7.537730469,-0.009579729,-0.090175361,-0.030566111,0.009821823,-0.014225209,0.009072097
1.76967E+18,7.547719238,-0.01139467,-0.115046183,-0.039885143,0.009926437,-0.014404334,0.002814505
1.76967E+18,7.55770752,-0.043722237,-0.125040338,-0.024590544,0.006540494,-0.008837262,-0.003561103
1.76967E+18,7.567696533,-0.004957622,-0.084798344,-0.024878128,0.008910628,-0.008790504,6.37921E-05
1.76967E+18,7.577685547,0.005888474,-0.066840078,0.04071721,0.00860543,-0.004408539,0.004513934
1.76967E+18,7.587674561,0.049679392,-0.051540218,0.071263155,0.004457128,-0.003189283,0.009469459
1.76967E+18,7.597662598,0.079479195,-0.062013096,0.111650695,-0.001165072,-0.012114334,0.015908716
1.76967E+18,7.607651611,0.098466512,-0.094905312,0.140409172,-0.007555715,-0.030042766,0.01630928
1.76967E+18,7.617640381,0.12077026,-0.103249362,0.14871552,-0.01779264,-0.049467064,0.014512978
1.76967E+18,7.627629395,0.136641344,-0.088425887,0.128872464,-0.022179859,-0.069134906,0.01018296
1.76967E+18,7.637617676,0.153605192,-0.043242929,0.107961193,-0.025187368,-0.083930098,0.00776987
1.76967E+18,7.647606445,0.133631933,-0.033774259,0.036266368,-0.026939459,-0.09026736,0.014132223
1.76967E+18,7.657595703,0.073555358,-0.024710663,-0.012655191,-0.023046451,-0.085107759,0.019402353
1.76967E+18,7.667584717,0.033988633,-0.007133505,-0.04451631,-0.022175949,-0.083780542,0.026491962
1.76967E+18,7.67757251,-0.005829145,-0.034618893,-0.047712476,-0.023034552,-0.080697671,0.02744857
1.76967E+18,7.687561523,-0.021096272,-0.056073185,-0.045305707,-0.020055437,-0.072865531,0.022047991
1.76967E+18,7.697550537,-0.034680268,-0.054326633,-0.063379124,-0.020726021,-0.063856058,0.014781555
1.76967E+18,7.707539551,-0.052742579,-0.056333882,-0.079727909,-0.020142376,-0.047245681,0.013707724
1.76967E+18,7.717527588,-0.048935004,-0.052016018,-0.090894323,-0.018534891,-0.025661025,0.007674067
1.76967E+18,7.727516602,-0.017236381,-0.050654667,-0.106281277,-0.015097278,-0.007456178,0.005388206
1.76967E+18,7.737505615,0.008144582,-0.028612931,-0.134761229,-0.010756591,0.008869532,0.005629222
1.76967E+18,7.747494385,0.003253741,-0.041831894,-0.13333938,-0.010212217,0.021678494,0.002145457
1.76967E+18,7.757482422,-0.004472469,-0.038054713,-0.128017016,-0.011405047,0.028873025,-0.001825582
1.76967E+18,7.767471436,-0.029192192,-0.065062547,-0.149206227,-0.014907662,0.03866259,-0.009917842
1.76967E+18,7.777460449,-0.112305506,-0.166737792,-0.199575647,-0.010025288,0.047056872,-0.029957596
1.76967E+18,7.787449463,-0.096205727,-0.109426005,-0.137728263,-0.00806922,0.06055728,-0.045997202
1.76967E+18,7.797437744,-0.075789108,-0.074893621,-0.136094816,-0.007984265,0.075876042,-0.044244576
1.76967E+18,7.807426514,-0.105030108,-0.065519643,-0.102844873,-0.009486919,0.092614748,-0.033620551
1.76967E+18,7.817415283,-0.09576076,-0.003638649,-0.058013213,-0.01640448,0.090231217,-0.01809299
1.76967E+18,7.827404541,-0.018831103,0.061420976,-0.034740182,-0.020570926,0.073966891,-0.003982677
1.76967E+18,7.837392578,0.064418988,0.08590309,-0.02148381,-0.02704294,0.06001991,0.003206792
1.76967E+18,7.847381348,0.127596306,0.083990535,-0.00108458,-0.031897299,0.0404208,0.007615941
1.76967E+18,7.857370605,0.118392571,0.037689971,-0.03086714,-0.038898479,0.027855206,0.010482034
1.76967E+18,7.867359619,0.093666126,0.024434184,-0.064876377,-0.044895023,0.014170371,0.007798365
1.76967E+18,7.877347412,0.117267074,0.020405075,-0.072122402,-0.046635665,0.010172432,0.005715507
1.76967E+18,7.887336426,0.061752692,0.030502106,-0.090887309,-0.047900762,0.01502969,0.011683653
1.76967E+18,7.897325439,-0.009668869,0.054054831,-0.078462711,-0.044926811,0.021470279,0.012327072
1.76967E+18,7.907314697,-0.010686229,0.053053545,-0.080133859,-0.038366675,0.026543377,0.009975852
1.76967E+18,7.91730249,-0.009830197,-0.002723287,-0.108810503,-0.031553511,0.032606065,0.003834071
1.76967E+18,7.927291504,-0.017453824,-0.031367198,-0.102424017,-0.02377611,0.039720643,-0.001764882
1.76967E+18,7.937280762,-0.018313948,-0.010531915,-0.106305243,-0.014835079,0.051867854,-0.008604146
1.76967E+18,7.947269531,-0.072712331,-0.034315527,-0.129994746,-0.007657205,0.065375954,-0.013292004
1.76967E+18,7.957257324,-0.076512454,-0.05198387,-0.106163788,6.59623E-05,0.081947476,-0.020999193
1.76967E+18,7.967246582,-0.060999535,-0.033611762,-0.091960491,0.010946061,0.099615909,-0.024358913
1.76967E+18,7.977235352,-0.045684331,-0.054032619,-0.047827627,0.014005501,0.10666769,-0.026991716
1.76967E+18,7.987224609,-0.028970512,-0.062545011,-0.036697453,0.017019598,0.096052743,-0.024833573
1.76967E+18,7.997212646,0.008754677,-0.070451839,-0.01238485,0.015835822,0.080320388,-0.021974403
1.76967E+18,8.00720166,0.022485973,-0.052853638,0.018182138,0.009508854,0.05551137,-0.015960781
1.76967E+18,8.01719043,0.007812573,-0.042909167,0.022793139,0.007695774,0.029816391,-0.011005437
1.76967E+18,8.027179443,0.020112521,-0.038037762,0.023529052,0.005991157,0.014850609,-0.01439603
1.76967E+18,8.03716748,1.27134E-05,-0.062076225,0.013240882,0.010289765,0.014631163,-0.02377728
1.76967E+18,8.047156494,-0.011237141,-0.081579382,-0.007229951,0.012503941,0.016459646,-0.03593576
1.76967E+18,8.057145508,-0.054074266,-0.068950787,-0.033967152,0.018363696,0.023669623,-0.043261584
1.76967E+18,8.067133545,-0.102155868,-0.042122401,-0.048178924,0.022743721,0.03626306,-0.051888239
1.76967E+18,8.077122803,-0.094567458,-0.021897359,-0.026016485,0.027249524,0.048850492,-0.058347203
1.76967E+18,8.087111328,-0.097931674,-0.066284782,-0.034132571,0.031645846,0.058225386,-0.054615434
1.76967E+18,8.097100586,-0.075069123,-0.138647423,-0.067390698,0.035531666,0.060367897,-0.069460422
1.76967E+18,8.107088623,0.093526717,-0.046021162,-0.015558511,0.035246879,0.056417033,-0.080680713
1.76967E+18,8.117077393,0.118329296,-0.001954641,-0.03332067,0.040532984,0.050715204,-0.079853274
1.76967E+18,8.12706665,0.033870559,-0.013202011,0.011591069,0.036517855,0.044327889,-0.068446577
1.76967E+18,8.137055664,-0.030834991,-0.04553484,0.00215221,0.032114051,0.037790097,-0.052841518
1.76967E+18,8.147043457,-0.042191082,-0.095668113,0.003800854,0.03150608,0.025015138,-0.042488832
1.76967E+18,8.157032471,-0.013264263,-0.090660514,0.026418928,0.029669032,0.010949386,-0.040244054
1.76967E+18,8.167021484,0.036307285,-0.055421443,0.028693887,0.026055556,0.013195155,-0.035696767
1.76967E+18,8.177010742,-0.019643443,0.041990299,0.07476941,0.024861127,0.010217475,-0.031378984
1.76967E+18,8.186998535,-0.062067165,0.126826637,0.096932142,0.023845449,0.005362446,-0.025339635
1.76967E+18,8.196987549,-0.068193246,0.093428225,0.045424365,0.021952741,0.013660857,-0.02357316
1.76967E+18,8.206976807,-0.082555826,0.013413608,0.023740064,0.022205789,0.01604642,-0.023979129
1.76967E+18,8.216965576,-0.012006372,-0.010054946,0.028690088,0.020000426,0.009433791,-0.026748551
1.76967E+18,8.226953369,0.056624681,-0.033717561,-0.015707857,0.022061611,0.002832013,-0.030170301
1.76967E+18,8.236942627,0.082870883,-0.00240823,-0.025837621,0.020045599,0.002091122,-0.032280322
1.76967E+18,8.246932129,0.103327103,0.014955577,-0.037620121,0.018395919,0.002482835,-0.03015903
1.76967E+18,8.256921387,0.084033205,-0.016355507,-0.014618892,0.014495453,0.006225375,-0.026863903
1.76967E+18,8.26690918,0.071142159,-0.054181088,-0.027812428,0.010244974,0.007987746,-0.027647346
1.76967E+18,8.276897949,0.059010992,-0.073346391,-0.030479309,0.010603435,0.005808747,-0.031649012
1.76967E+18,8.286887207,0.07033172,-0.053446344,-0.019122049,0.008697315,0.006337045,-0.038571693
1.76967E+18,8.296876221,0.054874915,-0.057350365,-0.044052784,0.009002247,0.001060524,-0.042043924
1.76967E+18,8.306864258,0.050322659,-0.026201778,-0.069801266,0.008717529,-0.004560825,-0.039823622
1.76967E+18,8.316853271,0.070144673,-0.019240123,-0.052768883,0.013264876,0.002446484,-0.02946526
1.76967E+18,8.326842285,0.085782387,0.035157238,-0.018780981,0.014618274,0.011369708,-0.017485153
1.76967E+18,8.336831055,0.054143094,0.044395022,0.014175825,0.011939134,0.015645413,-0.001412709
1.76967E+18,8.346819092,0.028823651,-0.021665304,0.006677578,0.009753065,0.014101876,0.002249648
1.76967E+18,8.356808105,0.072185239,-0.031911973,0.007414952,0.004400378,0.008306304,0.0013495
1.76967E+18,8.366797363,0.103584293,-0.053522331,0.009373393,-0.00111026,0.001030067,-0.000517355
1.76967E+18,8.376786133,0.108199678,-0.078021397,-0.005066636,-0.003392057,-0.003454962,-0.007631457
1.76967E+18,8.38677417,0.0931082,-0.076299396,-0.022607553,-0.005181073,-0.00235289,-0.012508048
1.76967E+18,8.396763428,0.060146133,-0.082165073,-0.049881345,-0.004614085,0.004431779,-0.011460893
1.76967E+18,8.406752197,0.016484686,-0.056166708,-0.05643062,-0.00070754,0.010212543,-0.013643051
1.76967E+18,8.416740967,-0.024428923,-0.036938276,-0.054698682,0.001489301,0.019355176,-0.015994355
1.76967E+18,8.426729248,-0.054528586,-0.041669981,-0.030101708,0.004762471,0.02689616,-0.02134815
1.76967E+18,8.436718262,-0.05416852,-0.04030863,-0.03263941,0.006448252,0.026276441,-0.029912077
1.76967E+18,8.446707031,-0.057455871,-0.059723524,-0.042565761,0.006896922,0.021341212,-0.041544579
1.76967E+18,8.456696289,-0.078797058,-0.08634382,-0.034057752,0.010477009,0.011477929,-0.044281509
1.76967E+18,8.466684326,-0.105900169,-0.136890935,-0.046787762,0.008960678,0.012870623,-0.041113336
1.76967E+18,8.476673096,-0.116406365,-0.131300568,-0.047529813,0.007259451,0.019492839,-0.040975116
1.76967E+18,8.486662109,-0.051988254,-0.029822307,-0.002574234,0.008231617,0.02252062,-0.043659125
1.76967E+18,8.496651123,0.026551615,0.047919105,0.033235622,0.00835066,0.0186854,-0.03722173
1.76967E+18,8.506639404,-0.006624971,0.031955227,0.00921148,0.00979369,0.023483904,-0.028770361
1.76967E+18,8.516628174,-0.038126609,-0.01394377,-0.004936287,0.006301753,0.023905749,-0.024758309
1.76967E+18,8.526617188,0.014540859,-0.004799509,0.008301088,0.004322348,0.021052992,-0.02182959
1.76967E+18,8.536606445,0.015277356,-0.02810089,0.021835692,0.000176072,0.022824528,-0.023752391
1.76967E+18,8.546593994,-0.001481471,-0.044351767,0.032381051,-0.003949382,0.017729804,-0.025865713
1.76967E+18,8.556583008,0.028988779,-0.043437575,-0.003570552,-0.005641289,0.012927059,-0.027297694
1.76967E+18,8.566572266,0.036610067,-0.033021395,-0.003456278,-0.005401391,0.007952643,-0.032294273
1.76967E+18,8.576561035,0.07159604,-0.020669863,0.00912351,-0.006395549,0.005556064,-0.033725455
1.76967E+18,8.586549072,0.070669573,-0.016875147,-0.010858371,-0.007870797,0.006505458,-0.027951762
1.76967E+18,8.59653833,0.022534196,-0.015790274,-0.011358722,-0.006868649,0.010510053,-0.022553533
1.76967E+18,8.6065271,0.014367256,-0.028439328,-0.018089491,-0.007999714,0.006274608,-0.017113149
1.76967E+18,8.616516357,0.020714871,-0.029637598,-0.03932634,-0.007939527,0.002964299,-0.015888361
1.76967E+18,8.62650415,0.048595689,-0.03596797,-0.015619886,-0.008254627,0.002314051,-0.013304994
1.76967E+18,8.636493164,0.010682722,-0.025039749,-0.001842705,-0.010490349,-0.000999986,-0.011331059
1.76967E+18,8.646482178,0.024095454,-0.020583938,-0.006675825,-0.01090704,-0.000825476,-0.012697997
1.76967E+18,8.656471191,0.040936698,-0.015794366,-0.004189853,-0.013250621,-0.000676072,-0.015667688
1.76967E+18,8.666459229,0.03820552,-0.029968437,0.006216098,-0.012871869,-0.001005618,-0.017684743
1.76967E+18,8.676448242,0.045532209,-0.061027592,0.011111469,-0.010650526,-0.001051425,-0.020120203
1.76967E+18,8.686437012,0.050493923,-0.046785717,0.00131985,-0.009004771,0.000596703,-0.019149747
1.76967E+18,8.69642627,0.038553603,-0.049304421,0.00065145,-0.005595658,0.003884641,-0.018482625
1.76967E+18,8.706414307,0.025711657,-0.047321139,-0.010516426,-0.008803988,0.004761915,-0.01528423
1.76967E+18,8.716403076,0.016959026,-0.044396191,-0.012252456,-0.010196821,3.80001E-05,-0.015654676
1.76967E+18,8.726392334,0.036061786,-0.026403438,-0.020285832,-0.009902951,0.000509678,-0.013222702
1.76967E+18,8.736381348,0.019852701,-0.03006313,-0.013214286,-0.010192437,0.000974666,-0.00998057
1.76967E+18,8.746368896,-0.005637421,-0.025586861,-0.011218436,-0.011045913,-0.000652926,-0.008974139
1.76967E+18,8.756358154,-0.002272621,-0.026904958,-0.00406535,-0.011204105,-0.001026301,-0.009282799
1.76967E+18,8.766347168,-0.023107027,-0.022587095,-0.005842296,-0.014073494,0.000771496,-0.00749808
1.76967E+18,8.776336182,-0.075624565,-0.057171502,-0.028114918,-0.006388144,0.002984051,-0.007515657
1.76967E+18,8.786324219,-0.059404083,0.004541151,0.009855039,-0.001396524,0.00113095,-0.016483294
1.76967E+18,8.796313232,0.004494681,0.008274492,-0.024397944,0.004053102,0.011441644,-0.011192658
1.76967E+18,8.806302246,-0.095186175,-0.007142857,-0.012657529,0.008032446,0.022880889,-0.002480761
1.76967E+18,8.81629126,-0.113552145,-0.008110241,-0.012388649,0.010745408,0.025110753,0.000150975
1.76967E+18,8.826279053,-0.035053778,0.004985387,-0.007459961,0.01412268,0.023853239,-0.004955921
1.76967E+18,8.836268311,0.066379475,-0.002175006,-0.016592531,0.011397201,0.019166874,-0.003674675
1.76967E+18,8.84625708,0.097262981,-0.039493221,-0.004412263,0.006660069,0.004874546,0.001949042
1.76967E+18,8.856246094,0.104815004,-0.044007484,-0.003823358,-0.00080557,-0.015052024,0.002788471
1.76967E+18,8.866234375,0.131935066,-0.002266191,0.012979016,-0.006743716,-0.03027232,0.004471196
1.76967E+18,8.876223145,0.099125852,-0.018791794,0.002134089,-0.011598925,-0.039082058,0.000610944
1.76967E+18,8.886212402,0.03816285,-0.026872809,-0.013535481,-0.012767837,-0.042119555,-0.00515023
1.76967E+18,8.896201172,0.015985505,-0.033545127,-0.051295011,-0.0096562,-0.037071534,-0.013861163
1.76967E+18,8.906189209,-0.011873101,-0.024924013,-0.064406421,-0.008200715,-0.030729091,-0.019532811
1.76967E+18,8.916178223,-0.049319619,-0.024210897,-0.094401454,-0.005774309,-0.021919623,-0.017543962
1.76967E+18,8.926167236,-0.084794545,-0.02963526,-0.096919282,-0.00456864,-0.015072477,-0.015176397
1.76967E+18,8.93615625,-0.055060501,-0.040786768,-0.084945644,-0.003244516,-0.010419935,-0.017582031
1.76967E+18,8.946144287,0.028699733,-0.024473932,-0.038536067,-0.004172437,-0.01062218,-0.019409429
1.76967E+18,8.956133057,0.034526539,-0.056059156,-0.016108254,-0.008345877,-0.011354282,-0.016928429
1.76967E+18,8.96612207,-0.005512041,-0.092705172,-0.005226795,-0.011894077,-0.019791568,-0.0144049
1.76967E+18,8.976111084,0.008908114,-0.101349666,0.009945348,-0.016946891,-0.031255145,-0.018092047
1.76967E+18,8.986099121,0.040880292,-0.082662501,-0.004417232,-0.019767936,-0.035823621,-0.019384637
1.76967E+18,8.996088135,0.028975627,-0.06684417,-0.009833412,-0.019814808,-0.039020747,-0.015354478
1.76967E+18,9.006077393,0.01719225,-0.056402855,-0.004398819,-0.019115891,-0.037599627,-0.011092972
1.76967E+18,9.016064941,0.007368191,-0.003306056,-0.003786825,-0.016573638,-0.031608313,-0.008350715
1.76967E+18,9.026054199,0.026490532,0.019784897,0.006304653,-0.013826766,-0.02697246,-0.012263753
1.76967E+18,9.036043213,0.050066346,-0.003972995,-0.030500644,-0.015734389,-0.023564946,-0.028672021
1.76967E+18,9.046031982,0.135877958,-0.002485387,-0.116194476,-0.013075503,-0.023717772,-0.032180864
1.76967E+18,9.056020264,0.100078623,-0.070116908,-0.100519937,-0.008649063,-0.004449002,-0.038485635
1.76967E+18,9.066009277,0.114539402,-0.0141881,-0.072694649,-0.005692954,0.002903986,-0.02920159
1.76967E+18,9.075998047,0.118809043,-0.032829672,-0.061285951,0.000256814,0.010897464,-0.014990162
1.76967E+18,9.085987305,0.108066699,-0.024575638,-0.006697452,-0.002058562,0.01437533,-0.000193822
1.76967E+18,9.095975098,0.106149467,0.008144728,-0.010783844,-0.008926588,-0.001712293,0.008569576
1.76967E+18,9.105964111,0.093255499,-0.012685294,-0.02111936,-0.011003587,-0.029042717,0.011735275
1.76967E+18,9.115953125,0.089064477,-0.008176292,-0.00430325,-0.011132751,-0.053918507,0.011726487
1.76967E+18,9.125942139,0.035985213,0.0010083,-0.013294658,-0.01239601,-0.064119227,0.00811147
1.76967E+18,9.13593042,-0.032521629,0.011941198,-0.044954702,-0.006902174,-0.062271532,0.001729205
1.76967E+18,9.145919189,-0.086734573,0.031382396,-0.084424835,-0.003035562,-0.05005955,-0.003717795
1.76967E+18,9.155908203,-0.163502171,0.058272741,-0.121173726,0.005936894,-0.030932995,-0.004924472
1.76967E+18,9.165897217,-0.204142224,0.08587328,-0.151458974,0.014902046,-0.006753124,-0.009618748
1.76967E+18,9.175885254,-0.142926708,0.065029229,-0.172743462,0.023504589,0.007970428,-0.011347407
1.76967E+18,9.185874023,-0.071423022,0.035115153,-0.138803198,0.023996159,0.013345848,-0.012428547
1.76967E+18,9.195863281,-0.018777473,-0.017700492,-0.083894089,0.022832092,0.013135991,-0.009695877
1.76967E+18,9.205852295,0.023999592,-0.034682606,-0.050014323,0.017252186,0.008211643,-0.00641216
1.76967E+18,9.215840088,0.058467387,-0.044825815,-0.022832886,0.012503505,-0.001526737,-0.003957258
1.76967E+18,9.225829102,0.076082538,-0.049919338,0.017398294,0.006242679,-0.009776145,-0.001533515
1.76967E+18,9.235818115,0.082613401,-0.061963996,-0.011757658,0.001473757,-0.015300873,-0.000311124
1.76967E+18,9.245806152,0.073174834,-0.05541326,-0.047184068,0.005424378,-0.01523395,0.003260181
1.76967E+18,9.255794434,0.065481357,-0.025574002,-0.094767365,0.009008461,-0.008690562,0.005165673
1.76967E+18,9.265783203,0.01013561,-0.007021861,-0.091522099,0.01089636,0.005931022,0.010208303
1.76967E+18,9.275772217,-0.044996203,0.002584756,-0.11086802,0.009815649,0.020635666,0.010296455
1.76967E+18,9.285760986,-0.062319094,-0.055117492,-0.144795717,0.015991639,0.023950275,0.006879801
1.76967E+18,9.295749023,0.037388358,0.017411738,-0.067642042,0.017660376,0.022172881,0.001772657
1.76967E+18,9.305738281,0.076465985,-0.001557166,-0.083927991,0.01479609,0.029868452,0.0037762
1.76967E+18,9.315727295,0.02094605,-0.048226563,-0.07515081,0.011950236,0.030421857,0.00286247
1.76967E+18,9.325716064,0.071662384,-0.042978726,-0.030303661,0.01134445,0.023363253,0.007064133
1.76967E+18,9.335704102,0.101600134,-0.044994157,0.001826339,0.007732671,0.013168673,0.011849301
1.76967E+18,9.345693115,0.108400753,-0.02652385,-0.014618892,0.004061496,0.008090572,0.021647748
1.76967E+18,9.355681885,0.074252108,-0.018199674,0.008311609,-0.000904234,0.004878533,0.027758107
1.76967E+18,9.365671143,0.030531624,-0.007980477,-0.012904197,-0.001237848,0.001159275,0.029592158
1.76967E+18,9.37565918,0.021998481,-0.022781741,-0.028180093,-0.001629333,-9.90683E-05,0.029178569
1.76967E+18,9.385648438,0.019653672,-0.014086393,-0.040841421,0.000592976,0.002305948,0.025094353
1.76967E+18,9.395637207,-0.002419044,0.010585107,-0.032777357,0.003251343,0.011729543,0.023487136
1.76967E+18,9.405626221,-0.045848728,-0.007887538,-0.027241058,0.004458604,0.022158395,0.019267717
1.76967E+18,9.415614258,-0.023796178,-0.037706923,-0.023600364,0.004842366,0.025990153,0.015897222
1.76967E+18,9.425603027,0.016023791,-0.044757426,-0.000923545,0.005256632,0.02902054,0.014897963
1.76967E+18,9.435592041,0.038327977,-0.064143679,0.021063539,0.001089851,0.026805323,0.016224483
1.76967E+18,9.445581299,0.043336453,-0.066806176,0.001373334,0.001677851,0.018091779,0.017978996
1.76967E+18,9.455569336,0.053067573,-0.054195116,0.001847381,0.001166791,0.01269222,0.017895371
1.76967E+18,9.465558105,0.056016194,-0.060545946,-0.009275193,-0.001585635,0.012918152,0.021796206
1.76967E+18,9.475547363,0.048883858,-0.06584756,-0.022462299,-0.002514279,0.011030504,0.023526995
1.76967E+18,9.485535889,0.031815234,-0.046092474,-0.039622109,-0.000287876,0.015342427,0.026120646
1.76967E+18,9.495523926,-0.021068799,-0.020883214,-0.006817571,0.001164345,0.019855421,0.024123009
1.76967E+18,9.505513184,-0.035971769,-0.037487727,-0.028591888,0.001028354,0.019667208,0.015353282
1.76967E+18,9.515502197,-0.008116379,-0.069810618,-0.027501755,0.001017169,0.021355651,0.005855385
1.76967E+18,9.525491211,0.000625146,-0.079853873,-0.010473755,0.001975473,0.020061688,0.002895137
1.76967E+18,9.535479248,-0.004768822,-0.074375734,0.003909867,0.00132726,0.021123491,0.001020538
1.76967E+18,9.545468018,0.032630642,-0.071022332,-0.006174597,0.000619196,0.018611992,0.001412904
1.76967E+18,9.555457031,0.091723467,-0.081923665,-0.023004443,0.000961146,0.014829503,0.002145007
1.76967E+18,9.565446045,0.106496381,-0.092331078,-0.041872518,0.001118684,0.018597836,0.005385363
1.76967E+18,9.575434082,0.084286887,-0.092427524,-0.046282151,0.002275028,0.02381417,0.005336094
1.76967E+18,9.58542334,0.073693305,-0.076542557,-0.038649172,0.003583805,0.029257756,-7.86511E-05
1.76967E+18,9.595412109,0.080755498,-0.076260817,-0.029042262,0.007350846,0.038286667,-0.008658823
1.76967E+18,9.605401367,0.066379183,-0.082305943,-0.001382102,0.008681528,0.046277136,-0.011820788
1.76967E+18,9.61538916,0.060303954,-0.065220368,-0.0002908,0.007397885,0.051617038,-0.008777062
1.76967E+18,9.62537793,-0.002171499,-0.053805824,-0.008571429,0.00968944,0.057400558,-0.002681747
1.76967E+18,9.635367188,-0.016019991,-0.028252866,0.02348492,0.008549607,0.059748668,-0.000117655
1.76967E+18,9.645356201,0.029729076,-0.036097149,0.009679682,0.009885058,0.052693143,0.000452426
1.76967E+18,9.655344238,0.065258654,-0.045042088,-0.006455752,0.009815549,0.052292071,-0.006050214
1.76967E+18,9.665333252,0.06541326,-0.067123571,-0.001222528,0.007794407,0.048300136,-0.005612209
1.76967E+18,9.675322266,0.030819501,-0.061686349,0.00819412,0.006609301,0.039242722,-0.00626202
1.76967E+18,9.685311279,0.061410747,-0.049310851,-0.013452771,0.006730154,0.03677221,-0.012234913
1.76967E+18,9.695299072,0.062726213,-0.028763738,0.000584814,0.002426486,0.034979369,-0.015738567
1.76967E+18,9.705288086,0.01372925,-0.035451253,-0.00844488,0.003127846,0.035929024,-0.016783308
1.76967E+18,9.715277344,-0.028528468,-0.040426118,0.017145196,-0.00053187,0.031401917,-0.022133067
1.76967E+18,9.725266113,0.004860592,-0.028987025,0.036504269,-0.002856493,0.024266938,-0.020268094
1.76967E+18,9.73525415,0.015846096,-0.047850715,0.05062924,-0.006457088,0.022905797,-0.019496044
1.76967E+18,9.745243408,0.000698796,-0.069165306,0.056228668,-0.010805474,0.025827499,-0.019350387
1.76967E+18,9.755231934,0.006391747,-0.07663608,0.061782795,-0.012526674,0.028236061,-0.020721117
1.76967E+18,9.765220947,0.032866789,-0.057532736,0.047442135,-0.012721328,0.025387509,-0.017340112
1.76967E+18,9.775209229,0.014542612,-0.021883331,0.042743455,-0.010436337,0.022205563,-0.012499551
1.76967E+18,9.785198242,0.021412206,0.012866496,0.021077275,-0.005919423,0.021697313,-0.010658651
1.76967E+18,9.795187256,0.04961451,-0.014580314,0.015771277,-0.002112434,0.019310588,-0.005259891
1.76967E+18,9.80517627,0.062214172,-0.023639234,0.024572131,-0.001960824,0.016654996,-0.001792251
1.76967E+18,9.815164063,0.061084876,-0.021172552,0.021208792,-0.007079686,0.014975606,0.000133481
1.76967E+18,9.825153076,0.069511343,-0.015097031,0.04712357,-0.012553476,0.008611843,0.005737385
1.76967E+18,9.83514209,0.053557403,-0.019777298,0.06724106,-0.017480589,-0.000688448,0.006867365
1.76967E+18,9.845131104,0.065058455,-0.026640754,0.051233051,-0.020075766,-0.016692331,0.004097554
1.76967E+18,9.855119385,0.062589435,-0.065234981,0.023344635,-0.023803392,-0.026961746,0.003228298
1.76967E+18,9.865108154,0.037137891,-0.096031686,0.001658873,-0.02420776,-0.034061,0.001190059
1.76967E+18,9.875097168,0.016392332,-0.079891867,-0.037712476,-0.021256445,-0.03293395,-0.001796676
1.76967E+18,9.885086182,-0.023032793,-0.053996379,-0.053707625,-0.019546816,-0.02398284,-0.005384668
1.76967E+18,9.895073975,-0.044454059,-0.036242111,-0.051098904,-0.015386691,-0.009534657,-0.009526948
1.76967E+18,9.905062988,-0.035815117,-0.029808278,-0.048664078,-0.007900182,0.001024327,-0.017531883
1.76967E+18,9.915052246,0.001403729,-0.024939211,-0.033612347,-0.004989347,0.01184768,-0.020453103
1.76967E+18,9.925041016,0.004221125,-0.023682489,-0.030710488,-0.00275585,0.019196067,-0.02220526
1.76967E+18,9.935029297,0.018885025,-0.050450669,-0.015293723,-0.002484474,0.016776318,-0.02336107
1.76967E+18,9.945018311,0.066337097,-0.083744451,-0.004715338,-0.004901123,0.010166544,-0.025322018
1.76967E+18,9.95500708,0.094711251,-0.056966334,0.007691431,-0.007511021,0.002772544,-0.023560071
1.76967E+18,9.964996094,0.111725806,-0.059102762,-0.005145254,-0.007121692,-0.0131651,-0.027494805
1.76967E+18,9.974984131,0.127900696,-0.047734396,-0.008493688,-0.006958706,-0.017788613,-0.02745619
1.76967E+18,9.984973145,0.080687694,-0.006783961,0.000835866,-0.007326343,-0.012429556,-0.024286006
1.76967E+18,9.994962158,0.007378128,-0.000546528,0.014200083,-0.005460532,-0.008910721,-0.023783468
1.76967E+18,10.00495117,-0.018940263,0.030503275,0.000325286,-0.003022458,-0.008235506,-0.018717563
1.76967E+18,10.01493921,-0.041142742,0.059684946,0.008672551,-0.00632025,-0.01038521,-0.002816892
1.76967E+18,10.02492798,-0.048839434,0.054301499,0.036859074,-0.009491299,-0.022058334,0.009233993
1.76967E+18,10.03491699,0.024699557,0.029334816,0.030978783,-0.014384326,-0.034165863,0.015778445
1.76967E+18,10.04490625,0.093595106,0.009611293,0.028768414,-0.023660555,-0.042604275,0.015846891
1.76967E+18,10.05489429,0.104838677,-0.005227964,0.032242812,-0.023788389,-0.050294951,0.015452211
1.76967E+18,10.06488306,0.087693481,0.017075638,0.013233283,-0.027940154,-0.063278057,0.01985427
1.76967E+18,10.07487231,0.069206515,0.054134326,-0.018841771,-0.028008331,-0.058161858,0.026060766
1.76967E+18,10.08486108,0.012335458,0.064812372,-0.042117725,-0.026665758,-0.054007743,0.041457176
1.76967E+18,10.09484888,-0.025108722,0.042181438,-0.050466743,-0.030140385,-0.04086611,0.049959585
1.76967E+18,10.10483813,-0.038583413,0.007196049,-0.075016078,-0.029175308,-0.027263643,0.045946509
1.76967E+18,10.11482715,0.003126023,-0.063075173,-0.082398882,-0.030299958,-0.022828681,0.042298775
1.76967E+18,10.12481616,-0.001537293,-0.085556469,-0.072194883,-0.031227637,-0.022853276,0.044731375
1.76967E+18,10.1348042,-0.032712475,-0.085189389,-0.029386546,-0.035349678,-0.024021339,0.050585538
1.76967E+18,10.14479321,-0.011207915,-0.046467152,-0.000777999,-0.037939865,-0.027536433,0.061044235
1.76967E+18,10.15478223,0.075300448,0.003658523,0.042480421,-0.047138955,-0.024713483,0.071414314
1.76967E+18,10.164771,0.14757658,0.078165774,0.099158878,-0.053817146,-0.045517202,0.092371367
1.76967E+18,10.17475903,0.199006323,0.096524438,0.075591832,-0.05310981,-0.070665702,0.103610702
1.76967E+18,10.18474829,0.312644392,0.145773914,0.050582186,-0.051882751,-0.088922217,0.114265114
1.76967E+18,10.19473706,0.309380714,0.183667884,0.002716858,-0.054851111,-0.103456154,0.12947309
1.76967E+18,10.20472632,0.192401225,0.149045483,-0.082257427,-0.05389687,-0.089882344,0.134296924
1.76967E+18,10.21471436,0.132262106,0.028245851,-0.170130357,-0.039693702,-0.071379498,0.129229724
1.76967E+18,10.22470313,0.07516367,-0.047415247,-0.236558639,-0.025269948,-0.042655852,0.11038474
1.76967E+18,10.23469214,0.003051204,-0.087667762,-0.330833544,-0.006905854,-0.021182248,0.092198811
1.76967E+18,10.24468115,-0.114991238,-0.057273208,-0.361151233,0.007933545,0.013951227,0.0771688
1.76967E+18,10.25466943,-0.231069686,-0.076413962,-0.35058074,0.025167923,0.035941217,0.069212072
1.76967E+18,10.26465845,-0.278827171,-0.089444124,-0.305957462,0.038260147,0.052615564,0.06200793
1.76967E+18,10.27464746,-0.217818283,-0.043798225,-0.24187019,0.044288743,0.068114623,0.053923637
1.76967E+18,10.28463623,-0.143588971,-0.053153498,-0.157018362,0.044012766,0.069211744,0.047725197
1.76967E+18,10.29462427,-0.082584467,-0.007953589,-0.083546006,0.040016957,0.065859087,0.047019724
1.76967E+18,10.30461328,-0.044342707,0.028014965,-0.065719257,0.03658751,0.065370321,0.051087104
1.76967E+18,10.31460254,0.002212123,0.015319734,-0.035189095,0.034323554,0.056723837,0.055112205
1.76967E+18,10.32459131,0.085027477,0.011813187,-0.039687575,0.028713195,0.048656859,0.054268956
1.76967E+18,10.33457935,0.126714117,0.008982932,-0.037942193,0.026259892,0.039479606,0.058091123
1.76967E+18,10.3445686,0.1060425,0.035189971,-0.047565761,0.025688186,0.034295902,0.065297119
1.76967E+18,10.35455737,0.111482353,0.084467505,-0.072303604,0.023187479,0.037303142,0.078795351
1.76967E+18,10.36454639,0.061413961,0.056899114,-0.069048986,0.022063332,0.040526152,0.085638896
1.76967E+18,10.37453442,0.021679917,0.005907178,-0.055628948,0.020296324,0.030801618,0.087956376
1.76967E+18,10.38452344,0.018852,-0.030884968,-0.060421443,0.016146831,0.030383773,0.094248265
1.76967E+18,10.39451221,-0.067856269,-0.071174892,-0.067991002,0.013721224,0.032977693,0.097829416
1.76967E+18,10.40450146,-0.124288351,-0.068063482,-0.051796823,0.008267744,0.031686857,0.086303525
1.76967E+18,10.4144895,-0.10873773,-0.045643561,-0.01536445,0.007875993,0.02644123,0.073884942
1.76967E+18,10.42447852,-0.106108259,-0.00341127,0.011069676,0.00683729,0.025360133,0.060239822
1.76967E+18,10.43446753,-0.114804191,-0.006520926,0.00111293,0.007780582,0.032256924,0.057512745
1.76967E+18,10.4444563,-0.143257109,-0.069985975,3.21487E-06,0.007597649,0.039957412,0.051121607
1.76967E+18,10.45444458,-0.095005558,-0.114729957,0.023629005,0.007743323,0.038343802,0.042842906
1.76967E+18,10.46443335,-0.049198915,-0.164503164,0.023093291,0.007805399,0.031316474,0.034785423
1.76967E+18,10.47442236,0.013194997,-0.142845459,0.015109014,0.003558989,0.020386595,0.029935276
1.76967E+18,10.48441138,0.019560733,-0.102716278,0.016502222,0.001516465,0.008195464,0.030386992
1.76967E+18,10.49439941,0.01637275,-0.065085343,0.016474457,-0.000982112,0.001598016,0.028412256
1.76967E+18,10.50438818,0.007320552,-0.045861003,0.011979484,0.000537899,0.005661712,0.02650406
1.76967E+18,10.51437744,0.015379502,-0.031522681,0.025430502,0.003481225,0.017480288,0.02575944
1.76967E+18,10.52436621,0.048121057,-0.066691025,0.000362111,0.008710511,0.019160934,0.024588121
1.76967E+18,10.53435425,0.041359161,-0.071511577,0.010949849,0.011762227,0.018466648,0.025644599
1.76967E+18,10.54434351,-0.001457944,-0.06008885,-0.005451251,0.014636237,0.019221803,0.02796513
1.76967E+18,10.55433228,-0.041376843,-0.082671853,-0.017005495,0.012070016,0.014981518,0.026321428
1.76967E+18,10.56432056,-0.056997168,-0.112692898,-0.042187867,0.016096976,0.005555798,0.018622436
1.76967E+18,10.57430933,-0.031975832,-0.061193012,-0.052461716,0.020752449,0.007013346,0.01651348
1.76967E+18,10.58429834,-0.045656274,-0.045262453,-0.059503744,0.025570763,0.019787736,0.013967399
1.76967E+18,10.59428735,-0.118404553,-0.019070027,-0.066944415,0.031916808,0.034122732,0.012001187
1.76967E+18,10.60427539,-0.110494657,-0.035308629,-0.056417761,0.039332312,0.047035486,0.007762354
1.76967E+18,10.6142644,-0.092758948,9.17699E-05,-0.032750761,0.045722831,0.059600279,0.006133298
1.76967E+18,10.62425342,-0.101626145,0.004392097,-0.017355624,0.048305806,0.066465154,0.001087493
1.76967E+18,10.63424243,-0.060094403,-0.012107202,-0.017964111,0.051335681,0.066973016,0.000702932
1.76967E+18,10.64423022,0.030615941,-0.022281974,-0.014287469,0.049003001,0.064245202,0.00171382
1.76967E+18,10.65421948,0.080506492,-0.042819736,-0.007030337,0.047265552,0.063669965,0.009117141
1.76967E+18,10.66420825,0.098736122,-0.051668812,0.002464344,0.04399645,0.057604492,0.016565327
1.76967E+18,10.67419751,0.105285252,-0.053739773,-0.014787819,0.041654199,0.04751138,0.024762537
1.76967E+18,10.68418555,0.124395903,-0.036324528,-0.018678105,0.038867954,0.041059695,0.024271348
1.76967E+18,10.69417432,0.081027593,-0.026175475,-0.012637363,0.037170988,0.038452726,0.025227956
1.76967E+18,10.70416357,0.001840952,-0.024836335,-0.008738602,0.032788076,0.035701707,0.023265984
1.76967E+18,10.71415234,-0.06177505,-0.032168578,0.008452187,0.030212533,0.039330266,0.01685256
1.76967E+18,10.72414038,-0.074222736,-0.045646483,0.014535306,0.028437171,0.041158993,0.009609705
1.76967E+18,10.73412939,-0.081745971,-0.04321721,0.014417525,0.026967639,0.044295665,-0.000359838
1.76967E+18,10.74411841,-0.030316812,-0.062529814,-0.000530454,0.028959153,0.043611757,-0.007057894
1.76967E+18,10.75410742,0.012784663,-0.041048634,0.006963409,0.029078463,0.041729167,-0.006239771
1.76967E+18,10.76409546,0.046081368,-0.030182957,0.006223112,0.0272792,0.037380017,0.002191494
1.76967E+18,10.77408423,0.059079089,-0.044320788,0.009848317,0.02407595,0.023384307,0.010661944
1.76967E+18,10.78407349,0.069314652,-0.026194764,0.028594226,0.019903358,0.010252696,0.014336204
1.76967E+18,10.79406226,0.053247898,-0.029676761,0.034162382,0.01562419,0.000797408,0.016296824
1.76967E+18,10.80405029,0.013488427,-0.036747138,0.033182139,0.013855253,5.95818E-05,0.017688567
1.76967E+18,10.81403955,-0.039781099,-0.030834699,0.040993397,0.012089844,0.000826839,0.015159363
1.76967E+18,10.82402832,-0.054586307,-0.020467034,0.059243632,0.013254298,0.006127092,0.009789078
1.76967E+18,10.83401758,-0.038133331,-0.022540333,0.057540043,0.01286228,0.011518128,0.006096339
1.76967E+18,10.84400537,-0.010067805,-0.016802082,0.034652796,0.013187624,0.008952623,0.007653224
1.76967E+18,10.85399438,0.025386078,0.00578852,0.010322657,0.011115418,0.002600185,0.012077801
1.76967E+18,10.8639834,0.054428194,-0.003497194,-0.021286826,0.008742077,-0.001560338,0.012040802
1.76967E+18,10.87397241,0.070948098,-0.033144729,-0.03494418,0.009588962,-0.001952888,0.012685554
1.76967E+18,10.88396045,0.059019029,0.006537293,-0.052430152,0.009184892,0.001546638,0.015175057
1.76967E+18,10.89394946,0.031916795,0.032678281,-0.053986149,0.014067265,0.009358223,0.022401543
1.76967E+18,10.90393848,0.014688743,0.011422142,-0.051835401,0.016132463,0.01369321,0.023951776
1.76967E+18,10.91392773,0.060393094,-0.008211364,-0.044756257,0.018615594,0.012205035,0.022937911
1.76967E+18,10.92391553,0.072240914,-0.013294366,-0.043720484,0.017586941,0.014382726,0.023860201
1.76967E+18,10.9339043,0.080074823,0.001096563,-0.023886779,0.019004274,0.00881086,0.031516258
1.76967E+18,10.94389355,0.072418755,0.018618776,0.00797171,0.021403426,-0.004763093,0.039289817
1.76967E+18,10.95388232,0.073481416,0.033420039,0.022989538,0.018614564,-0.010964263,0.052254084
1.76967E+18,10.96387036,0.039699558,0.054714171,0.03829992,0.017159728,-0.009655141,0.060776565
1.76967E+18,10.97385962,0.011214491,0.045215106,0.034660102,0.018597303,-0.00878988,0.06241601
1.76967E+18,10.98384839,0.012581103,0.044172904,-0.022128245,0.019805748,-0.003493459,0.056311183
1.76967E+18,10.99383716,0.017376667,0.109759182,-0.069440324,0.022501133,0.003218239,0.053338028
1.76967E+18,11.00382544,0.013198212,0.141426825,-0.107708095,0.026905976,0.017848631,0.054085333
1.76967E+18,11.01381445,0.002996113,0.21688977,-0.09545827,0.034427542,0.026528141,0.06317018
1.76967E+18,11.02380322,0.100007896,0.280197582,-0.129420453,0.041796971,0.024477381,0.083572306
1.76967E+18,11.03379248,0.161508074,0.312530995,-0.127620125,0.045395434,0.042307775,0.106315702
1.76967E+18,11.04378052,0.173461401,0.215788531,-0.113650345,0.041896161,0.053861391,0.126072675
1.76967E+18,11.05376929,0.155758717,0.154431852,-0.122264736,0.037325379,0.056957316,0.130604565
1.76967E+18,11.0637583,0.163657946,0.123801152,-0.099544955,0.03556975,0.05979665,0.131780535
1.76967E+18,11.07374731,0.11421587,0.052113634,-0.076855276,0.039317083,0.03933372,0.124774031
1.76967E+18,11.0837356,0.212635035,0.133995213,-0.073620824,0.044319056,0.018167138,0.127825931
1.76967E+18,11.09372437,0.292698459,0.195366505,-0.130693542,0.046621624,0.021199148,0.148930952
1.76967E+18,11.10371338,0.177298349,0.117974638,-0.143162563,0.042548392,0.028976228,0.170266211
1.76967E+18,11.11370264,0.15338775,0.05381693,-0.155985804,0.044458412,0.02359185,0.183935672
1.76967E+18,11.12369043,0.260241128,0.034576808,-0.113567927,0.043991126,0.025488893,0.192492217
1.76967E+18,11.1336792,0.216864635,-0.010786182,-0.114323422,0.03648527,0.030548099,0.205706552
1.76967E+18,11.14366846,0.108773094,-0.143880648,-0.153540164,0.02979851,0.029187959,0.200055197
1.76967E+18,11.15365723,0.123032213,-0.100863344,-0.114003104,0.028773459,0.014052948,0.185862407
1.76967E+18,11.16364526,0.230464414,0.00086217,-0.110173901,0.037009764,0.011766992,0.178931311
1.76967E+18,11.17363452,0.128569097,0.001444938,-0.139959967,0.041149914,0.030291408,0.192317158
1.76967E+18,11.18362354,-0.087377547,0.004528291,-0.154644618,0.051038697,0.056676276,0.204241976
1.76967E+18,11.1936123,-0.196086197,-0.018244682,-0.151041625,0.063011467,0.083489515,0.215855494
1.76967E+18,11.20360034,-0.246869459,-0.118281512,-0.111142746,0.068617836,0.101178475,0.207834542
1.76967E+18,11.21358936,-0.212596603,-0.133220137,-0.042138768,0.069480173,0.106147133,0.187739655
1.76967E+18,11.22357837,-0.204428494,-0.18192367,-0.028584289,0.06621588,0.096955858,0.162574753
1.76967E+18,11.23356738,-0.169795572,-0.060389879,0.018373277,0.065424658,0.091989331,0.14246203
1.76967E+18,11.24355542,-0.115433429,-0.013933248,0.025569618,0.0691396,0.0857182,0.140368849
1.76967E+18,11.25354492,-0.155801972,-0.090656422,-0.015174481,0.064827405,0.085414603,0.135139987
1.76967E+18,11.26353369,-0.105069125,-0.121636667,-0.085032737,0.06569913,0.080533937,0.133963287
1.76967E+18,11.27352295,-0.092951548,-0.124472767,-0.081564477,0.071676061,0.070725515,0.133567542
1.76967E+18,11.28351099,-0.030951603,-0.023144144,-0.108306645,0.069274224,0.07843177,0.143862337
1.76967E+18,11.29349951,-0.077116265,-0.054325464,-0.125312433,0.06717965,0.083716542,0.150233686
1.76967E+18,11.30348877,-0.134366531,-0.120383452,-0.063844111,0.062287692,0.070159987,0.14239493
1.76967E+18,11.31347778,-0.0368845,-0.088370942,-0.01915186,0.060616829,0.048211813,0.125189051
1.76967E+18,11.32346558,-0.014227409,-0.080251348,-0.002790508,0.0573362,0.048081327,0.125083968
1.76967E+18,11.33345483,-0.027251726,0.006669979,0.041993514,0.048134711,0.060032796,0.132520035
1.76967E+18,11.34344385,-0.056864628,0.015417349,0.055017246,0.042826209,0.070867658,0.132905945
1.76967E+18,11.35343286,-0.051290335,-0.01187164,0.077389237,0.041194223,0.057735343,0.132243618
1.76967E+18,11.36342065,0.027354163,0.025072482,0.042886079,0.042961448,0.054054949,0.12889266
1.76967E+18,11.37340967,0.03222703,-0.004330138,-0.03266659,0.050244663,0.047559232,0.137684032
1.76967E+18,11.38339893,-0.015560119,-0.034067105,-0.052206573,0.048281066,0.053993791,0.139660731
1.76967E+18,11.3933877,-0.03314356,-0.060202832,-0.065359192,0.048164953,0.063032299,0.139756069
1.76967E+18,11.40337573,-0.056141866,-0.064766194,-0.037450025,0.048868679,0.07215286,0.13623561
1.76967E+18,11.41336499,-0.045620911,-0.165641229,-0.063479077,0.048033513,0.077624857,0.124698006
1.76967E+18,11.42335376,-0.009974282,-0.177723881,-0.063019351,0.048727073,0.078962408,0.11602769
1.76967E+18,11.43334302,-0.060359776,-0.21367373,-0.04046645,0.049188863,0.093208991,0.102622941
1.76967E+18,11.44333081,-0.075157094,-0.279916427,-0.05636603,0.046820756,0.09817078,0.091379896
1.76967E+18,11.45331982,-0.068348145,-0.287592953,-0.053792673,0.043326158,0.103817746,0.078793526
1.76967E+18,11.46330884,-0.070012863,-0.289503171,-0.036766135,0.041410111,0.109779038,0.067642137
1.76967E+18,11.47329785,-0.037025955,-0.264291572,-0.038770752,0.04018905,0.107261553,0.054970279
1.76967E+18,11.48328589,-0.00653817,-0.23503859,-0.037105157,0.037913088,0.10843125,0.042457499
1.76967E+18,11.4932749,-0.00345467,-0.217389536,-0.004210896,0.037128523,0.110070959,0.031432282
1.76967E+18,11.50326367,-0.024403497,-0.203570854,0.028243513,0.038634147,0.111910924,0.023427516
1.76967E+18,11.51325171,-0.029919484,-0.202031223,0.04061375,0.03908236,0.116214328,0.01947139
1.76967E+18,11.52324072,-0.027671412,-0.180790867,0.056583472,0.038171995,0.116679765,0.014472636
1.76967E+18,11.53322974,-0.017894845,-0.155758717,0.071069971,0.037073441,0.115158565,0.01339805
1.76967E+18,11.54321899,-0.023132746,-0.135128017,0.073157006,0.03579573,0.115096368,0.013111107
1.76967E+18,11.55320703,-0.029412849,-0.126638421,0.081276307,0.032674771,0.118376322,0.007213537
1.76967E+18,11.56319556,-0.012108225,-0.109642278,0.08633739,0.031702284,0.113464996,0.003277649
1.76967E+18,11.57318481,0.028170448,-0.126112351,0.064085226,0.027757606,0.11008545,-0.002362926
1.76967E+18,11.58317383,0.058681322,-0.134181676,0.036349955,0.026807025,0.107306875,-0.010245811
1.76967E+18,11.5931626,0.05422142,-0.128597738,0.026700668,0.022216,0.105247453,-0.016060557
1.76967E+18,11.60315088,0.056249564,-0.12467092,0.009050737,0.02153128,0.106422246,-0.02219739
1.76967E+18,11.61313989,0.075151979,-0.135066058,0.027918519,0.01754586,0.105472565,-0.025790261
1.76967E+18,11.62312866,0.08031097,-0.166356683,0.045245209,0.016393263,0.100405589,-0.032593384
1.76967E+18,11.6331167,0.079210899,-0.160478147,0.05836188,0.01432958,0.093872324,-0.030425571
1.76967E+18,11.64310571,0.043916591,-0.158325353,0.098766079,0.007949403,0.088578843,-0.032482639
1.76967E+18,11.65309473,0.003242051,-0.129797177,0.138683956,0.003029213,0.082457297,-0.038448654
1.76967E+18,11.66308374,-0.000154606,-0.103756727,0.144332483,-0.003962481,0.077514656,-0.045852304
1.76967E+18,11.67307178,-0.002805705,-0.104628249,0.146657711,-0.00270467,0.071870618,-0.049790319
1.76967E+18,11.68306104,-0.003105126,-0.092125911,0.166100955,-0.002895814,0.064501524,-0.052300066
1.76967E+18,11.6930498,0.000238339,-0.087958854,0.173904615,-0.004333654,0.059899583,-0.052180223
1.76967E+18,11.70303882,0.018843817,-0.041399347,0.185654966,-0.001720558,0.053699739,-0.048833635
1.76967E+18,11.71302686,0.025576632,-0.014241876,0.190923262,-0.004323266,0.045441806,-0.046606433
1.76967E+18,11.72301587,0.068311027,-0.020819501,0.152893098,-0.006180579,0.029956367,-0.047623139
1.76967E+18,11.73300464,0.095027185,-0.03261749,0.109629418,-0.010836052,0.020962339,-0.04533362
1.76967E+18,11.7429939,0.072298636,-0.0544412,0.098460374,-0.01425238,0.016154842,-0.048623074
1.76967E+18,11.75298193,0.027141982,-0.070652914,0.081551325,-0.016571462,0.018396426,-0.052435655
1.76967E+18,11.7629707,-0.005223288,-0.063030749,0.091622929,-0.018956538,0.023774583,-0.05477348
1.76967E+18,11.77295972,-0.010626754,-0.105906014,0.09101152,-0.023499891,0.027173575,-0.060289152
1.76967E+18,11.78294873,0.000204875,-0.139958506,0.097832013,-0.027245384,0.02675499,-0.071134388
1.76967E+18,11.79293652,0.032891047,-0.147639123,0.090618136,-0.033143219,0.022537341,-0.079174474
1.76967E+18,11.80292578,0.047050797,-0.160325002,0.097455289,-0.033615422,0.015221949,-0.087425932
1.76967E+18,11.81291479,0.037478228,-0.15424539,0.115011112,-0.035122771,0.007734738,-0.091782063
1.76967E+18,11.82290381,0.030789106,-0.120899585,0.120736211,-0.034789514,-0.002499183,-0.092726894
1.76967E+18,11.8328916,0.030635084,-0.031872225,0.150633045,-0.035130933,-0.012687638,-0.082228713
1.76967E+18,11.84288062,0.055492024,0.02100947,0.145871237,-0.039285269,-0.017075315,-0.064514838
1.76967E+18,11.85286987,0.003891747,-0.000472294,0.144202719,-0.038992055,-0.023873832,-0.046553414
1.76967E+18,11.86285864,0.00369184,-0.020735914,0.146517426,-0.041232571,-0.036171511,-0.04048194
1.76967E+18,11.87284668,0.067585928,-0.040657589,0.132644676,-0.044474438,-0.047209781,-0.044378944
1.76967E+18,11.88283594,0.12980273,-0.063591305,0.118211369,-0.044275742,-0.054784395,-0.053156741
1.76967E+18,11.89282471,0.139653239,-0.059713003,0.075103464,-0.044005163,-0.064529702,-0.059792541
1.76967E+18,11.90281396,0.141442168,-0.029732875,0.05716098,-0.039958056,-0.075913459,-0.066439055
1.76967E+18,11.91280176,0.110688572,-0.042243397,0.052286944,-0.037368931,-0.077206954,-0.06330771
1.76967E+18,11.92279077,0.054262044,-0.068966569,0.056182198,-0.034015995,-0.076569192,-0.056289159
1.76967E+18,11.93277979,-0.002552899,-0.120310972,0.043653264,-0.031908367,-0.081931733,-0.045878328
1.76967E+18,11.9427688,-0.055083443,-0.211178406,-0.007301847,-0.027773755,-0.086336143,-0.039117601
1.76967E+18,11.95275684,-0.073378248,-0.302604644,-0.030282326,-0.01983434,-0.090108514,-0.060450055
1.76967E+18,11.96274585,0.065835869,-0.098303138,0.013456571,-0.015059244,-0.096153982,-0.075305805
1.76967E+18,11.97273486,-0.014664777,-0.023529344,0.024833412,-0.014821423,-0.079627737,-0.086276695
1.76967E+18,11.98272388,-0.123411714,0.049161798,0.032940147,-0.013252772,-0.046241656,-0.090437658
1.76967E+18,11.99271191,-0.211815681,-0.041295302,0.040276773,-0.010765647,-0.030177737,-0.090465091
1.76967E+18,12.00270068,-0.195312583,-0.144625329,0.023588089,-0.00532706,-0.016390838,-0.10335137
1.76967E+18,12.01268994,-0.117021428,-0.156095402,0.008619068,-0.001058545,-0.018873436,-0.111539252
1.76967E+18,12.02267871,-0.138069623,-0.129762106,-0.010257775,0.004444827,-0.035493858,-0.100089483
1.76967E+18,12.03266675,-0.258919086,-0.074563366,0.039918169,0.005996385,-0.053038497,-0.073677316
1.76967E+18,12.04265576,-0.343593657,-0.271111189,0.02910276,-0.001296753,-0.033984501,-0.077977076
1.76967E+18,12.05264478,-0.107709995,-0.204923438,0.084978377,-0.010512356,-0.038895901,-0.114655465
1.76967E+18,12.06263354,0.164602533,0.011498715,0.161254976,-0.019314419,-0.050986301,-0.136853814
1.76967E+18,12.07262183,0.12341829,0.061760583,0.206476512,-0.026576061,-0.045080744,-0.135647401
1.76967E+18,12.08261084,0.002627864,-0.002117138,0.140187346,-0.030969743,-0.04081621,-0.119509771
1.76967E+18,12.09259985,-0.016004209,-0.040391047,0.158703831,-0.037025772,-0.062706865,-0.110503227
1.76967E+18,12.10258887,0.094220545,-0.096420393,0.13017244,-0.03910502,-0.083668903,-0.111251011
1.76967E+18,12.11257666,0.16291911,-0.135095284,0.158830087,-0.045141876,-0.097462751,-0.112717085
1.76967E+18,12.12256592,0.137727093,-0.14629823,0.144169109,-0.048080243,-0.112391181,-0.114465177
1.76967E+18,12.13255469,0.087377547,-0.137962364,0.114454062,-0.050315969,-0.123713881,-0.120436512
1.76967E+18,12.1425437,0.125813953,-0.1287427,0.06962854,-0.048343647,-0.124452837,-0.129084915
1.76967E+18,12.15253198,0.109765904,-0.111513917,0.08700959,-0.051890444,-0.125562578,-0.129692391
1.76967E+18,12.16252075,0.032881256,-0.081308164,0.141785137,-0.050034586,-0.129666328,-0.114116415
1.76967E+18,12.17251001,-0.03866963,-0.120450088,0.115948392,-0.050648712,-0.129263386,-0.11788106
1.76967E+18,12.1824978,0.041443333,-0.043377369,0.132030051,-0.051105443,-0.140734956,-0.12965782
1.76967E+18,12.19248682,0.087024642,-0.00605214,0.140325293,-0.053955823,-0.151299983,-0.133561224
1.76967E+18,12.20247583,-0.009305881,-0.050230889,0.179722361,-0.060521461,-0.151361719,-0.136032924
1.76967E+18,12.21246484,-0.057068041,-0.098065237,0.172918818,-0.066402249,-0.152964681,-0.141653255
1.76967E+18,12.22245361,-0.055063423,-0.12560674,0.176239779,-0.071165852,-0.156727731,-0.15030773
1.76967E+18,12.23244189,-0.002478665,-0.152743753,0.181417182,-0.076142229,-0.168800369,-0.150637701
1.76967E+18,12.24243091,0.000852525,-0.166915486,0.226826642,-0.082936026,-0.179201201,-0.154470935
1.76967E+18,12.25241968,0.050635962,-0.139261756,0.289590557,-0.086518779,-0.191033885,-0.159713894
1.76967E+18,12.26240771,0.079526395,-0.144140175,0.308813436,-0.094067216,-0.194205761,-0.164020568
1.76967E+18,12.27239673,0.084477149,-0.106880997,0.346267845,-0.106812045,-0.196694747,-0.174621016
