time,seconds_elapsed,z,y,x
1769658830289268500,0.0612685546875,-0.070220947265625,0.968231201171875,0.2246551513671875
1769658830299256600,0.071256591796875,-0.0587005615234375,0.9645538330078125,0.231414794921875
1769658830309243400,0.081243408203125,-0.0639495849609375,0.963592529296875,0.239501953125
1769658830319231500,0.0912314453125,-0.07611083984375,0.9600677490234375,0.220947265625
1769658830329219600,0.101219482421875,-0.0915985107421875,0.9575653076171875,0.1968231201171875
1769658830339207700,0.111207763671875,-0.1099395751953125,0.9622344970703125,0.1824188232421875
1769658830349194500,0.121194580078125,-0.1179656982421875,0.971588134765625,0.1771240234375
1769658830359182600,0.1311826171875,-0.12127685546875,0.972320556640625,0.1643524169921875
1769658830369170400,0.14117041015625,-0.1314544677734375,0.968292236328125,0.1611328125
1769658830379158500,0.151158447265625,-0.1383514404296875,0.9617156982421875,0.1665496826171875
1769658830389145600,0.1611455078125,-0.1343536376953125,0.9584503173828125,0.1739501953125
1769658830399133400,0.171133544921875,-0.129302978515625,0.9597015380859375,0.1828765869140625
1769658830409121500,0.18112158203125,-0.1137542724609375,0.961151123046875,0.1971893310546875
1769658830419109600,0.191109619140625,-0.0861053466796875,0.9604949951171875,0.207855224609375
1769658830429096400,0.201096435546875,-0.053924560546875,0.9629974365234375,0.2144622802734375
1769658830439084500,0.21108447265625,-0.0288848876953125,0.9548187255859375,0.210723876953125
1769658830449072600,0.22107275390625,-0.018035888671875,0.9358062744140625,0.210205078125
1769658830459059500,0.2310595703125,0.0051116943359375,0.9056549072265625,0.2059783935546875
1769658830469047600,0.241047607421875,0.014892578125,0.95574951171875,0.231170654296875
1769658830479035600,0.25103564453125,0.0232391357421875,0.9790802001953125,0.2480621337890625
1769658830489023500,0.2610234375,0.033905029296875,0.987548828125,0.2469329833984375
1769658830499010600,0.271010498046875,0.0409088134765625,1.0076446533203125,0.2347564697265625
1769658830508998700,0.28099853515625,0.02508544921875,1.0085601806640625,0.2233123779296875
1769658830518986500,0.290986572265625,0.017120361328125,0.9984588623046875,0.2197723388671875
1769658830528974600,0.300974609375,0.004669189453125,0.991790771484375,0.2277069091796875
1769658830538961700,0.310961669921875,0.0081939697265625,0.98577880859375,0.2333831787109375
1769658830548949500,0.320949462890625,0.016571044921875,0.9774017333984375,0.231903076171875
1769658830558937600,0.3309375,0.032867431640625,0.9781494140625,0.2395477294921875
1769658830568925700,0.34092578125,0.058441162109375,0.97308349609375,0.24444580078125
1769658830578912500,0.35091259765625,0.065155029296875,0.960784912109375,0.253082275390625
1769658830588900600,0.360900634765625,0.0576934814453125,0.9485321044921875,0.256622314453125
1769658830598888700,0.370888671875,0.0489959716796875,0.9409942626953125,0.2333831787109375
1769658830608876500,0.38087646484375,0.04107666015625,0.94085693359375,0.2208709716796875
1769658830618863600,0.390863525390625,0.0387725830078125,0.9514312744140625,0.21868896484375
1769658830628851700,0.400851806640625,0.045166015625,0.95916748046875,0.209228515625
1769658830638839600,0.410839599609375,0.0502166748046875,0.973846435546875,0.20867919921875
1769658830648826600,0.42082666015625,0.054443359375,0.9742431640625,0.2014312744140625
1769658830658814500,0.430814453125,0.05419921875,0.96826171875,0.1959075927734375
1769658830668802600,0.440802490234375,0.050506591796875,0.96856689453125,0.2033843994140625
1769658830678790700,0.450790771484375,0.04376220703125,0.9677886962890625,0.2120361328125
1769658830688777500,0.460777587890625,0.038360595703125,0.9755401611328125,0.2197265625
1769658830698765600,0.470765625,0.040069580078125,0.9793853759765625,0.2286529541015625
1769658830708753700,0.480753662109375,0.0451507568359375,0.96759033203125,0.2341461181640625
1769658830718741800,0.49074169921875,0.0467987060546875,0.96063232421875,0.2415618896484375
1769658830728728600,0.500728515625,0.0621795654296875,0.9537811279296875,0.2330169677734375
1769658830738716700,0.510716552734375,0.0828857421875,0.9468841552734375,0.22064208984375
1769658830748704500,0.52070458984375,0.0942230224609375,0.9528350830078125,0.2140655517578125
1769658830758692600,0.530692626953125,0.0969696044921875,0.9619598388671875,0.2105712890625
1769658830768679700,0.5406796875,0.10400390625,0.9770660400390625,0.1957855224609375
1769658830778667500,0.55066748046875,0.1062469482421875,0.9840545654296875,0.194000244140625
1769658830788655600,0.560655517578125,0.0952606201171875,0.975799560546875,0.189178466796875
1769658830798643700,0.570643798828125,0.0924835205078125,0.983062744140625,0.1788787841796875
1769658830808630500,0.580630615234375,0.0891876220703125,0.990234375,0.1766510009765625
1769658830818618600,0.59061865234375,0.0785369873046875,0.9928131103515625,0.1848602294921875
1769658830828606700,0.600606689453125,0.0751190185546875,0.9915618896484375,0.1893310546875
1769658830838593500,0.610593505859375,0.0794219970703125,0.982391357421875,0.190032958984375
1769658830848581600,0.62058154296875,0.0840911865234375,0.9773406982421875,0.201934814453125
1769658830858569700,0.63056982421875,0.0893096923828125,0.9750518798828125,0.201324462890625
1769658830868557600,0.6405576171875,0.0855560302734375,0.9720916748046875,0.192840576171875
1769658830878544600,0.650544677734375,0.08587646484375,0.978759765625,0.19000244140625
1769658830888532700,0.66053271484375,0.1072540283203125,0.9695587158203125,0.1808624267578125
1769658830898520600,0.6705205078125,0.1372833251953125,0.96044921875,0.1746673583984375
1769658830908508400,0.68050830078125,0.1382598876953125,0.9731292724609375,0.1921844482421875
1769658830918495700,0.690495849609375,0.1451416015625,0.978851318359375,0.1868438720703125
1769658830928483600,0.700483642578125,0.1458892822265625,0.9662933349609375,0.16595458984375
1769658830938471700,0.7104716796875,0.1311798095703125,0.96466064453125,0.18255615234375
1769658830948459500,0.72045947265625,0.10992431640625,0.9933013916015625,0.2261962890625
1769658830958446600,0.730446533203125,0.1139678955078125,1.0081634521484375,0.2405242919921875
1769658830968434700,0.7404345703125,0.0955352783203125,0.9702911376953125,0.2123260498046875
1769658830978422500,0.750422607421875,0.1104278564453125,0.9603118896484375,0.1768646240234375
1769658830988410400,0.760410400390625,0.1158905029296875,0.9510345458984375,0.1665496826171875
1769658830998397700,0.770397705078125,0.1181182861328125,0.9532318115234375,0.159454345703125
1769658831008385500,0.780385498046875,0.1497955322265625,0.976837158203125,0.1766510009765625
1769658831018373400,0.790373291015625,0.134857177734375,0.97357177734375,0.19293212890625
1769658831028360700,0.800360595703125,0.1578369140625,0.9710235595703125,0.1714630126953125
1769658831038348500,0.8103486328125,0.1514434814453125,0.9667816162109375,0.161407470703125
1769658831048336400,0.82033642578125,0.1467742919921875,0.9914703369140625,0.1792144775390625
1769658831058324500,0.830324462890625,0.177520751953125,1.013824462890625,0.18695068359375
1769658831068311600,0.8403115234375,0.209808349609375,0.996917724609375,0.1593780517578125
1769658831078299600,0.850299560546875,0.21209716796875,0.9663238525390625,0.148651123046875
1769658831088287500,0.86028759765625,0.176055908203125,0.962890625,0.1804962158203125
1769658831098275600,0.870275634765625,0.1422882080078125,0.97119140625,0.180877685546875
1769658831108262700,0.8802626953125,0.1280975341796875,0.9510040283203125,0.189849853515625
1769658831118250500,0.89025048828125,0.158843994140625,0.94659423828125,0.1716156005859375
1769658831128238300,0.90023828125,0.1827545166015625,0.9756622314453125,0.1567535400390625
1769658831138226400,0.910226318359375,0.2049713134765625,1.0221405029296875,0.1246795654296875
1769658831148213500,0.920213623046875,0.219268798828125,1.0435638427734375,0.111053466796875
1769658831158201600,0.93020166015625,0.219818115234375,1.0306549072265625,0.1376495361328125
1769658831168189400,0.940189453125,0.2270355224609375,0.992431640625,0.1450042724609375
1769658831178177500,0.950177490234375,0.236419677734375,0.9579620361328125,0.116302490234375
1769658831188164600,0.96016455078125,0.235626220703125,0.949249267578125,0.1237335205078125
1769658831198152400,0.97015234375,0.223541259765625,0.9308013916015625,0.12939453125
1769658831208140500,0.980140625,0.2350616455078125,0.9368896484375,0.1454010009765625
1769658831218127600,0.990127685546875,0.2412261962890625,0.965606689453125,0.141571044921875
1769658831228115500,1.000115478515625,0.261260986328125,1.0110931396484375,0.1260986328125
1769658831238103600,1.010103515625,0.2786102294921875,1.00927734375,0.12982177734375
1769658831248091600,1.020091552734375,0.2096405029296875,0.9414520263671875,0.117340087890625
1769658831258078500,1.030078369140625,0.20477294921875,0.925537109375,0.146209716796875
1769658831268066600,1.040066650390625,0.234100341796875,0.9159393310546875,0.1580963134765625
1769658831278054700,1.0500546875,0.26629638671875,0.921051025390625,0.140167236328125
1769658831288042500,1.06004248046875,0.2628631591796875,0.9486083984375,0.1455230712890625
1769658831298029600,1.070029541015625,0.23602294921875,0.9467620849609375,0.138397216796875
1769658831308017700,1.080017578125,0.2237701416015625,0.9275970458984375,0.1345977783203125
1769658831318005500,1.090005615234375,0.2234649658203125,0.92779541015625,0.105804443359375
1769658831327993600,1.09999365234375,0.226715087890625,0.947998046875,0.10675048828125
1769658831337980400,1.10998046875,0.2426605224609375,0.9571533203125,0.1361541748046875
1769658831347968500,1.119968505859375,0.263580322265625,0.9484405517578125,0.0623931884765625
1769658831357956600,1.12995654296875,0.273468017578125,0.93853759765625,0.054840087890625
1769658831367944700,1.13994482421875,0.2464599609375,0.9205169677734375,0.07537841796875
1769658831377931500,1.149931640625,0.23907470703125,0.9197540283203125,0.06695556640625
1769658831387919600,1.159919677734375,0.24298095703125,0.947021484375,0.0696563720703125
1769658831397907700,1.16990771484375,0.25274658203125,0.9877471923828125,0.06500244140625
1769658831407895600,1.1798955078125,0.2602081298828125,1.02142333984375,0.070037841796875
1769658831417882600,1.189882568359375,0.271484375,1.0326080322265625,0.0716552734375
1769658831427870500,1.199870361328125,0.2496795654296875,0.98284912109375,0.0752105712890625
1769658831437858600,1.209858642578125,0.2405548095703125,0.922760009765625,0.078369140625
1769658831447845600,1.219845703125,0.25213623046875,0.8822021484375,0.0613555908203125
1769658831457833500,1.22983349609375,0.2480926513671875,0.876495361328125,0.0574493408203125
1769658831467821600,1.239821533203125,0.2543487548828125,0.9102020263671875,0.0619354248046875
1769658831477809700,1.2498095703125,0.2451629638671875,0.9587860107421875,0.060333251953125
1769658831487796500,1.25979638671875,0.2238922119140625,0.99407958984375,0.08135986328125
1769658831497784600,1.26978466796875,0.2003021240234375,0.99066162109375,0.093902587890625
1769658831507772700,1.279772705078125,0.211761474609375,0.9827728271484375,0.1078338623046875
1769658831517760500,1.289760498046875,0.233795166015625,0.97003173828125,0.0948333740234375
1769658831527747600,1.29974755859375,0.2458038330078125,0.965911865234375,0.0789947509765625
1769658831537735700,1.309735595703125,0.25555419921875,0.9737701416015625,0.057891845703125
1769658831547723500,1.3197236328125,0.26788330078125,0.9950408935546875,0.041961669921875
1769658831557711600,1.329711669921875,0.279266357421875,1.008697509765625,0.0418853759765625
1769658831567698700,1.33969873046875,0.280609130859375,1.0029754638671875,0.0558929443359375
1769658831577686500,1.3496865234375,0.2714996337890625,0.9888153076171875,0.0717315673828125
1769658831587674600,1.359674560546875,0.27264404296875,0.9754180908203125,0.0768585205078125
1769658831597662700,1.369662841796875,0.273101806640625,0.96783447265625,0.0787200927734375
1769658831607649500,1.3796494140625,0.27044677734375,0.9667205810546875,0.082794189453125
1769658831617637600,1.3896376953125,0.259521484375,0.97515869140625,0.0879974365234375
1769658831627625700,1.399625732421875,0.243896484375,0.97662353515625,0.0886688232421875
1769658831637612500,1.409612548828125,0.2425079345703125,0.96978759765625,0.09783935546875
1769658831647600600,1.4196005859375,0.2575531005859375,0.9562530517578125,0.0884552001953125
1769658831657588700,1.429588623046875,0.2693634033203125,0.9468841552734375,0.0786285400390625
1769658831667576600,1.43957666015625,0.272705078125,0.94366455078125,0.0691986083984375
1769658831677563600,1.449563720703125,0.268798828125,0.9496612548828125,0.0632171630859375
1769658831687551700,1.4595517578125,0.260589599609375,0.9590911865234375,0.0612640380859375
1769658831697539600,1.46953955078125,0.2509765625,0.96673583984375,0.0618133544921875
1769658831707527700,1.479527587890625,0.2431182861328125,0.9662933349609375,0.0604705810546875
1769658831717514500,1.489514404296875,0.2480621337890625,0.9587860107421875,0.06494140625
1769658831727502600,1.499502685546875,0.2598419189453125,0.947021484375,0.080474853515625
1769658831737490700,1.50949072265625,0.2704315185546875,0.934539794921875,0.0999298095703125
1769658831747478800,1.519478759765625,0.2789154052734375,0.93707275390625,0.1161041259765625
1769658831757465600,1.529465576171875,0.2895965576171875,0.9472198486328125,0.11785888671875
1769658831767453700,1.53945361328125,0.2887115478515625,0.95843505859375,0.1130523681640625
1769658831777441800,1.54944189453125,0.278594970703125,0.95977783203125,0.1098175048828125
1769658831787429600,1.5594296875,0.2682647705078125,0.9509429931640625,0.104461669921875
1769658831797416700,1.569416748046875,0.262847900390625,0.9357452392578125,0.1050262451171875
1769658831807404500,1.579404541015625,0.2555694580078125,0.9249267578125,0.1000823974609375
1769658831817392600,1.589392578125,0.2576751708984375,0.925994873046875,0.095184326171875
1769658831827380700,1.599380615234375,0.2628173828125,0.9365386962890625,0.0956268310546875
1769658831837367600,1.609367431640625,0.265350341796875,0.9537200927734375,0.094879150390625
1769658831847355600,1.619355712890625,0.2593841552734375,0.9626007080078125,0.088958740234375
1769658831857343700,1.62934375,0.25445556640625,0.9623260498046875,0.073638916015625
1769658831867330600,1.63933056640625,0.2633056640625,0.96490478515625,0.0667724609375
1769658831877318700,1.649318603515625,0.2674102783203125,0.9632720947265625,0.0599822998046875
1769658831887306800,1.659306640625,0.264892578125,0.9580535888671875,0.054443359375
1769658831897294600,1.669294677734375,0.2682037353515625,0.966766357421875,0.0489044189453125
1769658831907281700,1.67928173828125,0.2679595947265625,0.97161865234375,0.043701171875
1769658831917269800,1.689269775390625,0.265380859375,0.9705963134765625,0.04541015625
1769658831927257600,1.699257568359375,0.27337646484375,0.9655303955078125,0.0595550537109375
1769658831937245700,1.70924560546875,0.277557373046875,0.96038818359375,0.081329345703125
1769658831947232800,1.719232666015625,0.2890472412109375,0.95404052734375,0.0960235595703125
1769658831957220600,1.729220703125,0.2985687255859375,0.9552001953125,0.1134185791015625
1769658831967208700,1.739208740234375,0.30126953125,0.952484130859375,0.125457763671875
1769658831977196800,1.74919677734375,0.2950286865234375,0.94677734375,0.121185302734375
1769658831987183600,1.75918359375,0.2973480224609375,0.9451904296875,0.110382080078125
1769658831997171700,1.769171630859375,0.3010101318359375,0.9443206787109375,0.094482421875
1769658832007159800,1.779159912109375,0.29022216796875,0.94073486328125,0.0937347412109375
1769658832017147600,1.789147705078125,0.2733306884765625,0.9373779296875,0.0930633544921875
1769658832027134700,1.799134765625,0.27276611328125,0.9409637451171875,0.0899200439453125
1769658832037122800,1.809122802734375,0.282958984375,0.955291748046875,0.09033203125
1769658832047110700,1.819110595703125,0.292999267578125,0.9631195068359375,0.0879058837890625
1769658832057098800,1.8290986328125,0.2968292236328125,0.9545745849609375,0.08245849609375
1769658832067085800,1.8390859375,0.2994232177734375,0.94403076171875,0.0831451416015625
1769658832077073700,1.84907373046875,0.3074188232421875,0.937286376953125,0.080596923828125
1769658832087061800,1.859061767578125,0.3001708984375,0.9248809814453125,0.0754547119140625
1769658832097049600,1.869049560546875,0.291412353515625,0.9192047119140625,0.0828704833984375
1769658832107036700,1.87903662109375,0.2973175048828125,0.9232330322265625,0.0916748046875
1769658832117024800,1.889024658203125,0.3131256103515625,0.935028076171875,0.1026458740234375
1769658832127012600,1.8990126953125,0.322357177734375,0.946380615234375,0.1096649169921875
1769658832136999700,1.908999755859375,0.312164306640625,0.948486328125,0.1139984130859375
1769658832146988000,1.918988037109375,0.304931640625,0.9403076171875,0.1132659912109375
1769658832156976000,1.92897607421875,0.3062591552734375,0.929229736328125,0.11041259765625
1769658832166964000,1.9389638671875,0.3152618408203125,0.9214630126953125,0.1025238037109375
1769658832176951300,1.948951416015625,0.3117828369140625,0.912689208984375,0.0922393798828125
1769658832186939100,1.958939208984375,0.31866455078125,0.917694091796875,0.1061248779296875
1769658832196927000,1.968927001953125,0.33935546875,0.9329986572265625,0.1047515869140625
1769658832206915000,1.9789150390625,0.3328399658203125,0.934722900390625,0.1042938232421875
1769658832216902100,1.988902099609375,0.3187103271484375,0.9345855712890625,0.1068572998046875
1769658832226890000,1.998889892578125,0.3157501220703125,0.928680419921875,0.103179931640625
1769658832236878000,2.008878173828125,0.3296661376953125,0.9268951416015625,0.10064697265625
1769658832246866200,2.0188662109375,0.3397979736328125,0.9317626953125,0.1028900146484375
1769658832256853000,2.02885302734375,0.3601226806640625,0.9454193115234375,0.105560302734375
1769658832266841000,2.038841064453125,0.358856201171875,0.95159912109375,0.091552734375
1769658832276829200,2.0488291015625,0.3504486083984375,0.9547119140625,0.092803955078125
1769658832286817000,2.058817138671875,0.342742919921875,0.954376220703125,0.09320068359375
1769658832296804000,2.06880419921875,0.3486785888671875,0.950592041015625,0.0961761474609375
1769658832306792200,2.078792236328125,0.3527069091796875,0.9442291259765625,0.10736083984375
1769658832316780000,2.088780029296875,0.36517333984375,0.942779541015625,0.116729736328125
1769658832326767000,2.09876708984375,0.37799072265625,0.9389495849609375,0.1144256591796875
1769658832336755200,2.108755126953125,0.3800048828125,0.9329071044921875,0.1090545654296875
1769658832346743000,2.118742919921875,0.37188720703125,0.9303741455078125,0.1089019775390625
1769658832356731100,2.128731201171875,0.37457275390625,0.9303436279296875,0.1093292236328125
1769658832366718000,2.138718017578125,0.3777008056640625,0.929840087890625,0.1059417724609375
1769658832376706000,2.1487060546875,0.3799591064453125,0.92803955078125,0.1038360595703125
1769658832386694100,2.158694091796875,0.385498046875,0.927093505859375,0.0980224609375
1769658832396682200,2.16868212890625,0.3817138671875,0.9197235107421875,0.0926513671875
1769658832406669000,2.1786689453125,0.376922607421875,0.9176177978515625,0.0942230224609375
1769658832416657200,2.1886572265625,0.37249755859375,0.9196319580078125,0.101806640625
1769658832426645200,2.198645263671875,0.370758056640625,0.914154052734375,0.10052490234375
1769658832436633000,2.208633056640625,0.37286376953125,0.9170074462890625,0.1110382080078125
1769658832446620200,2.2186201171875,0.374847412109375,0.917816162109375,0.1151123046875
1769658832456608000,2.22860791015625,0.3756103515625,0.919586181640625,0.11309814453125
1769658832466596000,2.23859619140625,0.3701019287109375,0.9176788330078125,0.1141204833984375
1769658832476584200,2.248584228515625,0.371368408203125,0.9198760986328125,0.112396240234375
1769658832486571000,2.258571044921875,0.378509521484375,0.9172821044921875,0.101043701171875
1769658832496559000,2.26855908203125,0.3819427490234375,0.915618896484375,0.0931549072265625
1769658832506547200,2.278547119140625,0.383880615234375,0.9143829345703125,0.0833892822265625
1769658832516535300,2.288535400390625,0.38604736328125,0.9158477783203125,0.0827484130859375
1769658832526522000,2.298522216796875,0.385498046875,0.92230224609375,0.084014892578125
1769658832536510200,2.30851025390625,0.388702392578125,0.9315185546875,0.0897216796875
1769658832546498000,2.318498046875,0.3891448974609375,0.932373046875,0.093597412109375
1769658832556486100,2.328486083984375,0.392059326171875,0.9286346435546875,0.0930633544921875
1769658832566473200,2.33847314453125,0.3912506103515625,0.9150543212890625,0.0907440185546875
1769658832576461000,2.3484609375,0.40069580078125,0.9119415283203125,0.0987701416015625
1769658832586449200,2.35844921875,0.412353515625,0.916748046875,0.1105499267578125
1769658832596436200,2.368436279296875,0.4071807861328125,0.91912841796875,0.116180419921875
1769658832606424000,2.378424072265625,0.3907012939453125,0.9163818359375,0.1114044189453125
1769658832616412200,2.388412109375,0.38677978515625,0.9168243408203125,0.1066741943359375
1769658832626400300,2.398400146484375,0.39349365234375,0.9258270263671875,0.1026611328125
1769658832636387000,2.408386962890625,0.395904541015625,0.929901123046875,0.100616455078125
1769658832646375200,2.418375244140625,0.3851318359375,0.923370361328125,0.0977935791015625
1769658832656363300,2.42836328125,0.376556396484375,0.9154815673828125,0.0858001708984375
1769658832666351000,2.43835107421875,0.3783721923828125,0.91217041015625,0.080596923828125
1769658832676338200,2.448338134765625,0.3858184814453125,0.9167938232421875,0.0830841064453125
1769658832686326300,2.458326171875,0.392791748046875,0.929656982421875,0.088348388671875
1769658832696314000,2.468314208984375,0.3900909423828125,0.939208984375,0.09173583984375
1769658832706302200,2.47830224609375,0.3939971923828125,0.9387054443359375,0.0861663818359375
1769658832716289300,2.488289306640625,0.393646240234375,0.9262847900390625,0.083160400390625
1769658832726277000,2.498277099609375,0.395263671875,0.91229248046875,0.0771942138671875
1769658832736265200,2.50826513671875,0.40118408203125,0.911224365234375,0.0786895751953125
1769658832746253300,2.51825341796875,0.402099609375,0.9155120849609375,0.0855560302734375
1769658832756240100,2.528240234375,0.400970458984375,0.922332763671875,0.0941925048828125
1769658832766228200,2.538228271484375,0.4026947021484375,0.93475341796875,0.1037750244140625
1769658832776216300,2.54821630859375,0.399566650390625,0.9385833740234375,0.104888916015625
1769658832786204200,2.5582041015625,0.3843841552734375,0.926055908203125,0.103179931640625
1769658832796191200,2.568191162109375,0.37957763671875,0.914947509765625,0.098907470703125
1769658832806179300,2.578179443359375,0.380401611328125,0.905242919921875,0.0966339111328125
1769658832816167200,2.588167236328125,0.37750244140625,0.902984619140625,0.0934600830078125
1769658832826155300,2.5981552734375,0.37738037109375,0.9105072021484375,0.0900726318359375
1769658832836142000,2.60814208984375,0.3803558349609375,0.9238128662109375,0.083251953125
1769658832846130200,2.618130126953125,0.3779296875,0.937652587890625,0.078369140625
1769658832856118300,2.6281181640625,0.3711090087890625,0.94317626953125,0.076568603515625
1769658832866105000,2.63810498046875,0.36285400390625,0.938018798828125,0.07904052734375
1769658832876093200,2.64809326171875,0.358001708984375,0.932891845703125,0.0855255126953125
1769658832886081300,2.658081298828125,0.35107421875,0.93182373046875,0.097930908203125
1769658832896069400,2.6680693359375,0.3437042236328125,0.933135986328125,0.1103057861328125
1769658832906056200,2.67805615234375,0.3423919677734375,0.9303741455078125,0.11590576171875
1769658832916044300,2.688044189453125,0.3437347412109375,0.924957275390625,0.11810302734375
1769658832926032100,2.6980322265625,0.3472442626953125,0.9144287109375,0.1165008544921875
1769658832936020200,2.708020263671875,0.3538970947265625,0.908782958984375,0.1126861572265625
1769658832946007300,2.71800732421875,0.3583526611328125,0.9128570556640625,0.1049652099609375
1769658832955995100,2.7279951171875,0.3564300537109375,0.9216156005859375,0.0979461669921875
1769658832965983200,2.737983154296875,0.349395751953125,0.928314208984375,0.092529296875
1769658832975971300,2.747971435546875,0.34539794921875,0.9287872314453125,0.08966064453125
1769658832985958100,2.757958251953125,0.3467559814453125,0.9250946044921875,0.0897979736328125
1769658832995946200,2.7679462890625,0.3476715087890625,0.923553466796875,0.093597412109375
1769658833005934300,2.777934326171875,0.3486175537109375,0.9243316650390625,0.0962677001953125
1769658833015922200,2.787922119140625,0.3470611572265625,0.926666259765625,0.10101318359375
1769658833025909200,2.7979091796875,0.342803955078125,0.9263458251953125,0.1090850830078125
1769658833035897300,2.8078974609375,0.3366851806640625,0.9210205078125,0.11700439453125
1769658833045885200,2.81788525390625,0.3398284912109375,0.915283203125,0.1214447021484375
1769658833055873300,2.827873291015625,0.3483734130859375,0.910919189453125,0.1205291748046875
1769658833065860400,2.8378603515625,0.355560302734375,0.9127960205078125,0.1151275634765625
1769658833075848200,2.84784814453125,0.3617095947265625,0.9161529541015625,0.109710693359375
1769658833085836300,2.857836181640625,0.3581390380859375,0.9194488525390625,0.1013336181640625
1769658833095824100,2.86782421875,0.35595703125,0.926055908203125,0.097198486328125
1769658833105811200,2.877811279296875,0.3600006103515625,0.9305877685546875,0.0848388671875
1769658833115799300,2.88779931640625,0.3619537353515625,0.9305419921875,0.0745086669921875
1769658833125787100,2.897787109375,0.358154296875,0.933563232421875,0.074462890625
1769658833135775000,2.90777490234375,0.3574371337890625,0.932464599609375,0.0776214599609375
1769658833145762300,2.91776220703125,0.36138916015625,0.93133544921875,0.0838775634765625
1769658833155750100,2.927750244140625,0.3625030517578125,0.9288787841796875,0.093536376953125
1769658833165738000,2.937738037109375,0.36614990234375,0.9253387451171875,0.0959930419921875
1769658833175725300,2.947725341796875,0.36700439453125,0.92120361328125,0.0993499755859375
1769658833185713200,2.957713134765625,0.3668060302734375,0.9117279052734375,0.1048583984375
1769658833195701200,2.967701171875,0.3720855712890625,0.9124298095703125,0.109405517578125
1769658833205689000,2.977689208984375,0.3710479736328125,0.913543701171875,0.11114501953125
1769658833215676200,2.98767626953125,0.3639373779296875,0.9160614013671875,0.1131134033203125
1769658833225664300,2.997664306640625,0.358551025390625,0.91778564453125,0.1082763671875
1769658833235652000,3.007652099609375,0.3558807373046875,0.916961669921875,0.100067138671875
1769658833245640000,3.017639892578125,0.3534393310546875,0.91583251953125,0.0929718017578125
1769658833255627300,3.027627197265625,0.3487396240234375,0.9143829345703125,0.086273193359375
1769658833265615000,3.037614990234375,0.34918212890625,0.9180450439453125,0.0879669189453125
1769658833275603000,3.04760302734375,0.3480682373046875,0.9249420166015625,0.0900421142578125
1769658833285591000,3.057591064453125,0.3460540771484375,0.9302520751953125,0.0915679931640625
1769658833295578400,3.067578369140625,0.3431854248046875,0.9324493408203125,0.1013336181640625
1769658833305566000,3.07756591796875,0.3470306396484375,0.93206787109375,0.1105194091796875
1769658833315554000,3.087553955078125,0.351409912109375,0.9318389892578125,0.1163177490234375
1769658833325542100,3.097542236328125,0.357513427734375,0.9305419921875,0.1225128173828125
1769658833335529200,3.107529296875,0.3636932373046875,0.930328369140625,0.119110107421875
1769658833345517000,3.11751708984375,0.370880126953125,0.9283447265625,0.1114654541015625
1769658833355505200,3.127505126953125,0.3777008056640625,0.9239349365234375,0.1075439453125
1769658833365493000,3.137492919921875,0.383270263671875,0.9247589111328125,0.10565185546875
1769658833375480000,3.14747998046875,0.3870697021484375,0.93316650390625,0.10748291015625
1769658833385468200,3.15746826171875,0.3836822509765625,0.9412994384765625,0.1083984375
1769658833395456000,3.1674560546875,0.376434326171875,0.941925048828125,0.1070709228515625
1769658833405444000,3.177444091796875,0.3692626953125,0.9352874755859375,0.1050872802734375
1769658833415431000,3.187430908203125,0.3668060302734375,0.9250335693359375,0.1030120849609375
1769658833425419000,3.1974189453125,0.3653564453125,0.9123992919921875,0.1043243408203125
1769658833435407000,3.207406982421875,0.36614990234375,0.90924072265625,0.1097259521484375
1769658833445395200,3.217395263671875,0.364044189453125,0.9152984619140625,0.113525390625
1769658833455382000,3.227382080078125,0.364898681640625,0.9176177978515625,0.116729736328125
1769658833465370000,3.2373701171875,0.37017822265625,0.9227142333984375,0.1164398193359375
1769658833475358000,3.24735791015625,0.3705291748046875,0.924072265625,0.108856201171875
1769658833485346000,3.257345947265625,0.371368408203125,0.921295166015625,0.1013031005859375
1769658833495333000,3.2673330078125,0.373626708984375,0.9153289794921875,0.0960845947265625
1769658833505321000,3.277321044921875,0.374725341796875,0.9138336181640625,0.0954132080078125
1769658833515309000,3.28730908203125,0.371826171875,0.9133453369140625,0.0989532470703125
1769658833525297200,3.297297119140625,0.3734283447265625,0.917694091796875,0.1039581298828125
1769658833535284000,3.307283935546875,0.37371826171875,0.924560546875,0.1117095947265625
1769658833545272000,3.31727197265625,0.3703460693359375,0.92535400390625,0.115325927734375
1769658833555260200,3.32726025390625,0.368316650390625,0.923095703125,0.11761474609375
1769658833565247000,3.3372470703125,0.3691864013671875,0.915863037109375,0.1150360107421875
1769658833575235000,3.347235107421875,0.369140625,0.9090118408203125,0.11212158203125
1769658833585223200,3.35722314453125,0.3687591552734375,0.9059600830078125,0.1054229736328125
1769658833595211000,3.3672109375,0.3683929443359375,0.9122772216796875,0.1036834716796875
1769658833605198000,3.377197998046875,0.3645172119140625,0.9213104248046875,0.103668212890625
1769658833615186200,3.387186279296875,0.3616943359375,0.925537109375,0.10479736328125
1769658833625174000,3.397174072265625,0.36285400390625,0.927825927734375,0.10467529296875
1769658833635162000,3.407162109375,0.36578369140625,0.926361083984375,0.104461669921875
1769658833645149200,3.417149169921875,0.365692138671875,0.92547607421875,0.1046142578125
1769658833655137000,3.427136962890625,0.3673095703125,0.928070068359375,0.10711669921875
1769658833665125000,3.437125,0.3652801513671875,0.9326629638671875,0.109588623046875
1769658833675113200,3.44711328125,0.3628387451171875,0.9323577880859375,0.1108245849609375
1769658833685100000,3.45710009765625,0.3630828857421875,0.932861328125,0.1118621826171875
1769658833695088000,3.467088134765625,0.3654022216796875,0.933868408203125,0.1105804443359375
1769658833705076200,3.477076171875,0.3656463623046875,0.932281494140625,0.11260986328125
1769658833715064000,3.48706396484375,0.3641815185546875,0.933441162109375,0.1125640869140625
1769658833725051100,3.497051025390625,0.3633575439453125,0.9336700439453125,0.11566162109375
1769658833735039200,3.507039306640625,0.3654937744140625,0.9332733154296875,0.1165008544921875
1769658833745027000,3.517027099609375,0.3677825927734375,0.93017578125,0.1168670654296875
1769658833755015200,3.52701513671875,0.3676605224609375,0.92401123046875,0.1142578125
1769658833765002000,3.537001953125,0.3707733154296875,0.91888427734375,0.1113128662109375
1769658833774990000,3.546989990234375,0.372711181640625,0.9193115234375,0.110107421875
1769658833784978200,3.556978271484375,0.363372802734375,0.9172210693359375,0.1160430908203125
1769658833794966300,3.56696630859375,0.365447998046875,0.917449951171875,0.10992431640625
1769658833804953000,3.576953125,0.3679046630859375,0.918426513671875,0.101715087890625
1769658833814941200,3.586941162109375,0.3680267333984375,0.9148101806640625,0.0986175537109375
1769658833824929300,3.59692919921875,0.3676300048828125,0.9152679443359375,0.0928497314453125
1769658833834917000,3.606917236328125,0.36102294921875,0.915802001953125,0.091827392578125
1769658833844904200,3.616904296875,0.357086181640625,0.9185028076171875,0.09600830078125
1769658833854892000,3.62689208984375,0.353729248046875,0.9220123291015625,0.102783203125
1769658833864880000,3.636880126953125,0.3547210693359375,0.92144775390625,0.108428955078125
1769658833874868200,3.6468681640625,0.35614013671875,0.9193572998046875,0.1111907958984375
1769658833884855000,3.65685498046875,0.358551025390625,0.914825439453125,0.1122894287109375
1769658833894843100,3.666843017578125,0.3632965087890625,0.911102294921875,0.1135406494140625
1769658833904831200,3.676831298828125,0.368194580078125,0.9127655029296875,0.11376953125
1769658833914818000,3.686818115234375,0.3690185546875,0.9172515869140625,0.1137237548828125
1769658833924806100,3.69680615234375,0.3704376220703125,0.9203948974609375,0.112274169921875
1769658833934794200,3.706794189453125,0.37353515625,0.9235076904296875,0.109649658203125
1769658833944782000,3.716781982421875,0.3751373291015625,0.9232177734375,0.1057586669921875
1769658833954769200,3.72676904296875,0.374847412109375,0.9220123291015625,0.102569580078125
1769658833964757200,3.73675732421875,0.371246337890625,0.9229583740234375,0.1028900146484375
1769658833974745000,3.7467451171875,0.365753173828125,0.92437744140625,0.1019439697265625
1769658833984733200,3.756733154296875,0.3636932373046875,0.924163818359375,0.1030120849609375
1769658833994720300,3.76672021484375,0.3628997802734375,0.9219207763671875,0.1035919189453125
1769658834004708000,3.7767080078125,0.366058349609375,0.9213714599609375,0.1047210693359375
1769658834014696200,3.7866962890625,0.367950439453125,0.9239044189453125,0.104400634765625
1769658834024684300,3.796684326171875,0.3638916015625,0.9284820556640625,0.1065673828125
1769658834034671000,3.806671142578125,0.3564300537109375,0.932281494140625,0.1101837158203125
1769658834044659200,3.8166591796875,0.358123779296875,0.933074951171875,0.1146392822265625
1769658834054647300,3.826647216796875,0.361541748046875,0.930877685546875,0.116546630859375
1769658834064635100,3.83663525390625,0.3642578125,0.92572021484375,0.11376953125
1769658834074622200,3.846622314453125,0.3665771484375,0.92144775390625,0.11016845703125
1769658834084610300,3.8566103515625,0.363677978515625,0.92462158203125,0.1130523681640625
1769658834094598100,3.86659814453125,0.3574676513671875,0.9270782470703125,0.1166534423828125
1769658834104586200,3.876586181640625,0.352874755859375,0.93133544921875,0.1214599609375
1769658834114573300,3.8865732421875,0.3514404296875,0.9341888427734375,0.1225433349609375
1769658834124561200,3.89656103515625,0.3498992919921875,0.9350128173828125,0.1278076171875
1769658834134549200,3.90654931640625,0.347442626953125,0.9337921142578125,0.1317138671875
1769658834144536600,3.91653662109375,0.3507080078125,0.9308929443359375,0.131561279296875
1769658834154523400,3.9265234375,0.35430908203125,0.9274139404296875,0.128662109375
1769658834164511500,3.936511474609375,0.3570098876953125,0.922943115234375,0.1262054443359375
1769658834174499600,3.94649951171875,0.358917236328125,0.918701171875,0.1227569580078125
1769658834184487400,3.9564873046875,0.3617095947265625,0.9177398681640625,0.1225738525390625
1769658834194474500,3.966474609375,0.36126708984375,0.9207611083984375,0.1234893798828125
1769658834204462600,3.976462646484375,0.3581085205078125,0.9262237548828125,0.1228179931640625
1769658834214450400,3.986450439453125,0.3540496826171875,0.9300079345703125,0.1212310791015625
1769658834224438500,3.9964384765625,0.3519287109375,0.9310455322265625,0.1155548095703125
1769658834234425300,4.00642529296875,0.353729248046875,0.9285125732421875,0.1093902587890625
1769658834244413400,4.016413330078125,0.35333251953125,0.9296417236328125,0.1050872802734375
1769658834254401500,4.026401611328125,0.3474273681640625,0.931549072265625,0.1083221435546875
1769658834264389600,4.0363896484375,0.3462982177734375,0.93212890625,0.1099395751953125
1769658834274376400,4.04637646484375,0.3480682373046875,0.9364013671875,0.1159515380859375
1769658834284364500,4.056364501953125,0.349151611328125,0.9373931884765625,0.120880126953125
1769658834294352600,4.0663525390625,0.3466949462890625,0.93621826171875,0.128875732421875
1769658834304340500,4.076340576171875,0.346710205078125,0.93475341796875,0.134490966796875
1769658834314327600,4.08632763671875,0.3446044921875,0.9329986572265625,0.14019775390625
1769658834324315400,4.0963154296875,0.3413238525390625,0.930328369140625,0.144561767578125
1769658834334303500,4.106303466796875,0.341583251953125,0.9292144775390625,0.14404296875
1769658834344291300,4.116291259765625,0.3462677001953125,0.925384521484375,0.1422576904296875
1769658834354278400,4.1262783203125,0.34857177734375,0.9227447509765625,0.139739990234375
1769658834364266500,4.1362666015625,0.3522796630859375,0.918212890625,0.135894775390625
1769658834374254600,4.146254638671875,0.3553314208984375,0.91510009765625,0.1327667236328125
1769658834384242400,4.156242431640625,0.3568115234375,0.9136199951171875,0.1289520263671875
1769658834394229500,4.1662294921875,0.3564605712890625,0.9108734130859375,0.1223297119140625
1769658834404217600,4.176217529296875,0.3557891845703125,0.906402587890625,0.1145477294921875
1769658834414205400,4.186205322265625,0.3554229736328125,0.902557373046875,0.1082000732421875
1769658834424193300,4.196193359375,0.357666015625,0.9025726318359375,0.1076507568359375
1769658834434180600,4.2061806640625,0.360565185546875,0.906158447265625,0.1045074462890625
1769658834444168400,4.21616845703125,0.357513427734375,0.9093780517578125,0.104034423828125
1769658834454156300,4.22615625,0.3515625,0.9138031005859375,0.1024169921875
1769658834464144400,4.236144287109375,0.350494384765625,0.9136810302734375,0.098541259765625
1769658834474131500,4.24613134765625,0.35015869140625,0.91192626953125,0.092926025390625
1769658834484119300,4.256119384765625,0.3466033935546875,0.9112396240234375,0.0960845947265625
1769658834494107400,4.266107421875,0.3437652587890625,0.9153594970703125,0.102874755859375
1769658834504094500,4.276094482421875,0.34490966796875,0.92706298828125,0.1141204833984375
1769658834514082300,4.286082275390625,0.349456787109375,0.9360198974609375,0.1246337890625
1769658834524070400,4.2960703125,0.3502349853515625,0.938812255859375,0.1317901611328125
1769658834534058200,4.306058349609375,0.3559417724609375,0.935699462890625,0.1312408447265625
1769658834544045600,4.316045654296875,0.3675384521484375,0.9289398193359375,0.124603271484375
1769658834554033400,4.326033447265625,0.3780975341796875,0.92376708984375,0.1182861328125
1769658834564021200,4.336021240234375,0.3816070556640625,0.9242706298828125,0.1192169189453125
1769658834574009300,4.34600927734375,0.37603759765625,0.927825927734375,0.1240234375
1769658834583996400,4.355996337890625,0.365814208984375,0.9362335205078125,0.12786865234375
1769658834593984300,4.365984375,0.3545989990234375,0.9407806396484375,0.1287078857421875
1769658834603972400,4.375972412109375,0.34808349609375,0.9402923583984375,0.1273193359375
1769658834613960400,4.38596044921875,0.3454742431640625,0.934051513671875,0.122650146484375
1769658834623947300,4.395947265625,0.348175048828125,0.9281005859375,0.1158294677734375
1769658834633935400,4.405935302734375,0.352508544921875,0.92547607421875,0.108062744140625
1769658834643923500,4.41592333984375,0.35296630859375,0.930511474609375,0.106414794921875
1769658834653911300,4.425911376953125,0.3551025390625,0.936676025390625,0.108123779296875
1769658834663898400,4.4358984375,0.3560943603515625,0.9412078857421875,0.11248779296875
1769658834673886500,4.445886474609375,0.3603973388671875,0.9380645751953125,0.1153411865234375
1769658834683874300,4.455874267578125,0.365386962890625,0.9317626953125,0.1194915771484375
1769658834693862400,4.4658623046875,0.3650054931640625,0.928436279296875,0.1233978271484375
1769658834703849200,4.47584912109375,0.360504150390625,0.929412841796875,0.1262969970703125
1769658834713837300,4.48583740234375,0.352569580078125,0.9341583251953125,0.13177490234375
1769658834723825400,4.495825439453125,0.3446807861328125,0.936187744140625,0.1331939697265625
1769658834733813500,4.5058134765625,0.3415985107421875,0.9367828369140625,0.1328582763671875
1769658834743800300,4.51580029296875,0.340545654296875,0.9366607666015625,0.1311492919921875
1769658834753788400,4.525788330078125,0.3412017822265625,0.9334716796875,0.127197265625
1769658834763776300,4.5357763671875,0.3445892333984375,0.9287109375,0.1260833740234375
1769658834773764400,4.545764404296875,0.3511810302734375,0.9281463623046875,0.1258392333984375
1769658834783751400,4.55575146484375,0.35125732421875,0.928131103515625,0.13043212890625
1769658834793739300,4.5657392578125,0.347320556640625,0.928192138671875,0.1387176513671875
1769658834803727400,4.575727294921875,0.3441314697265625,0.9252471923828125,0.1444854736328125
1769658834813715500,4.585715576171875,0.3477783203125,0.9188232421875,0.1419525146484375
1769658834823702300,4.595702392578125,0.3477783203125,0.915130615234375,0.132293701171875
1769658834833690400,4.6056904296875,0.3484039306640625,0.9115753173828125,0.12188720703125
1769658834843678500,4.615678466796875,0.3480377197265625,0.910736083984375,0.11688232421875
1769658834853666300,4.625666259765625,0.3499908447265625,0.913604736328125,0.11639404296875
1769658834863653400,4.6356533203125,0.35015869140625,0.915130615234375,0.119049072265625
1769658834873641500,4.645641357421875,0.351531982421875,0.9163970947265625,0.123382568359375
1769658834883629300,4.65562939453125,0.3524322509765625,0.9163818359375,0.1238250732421875
1769658834893617400,4.665617431640625,0.350677490234375,0.9141998291015625,0.1200103759765625
1769658834903604500,4.6756044921875,0.3524932861328125,0.9107818603515625,0.1131591796875
1769658834913592300,4.68559228515625,0.3504486083984375,0.908721923828125,0.10882568359375
1769658834923580400,4.695580322265625,0.3535614013671875,0.91119384765625,0.103912353515625
1769658834933568500,4.705568603515625,0.3560028076171875,0.9174346923828125,0.1066436767578125
1769658834943555300,4.715555419921875,0.3541412353515625,0.92535400390625,0.11175537109375
1769658834953543400,4.72554345703125,0.3558197021484375,0.9312286376953125,0.112548828125
1769658834963531500,4.735531494140625,0.360107421875,0.93035888671875,0.1116180419921875
1769658834973519400,4.745519287109375,0.35980224609375,0.9229736328125,0.1113739013671875
1769658834983506400,4.75550634765625,0.3589019775390625,0.920166015625,0.1121673583984375
1769658834993494500,4.76549462890625,0.3587799072265625,0.9221649169921875,0.1158599853515625
1769658835003482400,4.775482421875,0.357025146484375,0.9260711669921875,0.1211395263671875
1769658835013470500,4.785470458984375,0.3550872802734375,0.9287261962890625,0.1236114501953125
1769658835023457500,4.79545751953125,0.3544464111328125,0.9303436279296875,0.123016357421875
1769658835033445400,4.8054453125,0.35614013671875,0.930572509765625,0.1209869384765625
1769658835043433500,4.81543359375,0.3560028076171875,0.93408203125,0.11761474609375
1769658835053421600,4.825421630859375,0.3564910888671875,0.9401702880859375,0.1139068603515625
1769658835063408400,4.835408447265625,0.356353759765625,0.94085693359375,0.1136474609375
1769658835073396500,4.845396484375,0.3539886474609375,0.9423370361328125,0.1160125732421875
1769658835083384600,4.855384521484375,0.353118896484375,0.944549560546875,0.1204681396484375
1769658835093372400,4.865372314453125,0.349853515625,0.944091796875,0.125213623046875
1769658835103359500,4.875359375,0.346588134765625,0.9389801025390625,0.1324920654296875
1769658835113347600,4.88534765625,0.3487091064453125,0.9347076416015625,0.1363983154296875
1769658835123335400,4.89533544921875,0.3446197509765625,0.9310455322265625,0.1362762451171875
1769658835133322500,4.905322509765625,0.3456878662109375,0.931884765625,0.133087158203125
1769658835143310300,4.915310302734375,0.3476715087890625,0.9355621337890625,0.12823486328125
1769658835153299500,4.925299560546875,0.347381591796875,0.9363250732421875,0.1234893798828125
1769658835163287300,4.935287353515625,0.3455963134765625,0.9362640380859375,0.119049072265625
1769658835173275400,4.945275390625,0.3437347412109375,0.9329986572265625,0.1173248291015625
1769658835183262500,4.955262451171875,0.3412933349609375,0.9306640625,0.1215362548828125
1769658835193250300,4.965250244140625,0.33843994140625,0.928863525390625,0.1234588623046875
1769658835203238400,4.97523828125,0.336090087890625,0.924041748046875,0.12921142578125
1769658835213226200,4.985226318359375,0.3368988037109375,0.922271728515625,0.1322784423828125
1769658835223213300,4.99521337890625,0.3348236083984375,0.9203948974609375,0.1328125
1769658835233201200,5.005201171875,0.3393096923828125,0.9166259765625,0.1302337646484375
1769658835243189200,5.015189208984375,0.3431854248046875,0.91595458984375,0.1257476806640625
1769658835253177300,5.02517724609375,0.34576416015625,0.91650390625,0.1218414306640625
1769658835263164200,5.0351640625,0.343353271484375,0.9186859130859375,0.1172027587890625
1769658835273152300,5.04515234375,0.3382568359375,0.9193267822265625,0.1162109375
1769658835283140400,5.055140380859375,0.3351898193359375,0.9210052490234375,0.1180419921875
1769658835293127400,5.06512744140625,0.33148193359375,0.92193603515625,0.121429443359375
1769658835303115300,5.075115234375,0.3286285400390625,0.9211578369140625,0.1251983642578125
1769658835313103400,5.085103271484375,0.329620361328125,0.9206085205078125,0.127197265625
1769658835323091200,5.09509130859375,0.3340301513671875,0.9199371337890625,0.1284942626953125
1769658835333079300,5.105079345703125,0.338775634765625,0.920379638671875,0.12890625
1769658835343066400,5.11506640625,0.3460540771484375,0.9207305908203125,0.1267242431640625
1769658835353054200,5.12505419921875,0.35504150390625,0.9227142333984375,0.11798095703125
1769658835363042300,5.135042236328125,0.3568572998046875,0.9227447509765625,0.10821533203125
1769658835373030400,5.145030517578125,0.3573760986328125,0.9237213134765625,0.103607177734375
1769658835383017200,5.155017333984375,0.3579254150390625,0.92523193359375,0.1016998291015625
1769658835393005300,5.16500537109375,0.356964111328125,0.93084716796875,0.10400390625
1769658835402993400,5.174993408203125,0.353759765625,0.932861328125,0.1108856201171875
1769658835412980200,5.184980224609375,0.350860595703125,0.932403564453125,0.1168365478515625
1769658835422968300,5.19496826171875,0.346527099609375,0.9304962158203125,0.12188720703125
1769658835432956400,5.204956298828125,0.347625732421875,0.9286041259765625,0.1208343505859375
1769658835442944300,5.2149443359375,0.35400390625,0.9285125732421875,0.1187896728515625
1769658835452931300,5.224931396484375,0.3560943603515625,0.92901611328125,0.1176605224609375
1769658835462919400,5.23491943359375,0.3592529296875,0.931976318359375,0.118408203125
1769658835472907300,5.2449072265625,0.3570556640625,0.934326171875,0.122772216796875
1769658835482895400,5.254895263671875,0.35308837890625,0.9266357421875,0.1230621337890625
1769658835492882400,5.26488232421875,0.36370849609375,0.9251708984375,0.112640380859375
1769658835502870300,5.274870361328125,0.36968994140625,0.9249420166015625,0.115203857421875
1769658835512858400,5.2848583984375,0.366912841796875,0.9227294921875,0.1142425537109375
1769658835522846500,5.294846435546875,0.357574462890625,0.9200592041015625,0.1154937744140625
1769658835532833300,5.304833251953125,0.3542327880859375,0.9163055419921875,0.1172027587890625
1769658835542821400,5.3148212890625,0.352020263671875,0.918426513671875,0.1147003173828125
1769658835552809500,5.3248095703125,0.3687744140625,0.9286651611328125,0.1227569580078125
1769658835562797300,5.33479736328125,0.365966796875,0.9297637939453125,0.1180572509765625
1769658835572784400,5.344784423828125,0.3538665771484375,0.9309234619140625,0.11822509765625
1769658835582772500,5.3547724609375,0.3580322265625,0.9294586181640625,0.113983154296875
1769658835592760300,5.36476025390625,0.364471435546875,0.9237213134765625,0.109100341796875
1769658835602748400,5.37474853515625,0.36181640625,0.9194793701171875,0.1103057861328125
1769658835612735200,5.3847353515625,0.3590545654296875,0.92059326171875,0.1139373779296875
1769658835622723300,5.394723388671875,0.355560302734375,0.926116943359375,0.1239776611328125
1769658835632711400,5.40471142578125,0.354827880859375,0.9226837158203125,0.129150390625
1769658835642699500,5.414699462890625,0.357666015625,0.9207305908203125,0.1343231201171875
1769658835652686300,5.424686279296875,0.3547821044921875,0.917266845703125,0.136016845703125
1769658835662674400,5.43467431640625,0.3483734130859375,0.9183349609375,0.1342620849609375
1769658835672662500,5.44466259765625,0.34515380859375,0.91937255859375,0.129486083984375
1769658835682650400,5.454650390625,0.338714599609375,0.919921875,0.1251220703125
1769658835692637400,5.464637451171875,0.3323211669921875,0.9178924560546875,0.1231689453125
1769658835702625300,5.474625244140625,0.3263702392578125,0.921844482421875,0.1209869384765625
1769658835712613400,5.48461328125,0.3218994140625,0.9313812255859375,0.1211090087890625
1769658835722601500,5.4946015625,0.3191375732421875,0.937774658203125,0.11981201171875
1769658835732588300,5.50458837890625,0.3214111328125,0.943450927734375,0.119476318359375
1769658835742576400,5.514576416015625,0.3265380859375,0.9437408447265625,0.1201629638671875
1769658835752564500,5.524564453125,0.3329010009765625,0.94317626953125,0.1215057373046875
1769658835762552300,5.53455224609375,0.33538818359375,0.940582275390625,0.1249847412109375
1769658835772539400,5.544539306640625,0.339508056640625,0.9408721923828125,0.12811279296875
1769658835782527500,5.554527587890625,0.34503173828125,0.9418792724609375,0.133392333984375
1769658835792515300,5.564515380859375,0.3481597900390625,0.9386138916015625,0.13323974609375
1769658835802503400,5.57450341796875,0.353515625,0.9366455078125,0.1316070556640625
1769658835812490500,5.584490478515625,0.3558807373046875,0.936431884765625,0.125579833984375
1769658835822478300,5.594478271484375,0.3531341552734375,0.9365081787109375,0.1216278076171875
1769658835832466400,5.604466552734375,0.344207763671875,0.9371337890625,0.1167449951171875
1769658835842454500,5.61445458984375,0.34100341796875,0.941741943359375,0.1124267578125
1769658835852441300,5.62444140625,0.3412933349609375,0.94586181640625,0.1092681884765625
1769658835862429400,5.634429443359375,0.3344879150390625,0.946014404296875,0.1083831787109375
1769658835872417500,5.64441748046875,0.3292236328125,0.9435272216796875,0.109130859375
1769658835882405400,5.6544052734375,0.325927734375,0.942596435546875,0.1117706298828125
1769658835892392400,5.664392333984375,0.3209228515625,0.93939208984375,0.122222900390625
1769658835902380500,5.674380615234375,0.3188323974609375,0.935546875,0.1296234130859375
1769658835912368400,5.684368408203125,0.326629638671875,0.939422607421875,0.1348724365234375
1769658835922356500,5.6943564453125,0.3316192626953125,0.9458465576171875,0.13128662109375
1769658835932343600,5.704343505859375,0.3337554931640625,0.94635009765625,0.1231536865234375
1769658835942331400,5.714331298828125,0.3415985107421875,0.9387359619140625,0.11248779296875
1769658835952319500,5.724319580078125,0.3505401611328125,0.9282073974609375,0.106109619140625
1769658835962307300,5.734307373046875,0.354217529296875,0.9191436767578125,0.1101837158203125
1769658835972294400,5.74429443359375,0.3565216064453125,0.917999267578125,0.10650634765625
1769658835982282500,5.754282470703125,0.35601806640625,0.9206390380859375,0.11334228515625
1769658835992270600,5.7642705078125,0.3456573486328125,0.924346923828125,0.1214599609375
1769658836002258200,5.774258056640625,0.3416290283203125,0.926788330078125,0.12823486328125
1769658836012245500,5.78424560546875,0.3359832763671875,0.9204864501953125,0.1314544677734375
1769658836022233600,5.794233642578125,0.3347015380859375,0.9104766845703125,0.1253662109375
1769658836032221400,5.804221435546875,0.34161376953125,0.9092864990234375,0.1213836669921875
1769658836042209300,5.814209228515625,0.340484619140625,0.910736083984375,0.117767333984375
1769658836052196400,5.8241962890625,0.3378448486328125,0.911163330078125,0.114349365234375
1769658836062184400,5.834184326171875,0.342926025390625,0.9156951904296875,0.11328125
1769658836072172300,5.84417236328125,0.339263916015625,0.9160614013671875,0.1096343994140625
1769658836082160400,5.854160400390625,0.3328857421875,0.914581298828125,0.1125030517578125
1769658836092147500,5.8641474609375,0.331268310546875,0.9085845947265625,0.115325927734375
1769658836102135300,5.87413525390625,0.333984375,0.9072723388671875,0.122314453125
1769658836112123400,5.884123291015625,0.3362274169921875,0.910247802734375,0.129608154296875
1769658836122111200,5.894111328125,0.333740234375,0.9171142578125,0.1328582763671875
1769658836132098600,5.9040986328125,0.3325347900390625,0.9215240478515625,0.130035400390625
1769658836142086100,5.914086181640625,0.328582763671875,0.9264678955078125,0.1291046142578125
1769658836152074000,5.924073974609375,0.3267974853515625,0.9296112060546875,0.12933349609375
1769658836162061800,5.934061767578125,0.3263092041015625,0.9332275390625,0.126434326171875
1769658836172049000,5.944048828125,0.32781982421875,0.9373016357421875,0.1236114501953125
1769658836182037000,5.954037109375,0.3291778564453125,0.9420318603515625,0.120697021484375
1769658836192024800,5.96402490234375,0.3284149169921875,0.948333740234375,0.1208343505859375
1769658836202013000,5.974012939453125,0.3330841064453125,0.9525146484375,0.12103271484375
1769658836212000000,5.984,0.3354034423828125,0.951873779296875,0.1251678466796875
1769658836221987800,5.99398779296875,0.34124755859375,0.949127197265625,0.1259307861328125
1769658836231976000,6.003975830078125,0.3440399169921875,0.950469970703125,0.130340576171875
1769658836241963800,6.0139638671875,0.3380889892578125,0.95538330078125,0.1306304931640625
1769658836251951000,6.023951171875,0.3167266845703125,0.95123291015625,0.1454620361328125
1769658836261938700,6.033938720703125,0.334442138671875,0.9515380859375,0.1309967041015625
1769658836271926800,6.0439267578125,0.3299713134765625,0.95751953125,0.14141845703125
1769658836281915000,6.053914794921875,0.323394775390625,0.9527435302734375,0.1397857666015625
1769658836291902000,6.06390185546875,0.343902587890625,0.9528656005859375,0.1368408203125
1769658836301889800,6.073889892578125,0.3377685546875,0.9509429931640625,0.1357879638671875
1769658836311878000,6.0838779296875,0.32574462890625,0.950225830078125,0.1391754150390625
1769658836321866000,6.093865966796875,0.324462890625,0.94390869140625,0.136810302734375
1769658836331853800,6.103853759765625,0.322113037109375,0.939178466796875,0.1376953125
1769658836341841000,6.1138408203125,0.3212432861328125,0.933990478515625,0.1380157470703125
1769658836351828700,6.123828857421875,0.315277099609375,0.93304443359375,0.1414794921875
1769658836361816800,6.13381689453125,0.3117828369140625,0.9347381591796875,0.140716552734375
1769658836371805000,6.143804931640625,0.31048583984375,0.9366912841796875,0.1358184814453125
1769658836381791700,6.153791748046875,0.312591552734375,0.937103271484375,0.128692626953125
1769658836391779800,6.16377978515625,0.318450927734375,0.9347076416015625,0.12322998046875
1769658836401768000,6.173767822265625,0.3220062255859375,0.92877197265625,0.1202239990234375
1769658836411756000,6.183756103515625,0.3255767822265625,0.9268035888671875,0.1237335205078125
1769658836421742800,6.193742919921875,0.3227386474609375,0.921966552734375,0.1290130615234375
1769658836431731000,6.20373095703125,0.317352294921875,0.9239959716796875,0.138336181640625
1769658836441718800,6.21371875,0.316314697265625,0.9273529052734375,0.1461944580078125
1769658836451707000,6.223706787109375,0.3157501220703125,0.9256591796875,0.142578125
1769658836461694000,6.23369384765625,0.318115234375,0.9278106689453125,0.1435699462890625
1769658836471681800,6.243681884765625,0.3133087158203125,0.9289093017578125,0.1432037353515625
1769658836481670000,6.253669921875,0.309600830078125,0.9305877685546875,0.144927978515625
1769658836491658000,6.263657958984375,0.310546875,0.9301910400390625,0.1417236328125
1769658836501644800,6.273644775390625,0.3159637451171875,0.9290924072265625,0.1410675048828125
1769658836511633000,6.2836328125,0.322418212890625,0.9304656982421875,0.1357421875
1769658836521621000,6.29362109375,0.3245391845703125,0.9345855712890625,0.131011962890625
1769658836531608800,6.30360888671875,0.3228759765625,0.9402923583984375,0.1291656494140625
1769658836541596000,6.313595947265625,0.31884765625,0.9386749267578125,0.1285552978515625
1769658836551584000,6.323583984375,0.31536865234375,0.938079833984375,0.1305694580078125
1769658836561571800,6.33357177734375,0.312713623046875,0.9383087158203125,0.1324005126953125
1769658836571560000,6.343559814453125,0.305877685546875,0.937896728515625,0.1380157470703125
1769658836581547000,6.353547119140625,0.3023834228515625,0.941925048828125,0.1429290771484375
1769658836591534800,6.363534912109375,0.3084716796875,0.9458770751953125,0.1429290771484375
1769658836601523000,6.37352294921875,0.310302734375,0.9512939453125,0.147735595703125
1769658836611511000,6.383510986328125,0.3087005615234375,0.9468231201171875,0.14715576171875
1769658836621497900,6.393497802734375,0.3134765625,0.94189453125,0.1505889892578125
1769658836631486000,6.40348583984375,0.3211822509765625,0.933074951171875,0.1475372314453125
1769658836641474000,6.41347412109375,0.32379150390625,0.9290771484375,0.1476593017578125
1769658836651462000,6.4234619140625,0.3258819580078125,0.9284210205078125,0.1489410400390625
1769658836661449000,6.433448974609375,0.32513427734375,0.929718017578125,0.1491546630859375
1769658836671437000,6.44343701171875,0.3215179443359375,0.9321746826171875,0.145355224609375
1769658836681425000,6.4534248046875,0.3191680908203125,0.934906005859375,0.13970947265625
1769658836691413000,6.4634130859375,0.32366943359375,0.9367218017578125,0.128204345703125
1769658836701399800,6.47339990234375,0.32684326171875,0.938079833984375,0.1181488037109375
1769658836711388000,6.483387939453125,0.3209381103515625,0.934356689453125,0.11273193359375
1769658836721376000,6.4933759765625,0.3164520263671875,0.926513671875,0.1105194091796875
1769658836731364000,6.503364013671875,0.3216094970703125,0.9241943359375,0.1203155517578125
1769658836741351000,6.513350830078125,0.32916259765625,0.9238433837890625,0.1267547607421875
1769658836751339000,6.523339111328125,0.329193115234375,0.928619384765625,0.1399383544921875
1769658836761327000,6.5333271484375,0.321502685546875,0.9328155517578125,0.1519622802734375
1769658836771315000,6.54331494140625,0.3262176513671875,0.93768310546875,0.1488800048828125
1769658836781302000,6.553302001953125,0.328338623046875,0.9371795654296875,0.1515045166015625
1769658836791289900,6.563289794921875,0.3311309814453125,0.931060791015625,0.1463470458984375
1769658836801278000,6.57327783203125,0.3352508544921875,0.92486572265625,0.1428680419921875
1769658836811266000,6.58326611328125,0.33709716796875,0.916351318359375,0.1342010498046875
1769658836821252900,6.5932529296875,0.3367767333984375,0.911865234375,0.126617431640625
1769658836831241000,6.603240966796875,0.32952880859375,0.916717529296875,0.1268463134765625
1769658836841229000,6.61322900390625,0.320770263671875,0.9229888916015625,0.1263427734375
1769658836851217200,6.623217041015625,0.3087310791015625,0.925048828125,0.131561279296875
1769658836861204000,6.633203857421875,0.308502197265625,0.92694091796875,0.1327056884765625
1769658836871192000,6.643192138671875,0.3101959228515625,0.91973876953125,0.130950927734375
1769658836881180000,6.653179931640625,0.3107757568359375,0.911376953125,0.1308746337890625
1769658836891168000,6.66316796875,0.3156280517578125,0.911651611328125,0.129364013671875
1769658836901155000,6.673155029296875,0.3166046142578125,0.91949462890625,0.1271820068359375
1769658836911143000,6.683142822265625,0.31793212890625,0.9306488037109375,0.1247406005859375
1769658836921131000,6.693131103515625,0.3145599365234375,0.9356689453125,0.1213836669921875
1769658836931118800,6.703118896484375,0.3197784423828125,0.9451141357421875,0.120880126953125
1769658836941107000,6.71310693359375,0.322357177734375,0.9476470947265625,0.1199493408203125
1769658836951094000,6.723093994140625,0.3159637451171875,0.9488525390625,0.12542724609375
1769658836961081900,6.733081787109375,0.311767578125,0.9506378173828125,0.1332244873046875
1769658836971069700,6.743069580078125,0.308746337890625,0.9411773681640625,0.1328277587890625
1769658836981057800,6.753057861328125,0.3093719482421875,0.93194580078125,0.1381378173828125
1769658836991045000,6.763045166015625,0.320465087890625,0.9292755126953125,0.1404571533203125
1769658837001032700,6.77303271484375,0.3210906982421875,0.9229278564453125,0.13226318359375
1769658837011020800,6.783020751953125,0.309112548828125,0.936920166015625,0.1258392333984375
1769658837021009000,6.7930087890625,0.332611083984375,0.942474365234375,0.1028900146484375
1769658837030996000,6.802995849609375,0.3421478271484375,0.9437713623046875,0.088287353515625
1769658837040983800,6.81298388671875,0.30902099609375,0.9451904296875,0.10577392578125
1769658837050972000,6.822971923828125,0.30694580078125,0.934326171875,0.10101318359375
1769658837060959700,6.832959716796875,0.344085693359375,0.9152679443359375,0.092926025390625
1769658837070946800,6.84294677734375,0.3541412353515625,0.9193115234375,0.100372314453125
1769658837080935000,6.852934814453125,0.328887939453125,0.930999755859375,0.089324951171875
1769658837090922800,6.8629228515625,0.3116607666015625,0.9475860595703125,0.081451416015625
1769658837100910800,6.872910888671875,0.305755615234375,0.962158203125,0.08294677734375
1769658837110898000,6.88289794921875,0.3116302490234375,0.9639129638671875,0.0736541748046875
1769658837120885800,6.8928857421875,0.3107452392578125,0.9537353515625,0.072113037109375
1769658837130873900,6.902873779296875,0.3241729736328125,0.949310302734375,0.079376220703125
1769658837140862000,6.912862060546875,0.336212158203125,0.9477691650390625,0.0816192626953125
1769658837150848800,6.922848876953125,0.34857177734375,0.948760986328125,0.08905029296875
1769658837160836600,6.932836669921875,0.3578033447265625,0.9444580078125,0.0906829833984375
1769658837170824700,6.94282470703125,0.366363525390625,0.9377288818359375,0.097381591796875
1769658837180812800,6.952812744140625,0.369415283203125,0.927947998046875,0.0979766845703125
1769658837190799600,6.962799560546875,0.36810302734375,0.926605224609375,0.099945068359375
1769658837200787700,6.97278759765625,0.35986328125,0.93145751953125,0.0991363525390625
1769658837210775800,6.98277587890625,0.34991455078125,0.9360809326171875,0.0990142822265625
1769658837220763600,6.992763671875,0.3521575927734375,0.934844970703125,0.0904998779296875
1769658837230750700,7.002750732421875,0.35498046875,0.9326629638671875,0.08367919921875
1769658837240738800,7.01273876953125,0.3508453369140625,0.9293975830078125,0.0819091796875
1769658837250726700,7.0227265625,0.345428466796875,0.929718017578125,0.0806732177734375
1769658837260714800,7.03271484375,0.344451904296875,0.9357147216796875,0.078521728515625
1769658837270701600,7.04270166015625,0.34454345703125,0.9343719482421875,0.0722503662109375
1769658837280689700,7.052689697265625,0.3501434326171875,0.92730712890625,0.0655364990234375
1769658837290677800,7.062677734375,0.361419677734375,0.924041748046875,0.0631103515625
1769658837300665900,7.072665771484375,0.3645477294921875,0.922515869140625,0.058441162109375
1769658837310653700,7.08265380859375,0.3658599853515625,0.9239501953125,0.057281494140625
1769658837320640800,7.092640869140625,0.3617706298828125,0.93048095703125,0.0572967529296875
1769658837330628900,7.10262890625,0.356231689453125,0.9296417236328125,0.0536041259765625
1769658837340616700,7.11261669921875,0.3590850830078125,0.9342803955078125,0.053253173828125
1769658837350604800,7.122604736328125,0.3641204833984375,0.937774658203125,0.055389404296875
1769658837360591600,7.132591552734375,0.3599395751953125,0.9385223388671875,0.061614990234375
1769658837370579700,7.142579833984375,0.35858154296875,0.93316650390625,0.059814453125
1769658837380567800,7.15256787109375,0.35980224609375,0.9319915771484375,0.063446044921875
1769658837390556000,7.162555908203125,0.3571624755859375,0.92974853515625,0.0650787353515625
1769658837400542700,7.172542724609375,0.361175537109375,0.92816162109375,0.0682830810546875
1769658837410530800,7.18253076171875,0.3683013916015625,0.921966552734375,0.0719146728515625
1769658837420518700,7.1925185546875,0.3709869384765625,0.9100341796875,0.0723724365234375
1769658837430506800,7.2025068359375,0.365020751953125,0.903167724609375,0.0737152099609375
1769658837440493800,7.212493896484375,0.3606414794921875,0.9083099365234375,0.0738525390625
1769658837450481700,7.222481689453125,0.365203857421875,0.9152374267578125,0.07421875
1769658837460469800,7.2324697265625,0.372100830078125,0.9201812744140625,0.0721588134765625
1769658837470457900,7.242457763671875,0.3722076416015625,0.9224090576171875,0.0675811767578125
1769658837480444700,7.252444580078125,0.3736114501953125,0.9284820556640625,0.0635223388671875
1769658837490432800,7.262432861328125,0.3773651123046875,0.935577392578125,0.0648193359375
1769658837500420900,7.2724208984375,0.3873748779296875,0.944183349609375,0.0639190673828125
1769658837510408700,7.28240869140625,0.4001007080078125,0.952850341796875,0.0641326904296875
1769658837520395800,7.292395751953125,0.3943328857421875,0.9436187744140625,0.0565643310546875
1769658837530384000,7.3023837890625,0.4067535400390625,0.94586181640625,0.0696563720703125
1769658837540371700,7.312371826171875,0.41094970703125,0.93499755859375,0.066070556640625
1769658837550359800,7.32235986328125,0.3932647705078125,0.9193572998046875,0.063232421875
1769658837560347000,7.332346923828125,0.38336181640625,0.918304443359375,0.070343017578125
1769658837570334700,7.342334716796875,0.382781982421875,0.9245147705078125,0.0692291259765625
1769658837580322800,7.35232275390625,0.3792266845703125,0.92950439453125,0.0627593994140625
1769658837590311000,7.362310791015625,0.383392333984375,0.9285430908203125,0.04046630859375
1769658837600297700,7.372297607421875,0.3894805908203125,0.923797607421875,0.0240020751953125
1769658837610285800,7.382285888671875,0.3959808349609375,0.91546630859375,0.0074920654296875
1769658837620274000,7.39227392578125,0.3805999755859375,0.8930206298828125,-0.0037841796875
1769658837630261800,7.40226171875,0.3787384033203125,0.889923095703125,-0.00537109375
1769658837640249900,7.412249755859375,0.3795013427734375,0.8885040283203125,-0.0048828125
1769658837650237000,7.42223681640625,0.368865966796875,0.8856201171875,-0.00048828125
1769658837660224800,7.432224853515625,0.360198974609375,0.89605712890625,0.0184173583984375
1769658837670212900,7.442212890625,0.3573455810546875,0.905426025390625,0.0312957763671875
1769658837680200700,7.45220068359375,0.360137939453125,0.906951904296875,0.0464935302734375
1769658837690187800,7.462187744140625,0.3720855712890625,0.9073333740234375,0.0634002685546875
1769658837700176000,7.47217578125,0.383636474609375,0.91156005859375,0.0704193115234375
1769658837710163700,7.482163818359375,0.3921966552734375,0.9160919189453125,0.0686187744140625
1769658837720151600,7.492151611328125,0.40216064453125,0.928955078125,0.0680999755859375
1769658837730139000,7.502138916015625,0.40802001953125,0.941131591796875,0.064605712890625
1769658837740127000,7.512126953125,0.41448974609375,0.9508209228515625,0.055999755859375
1769658837750114600,7.522114501953125,0.4228363037109375,0.945892333984375,0.045654296875
1769658837760102700,7.5321025390625,0.4316558837890625,0.940093994140625,0.0379486083984375
1769658837770090000,7.542090087890625,0.44219970703125,0.938751220703125,0.019805908203125
1769658837780077600,7.55207763671875,0.44342041015625,0.944244384765625,0.0112762451171875
1769658837790065700,7.562065673828125,0.4355621337890625,0.9498748779296875,0.01055908203125
1769658837800053800,7.5720537109375,0.426544189453125,0.95465087890625,0.0133514404296875
1769658837810040800,7.582040771484375,0.4080352783203125,0.9487457275390625,0.0149688720703125
1769658837820028700,7.592028564453125,0.4107666015625,0.9351654052734375,0.0102386474609375
1769658837830016800,7.602016845703125,0.4094085693359375,0.92352294921875,0.0087738037109375
1769658837840004600,7.612004638671875,0.4043731689453125,0.9215240478515625,0.007110595703125
1769658837849991700,7.62199169921875,0.395172119140625,0.9126434326171875,0.010528564453125
1769658837859979800,7.631979736328125,0.3900604248046875,0.897003173828125,-0.0001678466796875
1769658837869967600,7.641967529296875,0.397613525390625,0.896087646484375,-0.002288818359375
1769658837879955700,7.651955810546875,0.389739990234375,0.8872528076171875,-0.0003814697265625
1769658837889942500,7.661942626953125,0.3883819580078125,0.8905181884765625,-0.0002899169921875
1769658837899930600,7.6719306640625,0.3889923095703125,0.894622802734375,-0.0011138916015625
1769658837909918700,7.681918701171875,0.37750244140625,0.8881988525390625,-0.0036163330078125
1769658837919906800,7.69190673828125,0.3727874755859375,0.879852294921875,-0.00238037109375
1769658837929894700,7.701894775390625,0.381988525390625,0.87646484375,-0.0052947998046875
1769658837939881700,7.7118818359375,0.3836669921875,0.87603759765625,-0.0064239501953125
1769658837949869800,7.721869873046875,0.3837432861328125,0.882568359375,-0.0037078857421875
1769658837959857700,7.731857666015625,0.3913421630859375,0.8923797607421875,-0.0021514892578125
1769658837969845800,7.741845703125,0.3951568603515625,0.8947906494140625,0.000274658203125
1769658837979832600,7.75183251953125,0.4048309326171875,0.892578125,-0.008758544921875
1769658837989820700,7.761820556640625,0.41497802734375,0.8992462158203125,-0.007843017578125
1769658837999808800,7.771808837890625,0.421234130859375,0.909698486328125,-0.0051116943359375
1769658838009796900,7.781796875,0.4213409423828125,0.9202728271484375,0.00909423828125
1769658838019783700,7.79178369140625,0.41424560546875,0.92010498046875,0.0211639404296875
1769658838029771800,7.801771728515625,0.423614501953125,0.925262451171875,0.0195465087890625
1769658838039759600,7.811759521484375,0.436767578125,0.9284210205078125,0.0295562744140625
1769658838049747700,7.821747802734375,0.4368743896484375,0.9232025146484375,0.03326416015625
1769658838059734800,7.83173486328125,0.4396209716796875,0.918426513671875,0.035125732421875
1769658838069722600,7.84172265625,0.44110107421875,0.916290283203125,0.037261962890625
1769658838079710700,7.851710693359375,0.4371490478515625,0.91168212890625,0.0389862060546875
1769658838089698800,7.86169873046875,0.43328857421875,0.90472412109375,0.043853759765625
1769658838099685600,7.871685546875,0.42431640625,0.887542724609375,0.0455169677734375
1769658838109673700,7.881673828125,0.4192352294921875,0.8699951171875,0.0422515869140625
1769658838119661800,7.891661865234375,0.432830810546875,0.8703155517578125,0.0378875732421875
1769658838129649700,7.901649658203125,0.429443359375,0.8668365478515625,0.0526275634765625
1769658838139636700,7.91163671875,0.4322357177734375,0.8746795654296875,0.0164794921875
1769658838149624800,7.921624755859375,0.4549560546875,0.9033966064453125,-0.00164794921875
1769658838159613000,7.931613037109375,0.4597015380859375,0.9174346923828125,-0.0076141357421875
1769658838169601000,7.94160107421875,0.4569091796875,0.9171295166015625,-0.0274200439453125
1769658838179587800,7.951587890625,0.465545654296875,0.928436279296875,-0.0324859619140625
1769658838189576000,7.961575927734375,0.4566650390625,0.9232635498046875,-0.0387420654296875
1769658838199564000,7.97156396484375,0.43963623046875,0.912841796875,-0.03399658203125
1769658838209552000,7.9815517578125,0.4390106201171875,0.906585693359375,-0.0289764404296875
1769658838219540000,7.9915400390625,0.4420623779296875,0.9022064208984375,-0.0220794677734375
1769658838229527000,8.001527099609374,0.448760986328125,0.9045562744140625,-0.010986328125
1769658838239515000,8.011514892578125,0.4471282958984375,0.9102325439453125,0.0128173828125
1769658838249503000,8.0215029296875,0.4475860595703125,0.9262847900390625,0.0277099609375
1769658838259491000,8.031490966796875,0.43609619140625,0.92694091796875,0.03338623046875
1769658838269478000,8.041477783203124,0.4300994873046875,0.9183807373046875,0.0250091552734375
1769658838279466000,8.051466064453125,0.427978515625,0.89886474609375,0.0189971923828125
1769658838289454000,8.0614541015625,0.432098388671875,0.8845367431640625,0.009002685546875
1769658838299442000,8.07144189453125,0.4345245361328125,0.885772705078125,0.0106201171875
1769658838309429000,8.081428955078126,0.4244384765625,0.896697998046875,0.0179290771484375
1769658838319417000,8.0914169921875,0.4127960205078125,0.903656005859375,0.0207366943359375
1769658838329405000,8.101405029296876,0.412445068359375,0.9076995849609375,0.022064208984375
1769658838339393000,8.11139306640625,0.4151611328125,0.8995819091796875,0.0205841064453125
1769658838349380000,8.121380126953126,0.4219207763671875,0.890289306640625,0.0131378173828125
1769658838359368000,8.131367919921875,0.432830810546875,0.8886566162109375,0.0059814453125
1769658838369356000,8.14135595703125,0.435821533203125,0.88861083984375,0.00250244140625
1769658838379344000,8.15134375,0.437896728515625,0.8905181884765625,-0.0020904541015625
1769658838389331000,8.1613310546875,0.438751220703125,0.899566650390625,-0.001922607421875
1769658838399319000,8.171319091796875,0.4320831298828125,0.9047698974609375,0.0077667236328125
1769658838409307000,8.181306884765625,0.42828369140625,0.9069061279296875,0.0264892578125
1769658838419294700,8.191294677734374,0.4326171875,0.9101715087890625,0.044219970703125
1769658838429282000,8.201281982421875,0.4432830810546875,0.9105987548828125,0.0601654052734375
1769658838439270100,8.211270263671874,0.45391845703125,0.900848388671875,0.0635223388671875
1769658838449257700,8.2212578125,0.46624755859375,0.8821868896484375,0.05364990234375
1769658838459245800,8.231245849609374,0.4754180908203125,0.871002197265625,0.036773681640625
1769658838469234000,8.24123388671875,0.474822998046875,0.8628082275390625,0.0238494873046875
1769658838479221000,8.251220947265624,0.467864990234375,0.864044189453125,0.016204833984375
1769658838489208800,8.261208740234375,0.4561614990234375,0.87213134765625,0.01348876953125
1769658838499197000,8.271197021484374,0.4320526123046875,0.87200927734375,0.0141143798828125
1769658838509184800,8.281184814453125,0.415740966796875,0.870819091796875,0.0179901123046875
1769658838519171800,8.291171875,0.411895751953125,0.88079833984375,0.027313232421875
1769658838529160000,8.301159912109375,0.4023284912109375,0.8822784423828125,0.03564453125
1769658838539147800,8.311147705078126,0.4078216552734375,0.8816986083984375,0.04547119140625
1769658838549136000,8.321135986328125,0.4237823486328125,0.8787689208984375,0.055206298828125
1769658838559122700,8.331122802734376,0.4404296875,0.87701416015625,0.060516357421875
1769658838569110800,8.34111083984375,0.4488067626953125,0.8831024169921875,0.06005859375
1769658838579099000,8.351098876953126,0.4470062255859375,0.89056396484375,0.05108642578125
1769658838589087000,8.3610869140625,0.4484405517578125,0.8986358642578125,0.039825439453125
1769658838599073800,8.37107373046875,0.4485015869140625,0.908294677734375,0.028167724609375
1769658838609062000,8.381061767578124,0.45098876953125,0.92047119140625,0.0191497802734375
1769658838619050000,8.391050048828125,0.4552764892578125,0.93438720703125,0.017242431640625
1769658838629037800,8.401037841796875,0.45660400390625,0.9301300048828125,0.0204315185546875
1769658838639025000,8.41102490234375,0.4646453857421875,0.9157257080078125,0.029876708984375
1769658838649012700,8.4210126953125,0.4759674072265625,0.908966064453125,0.0453643798828125
1769658838659000800,8.431000732421875,0.4804534912109375,0.900115966796875,0.0716705322265625
1769658838668989000,8.440989013671874,0.4833221435546875,0.8957366943359375,0.0913238525390625
1769658838678975700,8.450975830078125,0.4813690185546875,0.893707275390625,0.100677490234375
1769658838688963800,8.4609638671875,0.4729766845703125,0.8885650634765625,0.09820556640625
1769658838698952000,8.470951904296875,0.466705322265625,0.88873291015625,0.084991455078125
1769658838708940000,8.48093994140625,0.4559478759765625,0.8884124755859375,0.07000732421875
1769658838718928000,8.490927978515625,0.4457550048828125,0.892547607421875,0.0554351806640625
1769658838728915000,8.5009150390625,0.44488525390625,0.9033966064453125,0.04925537109375
1769658838738902800,8.51090283203125,0.4393157958984375,0.9150238037109375,0.0483245849609375
1769658838748891000,8.520890869140626,0.43109130859375,0.9113311767578125,0.046875
1769658838758879000,8.53087890625,0.4248809814453125,0.9085235595703125,0.053955078125
1769658838768865800,8.54086572265625,0.4248809814453125,0.9079437255859375,0.057708740234375
1769658838778854000,8.55085400390625,0.4204254150390625,0.9075469970703125,0.0720367431640625
1769658838788842000,8.560842041015626,0.413818359375,0.9069671630859375,0.0851593017578125
1769658838798830000,8.570830078125,0.4069976806640625,0.9026336669921875,0.0977630615234375
1769658838808817000,8.58081689453125,0.400787353515625,0.88580322265625,0.1036224365234375
1769658838818805000,8.590804931640625,0.403900146484375,0.874908447265625,0.10540771484375
1769658838828792800,8.600792724609375,0.4007568359375,0.8682861328125,0.1104888916015625
1769658838838781000,8.610781005859375,0.3970794677734375,0.870941162109375,0.113616943359375
1769658838848768000,8.62076806640625,0.39984130859375,0.891082763671875,0.1120758056640625
1769658838858755800,8.630755859375,0.401885986328125,0.911865234375,0.1135101318359375
1769658838868744000,8.640743896484375,0.3992462158203125,0.916748046875,0.112457275390625
1769658838878732000,8.65073193359375,0.41375732421875,0.91717529296875,0.1020355224609375
1769658838888718800,8.66071875,0.4277496337890625,0.9099273681640625,0.095489501953125
1769658838898707000,8.67070703125,0.4259490966796875,0.9052886962890625,0.0884857177734375
1769658838908695000,8.680695068359375,0.4281158447265625,0.9093780517578125,0.0806732177734375
1769658838918683000,8.690682861328124,0.428619384765625,0.91644287109375,0.079833984375
1769658838928671000,8.7006708984375,0.414093017578125,0.91156005859375,0.0830230712890625
1769658838938658000,8.710657958984376,0.4093780517578125,0.9068450927734375,0.091278076171875
1769658838948646000,8.72064599609375,0.403350830078125,0.9040679931640625,0.09979248046875
1769658838958634000,8.730634033203126,0.3946533203125,0.901458740234375,0.10205078125
1769658838968622000,8.7406220703125,0.397430419921875,0.9120025634765625,0.1077880859375
1769658838978609000,8.75060888671875,0.394989013671875,0.9309844970703125,0.1084136962890625
1769658838988597000,8.760596923828125,0.392578125,0.95294189453125,0.1094970703125
1769658838998585000,8.770585205078126,0.385711669921875,0.958343505859375,0.1059417724609375
1769658839008573000,8.780572998046875,0.39093017578125,0.9592437744140625,0.1073455810546875
1769658839018560000,8.79056005859375,0.403900146484375,0.95819091796875,0.0967864990234375
1769658839028548000,8.800548095703125,0.4101104736328125,0.9496917724609375,0.092559814453125
1769658839038536000,8.810535888671875,0.403228759765625,0.9361724853515625,0.0871429443359375
1769658839048523800,8.820523681640625,0.396820068359375,0.9266815185546875,0.08990478515625
1769658839058511000,8.830510986328125,0.3951568603515625,0.92266845703125,0.0960540771484375
1769658839068499000,8.8404990234375,0.385833740234375,0.9152984619140625,0.10711669921875
1769658839078487000,8.850487060546875,0.3721923828125,0.912811279296875,0.1184234619140625
1769658839088475000,8.860474853515624,0.370025634765625,0.90966796875,0.1277008056640625
1769658839098462000,8.8704619140625,0.3661041259765625,0.9133758544921875,0.1279144287109375
1769658839108450000,8.880449951171874,0.3584136962890625,0.90716552734375,0.130035400390625
1769658839118438000,8.89043798828125,0.353271484375,0.89544677734375,0.1268768310546875
1769658839128425700,8.90042578125,0.362579345703125,0.896514892578125,0.1250152587890625
1769658839138413000,8.9104130859375,0.366455078125,0.9030609130859375,0.1169281005859375
1769658839148400600,8.920400634765626,0.3685150146484375,0.9214630126953125,0.11480712890625
1769658839158388700,8.930388671875,0.362213134765625,0.9384918212890625,0.111114501953125
1769658839168376300,8.940376220703126,0.35809326171875,0.9496917724609375,0.117523193359375
1769658839178364400,8.950364501953125,0.3558807373046875,0.946258544921875,0.1147003173828125
1769658839188351500,8.9603515625,0.35943603515625,0.928985595703125,0.1129150390625
1769658839198339600,8.970339599609375,0.36920166015625,0.910980224609375,0.108673095703125
1769658839208327400,8.980327392578126,0.37188720703125,0.9096221923828125,0.1103515625
1769658839218315500,8.9903154296875,0.3592071533203125,0.9123687744140625,0.118408203125
1769658839228302600,9.000302490234375,0.3617401123046875,0.9282684326171875,0.1275634765625
1769658839238290400,9.01029052734375,0.3389892578125,0.92926025390625,0.1222686767578125
1769658839248278500,9.020278564453125,0.3283538818359375,0.9269561767578125,0.1275482177734375
1769658839258266400,9.030266357421874,0.335906982421875,0.919769287109375,0.1096954345703125
1769658839268253400,9.04025341796875,0.3444061279296875,0.91455078125,0.1109771728515625
1769658839278241300,9.0502412109375,0.33782958984375,0.91522216796875,0.1074676513671875
1769658839288229400,9.0602294921875,0.3319244384765625,0.91766357421875,0.1129150390625
1769658839298217500,9.070217529296874,0.3307647705078125,0.9217071533203125,0.1111297607421875
1769658839308204300,9.080204345703125,0.336883544921875,0.9276123046875,0.1243438720703125
1769658839318192400,9.0901923828125,0.3303680419921875,0.9319000244140625,0.1168365478515625
1769658839328180500,9.100180419921875,0.3206939697265625,0.936370849609375,0.1177978515625
1769658839338168600,9.11016845703125,0.3124237060546875,0.9328460693359375,0.1125335693359375
1769658839348155400,9.1201552734375,0.309844970703125,0.93499755859375,0.108917236328125
1769658839358143500,9.1301435546875,0.3203125,0.9384307861328125,0.1186065673828125
1769658839368131300,9.14013134765625,0.3183441162109375,0.934783935546875,0.117645263671875
1769658839378119400,9.150119384765626,0.321563720703125,0.933135986328125,0.1250152587890625
1769658839388107500,9.160107421875,0.32952880859375,0.9391632080078125,0.1287841796875
1769658839398094300,9.17009423828125,0.319549560546875,0.9387969970703125,0.13568115234375
1769658839408082400,9.18008251953125,0.306884765625,0.94342041015625,0.1466064453125
1769658839418070500,9.190070556640626,0.3107757568359375,0.956146240234375,0.154296875
1769658839428058400,9.200058349609375,0.3037109375,0.9644317626953125,0.1497344970703125
1769658839438045400,9.21004541015625,0.304473876953125,0.96649169921875,0.1349334716796875
1769658839448033500,9.220033447265624,0.308441162109375,0.9703369140625,0.1275634765625
1769658839458021400,9.230021484375,0.306488037109375,0.97003173828125,0.1229248046875
1769658839468009500,9.240009521484374,0.3107757568359375,0.962371826171875,0.1111297607421875
1769658839477996500,9.24999658203125,0.3105316162109375,0.9557647705078125,0.1159210205078125
1769658839487984400,9.259984375,0.3051605224609375,0.9516448974609375,0.121795654296875
1769658839497972500,9.269972412109375,0.302734375,0.94512939453125,0.1293487548828125
1769658839507960600,9.279960693359374,0.301239013671875,0.93243408203125,0.133636474609375
1769658839517947400,9.289947509765625,0.30633544921875,0.92352294921875,0.131500244140625
1769658839527935500,9.299935546875,0.303924560546875,0.917999267578125,0.1275177001953125
1769658839537923600,9.309923583984375,0.29327392578125,0.9134063720703125,0.12506103515625
1769658839547911400,9.319911376953126,0.283203125,0.9151763916015625,0.119293212890625
1769658839557898500,9.3298984375,0.2756500244140625,0.9159393310546875,0.1154632568359375
1769658839567886600,9.339886474609376,0.2696685791015625,0.915008544921875,0.11236572265625
1769658839577874400,9.34987451171875,0.2733001708984375,0.9194488525390625,0.116455078125
1769658839587862500,9.359862548828126,0.27752685546875,0.9157562255859375,0.11492919921875
1769658839597850600,9.3698505859375,0.27301025390625,0.914642333984375,0.1212310791015625
1769658839607837400,9.37983740234375,0.263946533203125,0.918731689453125,0.1161956787109375
1769658839617825500,9.389825439453125,0.2630767822265625,0.92138671875,0.1230926513671875
1769658839627813600,9.399813720703126,0.27886962890625,0.9245147705078125,0.1186065673828125
1769658839637801500,9.409801513671875,0.287384033203125,0.925750732421875,0.1199493408203125
1769658839647788500,9.41978857421875,0.2915191650390625,0.9347076416015625,0.118499755859375
1769658839657776600,9.429776611328125,0.300140380859375,0.947113037109375,0.1137237548828125
1769658839667764500,9.439764404296875,0.2955474853515625,0.950164794921875,0.10772705078125
1769658839677752600,9.449752685546875,0.2897796630859375,0.9516754150390625,0.10809326171875
1769658839687739600,9.45973974609375,0.2768096923828125,0.948150634765625,0.114501953125
1769658839697727500,9.4697275390625,0.2710113525390625,0.949310302734375,0.121795654296875
1769658839707715600,9.479715576171875,0.26373291015625,0.9547271728515625,0.1302490234375
1769658839717703700,9.48970361328125,0.247528076171875,0.9508056640625,0.1453704833984375
1769658839727690500,9.4996904296875,0.2479400634765625,0.955902099609375,0.1553955078125
1769658839737678600,9.5096787109375,0.2548980712890625,0.9618377685546875,0.1645050048828125
1769658839747666700,9.519666748046875,0.25201416015625,0.95977783203125,0.1711883544921875
1769658839757654500,9.529654541015624,0.25244140625,0.9492340087890625,0.182525634765625
1769658839767641600,9.5396416015625,0.2505035400390625,0.919464111328125,0.16143798828125
1769658839777629700,9.549629638671876,0.28704833984375,0.8770599365234375,0.11016845703125
1769658839787617500,9.559617431640625,0.3984375,0.9308624267578125,0.1425323486328125
1769658839797605600,9.569605712890626,0.4201202392578125,1.0500030517578125,0.1732330322265625
1769658839807593500,9.579593505859375,0.3195648193359375,1.0706024169921875,0.12017822265625
1769658839817580500,9.58958056640625,0.2590179443359375,1.00506591796875,0.080718994140625
1769658839827568600,9.599568603515625,0.3211669921875,0.945098876953125,0.054534912109375
1769658839837556500,9.609556396484376,0.382904052734375,0.9301300048828125,0.07867431640625
1769658839847544300,9.61954443359375,0.3314971923828125,0.91082763671875,0.19427490234375
1769658839857531600,9.62953173828125,0.3067169189453125,0.9363861083984375,0.02032470703125
1769658839867519700,9.639519775390625,0.2601470947265625,0.9488372802734375,0.1538848876953125
1769658839877507300,9.64950732421875,0.3656768798828125,0.9198455810546875,0.057281494140625
1769658839887495400,9.659495361328124,0.3980560302734375,0.8975067138671875,0.10186767578125
1769658839897482500,9.669482421875,0.367431640625,0.878509521484375,0.11444091796875
1769658839907470600,9.679470703125,0.3492889404296875,0.8788909912109375,0.14306640625
1769658839917458400,9.68945849609375,0.3486785888671875,0.8847808837890625,0.14300537109375
1769658839927446500,9.699446533203124,0.3065185546875,0.892608642578125,0.1318817138671875
1769658839937433600,9.70943359375,0.261199951171875,0.90411376953125,0.1166229248046875
1769658839947421400,9.71942138671875,0.2509613037109375,0.917022705078125,0.100311279296875
1769658839957409500,9.729409423828125,0.2608184814453125,0.9208984375,0.0926513671875
1769658839967397400,9.7393974609375,0.27947998046875,0.9249725341796875,0.097930908203125
1769658839977384400,9.749384521484375,0.2974700927734375,0.92718505859375,0.107574462890625
1769658839987372300,9.759372314453126,0.3134613037109375,0.9310150146484375,0.108734130859375
1769658839997360400,9.7693603515625,0.319061279296875,0.9363250732421875,0.109771728515625
1769658840007348500,9.779348388671876,0.3181915283203125,0.940704345703125,0.1121368408203125
1769658840017336600,9.789336669921875,0.3239898681640625,0.9376983642578125,0.112518310546875
1769658840027323400,9.799323486328126,0.34136962890625,0.935394287109375,0.1093597412109375
1769658840037311500,9.8093115234375,0.361846923828125,0.940155029296875,0.11151123046875
1769658840047299300,9.81929931640625,0.371429443359375,0.9488067626953125,0.1145782470703125
1769658840057287400,9.829287353515625,0.36822509765625,0.9558563232421875,0.117218017578125
1769658840067274500,9.8392744140625,0.358184814453125,0.9558868408203125,0.1102447509765625
1769658840077262300,9.849262451171874,0.34857177734375,0.95538330078125,0.109527587890625
1769658840087250400,9.85925048828125,0.3415679931640625,0.956085205078125,0.11346435546875
1769658840097238500,9.869238525390625,0.3448944091796875,0.955169677734375,0.1114501953125
1769658840107225300,9.879225341796875,0.346466064453125,0.9546051025390625,0.1036529541015625
1769658840117213400,9.88921337890625,0.3430328369140625,0.954345703125,0.0960540771484375
1769658840127201500,9.899201416015625,0.3325347900390625,0.9552459716796875,0.092010498046875
1769658840137189400,9.909189453125,0.3198089599609375,0.9571075439453125,0.0930938720703125
1769658840147176400,9.919176513671875,0.3131561279296875,0.958831787109375,0.092620849609375
1769658840157164800,9.929164794921874,0.312286376953125,0.9561920166015625,0.0966339111328125
1769658840167153000,9.93915283203125,0.308013916015625,0.95379638671875,0.0953369140625
1769658840177141000,9.94914111328125,0.3020172119140625,0.9485626220703125,0.0872955322265625
1769658840187127800,9.9591279296875,0.3009490966796875,0.938323974609375,0.09765625
1769658840197116000,9.969115966796876,0.3020172119140625,0.9322662353515625,0.106964111328125
1769658840207104000,9.97910400390625,0.313507080078125,0.9231719970703125,0.117431640625
1769658840217092000,9.989092041015626,0.316680908203125,0.9103240966796875,0.1216583251953125
1769658840227080000,9.999079833984375,0.3154449462890625,0.907257080078125,0.1036376953125
1769658840237067000,10.00906689453125,0.3199310302734375,0.91552734375,0.0872955322265625
1769658840247054800,10.019054931640625,0.3182220458984375,0.927734375,0.090362548828125
1769658840257043000,10.02904296875,0.3256683349609375,0.9357757568359375,0.0988922119140625
1769658840267031000,10.039031005859375,0.33441162109375,0.9332275390625,0.1125335693359375
1769658840277017900,10.049017822265625,0.3430938720703125,0.930511474609375,0.126312255859375
1769658840287006000,10.059005859375,0.3436279296875,0.9325714111328125,0.132537841796875
1769658840296994000,10.068994140625,0.336883544921875,0.935943603515625,0.1274566650390625
1769658840306982000,10.07898193359375,0.3343048095703125,0.9392242431640625,0.12957763671875
1769658840316969000,10.088968994140625,0.3306884765625,0.937774658203125,0.1314849853515625
1769658840326957000,10.09895703125,0.3316802978515625,0.9371795654296875,0.127227783203125
1769658840336945000,10.10894482421875,0.3295745849609375,0.9394989013671875,0.123931884765625
1769658840346933000,10.11893310546875,0.332763671875,0.9415283203125,0.1239776611328125
1769658840356920000,10.128920166015625,0.3377838134765625,0.940155029296875,0.125030517578125
1769658840366908000,10.138907958984374,0.34088134765625,0.9404144287109375,0.1252593994140625
1769658840376896000,10.14889599609375,0.33953857421875,0.942779541015625,0.1274261474609375
1769658840386884000,10.158884033203124,0.336181640625,0.9448699951171875,0.1295928955078125
1769658840396871000,10.168870849609375,0.3340606689453125,0.9420166015625,0.130706787109375
1769658840406859000,10.17885888671875,0.331756591796875,0.9373626708984375,0.1289215087890625
1769658840416847000,10.18884716796875,0.3314361572265625,0.930938720703125,0.1205902099609375
1769658840426835000,10.1988349609375,0.3348541259765625,0.9237060546875,0.112579345703125
1769658840436822800,10.20882275390625,0.3307342529296875,0.9223480224609375,0.110382080078125
1769658840446810000,10.21881005859375,0.326324462890625,0.92193603515625,0.1124725341796875
1769658840456798000,10.2287978515625,0.324462890625,0.9261474609375,0.111328125
1769658840466785800,10.238785888671876,0.3212738037109375,0.929290771484375,0.1151580810546875
1769658840476774000,10.24877392578125,0.32110595703125,0.9333343505859375,0.1158599853515625
1769658840486761000,10.258760986328125,0.3272857666015625,0.9362030029296875,0.115234375
1769658840496748800,10.268748779296875,0.333221435546875,0.9373779296875,0.11029052734375
1769658840506737000,10.27873681640625,0.3427886962890625,0.939483642578125,0.10601806640625
1769658840516724700,10.288724853515625,0.3501129150390625,0.940460205078125,0.10565185546875
1769658840526712000,10.298712158203125,0.3494720458984375,0.9400634765625,0.1090545654296875
1769658840536700000,10.308699951171874,0.3510894775390625,0.94158935546875,0.1119384765625
1769658840546687700,10.318687744140625,0.351409912109375,0.9403076171875,0.11468505859375
1769658840556675800,10.32867578125,0.3493499755859375,0.9391632080078125,0.1158599853515625
1769658840566663000,10.338662841796875,0.345367431640625,0.9348907470703125,0.1144256591796875
1769658840576650800,10.348650634765624,0.346405029296875,0.933013916015625,0.1109161376953125
1769658840586638800,10.358638916015625,0.3445281982421875,0.9321746826171875,0.10711669921875
1769658840596627000,10.368626953125,0.3393096923828125,0.930694580078125,0.1045379638671875
1769658840606613800,10.37861376953125,0.335723876953125,0.925201416015625,0.1013336181640625
1769658840616601900,10.388601806640626,0.3389129638671875,0.9242401123046875,0.096435546875
1769658840626590000,10.39858984375,0.341064453125,0.9273223876953125,0.0986785888671875
1769658840636577800,10.408577880859376,0.3423919677734375,0.9298858642578125,0.0987396240234375
1769658840646566000,10.41856591796875,0.343963623046875,0.93145751953125,0.099822998046875
1769658840656553000,10.428552978515626,0.3430328369140625,0.9305877685546875,0.099029541015625
1769658840666540800,10.438540771484375,0.3384857177734375,0.9294891357421875,0.09869384765625
1769658840676529000,10.44852880859375,0.33660888671875,0.9298248291015625,0.10009765625
1769658840686517000,10.45851708984375,0.3439788818359375,0.9351806640625,0.1033935546875
1769658840696503800,10.46850390625,0.3552703857421875,0.9389495849609375,0.107269287109375
1769658840706492000,10.478491943359375,0.361297607421875,0.931732177734375,0.1099700927734375
1769658840716480000,10.48847998046875,0.3633880615234375,0.9221038818359375,0.110870361328125
1769658840726467800,10.4984677734375,0.358795166015625,0.918487548828125,0.1112823486328125
1769658840736455000,10.508454833984375,0.35052490234375,0.9202117919921875,0.1102752685546875
1769658840746443000,10.518443115234374,0.337646484375,0.9288177490234375,0.1085052490234375
1769658840756430800,10.528430908203125,0.3264312744140625,0.9327239990234375,0.10443115234375
1769658840766419000,10.5384189453125,0.3219757080078125,0.9317474365234375,0.1008148193359375
1769658840776405800,10.54840576171875,0.330535888671875,0.9278717041015625,0.0985870361328125
1769658840786393900,10.558393798828124,0.3468780517578125,0.9246826171875,0.101593017578125
1769658840796382000,10.5683818359375,0.3567352294921875,0.929962158203125,0.105194091796875
1769658840806370000,10.5783701171875,0.360015869140625,0.934234619140625,0.10638427734375
1769658840816356900,10.58835693359375,0.35858154296875,0.935516357421875,0.108978271484375
1769658840826345000,10.598344970703126,0.3574981689453125,0.93505859375,0.113525390625
1769658840836333000,10.6083330078125,0.3475341796875,0.934051513671875,0.1165313720703125
1769658840846321000,10.61832080078125,0.3430938720703125,0.9363861083984375,0.116729736328125
1769658840856309000,10.62830908203125,0.3503570556640625,0.93804931640625,0.1157684326171875
1769658840866295800,10.6382958984375,0.3562164306640625,0.9343719482421875,0.1109771728515625
1769658840876284000,10.648283935546875,0.35491943359375,0.931976318359375,0.1078948974609375
1769658840886272000,10.65827197265625,0.352996826171875,0.9285125732421875,0.1069488525390625
1769658840896260000,10.668260009765625,0.346405029296875,0.9218902587890625,0.105194091796875
1769658840906247000,10.678246826171875,0.343475341796875,0.919891357421875,0.1029510498046875
1769658840916235000,10.688235107421875,0.3401336669921875,0.9222259521484375,0.103240966796875
1769658840926222800,10.698222900390626,0.33642578125,0.9233856201171875,0.1034393310546875
1769658840936211000,10.7082109375,0.3383331298828125,0.92352294921875,0.10723876953125
1769658840946198000,10.718197998046875,0.34326171875,0.9243011474609375,0.1107177734375
1769658840956185900,10.728185791015624,0.3488006591796875,0.9248199462890625,0.1127471923828125
1769658840966174000,10.738174072265625,0.3558502197265625,0.9280853271484375,0.11077880859375
1769658840976162000,10.748162109375,0.3582000732421875,0.931732177734375,0.1067352294921875
1769658840986148900,10.75814892578125,0.35760498046875,0.9345245361328125,0.1071624755859375
1769658840996137000,10.768136962890624,0.36212158203125,0.9343414306640625,0.1060333251953125
1769658841006125000,10.778125,0.36297607421875,0.9314422607421875,0.1107025146484375
1769658841016113000,10.78811279296875,0.360260009765625,0.93035888671875,0.1082305908203125
1769658841026101000,10.79810107421875,0.35748291015625,0.9324798583984375,0.1023712158203125
1769658841036088000,10.808088134765624,0.3491973876953125,0.9348297119140625,0.09661865234375
1769658841046076000,10.818075927734375,0.3428497314453125,0.9347381591796875,0.0892486572265625
1769658841056064000,10.82806396484375,0.3420257568359375,0.93511962890625,0.09185791015625
1769658841066051800,10.8380517578125,0.3433837890625,0.9328460693359375,0.0939483642578125
1769658841076039000,10.848038818359376,0.349609375,0.932891845703125,0.0949859619140625
1769658841086027000,10.858027099609375,0.3497467041015625,0.932952880859375,0.1007232666015625
1769658841096015000,10.86801513671875,0.3464813232421875,0.934326171875,0.097259521484375
1769658841106002700,10.878002685546875,0.342437744140625,0.9359893798828125,0.09674072265625
1769658841115990000,10.887989990234376,0.339080810546875,0.940093994140625,0.0925445556640625
1769658841125978000,10.89797802734375,0.3355560302734375,0.9398956298828125,0.1020965576171875
1769658841135966000,10.907966064453126,0.3381805419921875,0.93829345703125,0.0995025634765625
1769658841145953800,10.917953857421875,0.3389892578125,0.934661865234375,0.102874755859375
1769658841155941000,10.927941162109375,0.3485260009765625,0.9301300048828125,0.1119537353515625
1769658841165929000,10.937928955078124,0.3517913818359375,0.9257965087890625,0.109466552734375
1769658841175917000,10.9479169921875,0.34735107421875,0.9199066162109375,0.10205078125
1769658841185905200,10.9579052734375,0.3541412353515625,0.9193572998046875,0.1034698486328125
1769658841195892000,10.96789208984375,0.358856201171875,0.9206695556640625,0.1006622314453125
1769658841205880000,10.977880126953124,0.359588623046875,0.921051025390625,0.1032562255859375
1769658841215868200,10.9878681640625,0.3667144775390625,0.9252777099609375,0.10162353515625
1769658841225856000,10.99785595703125,0.35809326171875,0.9236297607421875,0.1016998291015625
1769658841235844000,11.007843994140625,0.34967041015625,0.9241790771484375,0.0979156494140625
1769658841245831200,11.0178310546875,0.3430633544921875,0.9253387451171875,0.0930023193359375
1769658841255819000,11.027819091796875,0.34088134765625,0.931121826171875,0.096405029296875
1769658841265807000,11.03780712890625,0.3393096923828125,0.93292236328125,0.096649169921875
1769658841275795200,11.047795166015625,0.34869384765625,0.932464599609375,0.0981903076171875
1769658841285782000,11.057781982421876,0.3600006103515625,0.9284210205078125,0.094879150390625
1769658841295770000,11.06777001953125,0.35888671875,0.9261932373046875,0.095947265625
1769658841305758200,11.07775830078125,0.3522186279296875,0.927093505859375,0.095184326171875
1769658841315746000,11.08774609375,0.3429107666015625,0.92889404296875,0.0950775146484375
1769658841325733000,11.097733154296876,0.337677001953125,0.9314422607421875,0.0973968505859375
1769658841335721200,11.10772119140625,0.338653564453125,0.934051513671875,0.0995330810546875
1769658841345709000,11.117708984375,0.3449859619140625,0.933013916015625,0.09820556640625
1769658841355697200,11.127697265625,0.3523712158203125,0.9283905029296875,0.0979766845703125
1769658841365684200,11.137684326171875,0.35321044921875,0.9241485595703125,0.10009765625
1769658841375672000,11.147672119140625,0.3512420654296875,0.926544189453125,0.103179931640625
1769658841385660200,11.15766015625,0.34613037109375,0.928192138671875,0.1023712158203125
1769658841395648300,11.167648193359375,0.3482208251953125,0.9271697998046875,0.1017913818359375
1769658841405636000,11.177635986328125,0.3488616943359375,0.934326171875,0.102447509765625
1769658841415623200,11.187623046875,0.344818115234375,0.938232421875,0.102508544921875
1769658841425611300,11.197611328125,0.350494384765625,0.93536376953125,0.1004180908203125
1769658841435599000,11.20759912109375,0.35418701171875,0.933258056640625,0.101837158203125
1769658841445587200,11.217587158203125,0.359283447265625,0.929290771484375,0.106414794921875
1769658841455574300,11.22757421875,0.3597869873046875,0.930877685546875,0.104766845703125
1769658841465562000,11.23756201171875,0.3556671142578125,0.933013916015625,0.1003875732421875
1769658841475550200,11.24755029296875,0.3493804931640625,0.9312286376953125,0.0960693359375
1769658841485538300,11.257538330078125,0.3484344482421875,0.9282073974609375,0.0944976806640625
1769658841495525000,11.267525146484376,0.3560638427734375,0.927520751953125,0.0959930419921875
1769658841505513200,11.27751318359375,0.3561859130859375,0.927337646484375,0.0964813232421875
1769658841515501300,11.287501220703126,0.3474273681640625,0.9286956787109375,0.0942840576171875
1769658841525489200,11.2974892578125,0.34197998046875,0.9312744140625,0.095245361328125
1769658841535476200,11.307476318359376,0.339752197265625,0.9320831298828125,0.0970611572265625
1769658841545464300,11.31746435546875,0.3394927978515625,0.9287567138671875,0.0997772216796875
1769658841555452200,11.3274521484375,0.343170166015625,0.9276580810546875,0.099822998046875
1769658841565440300,11.337440185546875,0.3468017578125,0.9295654296875,0.0978546142578125
1769658841575428400,11.347428466796876,0.350982666015625,0.9317626953125,0.0988311767578125
1769658841585415200,11.357415283203125,0.3539581298828125,0.9309234619140625,0.1013031005859375
1769658841595403300,11.3674033203125,0.3540191650390625,0.930023193359375,0.1034088134765625
1769658841605391400,11.377391357421875,0.3550872802734375,0.9286346435546875,0.1053466796875
1769658841615379200,11.387379150390625,0.3528289794921875,0.9267730712890625,0.1060333251953125
1769658841625366300,11.3973662109375,0.3483734130859375,0.9268798828125,0.105621337890625
1769658841635354400,11.407354248046875,0.3515167236328125,0.9308319091796875,0.1053619384765625
1769658841645342200,11.41734228515625,0.349884033203125,0.9329833984375,0.1050262451171875
1769658841655330300,11.427330322265625,0.3491668701171875,0.93475341796875,0.103057861328125
1769658841665317000,11.437317138671874,0.350311279296875,0.9330902099609375,0.101715087890625
1769658841675305200,11.44730517578125,0.353240966796875,0.92828369140625,0.10369873046875
1769658841685293300,11.457293212890624,0.356414794921875,0.9263458251953125,0.1063690185546875
1769658841695281200,11.46728125,0.351776123046875,0.931182861328125,0.105072021484375
1769658841705269000,11.47726904296875,0.3426055908203125,0.9359588623046875,0.10369873046875
1769658841715256300,11.48725634765625,0.33953857421875,0.9342193603515625,0.100433349609375
1769658841725244200,11.497244140625,0.3449859619140625,0.9319610595703125,0.100738525390625
1769658841735232000,11.50723193359375,0.3519744873046875,0.93096923828125,0.104583740234375
1769658841745220000,11.51722021484375,0.35443115234375,0.9305572509765625,0.106048583984375
1769658841755207200,11.527207275390625,0.3546142578125,0.9295501708984375,0.1097259521484375
1769658841765195000,11.537195068359376,0.35467529296875,0.92767333984375,0.1114349365234375
1769658841775183000,11.54718310546875,0.3535308837890625,0.9275970458984375,0.109130859375
1769658841785171200,11.557171142578126,0.3506927490234375,0.92913818359375,0.10540771484375
1769658841795158300,11.567158203125,0.3515472412109375,0.9298095703125,0.1061248779296875
1769658841805146000,11.57714599609375,0.35205078125,0.927001953125,0.10540771484375
1769658841815134200,11.58713427734375,0.3492279052734375,0.9211578369140625,0.1059722900390625
1769658841825122000,11.5971220703125,0.3497314453125,0.919342041015625,0.102752685546875
1769658841835110100,11.607110107421875,0.35614013671875,0.921630859375,0.096893310546875
1769658841845097000,11.617096923828125,0.3533172607421875,0.920654296875,0.0983123779296875
1769658841855085000,11.6270849609375,0.3375701904296875,0.9223175048828125,0.10394287109375
1769658841865073200,11.6370732421875,0.3342437744140625,0.9272613525390625,0.1048736572265625
1769658841875061200,11.647061279296874,0.3332977294921875,0.9326934814453125,0.100677490234375
1769658841885048000,11.657048095703125,0.3381195068359375,0.9368896484375,0.0951385498046875
1769658841895036200,11.6670361328125,0.3502349853515625,0.9390716552734375,0.0969085693359375
1769658841905024000,11.67702392578125,0.3628387451171875,0.9371185302734375,0.0955352783203125
1769658841915012000,11.68701220703125,0.367401123046875,0.9350128173828125,0.0998382568359375
1769658841924999200,11.696999267578125,0.3604736328125,0.9315338134765625,0.1057586669921875
1769658841934987000,11.706987060546876,0.355316162109375,0.9300689697265625,0.1062164306640625
1769658841944975000,11.71697509765625,0.3543243408203125,0.9309844970703125,0.101531982421875
1769658841954963200,11.726963134765626,0.3497161865234375,0.9361114501953125,0.09613037109375
1769658841964951300,11.736951416015625,0.3426055908203125,0.93865966796875,0.0926361083984375
1769658841974938000,11.746938232421876,0.345184326171875,0.938507080078125,0.0889434814453125
1769658841984926200,11.75692626953125,0.34814453125,0.93505859375,0.0885772705078125
1769658841994914000,11.7669140625,0.349700927734375,0.930328369140625,0.0898590087890625
1769658842004902100,11.776902099609375,0.346832275390625,0.930084228515625,0.0927276611328125
1769658842014889200,11.78688916015625,0.336700439453125,0.9270172119140625,0.09820556640625
1769658842024877000,11.796876953125,0.3316192626953125,0.9275054931640625,0.103179931640625
1769658842034865200,11.806865234375,0.3349456787109375,0.928985595703125,0.1063995361328125
1769658842044853200,11.816853271484375,0.3435516357421875,0.9307708740234375,0.110870361328125
1769658842054840000,11.826840087890625,0.3486785888671875,0.9262237548828125,0.1071319580078125
1769658842064828200,11.836828125,0.360107421875,0.9263153076171875,0.1001434326171875
1769658842074816300,11.846816162109375,0.362274169921875,0.9270782470703125,0.09674072265625
1769658842084804000,11.85680419921875,0.357666015625,0.9282684326171875,0.0999755859375
1769658842094791200,11.866791259765625,0.3515472412109375,0.9310760498046875,0.103607177734375
1769658842104779300,11.876779296875,0.3489837646484375,0.93084716796875,0.1021881103515625
1769658842114767000,11.88676708984375,0.348968505859375,0.9315948486328125,0.0988616943359375
1769658842124755200,11.896755126953124,0.3436431884765625,0.930908203125,0.09576416015625
1769658842134743300,11.906743408203125,0.3417816162109375,0.9348297119140625,0.0977630615234375
1769658842144730000,11.916730224609376,0.343597412109375,0.938507080078125,0.1037750244140625
1769658842154718000,11.926718017578125,0.3440093994140625,0.9376678466796875,0.1115570068359375
1769658842164706000,11.9367060546875,0.3430938720703125,0.93292236328125,0.1132354736328125
1769658842174694000,11.94669384765625,0.343902587890625,0.9293060302734375,0.1070709228515625
1769658842184681000,11.956680908203126,0.349578857421875,0.928466796875,0.100860595703125
1769658842194668800,11.966668701171875,0.354156494140625,0.92901611328125,0.103668212890625
1769658842204657000,11.976656982421876,0.3513336181640625,0.9255828857421875,0.1053009033203125
1769658842214645000,11.98664501953125,0.345855712890625,0.9238739013671875,0.102325439453125
1769658842224631800,11.9966318359375,0.343780517578125,0.92999267578125,0.09759521484375
1769658842234620000,12.006619873046875,0.3404388427734375,0.93206787109375,0.0948944091796875
1769658842244608000,12.01660791015625,0.3385772705078125,0.930450439453125,0.095306396484375
1769658842254596000,12.02659619140625,0.3403167724609375,0.9269256591796875,0.09893798828125
1769658842264584000,12.036583984375,0.3466339111328125,0.9254608154296875,0.099334716796875
1769658842274571000,12.046571044921874,0.353179931640625,0.926239013671875,0.1021728515625
1769658842284558800,12.056558837890625,0.3557891845703125,0.9261016845703125,0.103790283203125
1769658842294547000,12.066546875,0.3571929931640625,0.9266510009765625,0.1064605712890625
1769658842304535000,12.07653515625,0.35504150390625,0.928436279296875,0.109161376953125
1769658842314521900,12.08652197265625,0.3443450927734375,0.928192138671875,0.109527587890625
1769658842324510000,12.096510009765625,0.3387908935546875,0.9336700439453125,0.1038055419921875
1769658842334498000,12.106498046875,0.340301513671875,0.93701171875,0.0969390869140625
1769658842344485600,12.116485595703125,0.351898193359375,0.9336700439453125,0.09429931640625
1769658842354473000,12.126472900390626,0.3594512939453125,0.930633544921875,0.0995941162109375
1769658842364461000,12.1364609375,0.359710693359375,0.92694091796875,0.0979461669921875
1769658842374449000,12.146448974609376,0.3524932861328125,0.9262542724609375,0.0939788818359375
1769658842384436700,12.156436767578125,0.341644287109375,0.930450439453125,0.0889892578125
1769658842394424800,12.1664248046875,0.3372802734375,0.9315643310546875,0.0912322998046875
1769658842404412000,12.176411865234375,0.3437042236328125,0.9311981201171875,0.094085693359375
1769658842414399700,12.186399658203126,0.3509674072265625,0.9280242919921875,0.097900390625
1769658842424387800,12.196387939453125,0.352783203125,0.927886962890625,0.099700927734375
1769658842434375700,12.206375732421876,0.35357666015625,0.928314208984375,0.0929107666015625
1769658842444362800,12.21636279296875,0.348480224609375,0.9279937744140625,0.0904083251953125
1769658842454350800,12.226350830078125,0.342254638671875,0.929901123046875,0.0964202880859375
1769658842464338700,12.236338623046874,0.3443603515625,0.9303741455078125,0.098419189453125
1769658842474326800,12.246326904296875,0.3468017578125,0.9276275634765625,0.100067138671875
1769658842484313900,12.25631396484375,0.35028076171875,0.92822265625,0.0995025634765625
1769658842494301700,12.2663017578125,0.3567047119140625,0.9295196533203125,0.095306396484375
1769658842504289800,12.276289794921874,0.3594818115234375,0.9296722412109375,0.0908050537109375
1769658842514278000,12.28627783203125,0.359710693359375,0.929779052734375,0.0904388427734375
1769658842524265700,12.296265625,0.3592376708984375,0.92877197265625,0.097381591796875
1769658842534252800,12.306252685546875,0.35888671875,0.926177978515625,0.1064910888671875
1769658842544241000,12.316240966796874,0.3592376708984375,0.924713134765625,0.1060028076171875
1769658842554228700,12.326228759765625,0.36187744140625,0.9255218505859375,0.1028289794921875
1769658842564216800,12.336216796875,0.359130859375,0.9270477294921875,0.100616455078125
1769658842574204000,12.346203857421875,0.35443115234375,0.9279022216796875,0.1005859375
1769658842584191700,12.356191650390626,0.349853515625,0.92791748046875,0.1040802001953125
1769658842594179800,12.366179931640625,0.34478759765625,0.92816162109375,0.1099700927734375
1769658842604168000,12.37616796875,0.340911865234375,0.9274444580078125,0.1108856201171875
1769658842614154800,12.38615478515625,0.3442840576171875,0.9288482666015625,0.1086273193359375
1769658842624142800,12.396142822265626,0.3484344482421875,0.9324188232421875,0.1072845458984375
1769658842634131000,12.406130859375,0.3531646728515625,0.93255615234375,0.107177734375
1769658842644118800,12.416118896484376,0.3554534912109375,0.9308319091796875,0.10845947265625
1769658842654107000,12.42610693359375,0.3573760986328125,0.929443359375,0.1097869873046875
1769658842664094000,12.436093994140625,0.356048583984375,0.9270172119140625,0.1077880859375
1769658842674081800,12.446081787109375,0.353057861328125,0.9266815185546875,0.108367919921875
1769658842684070000,12.45606982421875,0.3507843017578125,0.9274139404296875,0.1066436767578125
1769658842694058000,12.46605810546875,0.3524322509765625,0.92926025390625,0.105133056640625
1769658842704044800,12.476044921875,0.3541107177734375,0.9326019287109375,0.1026153564453125
1769658842714033000,12.486032958984374,0.354583740234375,0.932281494140625,0.1027679443359375
1769658842724021000,12.49602099609375,0.3554534912109375,0.9304046630859375,0.1043548583984375
1769658842734008800,12.5060087890625,0.3554534912109375,0.928314208984375,0.107666015625
1769658842743996000,12.515995849609375,0.35675048828125,0.9217681884765625,0.1089019775390625
1769658842753984000,12.52598388671875,0.3561859130859375,0.91973876953125,0.107269287109375
1769658842763971800,12.535971923828125,0.35614013671875,0.9210662841796875,0.1048126220703125
1769658842773960000,12.5459599609375,0.3553924560546875,0.92498779296875,0.1036224365234375
1769658842783948000,12.555947998046875,0.35455322265625,0.9250946044921875,0.1001434326171875
1769658842793934800,12.565934814453126,0.35565185546875,0.9209747314453125,0.0986785888671875
1769658842803923000,12.5759228515625,0.3565216064453125,0.919952392578125,0.0975341796875
1769658842813911000,12.5859111328125,0.357513427734375,0.9216156005859375,0.0990447998046875
1769658842823899000,12.59589892578125,0.3562469482421875,0.9240264892578125,0.1000823974609375
1769658842833886000,12.605885986328126,0.3522491455078125,0.92578125,0.1000213623046875
1769658842843874000,12.6158740234375,0.351654052734375,0.926513671875,0.1009063720703125
1769658842853862000,12.62586181640625,0.35919189453125,0.9292144775390625,0.1018524169921875
1769658842863850000,12.63585009765625,0.3642730712890625,0.930755615234375,0.1040496826171875
1769658842873837000,12.645837158203125,0.361785888671875,0.9277496337890625,0.1046295166015625
1769658842883825000,12.655824951171875,0.36309814453125,0.9282684326171875,0.106231689453125
1769658842893813000,12.66581298828125,0.3621368408203125,0.9300537109375,0.10595703125
1769658842903801000,12.675801025390625,0.359893798828125,0.926666259765625,0.1023406982421875
1769658842913788700,12.68578857421875,0.3531341552734375,0.9232330322265625,0.1021575927734375
1769658842923776000,12.69577587890625,0.3520050048828125,0.92620849609375,0.104827880859375
1769658842933764000,12.70576416015625,0.355377197265625,0.9325714111328125,0.1045379638671875
1769658842943752000,12.715751953125,0.3626708984375,0.935211181640625,0.1015777587890625
1769658842953739800,12.72573974609375,0.368438720703125,0.9331512451171875,0.101531982421875
1769658842963726800,12.735726806640624,0.367645263671875,0.9297637939453125,0.10504150390625
1769658842973715000,12.74571484375,0.3643798828125,0.926605224609375,0.1105499267578125
1769658842983702800,12.755702880859374,0.36041259765625,0.9212799072265625,0.114837646484375
1769658842993691000,12.76569091796875,0.358612060546875,0.918792724609375,0.1116180419921875
1769658843003678000,12.775677978515626,0.3583831787109375,0.91876220703125,0.1089019775390625
1769658843013665800,12.785665771484375,0.3576507568359375,0.9199676513671875,0.1063232421875
1769658843023654000,12.79565380859375,0.3526763916015625,0.9227447509765625,0.105682373046875
1769658843033641700,12.805641845703125,0.3487548828125,0.92572021484375,0.1069183349609375
1769658843043629000,12.815629150390626,0.34942626953125,0.924835205078125,0.1070556640625
1769658843053616600,12.82561669921875,0.3543243408203125,0.923614501953125,0.1039581298828125
1769658843063604700,12.835604736328126,0.3633575439453125,0.92486572265625,0.102142333984375
1769658843073592800,12.8455927734375,0.3665618896484375,0.9253387451171875,0.103424072265625
1769658843083581000,12.855580810546876,0.364227294921875,0.9251556396484375,0.10498046875
1769658843093567700,12.865567626953125,0.3592376708984375,0.9221343994140625,0.101837158203125
1769658843103555800,12.875555908203125,0.35540771484375,0.923858642578125,0.0973052978515625
1769658843113544000,12.8855439453125,0.357696533203125,0.9239959716796875,0.093719482421875
1769658843123531800,12.89553173828125,0.3596343994140625,0.925323486328125,0.095733642578125
1769658843133518800,12.905518798828124,0.3627777099609375,0.9261627197265625,0.1024932861328125
1769658843143506700,12.915506591796875,0.3583221435546875,0.925872802734375,0.10491943359375
1769658843153494300,12.925494384765624,0.3541717529296875,0.92529296875,0.1063690185546875
1769658843163482000,12.935482177734375,0.3544921875,0.92633056640625,0.1046600341796875
1769658843173470200,12.94547021484375,0.358795166015625,0.926361083984375,0.1045379638671875
1769658843183457300,12.955457275390625,0.3610992431640625,0.9251556396484375,0.105926513671875
1769658843193445000,12.965445068359376,0.359893798828125,0.9223785400390625,0.1090087890625
1769658843203433200,12.97543310546875,0.3604888916015625,0.92578125,0.10626220703125
1769658843213421300,12.98542138671875,0.365264892578125,0.9277496337890625,0.1049346923828125
1769658843223408000,12.995408203125,0.3651580810546875,0.9246368408203125,0.1028900146484375
1769658843233396200,13.005396240234376,0.3607635498046875,0.92205810546875,0.104644775390625
1769658843243384300,13.01538427734375,0.360260009765625,0.92059326171875,0.1068878173828125
1769658843253372200,13.0253720703125,0.3618011474609375,0.9221649169921875,0.1055755615234375
1769658843263359200,13.035359130859375,0.362884521484375,0.9229278564453125,0.1038360595703125
1769658843273347300,13.045347412109376,0.363037109375,0.9252166748046875,0.1028289794921875
1769658843283335200,13.055335205078125,0.36138916015625,0.928009033203125,0.1024932861328125
1769658843293323300,13.0653232421875,0.358642578125,0.9300994873046875,0.1056671142578125
1769658843303311400,13.075311279296875,0.3546295166015625,0.92779541015625,0.107025146484375
1769658843313298200,13.085298095703125,0.3522186279296875,0.9247894287109375,0.108856201171875
1769658843323286300,13.095286376953124,0.356475830078125,0.924896240234375,0.1092376708984375
1769658843333274400,13.1052744140625,0.36376953125,0.9253692626953125,0.10760498046875
1769658843343262200,13.11526220703125,0.366485595703125,0.9237823486328125,0.1041412353515625
1769658843353249300,13.125249267578125,0.36871337890625,0.9238128662109375,0.103302001953125
1769658843363237400,13.1352373046875,0.366058349609375,0.924346923828125,0.1047821044921875
1769658843373225200,13.14522509765625,0.3570556640625,0.924285888671875,0.1085662841796875
1769658843383213300,13.15521337890625,0.357940673828125,0.923553466796875,0.108367919921875
1769658843393201400,13.165201416015625,0.3628997802734375,0.9242095947265625,0.1042022705078125
