time,seconds_elapsed,z,y,x
1769658830289268500,0.0612685546875,0.054673098027706146,0.10748491436243057,-0.05336149036884308
1769658830299256600,0.071256591796875,0.06040075793862343,0.08298463374376297,-0.06988294422626495
1769658830309243400,0.081243408203125,0.0676134005188942,0.06324341893196106,-0.10741034895181656
1769658830319231500,0.0912314453125,0.06568287312984467,0.057548779994249344,-0.15448172390460968
1769658830329219600,0.101219482421875,0.06685706228017807,0.09678459912538528,-0.20802776515483856
1769658830339207700,0.111207763671875,0.07073941826820374,0.17489272356033325,-0.27092549204826355
1769658830349194500,0.121194580078125,0.08246930688619614,0.26928314566612244,-0.34555792808532715
1769658830359182600,0.1311826171875,0.08421288430690765,0.35128000378608704,-0.4084170460700989
1769658830369170400,0.14117041015625,0.09173444658517838,0.4287462830543518,-0.4502207040786743
1769658830379158500,0.151158447265625,0.09494195878505707,0.4910690486431122,-0.48689723014831543
1769658830389145600,0.1611455078125,0.0895642340183258,0.5599727630615234,-0.5234096646308899
1769658830399133400,0.171133544921875,0.0814644992351532,0.6200547218322754,-0.563816487789154
1769658830409121500,0.18112158203125,0.07892490923404694,0.6478996872901917,-0.603945255279541
1769658830419109600,0.191109619140625,0.08162029087543488,0.6400910019874573,-0.6587563157081604
1769658830429096400,0.201096435546875,0.08714768290519714,0.6124899983406067,-0.7156851291656494
1769658830439084500,0.21108447265625,0.08501635491847992,0.5723058581352234,-0.7534663081169128
1769658830449072600,0.22107275390625,0.06087853014469147,0.5071873068809509,-0.760323703289032
1769658830459059500,0.2310595703125,0.020779846236109734,0.41870272159576416,-0.6937976479530334
1769658830469047600,0.241047607421875,0.016153402626514435,0.4303026497364044,-0.674247682094574
1769658830479035600,0.25103564453125,0.032708942890167236,0.4428192377090454,-0.695770263671875
1769658830489023500,0.2610234375,0.06618088483810425,0.36044180393218994,-0.7104597091674805
1769658830499010600,0.271010498046875,0.08041787892580032,0.2675430178642273,-0.690014660358429
1769658830508998700,0.28099853515625,0.09155095368623734,0.18956033885478973,-0.6202036142349243
1769658830518986500,0.290986572265625,0.08768777549266815,0.13536155223846436,-0.525412380695343
1769658830528974600,0.300974609375,0.0882377177476883,0.14836576581001282,-0.41190046072006226
1769658830538961700,0.310961669921875,0.06356459110975266,0.16297399997711182,-0.29948922991752625
1769658830548949500,0.320949462890625,0.050209905952215195,0.15304148197174072,-0.19632476568222046
1769658830558937600,0.3309375,0.03820624202489853,0.11832078546285629,-0.13304966688156128
1769658830568925700,0.34092578125,0.039263781160116196,0.053153231739997864,-0.11522406339645386
1769658830578912500,0.35091259765625,0.055388156324625015,0.020617926493287086,-0.12813639640808105
1769658830588900600,0.360900634765625,0.05463128536939621,0.028656678274273872,-0.15794488787651062
1769658830598888700,0.370888671875,0.028365062549710274,0.04453470930457115,-0.19262617826461792
1769658830608876500,0.38087646484375,0.011936820112168789,0.042402319610118866,-0.21393199265003204
1769658830618863600,0.390863525390625,0.010267284698784351,0.006929012481123209,-0.2319064736366272
1769658830628851700,0.400851806640625,0.0020221380982548,-0.04989538714289665,-0.2362373024225235
1769658830638839600,0.410839599609375,0.0034703651908785105,-0.09507671743631363,-0.23872575163841248
1769658830648826600,0.42082666015625,0.0027031085919588804,-0.09324020147323608,-0.24269546568393707
1769658830658814500,0.430814453125,0.010990332812070847,-0.04909217730164528,-0.23569348454475403
1769658830668802600,0.440802490234375,0.023306654766201973,0.01498294435441494,-0.21897122263908386
1769658830678790700,0.450790771484375,0.03362241014838219,0.051956940442323685,-0.19406667351722717
1769658830688777500,0.460777587890625,0.04490702226758003,0.0397290363907814,-0.16985268890857697
1769658830698765600,0.470765625,0.03861556947231293,0.010721620172262192,-0.16033907234668732
1769658830708753700,0.480753662109375,0.019847474992275238,0.010970093309879303,-0.17136456072330475
1769658830718741800,0.49074169921875,-0.007472297176718712,0.01708817295730114,-0.19505737721920013
1769658830728728600,0.500728515625,-0.044144026935100555,0.011718441732227802,-0.23588868975639343
1769658830738716700,0.510716552734375,-0.09348707646131516,-0.014041783288121223,-0.2812199592590332
1769658830748704500,0.52070458984375,-0.13366778194904327,-0.026502979919314384,-0.32365530729293823
1769658830758692600,0.530692626953125,-0.17131422460079193,-0.03608902916312218,-0.35500550270080566
1769658830768679700,0.5406796875,-0.18470433354377747,-0.03774498030543327,-0.3875967264175415
1769658830778667500,0.55066748046875,-0.18411684036254883,-0.05278784781694412,-0.38725584745407104
1769658830788655600,0.560655517578125,-0.1801719069480896,-0.0794796422123909,-0.36194461584091187
1769658830798643700,0.570643798828125,-0.17431187629699707,-0.10826149582862854,-0.326475590467453
1769658830808630500,0.580630615234375,-0.15501168370246887,-0.11183252185583115,-0.28514358401298523
1769658830818618600,0.59061865234375,-0.1258751004934311,-0.08641984313726425,-0.23562823235988617
1769658830828606700,0.600606689453125,-0.10026082396507263,-0.05877756327390671,-0.2047313004732132
1769658830838593500,0.610593505859375,-0.08157715201377869,-0.0331084169447422,-0.1918724924325943
1769658830848581600,0.62058154296875,-0.06929785013198853,0.007216900121420622,-0.20667994022369385
1769658830858569700,0.63056982421875,-0.07583270967006683,0.03485145792365074,-0.23190273344516754
1769658830868557600,0.6405576171875,-0.09361384063959122,0.0610835924744606,-0.24426060914993286
1769658830878544600,0.650544677734375,-0.10668303817510605,0.07603058218955994,-0.2528708577156067
1769658830888532700,0.66053271484375,-0.12991459667682648,0.002153964713215828,-0.25100505352020264
1769658830898520600,0.6705205078125,-0.14638251066207886,-0.05727580562233925,-0.2720712125301361
1769658830908508400,0.68050830078125,-0.15122494101524353,-0.11975649744272232,-0.27403900027275085
1769658830918495700,0.690495849609375,-0.1914522498846054,-0.17473985254764557,-0.2529720664024353
1769658830928483600,0.700483642578125,-0.24135349690914154,-0.17516835033893585,-0.21563242375850677
1769658830938471700,0.7104716796875,-0.2652740180492401,-0.0883927121758461,-0.16970674693584442
1769658830948459500,0.72045947265625,-0.23535312712192535,-0.0650719404220581,-0.1552519053220749
1769658830958446600,0.730446533203125,-0.20681363344192505,-0.11992453783750534,-0.1428021639585495
1769658830968434700,0.7404345703125,-0.20554757118225098,-0.18011730909347534,-0.13537806272506714
1769658830978422500,0.750422607421875,-0.2529204189777374,-0.21193888783454895,-0.16573037207126617
1769658830988410400,0.760410400390625,-0.3145808279514313,-0.11133664101362228,-0.19656792283058167
1769658830998397700,0.770397705078125,-0.36320191621780396,-0.0639084056019783,-0.2545454800128937
1769658831008385500,0.780385498046875,-0.36123836040496826,-0.04405507445335388,-0.306862473487854
1769658831018373400,0.790373291015625,-0.3555602431297302,-0.0781073197722435,-0.33524617552757263
1769658831028360700,0.800360595703125,-0.3830520510673523,-0.13019821047782898,-0.3786466419696808
1769658831038348500,0.8103486328125,-0.3894937038421631,-0.08892267942428589,-0.39560404419898987
1769658831048336400,0.82033642578125,-0.3501542806625366,-0.04162361100316048,-0.412436842918396
1769658831058324500,0.830324462890625,-0.3202461898326874,-0.0867476761341095,-0.43609529733657837
1769658831068311600,0.8403115234375,-0.3156767189502716,-0.16787981986999512,-0.44434815645217896
1769658831078299600,0.850299560546875,-0.3273909091949463,-0.1524617075920105,-0.40699732303619385
1769658831088287500,0.86028759765625,-0.3273214101791382,-0.12357652932405472,-0.3563027083873749
1769658831098275600,0.870275634765625,-0.3269871771335602,-0.0847468450665474,-0.2981550097465515
1769658831108262700,0.8802626953125,-0.2732986509799957,-0.05111192166805267,-0.26455122232437134
1769658831118250500,0.89025048828125,-0.2119886875152588,-0.02069169655442238,-0.2772054970264435
1769658831128238300,0.90023828125,-0.1561688333749771,0.02695092372596264,-0.3021542727947235
1769658831138226400,0.910226318359375,-0.15364521741867065,0.07040625810623169,-0.334439754486084
1769658831148213500,0.920213623046875,-0.15930576622486115,0.07857763022184372,-0.33661556243896484
1769658831158201600,0.93020166015625,-0.15731771290302277,0.058093130588531494,-0.3194746673107147
1769658831168189400,0.940189453125,-0.20824562013149261,0.09926453232765198,-0.3251860737800598
1769658831178177500,0.950177490234375,-0.2572648227214813,0.11853330582380295,-0.34566470980644226
1769658831188164600,0.96016455078125,-0.26785808801651,0.06641018390655518,-0.33814048767089844
1769658831198152400,0.97015234375,-0.264314204454422,0.055153533816337585,-0.3228382468223572
1769658831208140500,0.980140625,-0.22930243611335754,0.01894759200513363,-0.30976423621177673
1769658831218127600,0.990127685546875,-0.23517709970474243,0.06830395758152008,-0.31973379850387573
1769658831228115500,1.000115478515625,-0.2527742087841034,-0.040220391005277634,-0.3988693654537201
1769658831238103600,1.010103515625,-0.2903343439102173,-0.21861276030540466,-0.39342212677001953
1769658831248091600,1.020091552734375,-0.3562776744365692,-0.2270512580871582,-0.3244380056858063
1769658831258078500,1.030078369140625,-0.3674749433994293,-0.22822518646717072,-0.2658303380012512
1769658831268066600,1.040066650390625,-0.380494087934494,-0.32018545269966125,-0.2580065131187439
1769658831278054700,1.0500546875,-0.37034398317337036,-0.42839688062667847,-0.2824673652648926
1769658831288042500,1.06004248046875,-0.37119218707084656,-0.47960761189460754,-0.2899862825870514
1769658831298029600,1.070029541015625,-0.3583115339279175,-0.4662848711013794,-0.2739684283733368
1769658831308017700,1.080017578125,-0.354721337556839,-0.44577667117118835,-0.26566123962402344
1769658831318005500,1.090005615234375,-0.3619736433029175,-0.383186012506485,-0.24894563853740692
1769658831327993600,1.09999365234375,-0.30585259199142456,-0.3145773708820343,-0.23944693803787231
1769658831337980400,1.10998046875,-0.258450984954834,-0.3075474202632904,-0.22166554629802704
1769658831347968500,1.119968505859375,-0.2782295048236847,-0.31563839316368103,-0.22713008522987366
1769658831357956600,1.12995654296875,-0.2532743513584137,-0.28714415431022644,-0.22032330930233002
1769658831367944700,1.13994482421875,-0.2211797833442688,-0.25231027603149414,-0.1907808631658554
1769658831377931500,1.149931640625,-0.18079428374767303,-0.1969010829925537,-0.15819096565246582
1769658831387919600,1.159919677734375,-0.1399909257888794,-0.13925109803676605,-0.12840618193149567
1769658831397907700,1.16990771484375,-0.0945158526301384,-0.09712095558643341,-0.09099648892879486
1769658831407895600,1.1798955078125,-0.05676101893186569,-0.08928140997886658,-0.0686965063214302
1769658831417882600,1.189882568359375,-0.045395709574222565,-0.07472643256187439,-0.0387045182287693
1769658831427870500,1.199870361328125,-0.043240148574113846,-0.06084657087922096,-0.004850415047258139
1769658831437858600,1.209858642578125,-0.0576515793800354,-0.09196747094392776,-0.006847519893199205
1769658831447845600,1.219845703125,-0.09852897375822067,-0.09657873958349228,-0.019050123170018196
1769658831457833500,1.22983349609375,-0.0942830890417099,-0.12048220634460449,-0.04027498513460159
1769658831467821600,1.239821533203125,-0.08663662523031235,-0.142561674118042,-0.046970169991254807
1769658831477809700,1.2498095703125,-0.05859700217843056,-0.1278810054063797,-0.02173059619963169
1769658831487796500,1.25979638671875,-0.0189630389213562,-0.09219597280025482,0.030734742060303688
1769658831497784600,1.26978466796875,0.02821272984147072,-0.07472191005945206,0.0638069435954094
1769658831507772700,1.279772705078125,0.05778846517205238,-0.08728430420160294,0.039976976811885834
1769658831517760500,1.289760498046875,0.043962132185697556,-0.08052360266447067,-0.024872859939932823
1769658831527747600,1.29974755859375,0.02101314067840576,-0.06028437986969948,-0.09112191945314407
1769658831537735700,1.309735595703125,-0.005019259639084339,-0.037335388362407684,-0.13210584223270416
1769658831547723500,1.3197236328125,-0.025178857147693634,-0.02293354459106922,-0.13228799402713776
1769658831557711600,1.329711669921875,-0.024334367364645004,-0.03772047907114029,-0.11684539169073105
1769658831567698700,1.33969873046875,0.008493619970977306,-0.006819290108978748,-0.08730693906545639
1769658831577686500,1.3496865234375,0.04093411564826965,0.03904247283935547,-0.05927637219429016
1769658831587674600,1.359674560546875,0.06076907366514206,0.05744864419102669,-0.06269161403179169
1769658831597662700,1.369662841796875,0.07512804120779037,0.07555866986513138,-0.0827564001083374
1769658831607649500,1.3796494140625,0.07865246385335922,0.10495704412460327,-0.10450670123100281
1769658831617637600,1.3896376953125,0.07566893100738525,0.13111168146133423,-0.09043615311384201
1769658831627625700,1.399625732421875,0.07602419704198837,0.1328326165676117,-0.05036197230219841
1769658831637612500,1.409612548828125,0.07211174070835114,0.11254198849201202,-0.017237043008208275
1769658831647600600,1.4196005859375,0.05536072701215744,0.0814056396484375,-0.013946175575256348
1769658831657588700,1.429588623046875,0.03418406844139099,0.05067995563149452,-0.03056616522371769
1769658831667576600,1.43957666015625,0.021796908229589462,0.028772791847586632,-0.053353503346443176
1769658831677563600,1.449563720703125,0.02745000086724758,0.024283502250909805,-0.06947015225887299
1769658831687551700,1.4595517578125,0.052014730870723724,0.037091974169015884,-0.07975714653730392
1769658831697539600,1.46953955078125,0.07952092587947845,0.06958280503749847,-0.082646943628788
1769658831707527700,1.479527587890625,0.09354805946350098,0.114615797996521,-0.08026128262281418
1769658831717514500,1.489514404296875,0.09444954246282578,0.15232375264167786,-0.08297424763441086
1769658831727502600,1.499502685546875,0.08163201063871384,0.1707291305065155,-0.09074987471103668
1769658831737490700,1.50949072265625,0.07879254966974258,0.16951313614845276,-0.10002220422029495
1769658831747478800,1.519478759765625,0.08142055571079254,0.16204695403575897,-0.11728881299495697
1769658831757465600,1.529465576171875,0.08484804630279541,0.16072043776512146,-0.12802933156490326
1769658831767453700,1.53945361328125,0.08948087692260742,0.1539141982793808,-0.1301790475845337
1769658831777441800,1.54944189453125,0.09289319068193436,0.1640499234199524,-0.11984357982873917
1769658831787429600,1.5594296875,0.09379653632640839,0.17728450894355774,-0.11596042662858963
1769658831797416700,1.569416748046875,0.09716090559959412,0.16596873104572296,-0.10050130635499954
1769658831807404500,1.579404541015625,0.08873706310987473,0.1370800882577896,-0.09274911135435104
1769658831817392600,1.589392578125,0.07185794413089752,0.11536920070648193,-0.10279588401317596
1769658831827380700,1.599380615234375,0.06082260236144066,0.11802411079406738,-0.12616832554340363
1769658831837367600,1.609367431640625,0.06112886592745781,0.12197091430425644,-0.13890329003334045
1769658831847355600,1.619355712890625,0.06991463899612427,0.114112988114357,-0.12751108407974243
1769658831857343700,1.62934375,0.07145687192678452,0.1225469559431076,-0.12319916486740112
1769658831867330600,1.63933056640625,0.07351496070623398,0.1315457820892334,-0.14620381593704224
1769658831877318700,1.649318603515625,0.05499933660030365,0.13300491869449615,-0.16765344142913818
1769658831887306800,1.659306640625,0.048401087522506714,0.15087953209877014,-0.1800089180469513
1769658831897294600,1.669294677734375,0.05811417102813721,0.1811245083808899,-0.1772136688232422
1769658831907281700,1.67928173828125,0.09272407740354538,0.21132183074951172,-0.1366174966096878
1769658831917269800,1.689269775390625,0.13462118804454803,0.2398509383201599,-0.07832649350166321
1769658831927257600,1.699257568359375,0.1586064249277115,0.2832772433757782,-0.027729365974664688
1769658831937245700,1.70924560546875,0.15901468694210052,0.3040376603603363,-0.008677643723785877
1769658831947232800,1.719232666015625,0.14596758782863617,0.28192728757858276,-0.019532155245542526
1769658831957220600,1.729220703125,0.12137303501367569,0.2381441295146942,-0.0510203056037426
1769658831967208700,1.739208740234375,0.09216055274009705,0.21341454982757568,-0.08727897703647614
1769658831977196800,1.74919677734375,0.07036338001489639,0.19729895889759064,-0.11035739630460739
1769658831987183600,1.75918359375,0.043907538056373596,0.1644565910100937,-0.12968848645687103
1769658831997171700,1.769171630859375,0.023851802572607994,0.15153732895851135,-0.1352510303258896
1769658832007159800,1.779159912109375,0.016344884410500526,0.14768186211585999,-0.1252758949995041
1769658832017147600,1.789147705078125,0.021446436643600464,0.1432357281446457,-0.10289522260427475
1769658832027134700,1.799134765625,0.03635827451944351,0.14075978100299835,-0.09420106559991837
1769658832037122800,1.809122802734375,0.05109753832221031,0.13859543204307556,-0.09770259261131287
1769658832047110700,1.819110595703125,0.04998380318284035,0.1383112668991089,-0.11595083773136139
1769658832057098800,1.8290986328125,0.03971758484840393,0.1504928320646286,-0.12638697028160095
1769658832067085800,1.8390859375,0.03810397535562515,0.14752846956253052,-0.14371855556964874
1769658832077073700,1.84907373046875,0.038128212094306946,0.13493119180202484,-0.15869830548763275
1769658832087061800,1.859061767578125,0.04770973324775696,0.12529240548610687,-0.15271177887916565
1769658832097049600,1.869049560546875,0.06712470948696136,0.1321399211883545,-0.1408900022506714
1769658832107036700,1.87903662109375,0.08611144870519638,0.1406940072774887,-0.13734081387519836
1769658832117024800,1.889024658203125,0.10065523535013199,0.12794359028339386,-0.15163107216358185
1769658832127012600,1.8990126953125,0.09246788173913956,0.11976741254329681,-0.16076543927192688
1769658832136999700,1.908999755859375,0.07642073929309845,0.10759703069925308,-0.16446085274219513
1769658832146988000,1.918988037109375,0.057136524468660355,0.12298451364040375,-0.16065172851085663
1769658832156976000,1.92897607421875,0.04591263085603714,0.1274394541978836,-0.16482196748256683
1769658832166964000,1.9389638671875,0.028557341545820236,0.13324619829654694,-0.16888755559921265
1769658832176951300,1.948951416015625,0.03220081329345703,0.1459188610315323,-0.16135667264461517
1769658832186939100,1.958939208984375,0.049732137471437454,0.14479154348373413,-0.17275473475456238
1769658832196927000,1.968927001953125,0.058928828686475754,0.1194840520620346,-0.18548597395420074
1769658832206915000,1.9789150390625,0.0705023929476738,0.10537755489349365,-0.17989599704742432
1769658832216902100,1.988902099609375,0.07395412027835846,0.10793551802635193,-0.16166159510612488
1769658832226890000,1.998889892578125,0.06645279377698898,0.10385555773973465,-0.15556909143924713
1769658832236878000,2.008878173828125,0.05666327849030495,0.10795016586780548,-0.16128022968769073
1769658832246866200,2.0188662109375,0.05379984900355339,0.11342030018568039,-0.183317631483078
1769658832256853000,2.02885302734375,0.040044356137514114,0.08984972536563873,-0.21118521690368652
1769658832266841000,2.038841064453125,0.028000475838780403,0.07252267003059387,-0.22327250242233276
1769658832276829200,2.0488291015625,0.02586355432868004,0.07172159105539322,-0.2149762213230133
1769658832286817000,2.058817138671875,0.03291107714176178,0.08279740810394287,-0.2018236666917801
1769658832296804000,2.06880419921875,0.04752171412110329,0.10572962462902069,-0.18486198782920837
1769658832306792200,2.078792236328125,0.07174369692802429,0.14435425400733948,-0.17718090116977692
1769658832316780000,2.088780029296875,0.08368077874183655,0.14533163607120514,-0.18096232414245605
1769658832326767000,2.09876708984375,0.08070416748523712,0.11714686453342438,-0.19959327578544617
1769658832336755200,2.108755126953125,0.05597618222236633,0.10185499489307404,-0.21212610602378845
1769658832346743000,2.118742919921875,0.035057853907346725,0.09727435559034348,-0.2258927822113037
1769658832356731100,2.128731201171875,0.013002617284655571,0.08554499596357346,-0.2396775782108307
1769658832366718000,2.138718017578125,0.0014615427935495973,0.07859601080417633,-0.24519164860248566
1769658832376706000,2.1487060546875,-0.002008023438975215,0.07248804718255997,-0.2464180290699005
1769658832386694100,2.158694091796875,-0.0015840481501072645,0.08601398020982742,-0.24055108428001404
1769658832396682200,2.16868212890625,0.005137770436704159,0.08298090100288391,-0.21576665341854095
1769658832406669000,2.1786689453125,0.025624137371778488,0.07116392254829407,-0.18517784774303436
1769658832416657200,2.1886572265625,0.037574008107185364,0.05283498391509056,-0.15741971135139465
1769658832426645200,2.198645263671875,0.04116368293762207,0.049792855978012085,-0.14073580503463745
1769658832436633000,2.208633056640625,0.043228697031736374,0.05215401574969292,-0.13354873657226562
1769658832446620200,2.2186201171875,0.03351827710866928,0.03370709717273712,-0.1369333565235138
1769658832456608000,2.22860791015625,0.019956130534410477,0.016139822080731392,-0.1381075382232666
1769658832466596000,2.23859619140625,0.008882175199687481,0.0018764632986858487,-0.1340331733226776
1769658832476584200,2.248584228515625,0.0004005394293926656,-0.02953738532960415,-0.13941115140914917
1769658832486571000,2.258571044921875,-0.013234312646090984,-0.04671530798077583,-0.14316114783287048
1769658832496559000,2.26855908203125,-0.022976955398917198,-0.05389492213726044,-0.14498329162597656
1769658832506547200,2.278547119140625,-0.0234637800604105,-0.05301075428724289,-0.14546531438827515
1769658832516535300,2.288535400390625,-0.012043346650898457,-0.04668734222650528,-0.13440334796905518
1769658832526522000,2.298522216796875,0.008622250519692898,-0.0019121496006846428,-0.11288873106241226
1769658832536510200,2.30851025390625,0.03744617477059364,0.03254542499780655,-0.08655406534671783
1769658832546498000,2.318498046875,0.051899150013923645,0.049725212156772614,-0.05616047605872154
1769658832556486100,2.328486083984375,0.045814093202352524,0.05350024253129959,-0.02502572536468506
1769658832566473200,2.33847314453125,0.03481683507561684,0.05347920209169388,-0.0031944618094712496
1769658832576461000,2.3484609375,0.0300817359238863,0.028543228283524513,-0.0035683694295585155
1769658832586449200,2.35844921875,0.03241599723696709,-0.008920524269342422,-0.007198790553957224
1769658832596436200,2.368436279296875,0.02532799355685711,-0.025014007464051247,-0.0014101437991485
1769658832606424000,2.378424072265625,0.01275920495390892,-0.0368696004152298,0.01167210191488266
1769658832616412200,2.388412109375,-0.0043838294222950935,-0.03910505771636963,0.012547483667731285
1769658832626400300,2.398400146484375,-0.027824174612760544,-0.04902133718132973,-0.005776662845164537
1769658832636387000,2.408386962890625,-0.03755989298224449,-0.06821447610855103,-0.013335246592760086
1769658832646375200,2.418375244140625,-0.04298768192529678,-0.067936971783638,-0.006207828409969807
1769658832656363300,2.42836328125,-0.036373186856508255,-0.044008735567331314,0.005013933405280113
1769658832666351000,2.43835107421875,-0.020595822483301163,-0.02702256292104721,0.012152803130447865
1769658832676338200,2.448338134765625,0.008946890011429787,-0.029651369899511337,0.014197045005857944
1769658832686326300,2.458326171875,0.036556679755449295,-0.023241406306624413,0.014035657979547977
1769658832696314000,2.468314208984375,0.05253138393163681,-0.02371251955628395,0.016406936571002007
1769658832706302200,2.47830224609375,0.04169072210788727,-0.013283847831189632,0.010731473565101624
1769658832716289300,2.488289306640625,0.01774544082581997,-0.0009494169498793781,0.00905341561883688
1769658832726277000,2.498277099609375,-0.0009773800848051906,-0.006119411438703537,0.010496849194169044
1769658832736265200,2.50826513671875,-0.00510021997615695,-0.012472648173570633,0.01848260499536991
1769658832746253300,2.51825341796875,0.0018847191240638494,0.0057617491111159325,0.028783444315195084
1769658832756240100,2.528240234375,0.021279988810420036,0.009762083180248737,0.041124001145362854
1769658832766228200,2.538228271484375,0.033006686717271805,0.0036426717415452003,0.04270884767174721
1769658832776216300,2.54821630859375,0.025203092023730278,0.011969311162829399,0.041058219969272614
1769658832786204200,2.5582041015625,0.011665178462862968,-0.0033278861083090305,0.04758189991116524
1769658832796191200,2.568191162109375,0.001326786819845438,-0.02972913347184658,0.05234336480498314
1769658832806179300,2.578179443359375,-0.003750795964151621,-0.04085022583603859,0.049487125128507614
1769658832816167200,2.588167236328125,-0.0030304109677672386,-0.04494350776076317,0.04421699419617653
1769658832826155300,2.5981552734375,-0.01353445090353489,-0.06390547752380371,0.03774205222725868
1769658832836142000,2.60814208984375,-0.02430107817053795,-0.0702107772231102,0.03218590095639229
1769658832846130200,2.618130126953125,-0.030418625101447105,-0.062486812472343445,0.036554280668497086
1769658832856118300,2.6281181640625,-0.017914552241563797,-0.04716378450393677,0.05983110889792442
1769658832866105000,2.63810498046875,0.019163841381669044,-0.036920733749866486,0.0871969535946846
1769658832876093200,2.64809326171875,0.05507177487015724,-0.033495642244815826,0.10532163083553314
1769658832886081300,2.658081298828125,0.08124931901693344,-0.02816479280591011,0.10812567174434662
1769658832896069400,2.6680693359375,0.08261365443468094,-0.026935743167996407,0.10477221757173538
1769658832906056200,2.67805615234375,0.06371772289276123,-0.02906307764351368,0.09192273020744324
1769658832916044300,2.688044189453125,0.04013623297214508,-0.0364067442715168,0.08743450790643692
1769658832926032100,2.6980322265625,0.024950090795755386,-0.03801955282688141,0.08503739535808563
1769658832936020200,2.708020263671875,0.022970030084252357,-0.03904753550887108,0.08464857190847397
1769658832946007300,2.71800732421875,0.026486467570066452,-0.03467249125242233,0.08519399166107178
1769658832955995100,2.7279951171875,0.027720578014850616,-0.021887455135583878,0.09119489043951035
1769658832965983200,2.737983154296875,0.024095216765999794,-0.01636752113699913,0.10449391603469849
1769658832975971300,2.747971435546875,0.026143454015254974,-0.01666153408586979,0.11746031790971756
1769658832985958100,2.757958251953125,0.035174764692783356,-0.0142945172265172,0.12425617128610611
1769658832995946200,2.7679462890625,0.0409943051636219,-0.0022865901701152325,0.12084759026765823
1769658833005934300,2.777934326171875,0.04162707179784775,0.014576812274754047,0.11037604510784149
1769658833015922200,2.787922119140625,0.036426983773708344,0.019919378682971,0.10006508231163025
1769658833025909200,2.7979091796875,0.03026123344898224,0.028116589412093163,0.09519895166158676
1769658833035897300,2.8078974609375,0.01991112343966961,0.038624357432127,0.09361304342746735
1769658833045885200,2.81788525390625,0.009768474847078323,0.04634246602654457,0.08700786530971527
1769658833055873300,2.827873291015625,-0.005849367007613182,0.050997138023376465,0.07071198523044586
1769658833065860400,2.8378603515625,-0.02400520071387291,0.05335110425949097,0.04840242117643356
1769658833075848200,2.84784814453125,-0.03823180869221687,0.04083983972668648,0.03449592366814613
1769658833085836300,2.857836181640625,-0.04146355390548706,0.033971015363931656,0.03104819729924202
1769658833095824100,2.86782421875,-0.03694816306233406,0.017350228503346443,0.02520575374364853
1769658833105811200,2.877811279296875,-0.030369358137249947,0.010320015251636505,0.013977867551147938
1769658833115799300,2.88779931640625,-0.029617812484502792,0.018373414874076843,-0.00009906959166983142
1769658833125787100,2.897787109375,-0.021319137886166573,0.022049374878406525,-0.008142881095409393
1769658833135775000,2.90777490234375,-0.009622800163924694,0.03205513954162598,-0.014615427702665329
1769658833145762300,2.91776220703125,0.004373443312942982,0.05010311305522919,-0.018877550959587097
1769658833155750100,2.927750244140625,0.0117352195084095,0.06723149865865707,-0.019391540437936783
1769658833165738000,2.937738037109375,0.007111971732228994,0.06825575232505798,-0.02417937107384205
1769658833175725300,2.947725341796875,-0.012499812990427017,0.055099472403526306,-0.021890118718147278
1769658833185713200,2.957713134765625,-0.028850024566054344,0.042879823595285416,-0.022413961589336395
1769658833195701200,2.967701171875,-0.036373455077409744,0.03510152921080589,-0.030217556282877922
1769658833205689000,2.977689208984375,-0.03636066988110542,0.027219370007514954,-0.036375850439071655
1769658833215676200,2.98767626953125,-0.03687759116292,0.033496707677841187,-0.04490888491272926
1769658833225664300,2.997664306640625,-0.03896843641996384,0.03491111099720001,-0.05775677412748337
1769658833235652000,3.007652099609375,-0.04452086240053177,0.0296684131026268,-0.06651084870100021
1769658833245640000,3.017639892578125,-0.04722929745912552,0.024529844522476196,-0.06703309714794159
1769658833255627300,3.027627197265625,-0.039562322199344635,0.015868445858359337,-0.05558203533291817
1769658833265615000,3.037614990234375,-0.020784907042980194,0.012210859917104244,-0.045519813895225525
1769658833275603000,3.04760302734375,0.002332130214199424,0.01997024565935135,-0.03515239432454109
1769658833285591000,3.057591064453125,0.01811695285141468,0.03510632365942001,-0.032706547528505325
1769658833295578400,3.067578369140625,0.03371508792042732,0.04200950264930725,-0.033421341329813004
1769658833305566000,3.07756591796875,0.0419226810336113,0.04421592876315117,-0.039148468524217606
1769658833315554000,3.087553955078125,0.04884796589612961,0.04806206747889519,-0.052979595959186554
1769658833325542100,3.097542236328125,0.0451512336730957,0.05469173938035965,-0.0622740276157856
1769658833335529200,3.107529296875,0.026824424043297768,0.046540603041648865,-0.06126841902732849
1769658833345517000,3.11751708984375,0.01056076493114233,0.029739785939455032,-0.049741990864276886
1769658833355505200,3.127505126953125,0.001085770782083273,0.01649508625268936,-0.033188048750162125
1769658833365493000,3.137492919921875,0.004160123877227306,0.006171875633299351,-0.02057771384716034
1769658833375480000,3.14747998046875,0.014586132951080799,0.0039039277471601963,-0.01251206360757351
1769658833385468200,3.15746826171875,0.019245333969593048,0.004459196701645851,-0.006878412328660488
1769658833395456000,3.1674560546875,0.018088988959789276,0.007513842545449734,-0.003317233407869935
1769658833405444000,3.177444091796875,0.012224175967276096,0.005003546830266714,-0.002335858531296253
1769658833415431000,3.187430908203125,0.010843059979379177,-0.009411078877747059,-0.0008857673965394497
1769658833425419000,3.1974189453125,0.010550911538302898,-0.022166289389133453,0.0023638217244297266
1769658833435407000,3.207406982421875,0.017351826652884483,-0.029830066487193108,0.0007004113867878914
1769658833445395200,3.217395263671875,0.01563648320734501,-0.029815154150128365,0.0018730012234300375
1769658833455382000,3.227382080078125,0.009323992766439915,-0.04057725518941879,-0.00347435986623168
1769658833465370000,3.2373701171875,-0.003576359013095498,-0.0583525225520134,-0.009122125804424286
1769658833475358000,3.24735791015625,-0.009048355743288994,-0.07071651518344879,-0.01203855313360691
1769658833485346000,3.257345947265625,-0.004431500099599361,-0.07353094220161438,-0.012238023802638054
1769658833495333000,3.2673330078125,0.0075548551976680756,-0.06691538542509079,-0.008422513492405415
1769658833505321000,3.277321044921875,0.018580075353384018,-0.05775837227702141,-0.0025803367607295513
1769658833515309000,3.28730908203125,0.027780499309301376,-0.05476364493370056,0.0030897995457053185
1769658833525297200,3.297297119140625,0.03025777079164982,-0.0620465911924839,0.006755374372005463
1769658833535284000,3.307283935546875,0.030782412737607956,-0.06912154704332352,0.01164813432842493
1769658833545272000,3.31727197265625,0.02936614491045475,-0.07019693404436111,0.018848521634936333
1769658833555260200,3.32726025390625,0.028601018711924553,-0.07040119916200638,0.019244534894824028
1769658833565247000,3.3372470703125,0.021448034793138504,-0.07509954273700714,0.014653777703642845
1769658833575235000,3.347235107421875,0.009584450162947178,-0.08102507889270782,0.007361509837210178
1769658833585223200,3.35722314453125,0.00044528054422698915,-0.08819084614515305,0.00047404266661033034
1769658833595211000,3.3672109375,0.0012263857061043382,-0.08843185752630234,-0.0019068233668804169
1769658833605198000,3.377197998046875,0.0062642875127494335,-0.0842064917087555,0.007818507961928844
1769658833615186200,3.387186279296875,0.018433336168527603,-0.06845469027757645,0.016562199220061302
1769658833625174000,3.397174072265625,0.02737702988088131,-0.05987771600484848,0.025297632440924644
1769658833635162000,3.407162109375,0.02768675424158573,-0.05330396816134453,0.024597221985459328
1769658833645149200,3.417149169921875,0.030555512756109238,-0.050022419542074203,0.017834125086665154
1769658833655137000,3.427136962890625,0.03165353462100029,-0.05395537614822388,0.015153652988374233
1769658833665125000,3.437125,0.03383173421025276,-0.051180362701416016,0.012300875037908554
1769658833675113200,3.44711328125,0.03308125585317612,-0.04042359068989754,0.010853180661797523
1769658833685100000,3.45710009765625,0.029411951079964638,-0.03615827113389969,0.005020591430366039
1769658833695088000,3.467088134765625,0.02238333597779274,-0.03731967508792877,-0.0014255901332944632
1769658833705076200,3.477076171875,0.017418671399354935,-0.03248470649123192,-0.007149255834519863
1769658833715064000,3.48706396484375,0.019932428374886513,-0.02587074600160122,-0.008970857597887516
1769658833725051100,3.497051025390625,0.026099776849150658,-0.018511366099119186,-0.005397961009293795
1769658833735039200,3.507039306640625,0.028378378599882126,-0.014535799622535706,-0.0017307883827015758
1769658833745027000,3.517027099609375,0.027177559211850166,-0.023545006290078163,0.0010724549647420645
1769658833755015200,3.52701513671875,0.015513712540268898,-0.03515319526195526,0.0009201221400871873
1769658833765002000,3.537001953125,0.0009020126308314502,-0.05313245952129364,-0.00529596209526062
1769658833774990000,3.546989990234375,-0.0122481444850564,-0.0603078156709671,-0.013460947200655937
1769658833784978200,3.556978271484375,-0.010705907829105854,-0.05041071027517319,-0.010172209702432156
1769658833794966300,3.56696630859375,-0.009370865300297737,-0.04671024903655052,-0.00765925133600831
1769658833804953000,3.576953125,-0.004458131734281778,-0.04153412580490112,-0.0024290692526847124
1769658833814941200,3.586941162109375,-0.005597432143986225,-0.04812278971076012,0.0021459751296788454
1769658833824929300,3.59692919921875,-0.00469541922211647,-0.0481286458671093,0.00036218989407643676
1769658833834917000,3.606917236328125,-0.002127333078533411,-0.042981553822755814,0.0024383901618421078
1769658833844904200,3.616904296875,0.012828446924686432,-0.02876506932079792,0.005338040180504322
1769658833854892000,3.62689208984375,0.02503744326531887,-0.017460215836763382,0.008916529826819897
1769658833864880000,3.636880126953125,0.033553432673215866,-0.016682041808962822,0.011597267352044582
1769658833874868200,3.6468681640625,0.034264761954545975,-0.008095210418105125,0.005286374595016241
1769658833884855000,3.65685498046875,0.027699803933501244,-0.006934072356671095,-0.007348726503551006
1769658833894843100,3.666843017578125,0.022168684750795364,-0.01215519942343235,-0.019588882103562355
1769658833904831200,3.676831298828125,0.017432253807783127,-0.016747288405895233,-0.02622920647263527
1769658833914818000,3.686818115234375,0.016861537471413612,-0.016934508457779884,-0.02491307258605957
1769658833924806100,3.69680615234375,0.011349859647452831,-0.019657591357827187,-0.015032212249934673
1769658833934794200,3.706794189453125,0.0022833943367004395,-0.016026370227336884,-0.010296046733856201
1769658833944782000,3.716781982421875,-0.007331149652600288,-0.015455921180546284,-0.012320848181843758
1769658833954769200,3.72676904296875,-0.0070706927217543125,-0.014826616272330284,-0.009386577643454075
1769658833964757200,3.73675732421875,0.0038338867016136646,-0.002832005498930812,-0.005230980925261974
1769658833974745000,3.7467451171875,0.017764084041118622,0.006622482556849718,0.00155262288171798
1769658833984733200,3.756733154296875,0.02287309058010578,0.01077142171561718,0.006244580261409283
1769658833994720300,3.76672021484375,0.018820559605956078,0.010941331274807453,0.0001496696495451033
1769658834004708000,3.7767080078125,0.009680324234068394,0.002560895634815097,-0.006199306342750788
1769658834014696200,3.7866962890625,0.005784918554127216,-0.007072290405631065,-0.007672300562262535
1769658834024684300,3.796684326171875,0.010892328806221485,-0.011225756257772446,0.004229366313666105
1769658834034671000,3.806671142578125,0.025016669183969498,-0.01392806600779295,0.021755361929535866
1769658834044659200,3.8166591796875,0.03297099843621254,-0.014200774021446705,0.03068946860730648
1769658834054647300,3.826647216796875,0.027332821860909462,-0.012267584912478924,0.03110465593636036
1769658834064635100,3.83663525390625,0.014913169667124748,-0.013793310150504112,0.03141384944319725
1769658834074622200,3.846622314453125,0.007140201050788164,-0.026214294135570526,0.029871879145503044
1769658834084610300,3.8566103515625,0.0109474565833807,-0.024350080639123917,0.03735669329762459
1769658834094598100,3.86659814453125,0.027455059811472893,-0.011454788036644459,0.04832492023706436
1769658834104586200,3.876586181640625,0.039075229316949844,-0.0023041670210659504,0.05493302270770073
1769658834114573300,3.8865732421875,0.04487186670303345,-0.01287505216896534,0.05140407010912895
1769658834124561200,3.89656103515625,0.044195156544446945,-0.015721438452601433,0.04159591346979141
1769658834134549200,3.90654931640625,0.03940759226679802,-0.010792993009090424,0.033421874046325684
1769658834144536600,3.91653662109375,0.028127774596214294,-0.011831092648208141,0.024583106860518456
1769658834154523400,3.9265234375,0.01932123303413391,-0.013235644437372684,0.02233273535966873
1769658834164511500,3.936511474609375,0.010815363377332687,-0.01116050872951746,0.02761458419263363
1769658834174499600,3.94649951171875,0.0033965955954045057,-0.018509235233068466,0.027358386665582657
1769658834184487400,3.9564873046875,0.005014732480049133,-0.022116754204034805,0.028069717809557915
1769658834194474500,3.966474609375,0.004790227860212326,-0.023270701989531517,0.028146149590611458
1769658834204462600,3.976462646484375,0.004217115696519613,-0.019083678722381592,0.02443157322704792
1769658834214450400,3.986450439453125,0.004065581597387791,-0.01492302305996418,0.026200711727142334
1769658834224438500,3.9964384765625,0.0035566515289247036,-0.015500396490097046,0.03353585675358772
1769658834234425300,4.00642529296875,0.007476025726646185,-0.01798778958618641,0.0403255857527256
1769658834244413400,4.016413330078125,0.015153919346630573,-0.017586983740329742,0.05233244597911835
1769658834254401500,4.026401611328125,0.023250993341207504,-0.018761970102787018,0.06453318893909454
1769658834264389600,4.0363896484375,0.0332128144800663,-0.017828265205025673,0.07139614969491959
1769658834274376400,4.04637646484375,0.03718651831150055,-0.01588255912065506,0.07543137669563293
1769658834284364500,4.056364501953125,0.036492232233285904,-0.0008769789128564298,0.07355863600969315
1769658834294352600,4.0663525390625,0.03820544108748436,-0.007841943763196468,0.06992954760789871
1769658834304340500,4.076340576171875,0.035723377019166946,-0.01013652328401804,0.06070995330810547
1769658834314327600,4.08632763671875,0.027174362912774086,0.006872020661830902,0.04640371724963188
1769658834324315400,4.0963154296875,0.020833110436797142,0.007445399183779955,0.03594575077295303
1769658834334303500,4.106303466796875,0.01607643812894821,-0.0016128103015944362,0.023601733148097992
1769658834344291300,4.116291259765625,0.013262275606393814,-0.0067636300809681416,0.01709030382335186
1769658834354278400,4.1262783203125,0.010860903188586235,-0.015872439369559288,0.013585849665105343
1769658834364266500,4.1362666015625,0.009740511886775494,-0.02050740458071232,0.0017281252657994628
1769658834374254600,4.146254638671875,-0.00041278995922766626,-0.021732458844780922,-0.015907060354948044
1769658834384242400,4.156242431640625,-0.016472449526190758,-0.01697711832821369,-0.03617558255791664
1769658834394229500,4.1662294921875,-0.03579901158809662,-0.01727645844221115,-0.04718136042356491
1769658834404217600,4.176217529296875,-0.04953666031360626,-0.011333880946040154,-0.04698321968317032
1769658834414205400,4.186205322265625,-0.05700309947133064,0.0016468988033011556,-0.035954006016254425
1769658834424193300,4.196193359375,-0.05078381672501564,-0.0036160401068627834,-0.0275671798735857
1769658834434180600,4.2061806640625,-0.04020015150308609,-0.015283881686627865,-0.02827957458794117
1769658834444168400,4.21616845703125,-0.03253637254238129,-0.015867913141846657,-0.033847443759441376
1769658834454156300,4.22615625,-0.028569325804710388,-0.010204700753092766,-0.04358396306633949
1769658834464144400,4.236144287109375,-0.025681128725409508,-0.0067686899565160275,-0.04692063853144646
1769658834474131500,4.24613134765625,-0.016642093658447266,-0.012172243557870388,-0.04764874652028084
1769658834484119300,4.256119384765625,0.0019180085510015488,-0.01360395923256874,-0.03725709021091461
1769658834494107400,4.266107421875,0.02213885821402073,-0.0030277478508651257,-0.034571025520563126
1769658834504094500,4.276094482421875,0.03001728653907776,0.009277920238673687,-0.04272376000881195
1769658834514082300,4.286082275390625,0.026020415127277374,0.01828526332974434,-0.05871391296386719
1769658834524070400,4.2960703125,0.016821058467030525,0.01968502067029476,-0.06589166820049286
1769658834534058200,4.306058349609375,0.0048978193663060665,0.019870111718773842,-0.0611799992620945
1769658834544045600,4.316045654296875,-0.0035065840929746628,0.017428791150450706,-0.04897899553179741
1769658834554033400,4.326033447265625,-0.0038959383964538574,0.0084837656468153,-0.03365889564156532
1769658834564021200,4.336021240234375,0.0015243934467434883,0.001285241567529738,-0.016821857541799545
1769658834574009300,4.34600927734375,0.00953997578471899,-0.004217648413032293,-0.0015393070643767715
1769658834583996400,4.355996337890625,0.014752314426004887,-0.006006493698805571,0.004328968469053507
1769658834593984300,4.365984375,0.008247011341154575,0.003652791725471616,-0.003063700394704938
1769658834603972400,4.375972412109375,0.0020575581584125757,0.01230407040566206,-0.014215154573321342
1769658834613960400,4.38596044921875,-0.008272044360637665,0.01227557472884655,-0.02796904928982258
1769658834623947300,4.395947265625,-0.01124865934252739,-0.000987500068731606,-0.03500565513968468
1769658834633935400,4.405935302734375,-0.004781972151249647,-0.012295814231038094,-0.03337712958455086
1769658834643923500,4.41592333984375,0.0025965820532292128,-0.006243514828383923,-0.026008430868387222
1769658834653911300,4.425911376953125,0.014946458861231804,0.00221921200864017,-0.012402607128024101
1769658834663898400,4.4358984375,0.023554861545562744,0.006706904619932175,0.005923935677856207
1769658834673886500,4.445886474609375,0.027238279581069946,0.0005155879771336913,0.02160995453596115
1769658834683874300,4.455874267578125,0.024334367364645004,-0.016219716519117355,0.033427197486162186
1769658834693862400,4.4658623046875,0.01727592572569847,-0.035047732293605804,0.04103212058544159
1769658834703849200,4.47584912109375,0.013983726501464844,-0.04965410381555557,0.048288702964782715
1769658834713837300,4.48583740234375,0.017539845779538155,-0.05716235563158989,0.05402515083551407
1769658834723825400,4.495825439453125,0.02100621536374092,-0.056900832802057266,0.05426323786377907
1769658834733813500,4.5058134765625,0.02388216368854046,-0.054313305765390396,0.04793849587440491
1769658834743800300,4.51580029296875,0.026431607082486153,-0.04349501430988312,0.042644400149583817
1769658834753788400,4.525788330078125,0.02582440711557865,-0.029707029461860657,0.0398334339261055
1769658834763776300,4.5357763671875,0.025409486144781113,-0.026752518489956856,0.04554937407374382
1769658834773764400,4.545764404296875,0.027107251808047295,-0.029399700462818146,0.05493302270770073
1769658834783751400,4.55575146484375,0.03374624624848366,-0.026728549972176552,0.06168839707970619
1769658834793739300,4.5657392578125,0.0400313064455986,-0.022274145856499672,0.06524185091257095
1769658834803727400,4.575727294921875,0.040020652115345,-0.02039395458996296,0.051599543541669846
1769658834813715500,4.585715576171875,0.019168900325894356,-0.026379942893981934,0.02551974169909954
1769658834823702300,4.595702392578125,-0.008813731372356415,-0.03417927399277687,0.0008367652189917862
1769658834833690400,4.6056904296875,-0.028436701744794846,-0.03261919692158699,-0.0033846113365143538
1769658834843678500,4.615678466796875,-0.028003672137856483,-0.02732616290450096,0.009229185059666634
1769658834853666300,4.625666259765625,-0.012262791395187378,-0.01374910119920969,0.02454742044210434
1769658834863653400,4.6356533203125,0.005721268709748983,-0.005435245577245951,0.030290527269244194
1769658834873641500,4.645641357421875,0.0057534934021532536,-0.0018924422329291701,0.014415424317121506
1769658834883629300,4.65562939453125,-0.012570919468998909,-0.007934089750051498,-0.007349525578320026
1769658834893617400,4.665617431640625,-0.03292838856577873,-0.011299792677164078,-0.02545875497162342
1769658834903604500,4.6756044921875,-0.0410212017595768,-0.008042746223509312,-0.027538150548934937
1769658834913592300,4.68559228515625,-0.03344477713108063,-0.004059456288814545,-0.022172680124640465
1769658834923580400,4.695580322265625,-0.01380848977714777,-0.001942509668879211,-0.019051188603043556
1769658834933568500,4.705568603515625,-0.0029891319572925568,0.007968444377183914,-0.018426144495606422
1769658834943555300,4.715555419921875,-0.0024626250378787518,0.019778231158852577,-0.022877885028719902
1769658834953543400,4.72554345703125,-0.014239655807614326,0.021525798365473747,-0.027604196220636368
1769658834963531500,4.735531494140625,-0.026025742292404175,0.021954568102955818,-0.028965072706341743
1769658834973519400,4.745519287109375,-0.028872927650809288,0.020415525883436203,-0.022609705105423927
1769658834983506400,4.75550634765625,-0.023724770173430443,0.024469923228025436,-0.01738804578781128
1769658834993494500,4.76549462890625,-0.012252671644091606,0.03587863966822624,-0.014341655187308788
1769658835003482400,4.775482421875,-0.006638461723923683,0.04800480976700783,-0.013302222825586796
1769658835013470500,4.785470458984375,-0.006148706190288067,0.050871703773736954,-0.016452210023999214
1769658835023457500,4.79545751953125,-0.011326157487928867,0.05132177844643593,-0.02281157299876213
1769658835033445400,4.8054453125,-0.015853265300393105,0.05154841020703316,-0.023672040551900864
1769658835043433500,4.81543359375,-0.018734538927674294,0.04368702694773674,-0.01577230542898178
1769658835053421600,4.825421630859375,-0.014539794065058231,0.04012318328022957,-0.005510080140084028
1769658835063408400,4.835408447265625,-0.006021406967192888,0.040833182632923126,0.011540808714926243
1769658835073396500,4.845396484375,0.008650746196508408,0.04529530927538872,0.022545788437128067
1769658835083384600,4.855384521484375,0.019411781802773476,0.04381139576435089,0.03110678680241108
1769658835093372400,4.865372314453125,0.023504793643951416,0.04681703820824623,0.03596891835331917
1769658835103359500,4.875359375,0.02593519352376461,0.050339870154857635,0.03532416746020317
1769658835113347600,4.88534765625,0.0213612150400877,0.04568652808666229,0.029442043974995613
1769658835123335400,4.89533544921875,0.013833257369697094,0.03845125064253807,0.026729349046945572
1769658835133322500,4.905322509765625,0.004733502399176359,0.025293905287981033,0.022644858807325363
1769658835143310300,4.915310302734375,-0.0025505092926323414,0.011149057187139988,0.02323608100414276
1769658835153299500,4.925299560546875,0.0011163970921188593,0.005124454386532307,0.03237631544470787
1769658835163287300,4.935287353515625,0.00811944529414177,0.000833036785479635,0.043660663068294525
1769658835173275400,4.945275390625,0.017373664304614067,-0.004571582190692425,0.05463901162147522
1769658835183262500,4.955262451171875,0.022527413442730904,-0.005763879511505365,0.05637725442647934
1769658835193250300,4.965250244140625,0.02256176806986332,-0.006494384724646807,0.05434126779437065
1769658835203238400,4.97523828125,0.02135402522981167,-0.008262723684310913,0.04776645824313164
1769658835213226200,4.985226318359375,0.015993081033229828,-0.008388424292206764,0.043110184371471405
1769658835223213300,4.99521337890625,0.010424677282571793,-0.009249957278370857,0.03503255173563957
1769658835233201200,5.005201171875,0.003400856629014015,-0.01996918022632599,0.029406623914837837
1769658835243189200,5.015189208984375,-0.003793140407651663,-0.027042802423238754,0.021948175504803658
1769658835253177300,5.02517724609375,-0.01053386740386486,-0.031194936484098434,0.01666419766843319
1769658835263164200,5.0351640625,-0.01098447386175394,-0.03405756875872612,0.016710802912712097
1769658835273152300,5.04515234375,-0.0049068741500377655,-0.03219335526227951,0.019108979031443596
1769658835283140400,5.055140380859375,0.0029001825023442507,-0.026643594726920128,0.01912575773894787
1769658835293127400,5.06512744140625,0.006792924832552671,-0.016683638095855713,0.009974337182939053
1769658835303115300,5.075115234375,0.0029617014806717634,-0.0037641117814928293,-0.0008737831376492977
1769658835313103400,5.085103271484375,-0.0012327772565186024,-0.0021321268286556005,-0.014219682663679123
1769658835323091200,5.09509130859375,-0.003772367723286152,-0.009968478232622147,-0.02738714963197708
1769658835333079300,5.105079345703125,-0.004786765668541193,-0.006699447985738516,-0.03786935284733772
1769658835343066400,5.11506640625,-0.009941846132278442,-0.007691209204494953,-0.047923315316438675
1769658835353054200,5.12505419921875,-0.020361997187137604,-0.006234726402908564,-0.05765850096940994
1769658835363042300,5.135042236328125,-0.035777438431978226,0.0017145430902019143,-0.05890193209052086
1769658835373030400,5.145030517578125,-0.0382872000336647,0.00896659679710865,-0.050043459981679916
1769658835383017200,5.155017333984375,-0.026671025902032852,0.00771650904789567,-0.03410843387246132
1769658835393005300,5.16500537109375,-0.010407899506390095,0.011739480309188366,-0.026392990723252296
1769658835402993400,5.174993408203125,0.0032439965289086103,0.02369733899831772,-0.028138693422079086
1769658835412980200,5.184980224609375,0.003953728824853897,0.03344663977622986,-0.041858233511447906
1769658835422968300,5.19496826171875,-0.008157262578606606,0.026933612301945686,-0.05902869999408722
1769658835432956400,5.204956298828125,-0.023319438099861145,0.015528359450399876,-0.07050106674432755
1769658835442944300,5.2149443359375,-0.032940641045570374,0.009919209405779839,-0.0729631558060646
1769658835452931300,5.224931396484375,-0.03032701276242733,0.0029731530230492353,-0.06820221990346909
1769658835462919400,5.23491943359375,-0.023858461529016495,-0.015111308544874191,-0.06765760481357574
1769658835472907300,5.2449072265625,-0.012775716371834278,0.023750869557261467,-0.06106175482273102
1769658835482895400,5.254895263671875,-0.014300908893346786,0.0277986079454422,-0.052502356469631195
1769658835492882400,5.26488232421875,-0.02100195363163948,0.012027900665998459,-0.05044826120138168
1769658835502870300,5.274870361328125,-0.02803456410765648,-0.005562278442084789,-0.052926596254110336
1769658835512858400,5.2848583984375,-0.03471856564283371,-0.006112487055361271,-0.04736511781811714
1769658835522846500,5.294846435546875,-0.03302133455872536,-0.0065508438274264336,-0.03411881998181343
1769658835532833300,5.304833251953125,-0.03226979076862335,-0.016527578234672546,-0.015619440004229546
1769658835542821400,5.3148212890625,-0.023905066773295403,-0.013074522837996483,-0.018638664856553078
1769658835552809500,5.3248095703125,-0.020726850256323814,-0.03169294819235802,-0.03753725439310074
1769658835562797300,5.33479736328125,-0.023750336840748787,-0.04221802577376366,-0.03839186206459999
1769658835572784400,5.344784423828125,-0.025065938010811806,-0.05356282740831375,-0.030435670167207718
1769658835582772500,5.3547724609375,-0.029474535956978798,-0.07531632483005524,-0.022335398942232132
1769658835592760300,5.36476025390625,-0.029209284111857414,-0.08473273366689682,-0.009414007887244225
1769658835602748400,5.37474853515625,-0.023060046136379242,-0.09559017419815063,0.010495783761143684
1769658835612735200,5.3847353515625,-0.00891120359301567,-0.1075858473777771,0.03329137712717056
1769658835622723300,5.394723388671875,0.00515827676281333,-0.12275175005197525,0.053288254886865616
1769658835632711400,5.40471142578125,0.006068279035389423,-0.14936818182468414,0.0625523254275322
1769658835642699500,5.414699462890625,-0.0009129316313192248,-0.16391995549201965,0.05838261544704437
1769658835652686300,5.424686279296875,-0.019354522228240967,-0.16628378629684448,0.050144925713539124
1769658835662674400,5.43467431640625,-0.03478913754224777,-0.17542055249214172,0.04465401917695999
1769658835672662500,5.44466259765625,-0.04812092334032059,-0.18790332973003387,0.04733635485172272
1769658835682650400,5.454650390625,-0.05008793622255325,-0.18678799271583557,0.05658072233200073
1769658835692637400,5.464637451171875,-0.042634014040231705,-0.18208085000514984,0.06472866237163544
1769658835702625300,5.474625244140625,-0.029355226084589958,-0.17292997241020203,0.06652283668518066
1769658835712613400,5.48461328125,-0.025603896006941795,-0.1566934734582901,0.06347564607858658
1769658835722601500,5.4946015625,-0.024284567683935165,-0.1484757512807846,0.05726808309555054
1769658835732588300,5.50458837890625,-0.02304380014538765,-0.1445491909980774,0.04839656129479408
1769658835742576400,5.514576416015625,-0.018017349764704704,-0.13499616086483002,0.03470871224999428
1769658835752564500,5.524564453125,-0.006048571318387985,-0.11899855732917786,0.02707982063293457
1769658835762552300,5.53455224609375,0.006647250149399042,-0.11193186044692993,0.024862205609679222
1769658835772539400,5.544539306640625,0.01750575751066208,-0.11107964813709259,0.030347784981131554
1769658835782527500,5.554527587890625,0.01846502721309662,-0.11721450835466385,0.038718368858098984
1769658835792515300,5.564515380859375,0.005248557776212692,-0.12945225834846497,0.04278608039021492
1769658835802503400,5.57450341796875,-0.017721738666296005,-0.14645680785179138,0.03991519287228584
1769658835812490500,5.584490478515625,-0.0382230207324028,-0.1602991223335266,0.037148166447877884
1769658835822478300,5.594478271484375,-0.044732317328453064,-0.16666914522647858,0.04512273520231247
1769658835832466400,5.604466552734375,-0.043110717087984085,-0.1670214831829071,0.06527914106845856
1769658835842454500,5.61445458984375,-0.03808639943599701,-0.16737407445907593,0.07536213099956512
1769658835852441300,5.62444140625,-0.030180007219314575,-0.1623992919921875,0.07799173891544342
1769658835862429400,5.634429443359375,-0.02063017711043358,-0.15127287805080414,0.07934888452291489
1769658835872417500,5.64441748046875,-0.013785853050649166,-0.15246224403381348,0.07345584034919739
1769658835882405400,5.6544052734375,-0.004027232062071562,-0.13657940924167633,0.0638495534658432
1769658835892392400,5.664392333984375,0.007523163687437773,-0.10778745263814926,0.04789881780743599
1769658835902380500,5.674380615234375,0.016101205721497536,-0.09735744446516037,0.02527260035276413
1769658835912368400,5.684368408203125,0.011427091434597969,-0.09528523683547974,-0.009822004474699497
1769658835922356500,5.6943564453125,-0.012503807432949543,-0.08868512511253357,-0.03821103647351265
1769658835932343600,5.704343505859375,-0.03858254477381706,-0.0717916339635849,-0.05047702044248581
1769658835942331400,5.714331298828125,-0.05186932161450386,-0.05848408117890358,-0.0415080301463604
1769658835952319500,5.724319580078125,-0.04326438158750534,-0.04644206538796425,-0.025041969493031502
1769658835962307300,5.734307373046875,-0.02593332901597023,-0.03815590590238571,-0.005381183233112097
1769658835972294400,5.74429443359375,-0.013280118815600872,-0.05335936322808266,-0.0003683151735458523
1769658835982282500,5.754282470703125,-0.013683055527508259,-0.07992918789386749,0.00040772996726445854
1769658835992270600,5.7642705078125,-0.019653595983982086,-0.10751128196716309,0.0005129248020239174
1769658836002258200,5.774258056640625,-0.031154457479715347,-0.12439891695976257,-0.005116465035825968
1769658836012245500,5.78424560546875,-0.045222073793411255,-0.1354829967021942,-0.009135441854596138
1769658836022233600,5.794233642578125,-0.05241340771317482,-0.13665585219860077,-0.015725433826446533
1769658836032221400,5.804221435546875,-0.05692746490240097,-0.15196263790130615,-0.02081633172929287
1769658836042209300,5.814209228515625,-0.05968223884701729,-0.1596277505159378,-0.015597867779433727
1769658836052196400,5.8241962890625,-0.05169808119535446,-0.16261421144008636,-0.011142931878566742
1769658836062184400,5.834184326171875,-0.04361112788319588,-0.15308170020580292,-0.005934588145464659
1769658836072172300,5.84417236328125,-0.03800969943404198,-0.12902934849262238,0.0014969628537073731
1769658836082160400,5.854160400390625,-0.029344573616981506,-0.11768508702516556,0.017775269225239754
1769658836092147500,5.8641474609375,-0.015684153884649277,-0.11871945858001709,0.02792457491159439
1769658836102135300,5.87413525390625,-0.004304999951273203,-0.11979750543832779,0.024937307462096214
1769658836112123400,5.884123291015625,0.002472478663548827,-0.12255094945430756,0.014424479566514492
1769658836122111200,5.894111328125,0.004516188520938158,-0.13325285911560059,0.003995806910097599
1769658836132098600,5.9040986328125,0.001315335277467966,-0.13474395871162415,-0.004101268015801907
1769658836142086100,5.914086181640625,0.0016314524691551924,-0.1287824809551239,-0.005608617328107357
1769658836152074000,5.924073974609375,0.005495432764291763,-0.12012507766485214,0.002663161139935255
1769658836162061800,5.934061767578125,0.012357067316770554,-0.10903460532426834,0.011816712096333504
1769658836172049000,5.944048828125,0.018547052517533302,-0.09748953580856323,0.016224775463342667
1769658836182037000,5.954037109375,0.020128704607486725,-0.08623262494802475,0.016450079157948494
1769658836192024800,5.96402490234375,0.025199363008141518,-0.0910010114312172,0.021325528621673584
1769658836202013000,5.974012939453125,0.03511883690953255,-0.09474674612283707,0.03315449133515358
1769658836212000000,5.984,0.04186968505382538,-0.09529775381088257,0.04344228282570839
1769658836221987800,5.99398779296875,0.04658481106162071,-0.10090823471546173,0.045282259583473206
1769658836231976000,6.003975830078125,0.0453224740922451,-0.10635919868946075,0.04438956826925278
1769658836241963800,6.0139638671875,0.03140879049897194,-0.08792319893836975,0.04760294035077095
1769658836251951000,6.023951171875,0.030918501317501068,-0.08339928835630417,0.051904208958148956
1769658836261938700,6.033938720703125,0.028438832610845566,-0.11211242526769638,0.044024981558322906
1769658836271926800,6.0439267578125,0.025354359298944473,-0.09942911565303802,0.06301677972078323
1769658836281915000,6.053914794921875,0.021349230781197548,-0.10485557466745377,0.07062490284442902
1769658836291902000,6.06390185546875,0.015490276739001274,-0.10776854306459427,0.06365647166967392
1769658836301889800,6.073889892578125,0.010608701966702938,-0.08371247351169586,0.05842895433306694
1769658836311878000,6.0838779296875,0.009147425182163715,-0.06613374501466751,0.05706168711185455
1769658836321866000,6.093865966796875,0.00890854001045227,-0.061105165630578995,0.05925293639302254
1769658836331853800,6.103853759765625,0.009996707551181316,-0.052856288850307465,0.053822483867406845
1769658836341841000,6.1138408203125,0.011265704408288002,-0.03694017603993416,0.042750924825668335
1769658836351828700,6.123828857421875,0.013516607694327831,-0.02550349570810795,0.028955752030014992
1769658836361816800,6.13381689453125,0.010418020188808441,-0.026285400614142418,0.01894812472164631
1769658836371805000,6.143804931640625,0.006091448478400707,-0.02972939983010292,0.01660347729921341
1769658836381791700,6.153791748046875,0.002275404753163457,-0.03032887727022171,0.018970495089888573
1769658836391779800,6.16377978515625,-0.0033510555513203144,-0.02118411473929882,0.02660178393125534
1769658836401768000,6.173767822265625,-0.00455879932269454,-0.014458035118877888,0.03348072990775108
1769658836411756000,6.183756103515625,-0.0004242415598127991,-0.013965883292257786,0.04207421466708183
1769658836421742800,6.193742919921875,0.012313125655055046,-0.0041100564412772655,0.05169142410159111
1769658836431731000,6.20373095703125,0.022532472386956215,0.008305334486067295,0.055204667150974274
1769658836441718800,6.21371875,0.024561535567045212,0.0034887411165982485,0.05505872517824173
1769658836451707000,6.223706787109375,0.0157691091299057,-0.00166633992921561,0.04356798529624939
1769658836461694000,6.23369384765625,0.006402239203453064,-0.008466455154120922,0.02845774032175541
1769658836471681800,6.243681884765625,-0.002130262553691864,-0.0073625752702355385,0.01564340852200985
1769658836481670000,6.253669921875,-0.011375159956514835,0.006403836887329817,0.013481453992426395
1769658836491658000,6.263657958984375,-0.017650365829467773,0.027521373704075813,0.005884254351258278
1769658836501644800,6.273644775390625,-0.018439993262290955,0.03669356554746628,-0.005153216887265444
1769658836511633000,6.2836328125,-0.01817554235458374,0.036734312772750854,-0.012106730602681637
1769658836521621000,6.29362109375,-0.018086591735482216,0.03749970346689224,-0.014668690972030163
1769658836531608800,6.30360888671875,-0.015005314722657204,0.04080814868211746,-0.0075545888394117355
1769658836541596000,6.313595947265625,-0.008387093432247639,0.04745779559016228,0.004662395920604467
1769658836551584000,6.323583984375,0.000032490566809428856,0.04592940956354141,0.011110974475741386
1769658836561571800,6.33357177734375,0.007370298262685537,0.04017804563045502,0.020383302122354507
1769658836571560000,6.343559814453125,0.005489307455718517,0.04486867040395737,0.022348714992403984
1769658836581547000,6.353547119140625,0.0010905644157901406,0.04478584602475166,0.01683756895363331
1769658836591534800,6.363534912109375,-0.0008327704854309559,0.04159032180905342,0.0068387314677238464
1769658836601523000,6.37352294921875,0.0035004590172320604,0.05537058040499687,0.0015211976133286953
1769658836611511000,6.383510986328125,0.01732386276125908,0.07283372431993484,0.004515655804425478
1769658836621497900,6.393497802734375,0.029768016189336777,0.06812579184770584,0.013449495658278465
1769658836631486000,6.40348583984375,0.030347518622875214,0.05839113891124725,0.019780095666646957
1769658836641474000,6.41347412109375,0.02250557579100132,0.05073002353310585,0.018686601892113686
1769658836651462000,6.4234619140625,0.006490656174719334,0.03875325620174408,0.01757366769015789
1769658836661449000,6.433448974609375,-0.004893292207270861,0.026080869138240814,0.015213041566312313
1769658836671437000,6.44343701171875,-0.012031895108520985,0.01901603490114212,0.016443688422441483
1769658836681425000,6.4534248046875,-0.017061540856957436,0.009280317462980747,0.010662497952580452
1769658836691413000,6.4634130859375,-0.020066386088728905,0.0033153691329061985,-0.0010599381057545543
1769658836701399800,6.47339990234375,-0.019246399402618408,0.009516539983451366,-0.002475142013281584
1769658836711388000,6.483387939453125,-0.011231082491576672,0.01888447441160679,0.01774544082581997
1769658836721376000,6.4933759765625,0.0010133327450603247,0.02684466354548931,0.04249126836657524
1769658836731364000,6.503364013671875,0.013460415415465832,0.01589001715183258,0.0645933747291565
1769658836741351000,6.513350830078125,0.015989352017641068,-0.007286142557859421,0.07159535586833954
1769658836751339000,6.523339111328125,0.010751713998615742,-0.007397196255624294,0.07143476605415344
1769658836761327000,6.5333271484375,-0.004459463059902191,-0.04206090047955513,0.07185927778482437
1769658836771315000,6.54331494140625,-0.023850204423069954,-0.06331159174442291,0.06691165268421173
1769658836781302000,6.553302001953125,-0.05109034851193428,-0.06265139579772949,0.05668138712644577
1769658836791289900,6.563289794921875,-0.07123769074678421,-0.0571514368057251,0.0430675745010376
1769658836801278000,6.57327783203125,-0.08412712812423706,-0.05511598289012909,0.030858846381306648
1769658836811266000,6.58326611328125,-0.09134216606616974,-0.06350254267454147,0.01943175494670868
1769658836821252900,6.5932529296875,-0.09188065677881241,-0.07188910245895386,0.01019697729498148
1769658836831241000,6.603240966796875,-0.08451461791992188,-0.07175754010677338,0.005997172556817532
1769658836841229000,6.61322900390625,-0.07700077444314957,-0.07663512229919434,0.0107093695551157
1769658836851217200,6.623217041015625,-0.07385185360908508,-0.05634370073676109,0.015508386306464672
1769658836861204000,6.633203857421875,-0.07767455279827118,-0.05166665464639664,0.007995608262717724
1769658836871192000,6.643192138671875,-0.0868653878569603,-0.052504751831293106,-0.008213721215724945
1769658836881180000,6.653179931640625,-0.0946253091096878,-0.03844486176967621,-0.035658929497003555
1769658836891168000,6.66316796875,-0.1003417819738388,-0.01733531430363655,-0.0683676078915596
1769658836901155000,6.673155029296875,-0.09674012660980225,-0.0021142836194485426,-0.09780219197273254
1769658836911143000,6.683142822265625,-0.09482291340827942,-0.0016562198288738728,-0.10625506937503815
1769658836921131000,6.693131103515625,-0.09765492379665375,0.032466329634189606,-0.10569606721401215
1769658836931118800,6.703118896484375,-0.08553407341241837,0.054499462246894836,-0.1080939769744873
1769658836941107000,6.71310693359375,-0.07538929581642151,0.05795304849743843,-0.10530325025320053
1769658836951094000,6.723093994140625,-0.059901151806116104,0.06671910732984543,-0.09829700738191605
1769658836961081900,6.733081787109375,-0.05889687314629555,0.06144338846206665,-0.09010965377092361
1769658836971069700,6.743069580078125,-0.06404902040958405,0.041005756705999374,-0.08245386183261871
1769658836981057800,6.753057861328125,-0.07202758640050888,0.045708365738391876,-0.09989463537931442
1769658836991045000,6.763045166015625,-0.08778391778469086,0.05055292323231697,-0.1387118101119995
1769658837001032700,6.77303271484375,-0.1131364107131958,0.13811366260051727,-0.18893450498580933
1769658837011020800,6.783020751953125,-0.11446106433868408,0.21460843086242676,-0.23113387823104858
1769658837021009000,6.7930087890625,-0.1026611328125,0.10571204870939255,-0.277165025472641
1769658837030996000,6.802995849609375,-0.11200270056724548,0.03140506148338318,-0.2714269757270813
1769658837040983800,6.81298388671875,-0.135908305644989,0.06801100820302963,-0.1966390311717987
1769658837050972000,6.822971923828125,-0.16595861315727234,0.06793537735939026,-0.12432701140642166
1769658837060959700,6.832959716796875,-0.15507985651493073,0.02893684245646,-0.11195716261863708
1769658837070946800,6.84294677734375,-0.14899347722530365,0.01992497220635414,-0.11925236135721207
1769658837080935000,6.852934814453125,-0.15455229580402374,0.02827504649758339,-0.11800892651081085
1769658837090922800,6.8629228515625,-0.15962108969688416,0.015780560672283173,-0.11633513122797012
1769658837100910800,6.872910888671875,-0.15480662882328033,-0.014397847466170788,-0.1259201169013977
1769658837110898000,6.88289794921875,-0.1471439152956009,-0.0034732946660369635,-0.13671709597110748
1769658837120885800,6.8928857421875,-0.12067368626594543,0.035946015268564224,-0.14650848507881165
1769658837130873900,6.902873779296875,-0.09232620149850845,0.06549298763275146,-0.1480749547481537
1769658837140862000,6.912862060546875,-0.06922966986894608,0.09935455024242401,-0.14193104207515717
1769658837150848800,6.922848876953125,-0.06694547832012177,0.1118362545967102,-0.13000459969043732
1769658837160836600,6.932836669921875,-0.072289377450943,0.0902276337146759,-0.11357396841049194
1769658837170824700,6.94282470703125,-0.08896342664957047,0.06278029084205627,-0.10075191408395767
1769658837180812800,6.952812744140625,-0.09508337080478668,0.04337037727236748,-0.09217440336942673
1769658837190799600,6.962799560546875,-0.10055457055568695,0.021892249584197998,-0.08401207625865936
1769658837200787700,6.97278759765625,-0.10332638770341873,0.025736788287758827,-0.07457250356674194
1769658837210775800,6.98277587890625,-0.1070641353726387,0.032636504620313644,-0.0644567534327507
1769658837220763600,6.992763671875,-0.11445999890565872,0.018424279987812042,-0.06567355245351791
1769658837230750700,7.002750732421875,-0.1210412010550499,0.009119994938373566,-0.07020998001098633
1769658837240738800,7.01273876953125,-0.11903025209903717,0.01792094297707081,-0.07411950081586838
1769658837250726700,7.0227265625,-0.11572979390621185,0.04169151932001114,-0.08126422762870789
1769658837260714800,7.03271484375,-0.11101067066192627,0.06076694279909134,-0.08993495255708694
1769658837270701600,7.04270166015625,-0.11405892670154572,0.07812729477882385,-0.09463409334421158
1769658837280689700,7.052689697265625,-0.12011202424764633,0.07464094460010529,-0.09791457653045654
1769658837290677800,7.062677734375,-0.12966717779636383,0.06286178529262543,-0.09685410559177399
1769658837300665900,7.072665771484375,-0.13993553817272186,0.05812881514430046,-0.08471675217151642
1769658837310653700,7.08265380859375,-0.1485239565372467,0.06962142139673233,-0.07033994048833847
1769658837320640800,7.092640869140625,-0.15488651394844055,0.08799270540475845,-0.046361640095710754
1769658837330628900,7.10262890625,-0.15889137983322144,0.0991702601313591,-0.02696423977613449
1769658837340616700,7.11261669921875,-0.1573222428560257,0.1052025854587555,-0.03278271481394768
1769658837350604800,7.122604736328125,-0.1516830027103424,0.11070068180561066,-0.04532300680875778
1769658837360591600,7.132591552734375,-0.14304398000240326,0.10755708813667297,-0.06142847239971161
1769658837370579700,7.142579833984375,-0.14299604296684265,0.11799348145723343,-0.07911239564418793
1769658837380567800,7.15256787109375,-0.14130866527557373,0.13541294634342194,-0.09511958807706833
1769658837390556000,7.162555908203125,-0.1445273607969284,0.1523730307817459,-0.10853073745965958
1769658837400542700,7.172542724609375,-0.14105352759361267,0.15386652946472168,-0.12407374382019043
1769658837410530800,7.18253076171875,-0.13453038036823273,0.13538259267807007,-0.14557583630084991
1769658837420518700,7.1925185546875,-0.13014309108257294,0.1282692849636078,-0.16322061419487
1769658837430506800,7.2025068359375,-0.12518587708473206,0.13192208111286163,-0.16908062994480133
1769658837440493800,7.212493896484375,-0.12287771701812744,0.13469895720481873,-0.17301811277866364
1769658837450481700,7.222481689453125,-0.11371005326509476,0.13035747408866882,-0.17948667705059052
1769658837460469800,7.2324697265625,-0.11149803549051285,0.132024884223938,-0.18754325807094574
1769658837470457900,7.242457763671875,-0.11284852027893066,0.13748888671398163,-0.19791175425052643
1769658837480444700,7.252444580078125,-0.10846229642629623,0.15180604159832,-0.21178974211215973
1769658837490432800,7.262432861328125,-0.09418322145938873,0.15121561288833618,-0.21866869926452637
1769658837500420900,7.2724208984375,-0.07504761219024658,0.14912956953048706,-0.2306521236896515
1769658837510408700,7.28240869140625,-0.06163034215569496,0.1525551825761795,-0.2287255823612213
1769658837520395800,7.292395751953125,-0.052794504910707474,0.1640230268239975,-0.205193892121315
1769658837530384000,7.3023837890625,-0.03930879011750221,0.18097670376300812,-0.20087824761867523
1769658837540371700,7.312371826171875,-0.04314560443162918,0.1765630543231964,-0.16234417259693146
1769658837550359800,7.32235986328125,-0.03680994734168053,0.13981889188289642,-0.10593096166849136
1769658837560347000,7.332346923828125,-0.03389298543334007,0.08942361921072006,-0.05603610351681709
1769658837570334700,7.342334716796875,-0.03795963153243065,0.05181632563471794,-0.02178172767162323
1769658837580322800,7.35232275390625,-0.05811470374464989,0.03952184319496155,-0.015849003568291664
1769658837590311000,7.362310791015625,-0.08334655314683914,0.04105449095368385,-0.02521906979382038
1769658837600297700,7.372297607421875,-0.11210229992866516,0.063696950674057,-0.051893558353185654
1769658837610285800,7.382285888671875,-0.12976199388504028,0.11059655249118805,-0.07631368190050125
1769658837620274000,7.39227392578125,-0.11754420399665833,0.11372283846139908,-0.07884767651557922
1769658837630261800,7.40226171875,-0.08828885108232498,0.10730515420436859,-0.07573896646499634
1769658837640249900,7.412249755859375,-0.04091867059469223,0.10077960789203644,-0.06045854836702347
1769658837650237000,7.42223681640625,0.008826514706015587,0.11097418516874313,-0.02671843022108078
1769658837660224800,7.432224853515625,0.05235934630036354,0.1328728348016739,0.0038133803755044937
1769658837670212900,7.442212890625,0.07716216146945953,0.14036962389945984,0.02316364273428917
1769658837680200700,7.45220068359375,0.08105224370956421,0.12952443957328796,0.011384480632841587
1769658837690187800,7.462187744140625,0.06697184592485428,0.10525744408369064,-0.027049994096159935
1769658837700176000,7.47217578125,0.035461585968732834,0.07169895619153976,-0.07518450170755386
1769658837710163700,7.482163818359375,-0.008434764109551907,0.036252014338970184,-0.11790799349546432
1769658837720151600,7.492151611328125,-0.04470435529947281,0.008709868416190147,-0.1425829827785492
1769658837730139000,7.502138916015625,-0.07986234128475189,-0.01260980125516653,-0.15393976867198944
1769658837740127000,7.512126953125,-0.10942342877388,-0.02375619485974312,-0.15088964998722076
1769658837750114600,7.522114501953125,-0.1250191628932953,-0.03939880430698395,-0.1372622549533844
1769658837760102700,7.5321025390625,-0.1353282630443573,-0.061892129480838776,-0.12136691063642502
1769658837770090000,7.542090087890625,-0.1464538872241974,-0.09931300580501556,-0.10620260238647461
1769658837780077600,7.55207763671875,-0.1581299751996994,-0.11287222057580948,-0.0927770733833313
1769658837790065700,7.562065673828125,-0.1589134782552719,-0.11428343504667282,-0.079498291015625
1769658837800053800,7.5720537109375,-0.1550644189119339,-0.087857685983181,-0.06469803303480148
1769658837810040800,7.582040771484375,-0.15398263931274414,-0.05477749556303024,-0.058585017919540405
1769658837820028700,7.592028564453125,-0.1495407521724701,-0.03166525065898895,-0.06233048439025879
1769658837830016800,7.602016845703125,-0.1519831418991089,-0.04013969749212265,-0.0715588703751564
1769658837840004600,7.612004638671875,-0.1411304920911789,-0.04006432741880417,-0.07803328335285187
1769658837849991700,7.62199169921875,-0.13614904880523682,-0.020782509818673134,-0.07889774441719055
1769658837859979800,7.631979736328125,-0.14286953210830688,0.0031289479229599237,-0.0897594466805458
1769658837869967600,7.641967529296875,-0.1436181515455246,0.013560550287365913,-0.09750338643789291
1769658837879955700,7.651955810546875,-0.14212119579315186,0.014692393131554127,-0.09950661659240723
1769658837889942500,7.661942626953125,-0.12860004603862762,-0.01158634852617979,-0.09844934195280075
1769658837899930600,7.6719306640625,-0.12481597065925598,-0.0243732500821352,-0.08979060500860214
1769658837909918700,7.681918701171875,-0.11365998536348343,-0.026384735479950905,-0.06957321614027023
1769658837919906800,7.69190673828125,-0.10455703735351562,-0.04204918444156647,-0.05468348413705826
1769658837929894700,7.701894775390625,-0.09446658194065094,-0.08176171034574509,-0.04526867717504501
1769658837939881700,7.7118818359375,-0.0838799849152565,-0.12624022364616394,-0.03274649381637573
1769658837949869800,7.721869873046875,-0.07031890749931335,-0.14487303793430328,-0.02623080462217331
1769658837959857700,7.731857666015625,-0.04863011837005615,-0.1465660035610199,-0.022646723315119743
1769658837969845800,7.741845703125,-0.03534307703375816,-0.14336808025836945,-0.014390923082828522
1769658837979832600,7.75183251953125,-0.021343370899558067,-0.14917030930519104,-0.01623915694653988
1769658837989820700,7.761820556640625,-0.011396731249988079,-0.15584765374660492,-0.02159903571009636
1769658837999808800,7.771808837890625,0.011468636803328991,-0.16120406985282898,-0.03087242878973484
1769658838009796900,7.781796875,0.04266570508480072,-0.14218910038471222,-0.03394225239753723
1769658838019783700,7.79178369140625,0.06193367391824722,-0.11319473385810852,-0.03340695798397064
1769658838029771800,7.801771728515625,0.06530524045228958,-0.08057314157485962,-0.05582518130540848
1769658838039759600,7.811759521484375,0.06763523817062378,-0.05750590190291405,-0.08166663348674774
1769658838049747700,7.821747802734375,0.06574811786413193,-0.04370087385177612,-0.11052065342664719
1769658838059734800,7.83173486328125,0.0690712109208107,-0.03266660124063492,-0.13308854401111603
1769658838069722600,7.84172265625,0.06981689482927322,-0.025053953751921654,-0.14339737594127655
1769658838079710700,7.851710693359375,0.06810635328292847,-0.030829817056655884,-0.1437814086675644
1769658838089698800,7.86169873046875,0.06245991587638855,-0.02377883344888687,-0.1395307332277298
1769658838099685600,7.871685546875,0.0515713170170784,-0.0299025047570467,-0.12144254148006439
1769658838109673700,7.881673828125,0.03340988978743553,-0.05137823522090912,-0.11585576087236404
1769658838119661800,7.891661865234375,0.008736233226954937,-0.0661606416106224,-0.14028014242649078
1769658838129649700,7.901649658203125,-0.016215987503528595,-0.08528213948011398,-0.15274347364902496
1769658838139636700,7.91163671875,-0.06253235042095184,-0.09965229034423828,-0.17062872648239136
1769658838149624800,7.921624755859375,-0.09524396061897278,-0.06541948765516281,-0.2054402381181717
1769658838159613000,7.931613037109375,-0.1296573281288147,0.025403359904885292,-0.23506444692611694
1769658838169601000,7.94160107421875,-0.14268125593662262,0.07106512039899826,-0.251798152923584
1769658838179587800,7.951587890625,-0.13398362696170807,0.05669816583395004,-0.2515334188938141
1769658838189576000,7.961575927734375,-0.10061901807785034,0.022457106038928032,-0.2218295931816101
1769658838199564000,7.97156396484375,-0.05012202262878418,0.018326543271541595,-0.17879238724708557
1769658838209552000,7.9815517578125,-0.004650411661714315,0.026819096878170967,-0.1376076638698578
1769658838219540000,7.9915400390625,0.024382570758461952,0.03868960589170456,-0.10637544095516205
1769658838229527000,8.001527099609374,0.03423147276043892,0.046665504574775696,-0.08437559753656387
1769658838239515000,8.011514892578125,0.02185123600065708,0.03721155226230621,-0.08201044797897339
1769658838249503000,8.0215029296875,-0.005612878128886223,0.021216604858636856,-0.0843481719493866
1769658838259491000,8.031490966796875,-0.04205876961350441,-0.002764094853773713,-0.0803169459104538
1769658838269478000,8.041477783203124,-0.0653369277715683,-0.036077309399843216,-0.07125766575336456
1769658838279466000,8.051466064453125,-0.0747714415192604,-0.07104568183422089,-0.058466240763664246
1769658838289454000,8.0614541015625,-0.06168253719806671,-0.09881392866373062,-0.05283232033252716
1769658838299442000,8.07144189453125,-0.03810477629303932,-0.1180880218744278,-0.04279966279864311
1769658838309429000,8.081428955078126,-0.013872938230633736,-0.12840084731578827,-0.02641296572983265
1769658838319417000,8.0914169921875,-0.008069111965596676,-0.14320988953113556,-0.015739815309643745
1769658838329405000,8.101405029296876,-0.01170139666646719,-0.16456976532936096,-0.008927981369197369
1769658838339393000,8.11139306640625,-0.022531673312187195,-0.1958022564649582,-0.005505286622792482
1769658838349380000,8.121380126953126,-0.035410720854997635,-0.22359128296375275,-0.004704474005848169
1769658838359368000,8.131367919921875,-0.031553663313388824,-0.23996040225028992,-0.008051268756389618
1769658838369356000,8.14135595703125,-0.019941218197345734,-0.24128399789333344,0.0014889733865857124
1769658838379344000,8.15134375,-0.0017249294323846698,-0.22603926062583923,0.010511763393878937
1769658838389331000,8.1613310546875,0.017540112137794495,-0.20292408764362335,0.018157431855797768
1769658838399319000,8.171319091796875,0.042380478233098984,-0.17228788137435913,0.030304376035928726
1769658838409307000,8.181306884765625,0.06678035855293274,-0.14459286630153656,0.029764553532004356
1769658838419294700,8.191294677734374,0.07310324162244797,-0.12199727445840836,0.010750648565590382
1769658838429282000,8.201281982421875,0.06810608506202698,-0.10431548953056335,-0.019054917618632317
1769658838439270100,8.211270263671874,0.04272669181227684,-0.11930588632822037,-0.03762327507138252
1769658838449257700,8.2212578125,0.009224923327565193,-0.17419816553592682,-0.03640221431851387
1769658838459245800,8.231245849609374,-0.021706894040107727,-0.21497754752635956,-0.021336713805794716
1769658838469234000,8.24123388671875,-0.03584188595414162,-0.23519892990589142,0.006680007092654705
1769658838479221000,8.251220947265624,-0.03134087845683098,-0.24836747348308563,0.040827058255672455
1769658838489208800,8.261208740234375,-0.01053120382130146,-0.2458566427230835,0.0699271559715271
1769658838499197000,8.271197021484374,0.0178716741502285,-0.23750123381614685,0.09861046075820923
1769658838509184800,8.281184814453125,0.03964541479945183,-0.22464296221733093,0.10267923772335052
1769658838519171800,8.291171875,0.05896398425102234,-0.20574410259723663,0.09574037045240402
1769658838529160000,8.301159912109375,0.06866455078125,-0.17584453523159027,0.10206937789916992
1769658838539147800,8.311147705078126,0.07355304807424545,-0.1639641672372818,0.11124103516340256
1769658838549136000,8.321135986328125,0.08081602305173874,-0.1715397983789444,0.11712049692869186
1769658838559122700,8.331122802734376,0.0812317356467247,-0.1770445555448532,0.10832594335079193
1769658838569110800,8.34111083984375,0.07483801990747452,-0.18314878642559052,0.09654305130243301
1769658838579099000,8.351098876953126,0.06018930301070213,-0.21066030859947205,0.0814056396484375
1769658838589087000,8.3610869140625,0.051849614828825,-0.2197275608778,0.0606529600918293
1769658838599073800,8.37107373046875,0.05555460602045059,-0.2089630663394928,0.037160951644182205
1769658838609062000,8.381061767578124,0.07189176976680756,-0.1822315901517868,0.0140785351395607
1769658838619050000,8.391050048828125,0.09743733704090118,-0.13896241784095764,0.0006202502408996224
1769658838629037800,8.401037841796875,0.1255113184452057,-0.08680280297994614,-0.0029284118209034204
1769658838639025000,8.41102490234375,0.1439473181962967,-0.04915183410048485,0.0017190704820677638
1769658838649012700,8.4210126953125,0.15138845145702362,-0.026641463860869408,0.00941826868802309
1769658838659000800,8.431000732421875,0.1508968323469162,-0.010439058765769005,0.017702564597129822
1769658838668989000,8.440989013671874,0.12657098472118378,-0.0037952708080410957,0.013544304296374321
1769658838678975700,8.450975830078125,0.09043988585472107,-0.016860205680131912,0.0076091839000582695
1769658838688963800,8.4609638671875,0.04549983888864517,-0.0508250966668129,-0.004523645620793104
1769658838698952000,8.470951904296875,0.010495251044631004,-0.08077340573072433,-0.01624794490635395
1769658838708940000,8.48093994140625,-0.005917810369282961,-0.09776037931442261,-0.015326757915318012
1769658838718928000,8.490927978515625,-0.0003779025573749095,-0.10270959883928299,-0.01576857641339302
1769658838728915000,8.5009150390625,0.024092819541692734,-0.09658726304769516,-0.007907457649707794
1769658838738902800,8.51090283203125,0.050576891750097275,-0.09945788234472275,0.013907293789088726
1769658838748891000,8.520890869140626,0.056531187146902084,-0.10812433809041977,0.03961185738444328
1769658838758879000,8.53087890625,0.04772571101784706,-0.11106207221746445,0.057067811489105225
1769658838768865800,8.54086572265625,0.02997254580259323,-0.1185695230960846,0.0650825947523117
1769658838778854000,8.55085400390625,0.021767612546682358,-0.11405759304761887,0.06731485575437546
1769658838788842000,8.560842041015626,0.03293744474649429,-0.09397602826356888,0.0733831375837326
1769658838798830000,8.570830078125,0.060377322137355804,-0.08731412887573242,0.09463755786418915
1769658838808817000,8.58081689453125,0.08020935207605362,-0.10782340168952942,0.11285411566495895
1769658838818805000,8.590804931640625,0.08739083260297775,-0.14257551729679108,0.12395763397216797
1769658838828792800,8.600792724609375,0.08426135033369064,-0.19762705266475677,0.13346324861049652
1769658838838781000,8.610781005859375,0.06795934587717056,-0.2570802569389343,0.13826413452625275
1769658838848768000,8.62076806640625,0.040287502110004425,-0.2932955324649811,0.1273891180753708
1769658838858755800,8.630755859375,0.019933493807911873,-0.3093213737010956,0.1284639686346054
1769658838868744000,8.640743896484375,0.008126902393996716,-0.3179156482219696,0.13542573153972626
1769658838878732000,8.65073193359375,0.010128268040716648,-0.30902016162872314,0.13240784406661987
1769658838888718800,8.66071875,0.02039102464914322,-0.30542436242103577,0.1448514610528946
1769658838898707000,8.67070703125,0.03305009379982948,-0.3183196485042572,0.16568218171596527
1769658838908695000,8.680695068359375,0.03752953186631203,-0.33482858538627625,0.17995351552963257
1769658838918683000,8.690682861328124,0.04565270617604256,-0.3548299968242645,0.20313660800457
1769658838928671000,8.7006708984375,0.05625581368803978,-0.35918134450912476,0.22670398652553558
1769658838938658000,8.710657958984376,0.07449819892644882,-0.35416021943092346,0.23388360440731049
1769658838948646000,8.72064599609375,0.07732728123664856,-0.35304513573646545,0.24314820766448975
1769658838958634000,8.730634033203126,0.06751912087202072,-0.3580617308616638,0.2504998743534088
1769658838968622000,8.7406220703125,0.05175800248980522,-0.36520621180534363,0.2528999149799347
1769658838978609000,8.75060888671875,0.03303651139140129,-0.37792733311653137,0.2582368850708008
1769658838988597000,8.760596923828125,0.008856342174112797,-0.3928431570529938,0.27209463715553284
1769658838998585000,8.770585205078126,0.0012610068079084158,-0.39982250332832336,0.29115620255470276
1769658839008573000,8.780572998046875,0.00341523764654994,-0.38848569989204407,0.2830088138580322
1769658839018560000,8.79056005859375,0.007981227710843086,-0.3705386519432068,0.2511696517467499
1769658839028548000,8.800548095703125,0.025363147258758545,-0.35885217785835266,0.22095447778701782
1769658839038536000,8.810535888671875,0.029211681336164474,-0.34345296025276184,0.19634154438972473
1769658839048523800,8.820523681640625,0.03416276350617409,-0.3203098475933075,0.1777132749557495
1769658839058511000,8.830510986328125,0.04198473319411278,-0.30055105686187744,0.1682278960943222
1769658839068499000,8.8404990234375,0.04634859040379524,-0.27844148874282837,0.17393557727336884
1769658839078487000,8.850487060546875,0.04826340451836586,-0.24679194390773773,0.17830155789852142
1769658839088475000,8.860474853515624,0.049204032868146896,-0.2336641550064087,0.17272330820560455
1769658839098462000,8.8704619140625,0.03557956591248512,-0.2190476655960083,0.16260968148708344
1769658839108450000,8.880449951171874,0.027148263528943062,-0.21492882072925568,0.1520925909280777
1769658839118438000,8.89043798828125,0.018800586462020874,-0.21072208881378174,0.12277518957853317
1769658839128425700,8.90042578125,0.007715710438787937,-0.22251670062541962,0.08514472097158432
1769658839138413000,8.9104130859375,-0.0033129723742604256,-0.2335568219423294,0.05925613269209862
1769658839148400600,8.920400634765626,-0.01480504497885704,-0.24041952192783356,0.05645954608917236
1769658839158388700,8.930388671875,-0.02293434366583824,-0.248023122549057,0.07847962528467178
1769658839168376300,8.940376220703126,-0.024022778496146202,-0.24827159941196442,0.11668054014444351
1769658839178364400,8.950364501953125,-0.03621393069624901,-0.23314137756824493,0.15678854286670685
1769658839188351500,8.9603515625,-0.043777041137218475,-0.23090246319770813,0.17515318095684052
1769658839198339600,8.970339599609375,-0.04566415771842003,-0.2687031030654907,0.1697847694158554
1769658839208327400,8.980327392578126,-0.043118175119161606,-0.25559982657432556,0.1849362999200821
1769658839218315500,8.9903154296875,-0.03422588109970093,-0.23862455785274506,0.18610621988773346
1769658839228302600,9.000302490234375,-0.037748176604509354,-0.2628425359725952,0.1901044249534607
1769658839238290400,9.01029052734375,-0.04668654501438141,-0.25541311502456665,0.1973586082458496
1769658839248278500,9.020278564453125,-0.05886544659733772,-0.23173336684703827,0.19584619998931885
1769658839258266400,9.030266357421874,-0.06961449980735779,-0.2437215894460678,0.18949030339717865
1769658839268253400,9.04025341796875,-0.06722244620323181,-0.2668626010417938,0.19374603033065796
1769658839278241300,9.0502412109375,-0.05793919786810875,-0.26274240016937256,0.21536104381084442
1769658839288229400,9.0602294921875,-0.04784928262233734,-0.27598151564598083,0.24850594997406006
1769658839298217500,9.070217529296874,-0.044377051293849945,-0.28120824694633484,0.26019349694252014
1769658839308204300,9.080204345703125,-0.04483058676123619,-0.28432226181030273,0.254523366689682
1769658839318192400,9.0901923828125,-0.05582784488797188,-0.28282371163368225,0.2452089637517929
1769658839328180500,9.100180419921875,-0.06506608426570892,-0.27823400497436523,0.24486753344535828
1769658839338168600,9.11016845703125,-0.06856468319892883,-0.28261733055114746,0.2512415647506714
1769658839348155400,9.1201552734375,-0.05396203324198723,-0.29974836111068726,0.2529667317867279
1769658839358143500,9.1301435546875,-0.033125463873147964,-0.30087995529174805,0.24946282804012299
1769658839368131300,9.14013134765625,-0.012897955253720284,-0.2949877083301544,0.2484409660100937
1769658839378119400,9.150119384765626,0.005301554687321186,-0.28726425766944885,0.23424632847309113
1769658839388107500,9.160107421875,0.004127100575715303,-0.28358298540115356,0.21651072800159454
1769658839398094300,9.17009423828125,0.001163268811069429,-0.3180552124977112,0.2151613086462021
1769658839408082400,9.18008251953125,-0.001874332781881094,-0.33935117721557617,0.20830713212490082
1769658839418070500,9.190070556640626,-0.010937069542706013,-0.33002397418022156,0.18859654664993286
1769658839428058400,9.200058349609375,-0.02570190094411373,-0.3133983910083771,0.17254647612571716
1769658839438045400,9.21004541015625,-0.035418711602687836,-0.3093504011631012,0.14785923063755035
1769658839448033500,9.220033447265624,-0.029271069914102554,-0.2992689907550812,0.12536883354187012
1769658839458021400,9.230021484375,-0.018061291426420212,-0.28533026576042175,0.10242517292499542
1769658839468009500,9.240009521484374,0.0038285604678094387,-0.27322089672088623,0.07988790422677994
1769658839477996500,9.24999658203125,0.03183622658252716,-0.2512250244617462,0.06254753470420837
1769658839487984400,9.259984375,0.05844253674149513,-0.2306009829044342,0.05565314367413521
1769658839497972500,9.269972412109375,0.06943447142839432,-0.2140773981809616,0.057681936770677567
1769658839507960600,9.279960693359374,0.06732737272977829,-0.2199387550354004,0.05926385521888733
1769658839517947400,9.289947509765625,0.048776328563690186,-0.22939670085906982,0.04894464090466499
1769658839527935500,9.299935546875,0.026034263893961906,-0.23863548040390015,0.04633980244398117
1769658839537923600,9.309923583984375,-0.0002055960358120501,-0.23948796093463898,0.040638238191604614
1769658839547911400,9.319911376953126,-0.01733238436281681,-0.25618064403533936,0.0436907559633255
1769658839557898500,9.3298984375,-0.02941674366593361,-0.26661917567253113,0.04856567084789276
1769658839567886600,9.339886474609376,-0.02208266593515873,-0.27262407541275024,0.04903358966112137
1769658839577874400,9.34987451171875,-0.011995144188404083,-0.2596534192562103,0.03389059007167816
1769658839587862500,9.359862548828126,-0.0009323726990260184,-0.2372887134552002,0.003034672001376748
1769658839597850600,9.3698505859375,0.0007968177669681609,-0.21071437001228333,-0.024295220151543617
1769658839607837400,9.37983740234375,-0.001573928166180849,-0.20135654509067535,-0.031207187101244926
1769658839617825500,9.389825439453125,-0.01061855535954237,-0.20828716456890106,-0.0367838479578495
1769658839627813600,9.399813720703126,-0.02105148881673813,-0.2205938994884491,-0.04964558407664299
1769658839637801500,9.409801513671875,-0.02984284982085228,-0.22077205777168274,-0.054060038179159164
1769658839647788500,9.41978857421875,-0.03988749533891678,-0.2041936069726944,-0.05891311913728714
1769658839657776600,9.429776611328125,-0.0412244014441967,-0.19499506056308746,-0.05604010075330734
1769658839667764500,9.439764404296875,-0.038535673171281815,-0.1911478489637375,-0.03849253058433533
1769658839677752600,9.449752685546875,-0.016629043966531754,-0.1813996136188507,-0.024094684049487114
1769658839687739600,9.45973974609375,0.013058277778327465,-0.1687980741262436,-0.01902375929057598
1769658839697727500,9.4697275390625,0.04321831092238426,-0.16825371980667114,-0.03001702018082142
1769658839707715600,9.479715576171875,0.06713056564331055,-0.14835138618946075,-0.03989867866039276
1769658839717703700,9.48970361328125,0.08267783373594284,-0.11436865478754044,-0.04000573977828026
1769658839727690500,9.4996904296875,0.09414567053318024,-0.09263992309570312,-0.03833087906241417
1769658839737678600,9.5096787109375,0.09739739447832108,-0.09301409870386124,-0.01666819304227829
1769658839747666700,9.519666748046875,0.09589776396751404,-0.10631045699119568,0.013792777433991432
1769658839757654500,9.529654541015624,0.08001494407653809,-0.13706810772418976,0.047751277685165405
1769658839767641600,9.5396416015625,-0.007840346544981003,-0.15037086606025696,0.06581256538629532
1769658839777629700,9.549629638671876,-0.0951792448759079,-0.1815309077501297,-0.02888544462621212
1769658839787617500,9.559617431640625,-0.05264004319906235,-0.22489330172538757,-0.24134737253189087
1769658839797605600,9.569605712890626,-0.04506414756178856,-0.07343985885381699,-0.3685407340526581
1769658839807593500,9.579593505859375,-0.0997641459107399,0.11595775932073593,-0.2950870394706726
1769658839817580500,9.58958056640625,-0.154328852891922,0.0813388004899025,-0.11349274218082428
1769658839827568600,9.599568603515625,-0.2292899191379547,-0.10868014395236969,-0.10846628993749619
1769658839837556500,9.609556396484376,-0.17179173231124878,-0.03218802809715271,-0.23441889882087708
1769658839847544300,9.61954443359375,-0.22537879645824432,-0.046908918768167496,-0.3151065409183502
1769658839857531600,9.62953173828125,-0.1964869648218155,0.21838480234146118,-0.26544126868247986
1769658839867519700,9.639519775390625,-0.15748336911201477,0.2502308785915375,-0.18011757731437683
1769658839877507300,9.64950732421875,-0.13623373210430145,0.0750659853219986,-0.12354271113872528
1769658839887495400,9.659495361328124,-0.1390947699546814,-0.0016357135027647018,-0.05510426312685013
1769658839897482500,9.669482421875,-0.16572105884552002,-0.015835154801607132,0.01678111031651497
1769658839907470600,9.679470703125,-0.1861829161643982,-0.06604426354169846,0.01792520470917225
1769658839917458400,9.68945849609375,-0.2273322194814682,-0.11903238296508789,-0.012486230581998825
1769658839927446500,9.699446533203124,-0.24457699060440063,-0.12984588742256165,-0.02635544165968895
1769658839937433600,9.70943359375,-0.2392653077840805,-0.10327951610088348,-0.027598071843385696
1769658839947421400,9.71942138671875,-0.20616808533668518,-0.06855056434869766,-0.03863154724240303
1769658839957409500,9.729409423828125,-0.16689923405647278,-0.0408765934407711,-0.06066308170557022
1769658839967397400,9.7393974609375,-0.12914679944515228,-0.013173592276871204,-0.08684461563825607
1769658839977384400,9.749384521484375,-0.09921180456876755,0.005813946947455406,-0.1090383380651474
1769658839987372300,9.759372314453126,-0.07183238118886948,0.012403672561049461,-0.13043230772018433
1769658839997360400,9.7693603515625,-0.05193403735756874,0.014255634509027004,-0.14032302796840668
1769658840007348500,9.779348388671876,-0.03743791952729225,0.027877436950802803,-0.13393543660640717
1769658840017336600,9.789336669921875,-0.02810007706284523,0.060316868126392365,-0.12995533645153046
1769658840027323400,9.799323486328126,-0.02160302922129631,0.08044636994600296,-0.13228747248649597
1769658840037311500,9.8093115234375,-0.022098910063505173,0.07790545374155045,-0.13913099467754364
1769658840047299300,9.81929931640625,-0.032157137989997864,0.06054377183318138,-0.13391278684139252
1769658840057287400,9.829287353515625,-0.03924594074487686,0.056171659380197525,-0.11908590793609619
1769658840067274500,9.8392744140625,-0.05035664886236191,0.04651983082294464,-0.09333820641040802
1769658840077262300,9.849262451171874,-0.05151592195034027,0.034388069063425064,-0.06373663246631622
1769658840087250400,9.85925048828125,-0.048888977617025375,0.03940439596772194,-0.053168680518865585
1769658840097238500,9.869238525390625,-0.04328275844454765,0.04753423109650612,-0.060985591262578964
1769658840107225300,9.879225341796875,-0.0393332913517952,0.055936768651008606,-0.07726655900478363
1769658840117213400,9.88921337890625,-0.03663630783557892,0.06305539608001709,-0.0953448936343193
1769658840127201500,9.899201416015625,-0.028067586943507195,0.07096951454877853,-0.10177722573280334
1769658840137189400,9.909189453125,-0.010244914330542088,0.07957764714956284,-0.09103243798017502
1769658840147176400,9.919176513671875,0.012901417911052704,0.08331779390573502,-0.07409366965293884
1769658840157164800,9.929164794921874,0.035828571766614914,0.0766814649105072,-0.05505179986357689
1769658840167153000,9.93915283203125,0.06988747417926788,0.09595608711242676,-0.03458567336201668
1769658840177141000,9.94914111328125,0.09003854542970657,0.0883687436580658,-0.018281802535057068
1769658840187127800,9.9591279296875,0.10899146646261215,0.103166863322258,-0.011412976309657097
1769658840197116000,9.969115966796876,0.11236515641212463,0.0998016968369484,-0.016164854168891907
1769658840207104000,9.97910400390625,0.09250090271234512,0.07318739593029022,-0.026460636407136917
1769658840217092000,9.989092041015626,0.07521805167198181,0.08176810294389725,-0.02876959554851055
1769658840227080000,9.999079833984375,0.06863019615411758,0.11205197125673294,-0.03261653333902359
1769658840237067000,10.00906689453125,0.08033584803342819,0.11814475059509277,-0.022248048335313797
1769658840247054800,10.019054931640625,0.10105711221694946,0.13232794404029846,-0.010962369851768017
1769658840257043000,10.02904296875,0.12671320140361786,0.138639897108078,-0.012223110534250736
1769658840267031000,10.039031005859375,0.12859632074832916,0.1436341255903244,-0.030978688970208168
1769658840277017900,10.049017822265625,0.10972889512777328,0.1328267604112625,-0.05285203084349632
1769658840287006000,10.059005859375,0.07925434410572052,0.13004641234874725,-0.06195497885346413
1769658840296994000,10.068994140625,0.04633926972746849,0.11102105677127838,-0.05994908884167671
1769658840306982000,10.07898193359375,0.02742949314415455,0.08275773376226425,-0.05507710203528404
1769658840316969000,10.088968994140625,0.013272395357489586,0.07517650723457336,-0.05065225809812546
1769658840326957000,10.09895703125,0.005690376274287701,0.07874887436628342,-0.05082935839891434
1769658840336945000,10.10894482421875,0.006417952012270689,0.08294069021940231,-0.04044915735721588
1769658840346933000,10.11893310546875,0.009319465607404709,0.08035901933908463,-0.027785291895270348
1769658840356920000,10.128920166015625,0.010910971090197563,0.07326222956180573,-0.024587634950876236
1769658840366908000,10.138907958984374,0.005831523798406124,0.06720700114965439,-0.03544960170984268
1769658840376896000,10.14889599609375,-0.004895688965916634,0.05336202308535576,-0.03752899914979935
1769658840386884000,10.158884033203124,-0.01387080829590559,0.030670028179883957,-0.03958149626851082
1769658840396871000,10.168870849609375,-0.024982314556837082,0.00920495018362999,-0.03779345005750656
1769658840406859000,10.17885888671875,-0.03346821293234825,-0.007752195466309786,-0.03789811208844185
1769658840416847000,10.18884716796875,-0.04164997488260269,-0.020127905532717705,-0.041318945586681366
1769658840426835000,10.1988349609375,-0.04952627420425415,-0.030113959684967995,-0.04962028190493584
1769658840436822800,10.20882275390625,-0.05396123602986336,-0.04097992181777954,-0.05230208486318588
1769658840446810000,10.21881005859375,-0.05964335799217224,-0.04862266406416893,-0.05234496295452118
1769658840456798000,10.2287978515625,-0.057557303458452225,-0.05120113492012024,-0.05284004658460617
1769658840466785800,10.238785888671876,-0.05255082622170448,-0.04715818911790848,-0.0534999780356884
1769658840476774000,10.24877392578125,-0.05084054544568062,-0.03966085985302925,-0.0525529570877552
1769658840486761000,10.258760986328125,-0.05065225809812546,-0.029562152922153473,-0.047509994357824326
1769658840496748800,10.268748779296875,-0.052080512046813965,-0.021943116560578346,-0.041616685688495636
1769658840506737000,10.27873681640625,-0.04826473444700241,-0.021406222134828568,-0.0336487740278244
1769658840516724700,10.288724853515625,-0.04309713840484619,-0.023919181898236275,-0.032098546624183655
1769658840526712000,10.298712158203125,-0.039391081780195236,-0.02263393998146057,-0.029142173007130623
1769658840536700000,10.308699951171874,-0.03802274912595749,-0.023329025134444237,-0.031098797917366028
1769658840546687700,10.318687744140625,-0.041553836315870285,-0.03789252042770386,-0.030537668615579605
1769658840556675800,10.32867578125,-0.046475887298583984,-0.05283844843506813,-0.028504345566034317
1769658840566663000,10.338662841796875,-0.049847450107336044,-0.06239306926727295,-0.022787604480981827
1769658840576650800,10.348650634765624,-0.05139128491282463,-0.05855412408709526,-0.02082219161093235
1769658840586638800,10.358638916015625,-0.04863518103957176,-0.04963812604546547,-0.019989952445030212
1769658840596627000,10.368626953125,-0.041370075196027756,-0.037399303168058395,-0.01974440924823284
1769658840606613800,10.37861376953125,-0.04055701196193695,-0.02557273767888546,-0.02197134494781494
1769658840616601900,10.388601806640626,-0.040221989154815674,-0.021747905761003494,-0.024993499740958214
1769658840626590000,10.39858984375,-0.03929068148136139,-0.023575367406010628,-0.022660039365291595
1769658840636577800,10.408577880859376,-0.037106357514858246,-0.026014557108283043,-0.022180935367941856
1769658840646566000,10.41856591796875,-0.0363425612449646,-0.024946361780166626,-0.02437351644039154
1769658840656553000,10.428552978515626,-0.033912427723407745,-0.017836254090070724,-0.03425810486078262
1769658840666540800,10.438540771484375,-0.03110412321984768,-0.0022684806026518345,-0.03972397744655609
1769658840676529000,10.44852880859375,-0.03129720315337181,0.014289190992712975,-0.03807228431105614
1769658840686517000,10.45851708984375,-0.029698774218559265,0.022168418392539024,-0.026454510167241096
1769658840696503800,10.46850390625,-0.026977289468050003,0.009646235965192318,-0.0099008334800601
1769658840706492000,10.478491943359375,-0.025137843564152718,-0.00780545873567462,0.013095029629766941
1769658840716480000,10.48847998046875,-0.023787887766957283,-0.020304739475250244,0.0177579578012228
1769658840726467800,10.4984677734375,-0.0258726105093956,-0.02570190094411373,0.011293134652078152
1769658840736455000,10.508454833984375,-0.025831863284111023,-0.02172660082578659,-0.002216548891738057
1769658840746443000,10.518443115234374,-0.02243633382022381,-0.014551778323948383,-0.00812024436891079
1769658840756430800,10.528430908203125,-0.007538610137999058,-0.0008045409340411425,-0.01010776124894619
1769658840766419000,10.5384189453125,0.004303934518247843,0.024570323526859283,-0.017643176019191742
1769658840776405800,10.54840576171875,0.011772769503295422,0.04434802383184433,-0.025469673797488213
1769658840786393900,10.558393798828124,0.014255101792514324,0.04686897248029709,-0.02449202723801136
1769658840796382000,10.5683818359375,0.014723818749189377,0.03997191786766052,-0.018031997606158257
1769658840806370000,10.5783701171875,0.011755991727113724,0.03020237758755684,-0.004458398092538118
1769658840816356900,10.58835693359375,0.01008113007992506,0.02311304211616516,-0.005106611177325249
1769658840826345000,10.598344970703126,0.007873635739088058,0.022643793374300003,-0.013885188847780228
1769658840836333000,10.6083330078125,0.0060355220921337605,0.027117371559143066,-0.02009807713329792
1769658840846321000,10.61832080078125,0.007301056291908026,0.02882152795791626,-0.02460308000445366
1769658840856309000,10.62830908203125,0.009752229787409306,0.02569151483476162,-0.027053987607359886
1769658840866295800,10.6382958984375,0.011913650669157505,0.028672125190496445,-0.02598472870886326
1769658840876284000,10.648283935546875,0.012432700954377651,0.030050843954086304,-0.02564011514186859
1769658840886272000,10.65827197265625,0.011724034324288368,0.03449299558997154,-0.02539164200425148
1769658840896260000,10.668260009765625,0.010173807851970196,0.03356381878256798,-0.026450516656041145
1769658840906247000,10.678246826171875,0.008299209177494049,0.03269403055310249,-0.027574636042118073
1769658840916235000,10.688235107421875,0.0057617491111159325,0.035893552005290985,-0.025225196033716202
1769658840926222800,10.698222900390626,0.00003861583536490798,0.03587624058127403,-0.022368954494595528
1769658840936211000,10.7082109375,-0.005134041886776686,0.033846382051706314,-0.021083181723952293
1769658840946198000,10.718197998046875,-0.005887716542929411,0.033188313245773315,-0.02316204458475113
1769658840956185900,10.728185791015624,-0.008817460387945175,0.0303933247923851,-0.025971412658691406
1769658840966174000,10.738174072265625,-0.015456453897058964,0.023035012185573578,-0.027240674942731857
1769658840976162000,10.748162109375,-0.013317137025296688,0.020436566323041916,-0.018609371036291122
1769658840986148900,10.75814892578125,-0.01569587178528309,0.002442118711769581,-0.007963917218148708
1769658840996137000,10.768136962890624,-0.010155698284506798,-0.007238471880555153,-0.0026762105990201235
1769658841006125000,10.778125,-0.011363175697624683,-0.00025592977181077003,-0.007715976797044277
1769658841016113000,10.78811279296875,-0.01332858856767416,-0.0021907163318246603,-0.017553692683577538
1769658841026101000,10.79810107421875,-0.021213674917817116,-0.004083424806594849,-0.027604728937149048
1769658841036088000,10.808088134765624,-0.030478546395897865,0.003605920122936368,-0.024870729073882103
1769658841046076000,10.818075927734375,-0.03377367556095123,0.008379103615880013,-0.011651862412691116
1769658841056064000,10.82806396484375,-0.02936214953660965,0.014085458591580391,0.009191634133458138
1769658841066051800,10.8380517578125,-0.018486598506569862,0.010627077892422676,0.026210565119981766
1769658841076039000,10.848038818359376,-0.008698683232069016,0.010849718004465103,0.03581978380680084
1769658841086027000,10.858027099609375,-0.004309260752052069,0.01950445957481861,0.03262239322066307
1769658841096015000,10.86801513671875,-0.00037683729897253215,0.028434570878744125,0.02461160346865654
1769658841106002700,10.878002685546875,0.005526059307157993,0.03279229998588562,0.01534380204975605
1769658841115990000,10.887989990234376,0.007848069071769714,0.04066833481192589,0.005100485868752003
1769658841125978000,10.89797802734375,0.022413430735468864,0.046849530190229416,-0.0028450549580156803
1769658841135966000,10.907966064453126,0.026992734521627426,0.047148071229457855,-0.0007419566973112524
1769658841145953800,10.917953857421875,0.024823324754834175,0.04688708111643791,-0.003357979701831937
1769658841155941000,10.927941162109375,0.02147519774734974,0.04183905944228172,-0.008317318744957447
1769658841165929000,10.937928955078124,0.01327106449753046,0.03490684926509857,0.000648479734081775
1769658841175917000,10.9479169921875,0.008386027999222279,0.034388333559036255,0.004704474005848169
1769658841185905200,10.9579052734375,0.001002413802780211,0.024414530023932457,0.0014229270163923502
1769658841195892000,10.96789208984375,0.001353152096271515,0.019063439220190048,0.005626993253827095
1769658841205880000,10.977880126953124,-0.0020999026019126177,0.002578738844022155,0.012686233967542648
1769658841215868200,10.9878681640625,-0.004546815063804388,-0.005486910697072744,0.016813067719340324
1769658841225856000,10.99785595703125,-0.00675191218033433,-0.0034730283077806234,0.016270847991108894
1769658841235844000,11.007843994140625,0.0008522115531377494,-0.00794367678463459,0.008559132926166058
1769658841245831200,11.0178310546875,-0.0012974920682609081,-0.00506932707503438,-0.01005050353705883
1769658841255819000,11.027819091796875,-0.003689809702336788,0.011868909932672977,-0.01661120168864727
1769658841265807000,11.03780712890625,0.0003097256412729621,0.01979554258286953,-0.010126669891178608
1769658841275795200,11.047795166015625,0.002148372121155262,0.011023889295756817,-0.0040442761965096
1769658841285782000,11.057781982421876,0.006027265917509794,-0.0004849616379942745,-0.0038429414853453636
1769658841295770000,11.06777001953125,0.011900069192051888,-0.0006000102148391306,-0.012740829028189182
1769658841305758200,11.07775830078125,0.01623782515525818,0.0009116000146605074,-0.02604731358587742
1769658841315746000,11.08774609375,0.019475696608424187,0.003404052462428808,-0.033966753631830215
1769658841325733000,11.097733154296876,0.01853879727423191,0.006944192573428154,-0.04150243476033211
1769658841335721200,11.10772119140625,0.01613209769129753,0.009880593977868557,-0.03741182014346123
1769658841345709000,11.117708984375,0.014978683553636074,0.009107744321227074,-0.030129140242934227
1769658841355697200,11.127697265625,0.019287943840026855,0.0006263754912652075,-0.022291190922260284
1769658841365684200,11.137684326171875,0.020542027428746223,0.005520999431610107,-0.016447415575385094
1769658841375672000,11.147672119140625,0.02111034467816353,0.015630625188350677,-0.02106134220957756
1769658841385660200,11.15766015625,0.019593408331274986,0.0057497648522257805,-0.01991645060479641
1769658841395648300,11.167648193359375,0.015326491557061672,-0.0033862092532217503,-0.023662718012928963
1769658841405636000,11.177635986328125,0.011184210889041424,-0.004444282967597246,-0.02057132124900818
1769658841415623200,11.187623046875,0.0066650933586061,-0.007989482954144478,-0.015153386630117893
1769658841425611300,11.197611328125,0.007925034500658512,-0.011049721390008926,-0.012309130281209946
1769658841435599000,11.20759912109375,0.005501824431121349,-0.01182363647967577,-0.01455816999077797
1769658841445587200,11.217587158203125,0.0003206445835530758,-0.015415174886584282,-0.016810139641165733
1769658841455574300,11.22757421875,-0.009346630424261093,-0.024044349789619446,-0.018389925360679626
1769658841465562000,11.23756201171875,-0.0160700473934412,-0.02845614217221737,-0.01549187395721674
1769658841475550200,11.24755029296875,-0.021643510088324547,-0.03170067071914673,-0.0049532135017216206
1769658841485538300,11.257538330078125,-0.021796641871333122,-0.02683667466044426,0.00791571382433176
1769658841495525000,11.267525146484376,-0.024163126945495605,-0.030946463346481323,0.015777364373207092
1769658841505513200,11.27751318359375,-0.02149064466357231,-0.03490498661994934,0.01858540251851082
1769658841515501300,11.287501220703126,-0.01726127788424492,-0.026881681755185127,0.019482621923089027
1769658841525489200,11.2974892578125,-0.010498180985450745,-0.023563915863633156,0.012346681207418442
1769658841535476200,11.307476318359376,-0.006425941362977028,-0.016702281311154366,0.010404970496892929
1769658841545464300,11.31746435546875,-0.004710332956165075,-0.010745588690042496,0.012003932148218155
1769658841555452200,11.3274521484375,-0.0022415826097130775,-0.0049707903526723385,0.01119273342192173
1769658841565440300,11.337440185546875,-0.00016964336100500077,-0.0017041567480191588,0.0068054418079555035
1769658841575428400,11.347428466796876,0.0011896340874955058,-0.0005872269975952804,0.0035206989850848913
1769658841585415200,11.357415283203125,0.0016277240356430411,-0.0015715312911197543,0.0031614385079592466
1769658841595403300,11.3674033203125,-0.0004724447790067643,0.0017310547409579158,0.003796336008235812
1769658841605391400,11.377391357421875,0.0023105584550648928,0.0009616674506105483,0.001272990950383246
1769658841615379200,11.387379150390625,0.005166798830032349,-0.0035662390291690826,-0.00009454221435589716
1769658841625366300,11.3973662109375,0.007898403331637383,-0.0054512242786586285,-0.002636263146996498
1769658841635354400,11.407354248046875,0.004505802411586046,-0.0032570459879934788,-0.006154032424092293
1769658841645342200,11.41734228515625,-0.0015819176333025098,0.00019281286222394556,-0.004226969089359045
1769658841655330300,11.427330322265625,-0.0037268276792019606,0.0014855111949145794,-0.0017904432024806738
1769658841665317000,11.437317138671874,-0.004941761493682861,0.0011238539591431618,0.0028328043408691883
1769658841675305200,11.44730517578125,-0.0010301107540726662,0.002959304489195347,0.009212406352162361
1769658841685293300,11.457293212890624,0.0022687469609081745,-0.006383064668625593,0.012548282742500305
1769658841695281200,11.46728125,0.00755112711340189,-0.011472897604107857,0.015396000817418098
1769658841705269000,11.47726904296875,0.0153778912499547,0.0009872338268905878,0.01426415704190731
1769658841715256300,11.48725634765625,0.020006997510790825,0.010014284402132034,0.010180465877056122
1769658841725244200,11.497244140625,0.018638931214809418,0.0067636300809681416,0.006096508353948593
1769658841735232000,11.50723193359375,0.014637532643973827,0.0008873652550391853,0.007215302437543869
1769658841745220000,11.51722021484375,0.011149589903652668,-0.01450011320412159,0.004466121084988117
1769658841755207200,11.527207275390625,0.0028389296494424343,-0.02418389916419983,0.002098038326948881
1769658841765195000,11.537195068359376,-0.002540922025218606,-0.023027820512652397,0.0014761901693418622
1769658841775183000,11.54718310546875,-0.0034354778472334146,-0.025345835834741592,0.0013185309944674373
1769658841785171200,11.557171142578126,-0.00785685796290636,-0.02538498491048813,0.006570551078766584
1769658841795158300,11.567158203125,-0.01088646985590458,-0.040646497160196304,0.004279699642211199
1769658841805146000,11.57714599609375,-0.013884124346077442,-0.041312552988529205,0.00387330143712461
1769658841815134200,11.58713427734375,-0.018799787387251854,-0.0194325540214777,0.005756955128163099
1769658841825122000,11.5971220703125,-0.017229853197932243,-0.009398828260600567,0.013996508903801441
1769658841835110100,11.607110107421875,-0.017621338367462158,-0.029410086572170258,0.011472098529338837
1769658841845097000,11.617096923828125,-0.022467758506536484,-0.038187865167856216,0.00430233683437109
1769658841855085000,11.6270849609375,-0.028267323970794678,-0.02954643964767456,-0.009455020539462566
1769658841865073200,11.6370732421875,-0.032352346926927567,-0.021989988163113594,-0.027480626478791237
1769658841875061200,11.647061279296874,-0.03443041071295738,-0.012017780914902687,-0.03236433118581772
1769658841885048000,11.657048095703125,-0.031910527497529984,-0.002668487373739481,-0.025608956813812256
1769658841895036200,11.6670361328125,-0.025133049115538597,-0.011715778149664402,-0.012551744468510151
1769658841905024000,11.67702392578125,-0.017427193000912666,-0.01889672502875328,-0.005269064102321863
1769658841915012000,11.68701220703125,-0.012536298483610153,-0.024776453152298927,-0.0007789746159687638
1769658841924999200,11.696999267578125,-0.012073706835508347,-0.015172827988862991,-0.0014791196445003152
1769658841934987000,11.706987060546876,-0.012503807432949543,-0.007656321860849857,-0.004483165219426155
1769658841944975000,11.71697509765625,-0.014330470003187656,-0.0057739997282624245,-0.009164736606180668
1769658841954963200,11.726963134765626,-0.010132262483239174,0.004023503512144089,-0.008221178315579891
1769658841964951300,11.736951416015625,0.0015134743880480528,0.024341292679309845,0.0031127026304602623
1769658841974938000,11.746938232421876,0.014604242518544197,0.029080120846629143,0.014476943761110306
1769658841984926200,11.75692626953125,0.025917617604136467,0.028187695890665054,0.02220490388572216
1769658841994914000,11.7669140625,0.03397927060723305,0.023628097027540207,0.016452210023999214
1769658842004902100,11.776902099609375,0.034321755170822144,0.011714180000126362,0.0031702269334346056
1769658842014889200,11.78688916015625,0.03845231607556343,0.015589079819619656,-0.005309277679771185
1769658842024877000,11.796876953125,0.03550872579216957,0.023133281618356705,-0.014780277386307716
1769658842034865200,11.806865234375,0.03404851257801056,0.029092371463775635,-0.01906770095229149
1769658842044853200,11.816853271484375,0.03422801196575165,0.04012531414628029,-0.016035158187150955
1769658842054840000,11.826840087890625,0.035647742450237274,0.05251353979110718,-0.007041664328426123
1769658842064828200,11.836828125,0.03385703265666962,0.04387850686907768,-0.005250421818345785
1769658842074816300,11.846816162109375,0.020480507984757423,0.008852347731590271,0.0007629956235177815
1769658842084804000,11.85680419921875,0.0016471651615574956,-0.015321165323257446,0.0029646309558302164
1769658842094791200,11.866791259765625,-0.003338272450491786,-0.007720503956079483,0.0070821442641317844
1769658842104779300,11.876779296875,0.0018780612153932452,0.00863476749509573,0.010520817711949348
1769658842114767000,11.88676708984375,0.012201538309454918,0.023557256907224655,0.010102168656885624
1769658842124755200,11.896755126953124,0.01618722639977932,0.033975277096033096,0.00902438722550869
1769658842134743300,11.906743408203125,0.016875386238098145,0.025611354038119316,0.003724963404238224
1769658842144730000,11.916730224609376,0.015021559782326221,0.010918693616986275,-0.001395230065099895
1769658842154718000,11.926718017578125,0.012585832737386227,0.011091000400483608,-0.00884808599948883
1769658842164706000,11.9367060546875,0.013685984537005424,0.019104985520243645,-0.014054300263524055
1769658842174694000,11.94669384765625,0.01642770878970623,0.021348165348172188,-0.011170895770192146
1769658842184681000,11.956680908203126,0.013319799676537514,0.008018244989216328,-0.005091431550681591
1769658842194668800,11.966668701171875,0.005183043889701366,-0.017348896712064743,-0.003005377249792218
1769658842204657000,11.976656982421876,-0.0015720640076324344,-0.021024325862526894,-0.0015574166318401694
1769658842214645000,11.98664501953125,-0.0001781654718797654,-0.009887518361210823,-0.004102599807083607
1769658842224631800,11.9966318359375,0.007570834364742041,-0.004998486954718828,-0.004492752719670534
1769658842234620000,12.006619873046875,0.009551427327096462,-0.005320196971297264,-0.0032083101104944944
1769658842244608000,12.01660791015625,0.00589597225189209,-0.002201901515945792,-0.004117513541132212
1769658842254596000,12.02659619140625,0.004489823244512081,-0.0005289037944748998,-0.003995540551841259
1769658842264584000,12.036583984375,0.001270061475224793,-0.003950266633182764,-0.002124669961631298
1769658842274571000,12.046571044921874,0.0015310513554140925,-0.0071066454984247684,0.00458569684997201
