time,seconds_elapsed,z,y,x
1769667555080698600,0.07169873046875,-0.13608487922549248,-0.11372574790120124,-0.11017802882436663
1769667555090687700,0.081687744140625,-0.040542438268661496,-0.09712298814654349,-0.23052136823441832
1769667555100675800,0.09167578125,0.053875090311467644,-0.37745734835267064,-0.8648024008136243
1769667555110665000,0.1016650390625,-0.13135638939887284,-0.03819558288156986,-0.5553583025118336
1769667555120652800,0.11165283203125,-0.09188508749306201,-0.358558586615324,-0.47027734207566824
1769667555130641700,0.1216416015625,-0.2344055527240038,-0.19146248305439947,-0.6366225176714361
1769667555140629800,0.131629638671875,-0.303964242118597,-0.046260231393575664,-0.5493820776464418
1769667555150619000,0.141618896484375,-0.1893044282376766,-0.309167655980587,-0.6777474320031702
1769667555160607000,0.15160693359375,0.16415683523863553,-0.05542787271142006,-0.42406394549850374
1769667555170595800,0.161595947265625,0.09672317517399788,-0.08847732487618923,-0.3382872213505208
1769667555180583700,0.171583740234375,0.054745735666155815,-0.04927987147569656,-0.27117428114023057
1769667555190572800,0.18157275390625,-0.04498012845516205,-0.2491138770341873,-0.5509582409219816
1769667555200561000,0.191560791015625,-0.035353637453913685,-0.3649228609502315,-0.600703501419723
1769667555210549800,0.2015498046875,0.28356998112648724,-0.5312701919704675,-0.359631914935261
1769667555220537600,0.21153759765625,0.34773441026210783,-0.5830097315579652,-0.01818937135897577
1769667555230526700,0.221526611328125,0.4612470999345183,-0.6069236911088228,0.13546550521813333
1769667555240514800,0.231514892578125,0.37717385523617264,-0.6820353384554386,0.5147818523757159
1769667555250503700,0.241503662109375,0.25331951203048225,-0.616155045312643,0.9136525756351649
1769667555260491800,0.25149169921875,0.29834347962737084,-0.7149158637940883,1.3335714937508105
1769667555270481000,0.26148095703125,0.3375923709541559,-0.8359019580870867,1.416829914934933
1769667555280468700,0.27146875,0.3896545666247606,-0.9416559964567423,1.499932122644037
1769667555290457600,0.28145751953125,0.5984995616346598,-1.3649246633917091,1.0861455698035656
1769667555300445700,0.29144580078125,0.8975330693528055,-1.1041174259543418,0.58117316378057
1769667555310434800,0.301434814453125,0.9841165433064103,-0.48628363377451894,0.21364231228902936
1769667555320423000,0.3114228515625,0.580693855831027,-0.24601766458451746,0.38329029228985306
1769667555330411800,0.321411865234375,0.040566403666138645,-0.1491279006719589,0.7387291394494474
1769667555340399600,0.331399658203125,-0.08085778978317976,-0.19958324566781518,1.0986783036403358
1769667555350388700,0.341388671875,-0.14786153399795293,0.17348726590275765,0.7816862376444041
1769667555360376800,0.351376953125,-0.40093233196437356,0.5395861848950386,0.4524073753967881
1769667555370366000,0.361365966796875,-0.705522597026825,0.3759288236111402,0.31954891087189313
1769667555380353800,0.371353759765625,-0.7938245653361081,0.4526297859758138,0.20801132066473363
1769667555390342700,0.3813427734375,-0.5096230083078146,0.43806759213805196,0.04622516008019447
1769667555400330800,0.391330810546875,-0.18774609287977218,0.7582622535675764,0.26627427067160603
1769667555410320000,0.40131982421875,0.13136311140060425,0.39802959626018997,-0.21067527917698026
1769667555420308000,0.411307861328125,-0.05135433966219425,0.38166590595841404,-0.6657710168749094
1769667555430296800,0.421296875,-0.1246200668811798,0.14649579860270023,-1.3866606943815947
1769667555440284700,0.43128466796875,-0.8937094194114208,-0.03744154964387417,-0.8931031240813434
1769667555450273800,0.441273681640625,-1.445573486599326,0.609286328586936,0.0903188610896468
1769667555460262000,0.451261962890625,-0.8119161023437976,0.910227423492074,0.5997250117763877
1769667555470250800,0.461250732421875,0.14162205508649348,0.556726704788208,0.4322843325614929
1769667555480238600,0.471238525390625,0.37658991786837576,0.06307341902852058,0.2099485723376274
1769667555490227700,0.481227783203125,0.08863222317695617,-0.4277139559060335,-0.3172840346798301
1769667555500215800,0.4912158203125,-0.010434884774684905,-0.7776327244699001,-0.814241038160026
1769667555510204700,0.50120458984375,-0.09376549441218375,-0.3273264130055904,-0.6640791182652115
1769667555520192800,0.51119287109375,-0.04155132305026054,-0.4494815510779619,-0.8085071706831455
1769667555530182000,0.521181884765625,-0.19014672428071497,-0.006178980895876884,-0.8412301673725247
1769667555540169700,0.531169677734375,-0.11827508176863193,-0.11434884823560713,-0.7070505372464656
1769667555550158800,0.541158935546875,0.10758709901571273,0.06750292590856552,-0.36606560124456883
1769667555560146700,0.551146728515625,0.5703454802960157,0.5340449173808097,0.14810469510406254
1769667555570135800,0.5611357421875,0.6724030022352934,0.9236924697428941,0.232318225055933
1769667555580125000,0.571125,0.30826281609535217,1.2650357176631688,-0.022134090396761893
1769667555590112800,0.58111279296875,0.05302198061347008,1.5573521920859812,-0.27594956925064323
1769667555600101600,0.5911015625,0.2308183418869972,1.6089380024164914,-0.2838932217314839
1769667555610089700,0.60108984375,0.6572235532820224,1.0303010791152716,-0.19442045607715844
1769667555620078800,0.611078857421875,0.5751204396128654,0.7498392931371927,-0.14059797273576258
1769667555630067000,0.62106689453125,0.4097948528558016,0.6124614514917135,0.07236527124792337
1769667555640055800,0.631055908203125,0.3631634500622749,0.21115502551794052,-0.017760113096237182
1769667555650043600,0.641043701171875,0.14213000460863112,-0.16193302170932292,0.022185820583999157
1769667555660032800,0.65103271484375,0.1748351733803749,0.3472293833494186,-0.15578735856115816
1769667555670020900,0.661020751953125,0.2542868957579136,0.7112222699731588,-0.372868851518631
1769667555680009700,0.671009765625,-0.18138357211053371,0.5471282708376646,-0.5940697624936699
1769667555689997600,0.68099755859375,-0.2512619949787855,0.36989714223146436,-0.36737083862423897
1769667555699986700,0.690986572265625,-0.0969900094166398,0.14852408955991267,-0.2175149159386754
1769667555709974800,0.700974853515625,-0.06334463718533516,-0.25257950731813905,-0.20659867738783358
1769667555719964000,0.7109638671875,0.206610952347517,-0.4462298558056354,0.1382797589212656
1769667555729951700,0.72095166015625,0.40116555619835853,-0.18320786492824553,0.3250581758126616
1769667555739940900,0.73094091796875,0.40599253796339035,-0.10463818608224391,0.06886135478019714
1769667555749928700,0.7409287109375,-0.18793547797203064,-0.41956338267624377,-0.15932605408132075
1769667555759917800,0.750917724609375,-0.12197422854751348,-0.48166006562709807,-0.37512919766604896
1769667555769906000,0.760906005859375,0.19084318211227655,-0.47963878893256184,0.09799567932784557
1769667555779894800,0.770894775390625,0.29128830041885373,-0.14664543620645998,0.48289399133622646
1769667555789882600,0.780882568359375,0.17518997816741466,0.17105623936355113,0.4892839846342802
1769667555799871700,0.790871826171875,0.39422786588966846,0.4862766195118427,0.6494672400668263
1769667555809859800,0.80085986328125,-0.16176701749265193,0.13156184884309768,0.7447481074780226
1769667555819848700,0.8108486328125,-0.24047785837501287,0.09852993233501911,0.35037761824727054
1769667555829836800,0.8208369140625,-0.4080538544073701,0.27259353682100773,0.2363262916535139
1769667555839826000,0.830825927734375,-0.4959276604324579,0.05442775575816631,-0.7310901690036058
1769667555849813800,0.840813720703125,-0.6436950864061712,-0.9165373372912407,-1.061600472742319
1769667555859802600,0.850802734375,-0.25361703367233274,-1.0142010081857442,0.1434185831144452
1769667555869790700,0.860790771484375,0.5379144522905349,-0.3451420556813478,1.0243345719262957
1769667555879779800,0.87077978515625,0.4835802200347185,-0.04145546146035194,0.6366594886809587
1769667555889768000,0.880767822265625,0.09478139345645904,-0.046803836750984186,0.9738827340617775
1769667555899756500,0.890756591796875,0.002933715364336967,0.36563597765564915,0.944108942566812
1769667555909744600,0.90074462890625,-0.3490484154701233,0.06363280647695065,-0.19963409907221794
1769667555919733800,0.910733642578125,-0.15108078830540178,0.038814007040858266,-0.9542045123845339
1769667555929721900,0.920721923828125,-0.1958370448768139,-0.502611668241024,-1.3566595238715409
1769667555939711000,0.9307109375,-0.21562018823325632,-0.6368763463020324,-0.5151297890305518
1769667555949698600,0.940698486328125,0.05078384629786014,-0.6608791531801224,0.4806099720522761
1769667555959687700,0.950687744140625,0.10783552081882954,-0.36642566672861576,0.7259221187159418
1769667555969675800,0.96067578125,-0.2111900968313217,-0.10620938092172146,0.8535378602817654
1769667555979665000,0.970664794921875,-0.13836451459527016,-0.08916589166224002,0.8072437266185879
1769667555989653000,0.980653076171875,0.15333938088715077,0.24079846863150595,0.8910165270656347
1769667555999641900,0.990641845703125,0.02237199080586433,0.6390086821556091,0.6111708271592855
1769667556009629700,1.000629638671875,0.04074234475493431,1.2234230198144913,0.6448311046987771
1769667556019618800,1.010618896484375,0.9373024774223565,2.2159961335599423,0.8894239971771836
1769667556029607000,1.02060693359375,0.0668985302746296,1.258578504347801,0.4939604520127177
1769667556039595800,1.030595703125,-2.459670449888706,-4.01490959534347,-1.9106939208358524
1769667556049583600,1.04058349609375,-3.0316105058997866,-3.649413318419456,-3.8060529098957776
1769667556059572700,1.05057275390625,-1.4118576794803142,-2.072623435413837,-0.45293782901167867
1769667556069561600,1.0605615234375,1.8075000883430241,0.6343856985300779,-0.4679764081895351
1769667556079550200,1.07055029296875,1.0049819289416073,0.9764993463009596,0.7753995585903525
1769667556089539300,1.080539306640625,0.04242927492856979,0.02129120983183384,0.9553811549484729
1769667556099527400,1.09052734375,-0.14612871885597706,0.1539303325176239,-0.004683773902058601
1769667556109516300,1.100516357421875,-0.6346347048550843,-0.24806290667653083,-0.3737392046123743
1769667556119504100,1.110504150390625,-0.6096060620605945,-0.3161462628215551,-0.8342223344370723
1769667556129493200,1.1204931640625,-0.6347983709841967,0.4796715221583843,-0.4523170667648315
1769667556139481300,1.1304814453125,-0.6429986285746098,0.7483984466791153,0.18662585667818785
1769667556149470200,1.14047021484375,-0.5326306666687131,0.3874316298782825,1.0534177508085965
1769667556159458000,1.1504580078125,-0.471786906388402,0.06838906109333039,1.6843749361947178
1769667556169447200,1.160447265625,-0.021497546058893202,-0.06284428644776344,1.3116440318420528
1769667556179435300,1.170435302734375,-0.30807109291553497,-0.18431436486542224,1.1271148551821708
1769667556189424400,1.18042431640625,-0.21938041754961013,-0.5201262821435928,0.9459300205141306
1769667556199412200,1.190412109375,0.8149906874835491,-0.29776363391280175,1.3444544145539403
1769667556209401300,1.2004013671875,0.7141665067315102,0.49558279251754284,0.6132175305560231
1769667556219389200,1.21038916015625,1.9127029225707053,0.2899322096347809,0.7253443188279867
1769667556229378300,1.22037841796875,2.90517549855113,2.351165066984296,0.400690924423933
1769667556239366400,1.230366455078125,4.284190646615624,-2.189436627936363,-1.1030807763829826
1769667556249355300,1.240355224609375,-2.3776614442437887,-1.5614263096570968,-4.241613195388019
1769667556259343400,1.25034326171875,-1.8159399999082086,0.5179746570676564,-1.7465224725499748
1769667556269332200,1.260332275390625,-0.658649202170968,1.3938935682445763,-0.5337482725217938
1769667556279320300,1.2703203125,-0.07466098096966743,1.0685673891454934,0.08860124351680278
1769667556289309200,1.28030908203125,0.07659808651208877,0.40982933964729307,0.5878744149848818
1769667556299297300,1.29029736328125,0.230195826074481,0.37167175068855285,0.31570290296822784
1769667556309286400,1.300286376953125,-0.2905032875210047,0.19479250425994396,0.690544515864551
1769667556319274200,1.310274169921875,-0.4439169026881456,-0.06450842026770115,0.5908540153175592
1769667556329263000,1.32026318359375,-0.49288405495285986,-0.017244564789533613,0.3543734098851681
1769667556339251200,1.330251220703125,-0.6755582513958215,0.03814882113039493,0.00563625232130289
1769667556349240300,1.340240234375,-0.6667308018177748,-0.012392448583245277,-0.3619115503050387
1769667556359228400,1.350228515625,-0.31379882291257377,-0.010520224970579146,0.1115294069007039
1769667556369217300,1.36021728515625,-0.3074620211064815,0.10509937385320663,0.46676630174741146
1769667556379205000,1.370205078125,-0.5289776971191168,-0.05104980375766754,0.08461509649008513
1769667556389194200,1.3801943359375,-0.5112777897775173,-0.5632184048950671,0.025710195317864417
1769667556399182300,1.390182373046875,-0.5715186157286167,-0.7259077979296445,0.19970102682858704
1769667556409171500,1.40017138671875,-0.27829145620167256,-0.5148690922677517,0.482064847035706
1769667556419159300,1.4101591796875,-0.5164256740599871,-0.17753683355450628,0.46551527877300974
1769667556429148200,1.420148193359375,-0.578832738134265,-0.08478256201148032,0.08659764860942959
1769667556439136300,1.43013623046875,-0.4859703300416469,-0.2008382141649723,0.45243265596851706
1769667556449125400,1.44012548828125,-0.4446750275790691,-0.003968903630971909,0.1564456763394177
1769667556459113500,1.450113525390625,-0.2078448780566454,0.0921603973031044,0.06591375702098011
1769667556469102300,1.460102294921875,-0.06614975773394108,0.3676993399262428,-0.12432853658869862
1769667556479091200,1.47009130859375,-0.27116262723505496,0.1728735179185867,-0.4527496129631996
1769667556489079300,1.480079345703125,-0.28840017776191235,0.2937257566988468,-0.442932421695441
1769667556499068200,1.490068115234375,0.07677052046954631,0.29630291371047496,-0.3194527570210397
1769667556509056300,1.50005615234375,0.007073299387097358,0.0068920976012945175,-0.6772381673067808
1769667556519045400,1.51004541015625,-0.3109235597372055,-0.21087445501089094,0.29477241620756683
1769667556529033200,1.520033203125,-0.4635299501746893,0.0847790548801422,0.3606096739262342
1769667556539022000,1.53002197265625,-0.09638590604364872,-0.8474182083576917,-0.6557881136514246
1769667556549010200,1.54001025390625,0.4690753093421459,-1.3360878604859112,-0.5308223751377315
1769667556558999300,1.549999267578125,-0.1354085873991251,-0.6120604694753885,-0.05380158668383956
1769667556568987400,1.5599873046875,-0.7171335398435592,-0.12980419152081013,0.24023129973541943
1769667556578976500,1.5699765625,-0.9286597367614507,0.183192082837224,0.14202354855947197
1769667556588964000,1.579964111328125,-0.8644359786540269,1.0412556038498877,0.20464286714494226
1769667556598953200,1.589953125,-0.435877973139286,0.3155985658109188,-0.2238798113280907
1769667556608941300,1.59994140625,-0.1530371830701828,-0.36694764477610586,-0.6796133720055222
1769667556618930400,1.609930419921875,-0.7709364417016505,-0.5873720184206962,-0.22119943140400572
1769667556628918300,1.619918212890625,-1.121049271532893,-0.8702706761568785,-0.5435657195178791
1769667556638907100,1.6299072265625,-1.822080986881256,-0.7255512395769357,-0.5251231771154329
1769667556648895200,1.639895263671875,-1.8471581449925898,-0.36442835543155666,-0.626882117966935
1769667556658884400,1.64988427734375,-2.055102391770482,-0.4248696723908186,-0.4870972517123446
1769667556668872400,1.65987255859375,-2.628953834360838,-0.4486018456339836,0.028527919619716704
1769667556678861300,1.669861328125,-2.7255039910554886,-0.12064531803131102,1.3213783671319483
1769667556688849200,1.67984912109375,-2.300238597345352,0.15959610319435596,1.2883702698908746
1769667556698838300,1.68983837890625,0.06185410636663437,0.31303017662763594,0.8443683923330157
1769667556708826400,1.699826416015625,4.447067086654902,0.20953180823028086,-0.1439566355139017
1769667556718815200,1.709815185546875,4.238567544081807,0.4996981188818812,-0.9932415875915437
1769667556728803300,1.71980322265625,2.71115982388258,1.63430449886322,-0.3211234667122364
1769667556738792200,1.729792236328125,8.686486279129982,-0.1496516322851181,2.9636183351695538
1769667556748780300,1.7397802734375,7.461247149804234,-1.6736702945679425,0.5878361288011074
1769667556758769200,1.74976904296875,-0.9699404261767863,-0.5156082201972604,0.5972653436645865
1769667556768757200,1.75975732421875,-2.139431949317455,-1.1896098898008465,-0.29122940983846785
1769667556778746400,1.769746337890625,-0.4185609276354313,-0.38326165071725843,-1.2931274012900889
1769667556788735500,1.779735595703125,-0.33877836586833,1.0336614954590797,-0.26216457033045587
1769667556798723300,1.789723388671875,0.8624211317002772,0.9903580680444836,-1.0301114748273044
1769667556808712200,1.799712158203125,2.071957080459595,1.4926223841525614,-0.0012537263881415128
1769667556818700300,1.8097001953125,3.7505391124665737,0.20360840953066944,-0.2778404244985431
1769667556828689400,1.819689453125,2.8368051421582696,-0.3460409042172134,-0.41473282071463763
1769667556838677200,1.82967724609375,0.8361912964224815,0.0860056740656495,-1.6202458706334233
1769667556848666000,1.839666015625,-0.06743745945692062,0.5362276682473719,-1.941318483941257
1769667556858654200,1.849654296875,-0.6056862582683563,0.7870311058036983,-2.067260739336908
1769667556868643300,1.859643310546875,-0.8149024246782064,0.4221094138972461,-0.664019350901991
1769667556878631400,1.86963134765625,-0.7834417030096054,0.354798649559915,-0.08937200869359076
1769667556888620300,1.879620361328125,-0.31935587251782416,0.11726853507459163,0.3824346983738243
1769667556898608000,1.889608154296875,0.27346330539286134,0.06957724796459078,0.5206028136141598
1769667556908597200,1.89959716796875,0.03748071261048317,0.27183877293094993,-0.022019889432564378
1769667556918585300,1.90958544921875,0.08881693209409713,0.48952553830519313,0.33350912022851403
1769667556928574200,1.91957421875,-0.11790975558757781,0.7447444542162119,-0.0739755559887737
1769667556938562300,1.929562255859375,0.3230266699850559,0.4105133763886988,-0.1432004833843559
1769667556948551200,1.93955126953125,0.44801966183185576,0.5809964920394122,-0.27914244700782
1769667556958539300,1.949539306640625,0.5594003079116344,0.15530980417728424,0.0658008712310344
1769667556968528400,1.9595283203125,0.32398294779658315,-0.2362183012343943,0.2775217870034277
1769667556978516200,1.96951611328125,0.2802402521818876,-0.11401742432415485,0.15564809622094034
1769667556988505300,1.97950537109375,-0.09518120642900467,0.43299540344029663,0.001325111123919487
1769667556998493200,1.9894931640625,-0.2894166613280773,0.36998335921019315,-0.12376586120463907
1769667557008482300,1.999482421875,-0.24059739310145375,0.1941238112181425,0.11219130487553775
1769667557018470400,2.009470458984375,-0.17567922298908234,-0.010119973606616258,0.26993483900576826
1769667557028459300,2.019459228515625,-0.2722270415961742,-0.10098141714036464,0.19243176647797225
1769667557038448400,2.029448486328125,-0.44464697052836416,-0.12324001069962978,0.22938538647443055
1769667557048436200,2.039436279296875,-0.7155167522966861,-0.07779431055933236,0.4253195350501686
1769667557058425000,2.049425048828125,-0.690949297273159,-0.028700024783611295,0.4001271530613303
1769667557068413200,2.0594130859375,-0.4882376904517412,-0.18042510234192013,0.3713724024157971
1769667557078401300,2.0694013671875,-0.22977613935768604,-0.7057683884814381,0.42159057765491303
1769667557088389400,2.079389404296875,-0.7421510767221451,-1.063767879909277,0.6537855416573584
1769667557098378200,2.089378173828125,-1.0508955388545989,-1.329950965166092,1.1013966226883232
1769667557108366300,2.099366455078125,-0.7977905463576317,-2.059052590700984,0.9667326431114226
1769667557118355200,2.109355224609375,-0.05652794290781021,-1.9254222650207578,1.21680930076316
1769667557128343300,2.11934326171875,0.3579717266380787,-0.930872005983442,0.8607467687472701
1769667557138332400,2.12933251953125,1.1404781946241855,-0.4755537115760147,0.28062399080246686
1769667557148320300,2.1393203125,1.3244167119145394,-0.5455510846488177,0.22224223672151563
1769667557158309000,2.14930908203125,0.8692191212773323,-0.4041717522770166,0.3776845812372863
1769667557168297200,2.159297119140625,0.7238613867938518,-0.2678384512484073,0.3340176542725414
1769667557178286300,2.169286376953125,0.5216296724438667,-0.11633110809400676,0.23469618796734137
1769667557188274400,2.1792744140625,0.5049789818942546,0.014143822295218706,0.04089578175097704
1769667557198263300,2.18926318359375,0.4760170913040638,0.07709273816123605,-0.04092582982936874
1769667557208251100,2.199251220703125,0.24816461348533628,0.060882777116447684,-0.043795448715239764
1769667557218240300,2.209240234375,0.0945522608757019,0.06398907256871461,-0.03783473194623366
1769667557228228400,2.219228271484375,0.04908814829587936,0.04930909757018089,-0.030735804927535353
1769667557238217500,2.229217529296875,-0.11774258232712745,-0.00036956396475434304,-0.008814791025873273
1769667557248205300,2.239205322265625,-0.12984218544363973,-0.00836596954613924,-0.01528137495778501
1769667557258194200,2.249194091796875,-0.04650222345590591,-0.015620324588567018,0.020853649531630797
1769667557268182300,2.259182373046875,-0.005647650498151779,-0.011774316684901713,-0.004321945719188079
1769667557278171400,2.26917138671875,-0.035656419792771336,0.010741028114408253,-0.04562928567943163
1769667557288160300,2.27916015625,-0.0904085851997137,-0.0163040690690279,-0.06908808534131385
1769667557298148400,2.2891484375,0.10027122304439544,0.025329087045788762,-0.023287226504238787
1769667557308137200,2.29913720703125,0.2026841342926025,0.06410203142389655,-0.060005446292646224
1769667557318125300,2.309125244140625,0.12147592363655567,0.025569910064339636,-0.08784089926932938
1769667557328114200,2.3191142578125,-0.033190321940183634,-0.010060936895757914,-0.014180537576414643
1769667557338102300,2.329102294921875,-0.000817161601781845,-0.02402121931761503,0.020947981318156235
1769667557348091400,2.33909130859375,0.18882745837569237,0.024938626423478126,0.009397431485727428
1769667557358079200,2.349079345703125,0.18853052125573158,0.03361936100721359,-0.03655276584429666
1769667557368068000,2.359068115234375,-0.0012742577195167541,-0.020928660129755736,0.04797829649099149
1769667557378056200,2.36905615234375,-0.21255904709696768,-0.06643105889335274,0.057023818399664014
1769667557388045300,2.37904541015625,-0.2913718870490789,-0.07036372216716408,0.06661748484354466
1769667557398033400,2.389033447265625,-0.17141221319437025,-0.04926482003703713,0.05327571791252121
1769667557408022300,2.399022216796875,-0.17978256665468215,-0.042905514138191936,0.06758640294093639
1769667557418010000,2.409010009765625,-0.16220599343180656,-0.05610211871117353,0.10995786500135436
1769667557427999200,2.418999267578125,-0.19091887769699095,0.0014399696752429008,0.08235708843022585
1769667557437987300,2.4289873046875,-0.2030547211706638,-0.05472776161804795,0.06371719682477414
1769667557447976400,2.4389765625,-0.07240180386602878,-0.05016571439951658,0.08816606696993112
1769667557457964300,2.44896435546875,0.13841361443400382,0.03909603885263204,0.03573386894315481
1769667557467953200,2.458953125,0.035058453899621964,0.027796938464045524,0.013621625052019953
1769667557477942300,2.4689423828125,0.045675124981999396,0.0014396774142980575,0.044901473728381096
1769667557487930400,2.478930419921875,0.1351075586259365,0.06626534693762659,-0.00856653361953795
1769667557497919200,2.488919189453125,0.1418827518492937,0.0118140641734004,0.025556940984912214
1769667557507907300,2.4989072265625,0.3574678687691688,0.08106324922740459,-0.18713840931020675
1769667557517896200,2.508896240234375,0.1282096158057451,0.0169805070258677,-0.13045195137243717
1769667557527884300,2.51888427734375,-0.10511106429100037,-0.022686463582515717,-0.04935721102822572
1769667557537873200,2.528873046875,-0.05264379495084286,0.023039660934358833,-0.10755969955213367
1769667557547861200,2.538861328125,0.10740239009857178,0.08031170020774006,-0.08830014167837798
1769667557557850400,2.548850341796875,0.07604980497956275,0.02329144373834133,-0.06519917901083827
1769667557567838200,2.558838134765625,0.02084931128323078,0.0017843991987407206,-0.05116166663430631
1769667557577827300,2.568827392578125,-0.04751695345640182,-0.002252455101907253,0.002025441413000226
1769667557587815200,2.578815185546875,-0.12828268104195595,-0.0028517361693084237,0.00725895815230906
1769667557597804300,2.58880419921875,-0.11819091061651706,0.008311755140870809,0.037135771630331875
1769667557607792400,2.59879248046875,0.003833294552564621,-0.014224047924578188,-0.04705744618587195
1769667557617781200,2.60878125,-0.11003858382105827,0.004606324751675129,0.00586618861965835
1769667557627769300,2.618769287109375,-0.06889116539657116,0.03298325506076216,-0.04647482399232685
1769667557637758200,2.62875830078125,-0.01846855362653732,-0.05288388731703162,0.012559548778459429
1769667557647746300,2.638746337890625,-0.0069277534365653985,-0.011676555398851632,0.0639355888158083
1769667557657735400,2.6487353515625,0.04929623808860779,-0.015865823782235382,0.05497194563746452
1769667557667723300,2.65872314453125,-0.06793781019449234,0.017396978872269393,0.06560629850700497
1769667557677712100,2.668712158203125,-0.06051438219547271,0.005357289249449968,0.0005243161350488662
1769667557687701200,2.678701171875,-0.02997077537178993,0.05693462401255965,-0.053428661718219514
1769667557697689300,2.688689453125,0.1028092170894146,-0.009364625194668769,-0.023343466186523436
1769667557707678200,2.69867822265625,-0.007474865925312042,-0.04788739420399069,-0.007524184959754348
1769667557717666300,2.708666259765625,-0.383044208574295,0.07378098326474428,-0.040552740466967226
1769667557727655200,2.7186552734375,-0.18960954866409302,0.08040054753497243,0.017843918922170996
1769667557737643300,2.728643310546875,0.09778700501322746,0.058980304495990274,-0.051371583057940005
1769667557747632400,2.73863232421875,0.234666249486804,-0.05660699949339032,0.0604940700598061
1769667557757620200,2.7486201171875,-0.03772445823848247,-0.03967266969680786,0.05830678914859891
1769667557767609300,2.758609375,-0.10936053842902183,0.08344692949354648,-0.08258081418350338
1769667557777597200,2.76859716796875,0.37400983824729916,0.046185704852640626,-0.1449671277306974
1769667557787586300,2.77858642578125,0.4918839379996061,0.030547990737855434,-0.18567323212847112
1769667557797574400,2.788574462890625,0.10754384439587593,0.019320932672172785,-0.09763064540773629
1769667557807563300,2.798563232421875,-0.10485855083465576,-0.009240998815000057,-0.04165054564103484
1769667557817551400,2.80855126953125,0.2627022574037313,-0.003629588674008846,-0.08100874256119131
1769667557827540500,2.81854052734375,0.0669242492377758,-0.0206523274064064,-0.006662818890064954
1769667557837528300,2.8285283203125,0.1832826837301254,0.012760112851858138,-0.03482318383902311
1769667557847517200,2.83851708984375,0.34262685799002646,-0.0015915069751441478,-0.1248138358876109
1769667557857505300,2.84850537109375,0.03453589133024215,0.013222323536127805,-0.06721782535687089
1769667557867494400,2.858494384765625,0.13398644564151763,0.07074877596199512,-0.07244739657342433
1769667557877482200,2.868482177734375,0.4044809643566608,0.06886968421712518,-0.07453808524236083
1769667557887471000,2.87847119140625,0.38739071334600444,0.046253655522316695,-0.12332988094016908
1769667557897459200,2.888459228515625,0.3049538376778364,0.013369476921856402,-0.09964914562329649
1769667557907448300,2.8984482421875,0.13920388802886008,0.0132378133662045,-0.07249605802074074
1769667557917437400,2.9084375,0.029014497560262677,0.011743337024748324,-0.05430836716219783
1769667557927425300,2.91842529296875,0.033816929405927655,0.017175298945605755,-0.026277473811805247
1769667557937414100,2.9284140625,-0.059414311999082564,-0.011759119115769863,-0.04830401218086481
1769667557947402200,2.93840234375,-0.11121347281932831,-0.03291004369407892,-0.032255963699519635
1769667557957391400,2.948391357421875,-0.06907295170426368,-0.029045769481360912,-0.03522022033259272
1769667557967379500,2.95837939453125,-0.05700140563845634,-0.054239978101104494,-0.02817395508289337
1769667557977368300,2.968368408203125,-0.04006663745045662,-0.039550650752335784,-0.028892478615790605
1769667557987356200,2.978356201171875,-0.02386485971212387,-0.02467442252933979,0.00037000235617160797
1769667557997345300,2.98834521484375,-0.09402619117498397,-0.010620470474660396,-0.04041135923489928
1769667558007333400,2.99833349609375,-0.08079612272381782,-0.05024228676706552,-0.005206628732383251
1769667558017322200,3.008322265625,-0.004731120175123215,-0.011416589288413524,-0.06680427611991763
1769667558027310300,3.018310302734375,0.13411504045724867,0.005943126313388347,-0.0744717420078814
1769667558037299500,3.028299560546875,0.27326281438469885,0.005764262615144252,-0.0935679260134697
1769667558047287300,3.038287353515625,0.3563140225589275,0.014445873981714248,-0.08591887256503104
1769667558057276200,3.048276123046875,0.20880524752140045,0.01716148961596191,-0.04082242425382137
1769667558067264300,3.05826416015625,0.1409586227416992,0.011702639688178897,-0.03297463336288929
1769667558077254400,3.06825439453125,0.16767711831927298,-0.0002710720263421535,-0.02907967175096273
1769667558087242200,3.0782421875,0.1087479594886303,0.005704349121451378,-0.019879297207295893
1769667558097231400,3.0882314453125,0.03637304362952709,-0.02002623139731586,0.010193184973299503
1769667558107220500,3.098220458984375,-0.017744331005215642,-0.008664660231769084,0.023104396733641622
1769667558117208600,3.10820849609375,-0.05765490111112594,-0.02085128404460847,0.01949570471718907
1769667558127197400,3.118197509765625,-0.05834639050662517,-0.03002031360194087,0.023457740215957163
1769667558137185300,3.128185302734375,-0.023870704931020736,-0.033631928227841855,0.005418810178339481
1769667558147174400,3.13817431640625,-0.0006488192975521087,-0.02196772085390985,0.008374006722122431
1769667558157162500,3.14816259765625,-0.010862754797935486,-0.02216119759939611,0.004589958138763904
1769667558167151400,3.1581513671875,-0.04838321489691734,-0.022406039205938578,-0.011961655950546263
1769667558177139500,3.168139404296875,-0.013272154027223586,-0.02868906499817967,-0.004623568147420883
1769667558187128300,3.17812841796875,0.020756372302770613,-0.025184271747618912,-0.024295798475295304
1769667558197116400,3.188116455078125,0.041186581391096114,-0.0071129738103598355,-0.03701923257857561
1769667558207105300,3.198105224609375,0.03828384568691254,-0.004763707270473242,-0.051466421734541655
1769667558217093400,3.20809326171875,0.07268062080740928,-0.020959493659436702,-0.029832389814406633
1769667558227082500,3.21808251953125,0.07459960617125033,-0.003924406902119517,-0.03322071707844734
1769667558237070300,3.2280703125,0.023557985720038414,-0.014805574139580129,-0.02478708912357688
1769667558247059500,3.2380595703125,-0.014981296032667159,-0.01799699059203267,0.004987871415168046
1769667558257047300,3.24804736328125,-0.00038344635963439937,-0.02165726666525006,-0.004648410327732563
1769667558267036400,3.258036376953125,0.04269230977892875,-0.025561288366466758,-0.005768646529316902
1769667558277025500,3.268025634765625,0.04976502464413642,-0.014264233804494141,-0.010830021572113036
1769667558287013400,3.278013427734375,0.01286415774822235,-0.02554083010032773,-0.027227029621601104
1769667558297002200,3.288002197265625,0.016015899777412412,-0.015741978206858038,-0.02622793558165431
1769667558306990300,3.297990234375,0.026487024909257886,-0.011904007479175924,-0.02396072130203247
1769667558316979500,3.3079794921875,0.019022680377960205,-0.013682488393783568,-0.011140987217426299
1769667558326967600,3.317967529296875,0.034303251618146895,-0.008340688974410294,-0.0236686064876616
1769667558336956400,3.327956298828125,0.03088672117292881,-0.0033447803832590576,-0.03409326212927699
1769667558346944300,3.3379443359375,0.009018003714084625,-0.014360460720583796,-0.02050473562926054
1769667558356933400,3.347933349609375,-0.022144027268886566,-0.02559161043949425,-0.03376008465215564
1769667558366921500,3.35792138671875,-0.0018856676161289215,-0.019287030402570963,-0.03902209683358669
1769667558376910300,3.367910400390625,0.015319149684906004,-0.013259440676122903,-0.04337693104222417
1769667558386898400,3.3778984375,0.03596387830674648,-0.020355317221209406,-0.038111411729454994
1769667558396887300,3.38788720703125,0.07738309940993786,-0.00956526233330369,-0.0492727110825479
1769667558406875400,3.39787548828125,0.037628012126684186,-0.008908478925004602,-0.03565919627174735
1769667558416864500,3.407864501953125,0.004258826488256455,-0.018876476840302348,-0.028406010273098945
1769667558426852400,3.417852294921875,0.002081482449173927,-0.01761347116716206,-0.024034663321077822
1769667558436841500,3.427841552734375,-0.033036592683196066,-0.02257058211788535,-0.038614246685057876
1769667558446830600,3.43783056640625,0.010897241589426994,-0.030518910773843524,-0.009605886604636907
1769667558456818400,3.447818359375,0.056420975401997565,-0.02708016849681735,-0.0075546531632542605
1769667558466807300,3.457807373046875,-0.016553075394034385,-0.004767871988937258,-0.0046219607122242445
1769667558476795400,3.46779541015625,-0.05370002600550651,-0.0020598551392555235,0.014204028049856423
1769667558486784500,3.477784423828125,0.0034779052436351775,-0.004363821232691407,-0.002387041267007589
1769667558496772400,3.4877724609375,0.0018541034340858458,-0.0019768530309200285,-0.012121814948320387
1769667558506761200,3.49776123046875,0.04761866026520729,-0.017049334478378295,-0.02474544193893671
1769667558516749300,3.507749267578125,0.12634674454331396,-0.027182898218929767,-0.023981910220533607
1769667558526738400,3.517738525390625,0.19629998621344566,-0.0072898647472262375,-0.026687369786947964
1769667558536726500,3.5277265625,0.07846972560286522,-0.030109014798700807,-0.011454729341715573
1769667558546715400,3.53771533203125,-0.04530161549448967,-0.024376608626544474,-0.017778233274817465
1769667558556703200,3.547703125,-0.026629063728451727,-0.008142097662389278,0.0006827215671539307
1769667558566692400,3.5576923828125,-0.0006593406915664673,-0.032079291958361865,-0.02371127658560872
1769667558576680400,3.567680419921875,0.08208791610002517,-0.025089579201489687,-0.027336189084500074
1769667558586669600,3.577669677734375,0.11401800884604453,-0.026578940976411104,-0.04395779967010021
1769667558596657400,3.587657470703125,0.12510580457150935,-0.01830970980301499,-0.04495221753492951
1769667558606646300,3.597646240234375,0.07801379852890968,-0.041087212669849396,-0.05637085264995694
1769667558616635400,3.607635498046875,-0.012259762114286423,-0.017261369793862103,-0.04049012355953455
1769667558626623500,3.61762353515625,-0.04271919778585434,-0.02318140749260783,-0.02150982101857662
1769667558636612400,3.6276123046875,0.04279401658773422,-0.05299757682457566,-0.03132438193783164
1769667558646600400,3.637600341796875,0.14300094222426413,-0.023556378284841775,-0.018478636629134414
1769667558656589600,3.647589599609375,0.28828093529641624,0.008259878823161124,-0.021978023052215575
1769667558666577400,3.657577392578125,0.31315701787769795,0.019032471119612454,-0.017393617871403692
1769667558676566300,3.667566162109375,0.22791911331415174,0.0029018589213490485,-0.026300562426447866
1769667558686554400,3.677554443359375,0.17890812190771102,0.0003248480401933193,-0.008444880001246928
1769667558696543500,3.68754345703125,0.022231705552339553,-0.026115122856944797,0.01964651136472821
1769667558706531300,3.69753125,0.02025192991197109,0.018440204314887524,0.028441666108369824
1769667558716520200,3.707520263671875,0.11949848608374596,0.069967562456429,0.05787862686440348
1769667558726508300,3.71750830078125,-0.024268179816007613,0.03260039322301745,0.10800167116597294
1769667558736497400,3.727497314453125,-0.14842179822921753,-0.024822160436958073,0.11064239493310452
1769667558746485500,3.737485595703125,0.06111760878562927,-0.04033595591112971,-0.0032386896602809427
1769667558756474400,3.747474365234375,0.23521628458499907,-0.007015577850490808,-0.045453006663918494
1769667558766463500,3.75746337890625,0.12999416113495826,-0.046714551032334566,-0.00844144593514502
1769667558776451300,3.767451416015625,0.2408534136891365,0.019296236622333526,0.008145312532782554
1769667558786440400,3.7774404296875,0.3094938191950321,0.0023560616068542,0.04744213465452194
1769667558796428500,3.787428466796875,0.16719488776028155,-0.04444470640420913,0.10903050275705754
1769667558806417400,3.79741748046875,0.6676514237940311,0.03557268703207373,0.016682912318781017
1769667558816405200,3.8074052734375,1.170457153302431,0.16570961763858794,0.08890840976983308
1769667558826394400,3.817394287109375,0.8742185369998217,0.3316203108072281,0.19508812620565294
1769667558836382500,3.827382568359375,0.7341641696214676,0.5424745998129248,0.08502024322487413
1769667558846371300,3.837371337890625,0.4284615594029426,0.0818120217680931,-0.06083017014637589
1769667558856359400,3.847359375,0.13083236552476882,0.005697627119719982,0.0146467303160578
1769667558866348500,3.8573486328125,0.13502747912704943,0.0775130093999207,-0.22182561874464152
1769667558876336400,3.86733642578125,-0.1479740544617176,0.16951441674903034,0.1283687518902123
1769667558886325200,3.8773251953125,-0.3645031742334366,0.03538564002737403,0.24000505323149263
1769667558896313300,3.887313232421875,-0.274167069748044,0.041476065856963396,0.21596388710439204
1769667558906302500,3.897302490234375,-0.49256665956676005,0.1348503689944744,0.2320226761754602
1769667558916291600,3.90729150390625,-0.32389702307879925,0.4065595241963863,0.17024284062143413
1769667558926279400,3.917279541015625,0.3914671690046787,0.464303418765217,0.4354362572537735
1769667558936268300,3.927268310546875,0.41655134137868877,0.48371714428737755,0.6421691189479083
1769667558946256400,3.93725634765625,-0.30669512838721275,0.356117330943048,0.5415362960495055
1769667558956245500,3.94724560546875,-0.7207868016541004,0.4151347525790334,0.9367478392142802
1769667558966233600,3.957233642578125,-0.5934890399962663,0.6839056623719633,0.80406224703826
1769667558976222500,3.967222412109375,-0.36383214310407636,1.3038818734079598,0.7786428513605147
1769667558986210300,3.977210205078125,-0.1035316861450672,1.764481176958233,0.8263198907494544
1769667558996199400,3.987199462890625,-0.14064648805260657,2.071336172082275,0.7791573036886751
1769667559006187500,3.9971875,-0.4458814807593822,1.985654323143512,0.7566562066104262
1769667559016176400,4.00717626953125,-0.7670476175695657,1.777387128021568,0.5505102414261549
1769667559026164200,4.017164306640625,-0.9941887322485446,1.4725122007988392,0.28326884275544434
1769667559036153300,4.0271533203125,-1.1588310129165649,0.9994666726514696,0.11089604090061038
1769667559046142500,4.037142578125,-0.7425438754320144,0.5677253609254956,0.21270181656852363
1769667559056130300,4.04713037109375,-0.284555192771554,0.2555900873109698,0.49529286966025826
1769667559066119400,4.057119384765625,-0.046481765189766884,0.12160744106173514,0.7702839691422879
1769667559076107300,4.067107177734375,-0.16854688689112662,-0.040149201167374846,0.9210242734469473
1769667559086096400,4.077096435546875,-0.00969137293100357,-0.09595496728047728,1.051715915326774
1769667559096084500,4.08708447265625,0.29133973834514615,-0.05728957493007183,1.049701945155859
1769667559106073300,4.0970732421875,0.15593991877436636,-0.2107012904010713,1.237938451901078
1769667559116061200,4.107061279296875,0.005585691177845001,-0.6617654344953596,1.1442264412418006
1769667559126050300,4.11705029296875,-0.017787001103162763,-0.9842325709015131,0.7934365158665925
1769667559136038400,4.127038330078125,0.3015016513973474,-1.1761306688942015,0.7848563921131193
1769667559146027300,4.13702734375,0.3293266469120979,-1.1611382669456303,0.72548270438537
1769667559156015400,4.147015380859375,0.09662497549653053,-1.1767004316061735,0.5061887960754334
1769667559166004200,4.157004150390625,0.03058160074651241,-0.918956527262181,0.37469708985909816
1769667559175992300,4.166992431640625,-0.15481296057105062,-0.5597073280341923,-0.07378818932366557
1769667559185981200,4.176981201171875,-0.12824293355345726,-0.07698167900219559,-0.6792188197299838
1769667559195970300,4.18697021484375,-0.19910276867449284,0.058966129840165374,-1.053487162782997
1769667559205958400,4.19695849609375,-0.34464462755322456,-0.28491876538693905,-1.6371299315474928
1769667559215947300,4.206947265625,-0.7277882048487663,-0.47148237048387526,-1.8727783239394424
1769667559225935000,4.21693505859375,-0.5950678336203098,-0.4192435030721128,-1.5598972003936766
1769667559235924200,4.22692431640625,-0.24265140302181243,-0.565746608198434,-1.5607706222273408
1769667559245912300,4.236912353515625,-0.08980535860955714,-0.7802980712216347,-1.4290942070938646
1769667559255901400,4.2469013671875,-0.23491584033370017,-0.7901766372878104,-1.4063687266752123
1769667559265889300,4.25688916015625,-0.6264309401333331,-0.8359474777292459,-1.5252854673482477
1769667559275878100,4.266878173828125,-0.14769231491088866,-0.537192202430591,-1.768922812667489
1769667559285866200,4.2768662109375,1.6545295407682656,-0.26546061620116235,-1.3141203588277102
1769667559295855400,4.28685546875,1.2297995691090822,-0.6611448914442211,-1.3503687531642614
1769667559305843500,4.296843505859375,-0.6994096671044826,-0.9030064592625945,-0.824790635355562
1769667559315832300,4.306832275390625,-0.9492273084938525,-0.47149786031395197,-0.3224935860216617
1769667559325821200,4.3168212890625,-0.11940730066895484,0.2915378912657499,-0.8236554207805543
1769667559335809300,4.326809326171875,-0.10161562339067458,0.7413533504731953,-0.5773781554117798
1769667559345798100,4.336798095703125,-0.13429624224305153,1.0906383511781692,-0.23006102071367202
1769667559355786200,4.3467861328125,0.3120283061087131,1.255408349879086,0.43460948757342993
1769667559365775400,4.356775390625,0.4938327339798212,0.5882367454912513,0.28724866963922974
1769667559375763200,4.36676318359375,-0.31393150938153264,0.36698534643799063,0.03943286959156394
1769667559385752300,4.37675244140625,-0.5810691188842058,-0.3494393875490874,0.04051481960937381
1769667559395740200,4.386740234375,-0.04903320323824882,-0.9102874831162393,-0.10717420736588537
1769667559405729300,4.396729248046875,0.20857786850631235,-0.6838382231589406,-0.28316337308697404
1769667559415717400,4.40671728515625,0.28087445843219755,-0.5921290767546743,-0.11236351963728666
1769667559425706500,4.41670654296875,0.3483317916333675,-0.5860219189859927,-0.1660847345612943
1769667559435694300,4.4266943359375,0.283635739839077,-0.5080233180262148,-0.16580869409888982
1769667559445683200,4.43668310546875,0.0853764362514019,-0.41824207094460725,-0.07049187859147786
1769667559455672300,4.44667236328125,-0.04012859677076339,-0.8235567827116698,-0.1686648141823709
1769667559465660400,4.456660400390625,-0.19514263287186623,-0.9971100995879619,-0.24363091557845473
1769667559475649300,4.466649169921875,0.0695557667851448,-0.9168542942859232,-0.25282113405428824
1769667559485637000,4.47663720703125,0.2906102550268173,-0.5565135004289448,-0.3812076407968998
1769667559495626200,4.486626220703125,-0.0659352382004261,-0.398620840151608,-0.23105280822999774
1769667559505614300,4.4966142578125,-0.11059095700681208,-0.25713380962163207,-0.07427388134822249
1769667559515603200,4.506603271484375,0.05018354231715202,-0.09706840841509401,-0.020393676470220088
1769667559525591300,4.51659130859375,-0.018380875343084333,-0.04468998640216887,-0.022580811250954864
1769667559535580400,4.526580322265625,0.06923544878959656,-0.03399228597283363,-0.029292729979753494
1769667559545568300,4.536568359375,0.13375497497320174,0.03971146733723581,-0.09739479082524775
1769667559555557400,4.546557373046875,0.256891525298357,-0.008049670138582586,-0.16234744772911072
1769667559565545200,4.556545166015625,0.46541620231270786,-0.03358575099855661,-0.1620320981696248
1769667559575534300,4.566534423828125,0.4468231455236673,-0.051299832995980975,-0.11270663398653268
1769667559585523500,4.5765234375,0.37908056564033027,-0.05676270151175558,-0.06979439784660935
1769667559595511300,4.58651123046875,0.17991817573308944,-0.013673939761146902,-0.016359598648548124
1769667559605500200,4.596500244140625,0.12310615518689155,-0.0011969546996057033,0.014542320093512534
1769667559615488300,4.60648828125,0.04680032961964607,0.03709083651006222,-0.01172507071569562
1769667559625477400,4.616477294921875,-0.05954992107748985,0.011972469605505466,0.014050444923341274
1769667559635465500,4.626465576171875,-0.024365210449695585,-0.004532236602157354,-0.03926730376631021
1769667559645454000,4.6364541015625,-0.07312953361868858,-0.010263765991479159,0.0035948096215724945
1769667559655442200,4.646442138671875,-0.13192892858982086,-0.025993396173417567,0.021491408579051494
1769667559665431300,4.656431396484375,0.0032698154509067535,-0.04326148796901107,0.024889672715216873
1769667559675419400,4.66641943359375,0.04271335256695747,-0.006541311402246355,-0.020753157432377337
1769667559685408300,4.676408203125,0.05416881256103515,-0.0011235241372138261,0.01883212624192238
1769667559695396000,4.68639599609375,0.029491467422246932,0.011572802763432264,-0.015344868648052215
1769667559705385200,4.69638525390625,0.07446575065851212,0.0007635317184031009,-0.03325812647938728
1769667559715374300,4.706374267578125,0.11650047331154345,0.0008175269279628992,-0.00427884636297822
1769667559725362200,4.716362060546875,0.07147066049575805,-0.013351064482331275,0.017249240964651108
1769667559735351300,4.726351318359375,0.1044207439392805,0.0010592267293483017,0.024671499919891357
1769667559745339400,4.73633935546875,0.21543606383800507,0.0024519231967628,-0.0073443714134395115
1769667559755328300,4.746328369140625,0.14289923541545868,0.008325053013861178,-0.03524535477384925
1769667559765316400,4.75631640625,0.04368716603517532,0.0142241209898144,-0.01907265699952841
1769667559775305200,4.76630517578125,0.06235971780121326,0.025473025561124085,-0.010105214428901672
1769667559785293300,4.776293212890625,-0.020148469537496567,0.0017464052759110927,-0.0007383972771465778
1769667559795282400,4.786282470703125,0.001979191118478775,0.0004566577263176441,-0.0253165198251605
1769667559805270300,4.796270263671875,0.057988663110136986,-0.02318045764453709,0.007285480833053588
1769667559815259100,4.806259033203125,0.04755202476978302,0.010196399843692779,-0.005065320565551519
1769667559825247200,4.816247314453125,0.005000000244379043,0.012867811010032891,0.0034440029740333555
1769667559835236400,4.826236328125,-0.021685762107372282,-0.007836758040264248,0.017461276280134917
1769667559845225200,4.83622509765625,-0.03188333099484444,-0.004789645429328084,-0.0113043610855937
1769667559855213000,4.846213134765625,-0.009291559958457946,-0.008502747668325901,-0.01284369948208332
1769667559865202200,4.8562021484375,0.05496376233100891,-0.010389949654415248,-0.02489464115127921
1769667559875190300,4.866190185546875,0.006827800193428993,0.008433920215815306,-0.040312867296487094
1769667559885179400,4.876179443359375,0.014192191481590271,-0.029958865738287568,0.0061887716375291345
1769667559895167200,4.886167236328125,0.04732581479847431,-0.023872239300981164,-0.015708295132964848
1769667559905156400,4.89615625,-0.028510055169463155,-0.0046031829465180635,-0.019458733707666397
1769667559915144200,4.906144287109375,-0.006482347756624221,-0.006970788860693573,-0.02058744547665119
1769667559925133300,4.91613330078125,-0.03280629105865955,0.0008078092515468597,-0.0026619126856327053
1769667559935121400,4.926121337890625,-0.0987047043800354,0.007258885087072849,-0.01121653667166829
1769667559945110300,4.9361103515625,-0.06926876653730869,-0.008241101057454943,0.008628419874608516
1769667559955099400,4.946099365234375,0.0002817395508289337,-0.001209010463580489,-0.01980725488439202
1769667559965087200,4.956087158203125,0.03860299463868141,-0.00514087001979351,-0.017643354848772285
1769667559975076000,4.966076171875,0.052631519991159434,-0.003409077791124582,-0.015732845052331686
1769667559985064200,4.976064208984375,0.05262801285982131,-0.027705606918781996,-0.049162236445397134
1769667559995053300,4.98605322265625,0.08194646180272101,-0.0012681933049112557,-0.022451193521916865
1769667560005041400,4.99604150390625,0.07521218511164188,-0.00004763853400945663,-0.04150251547247171
1769667560015030300,5.0060302734375,0.07254968790411949,-0.016305603438988327,-0.009422492861747742
1769667560025018000,5.01601806640625,-0.0020528408765792846,-0.0009192337367683648,-0.012785831815004348
1769667560035007200,5.02600732421875,-0.053075172105431556,-0.003037979456409812,-0.019514555548131463
1769667560044995300,5.035995361328125,0.07938041070699692,-0.017435557316988707,-0.01823839813247323
1769667560054984400,5.045984375,0.15621464406251906,-0.006295081556215882,-0.059373249336332076
1769667560064972300,5.05597216796875,0.017927286356687545,0.0030789690539240835,-0.029219957004487512
1769667560074961200,5.065961181640625,0.045536593294143675,-0.008018763543665408,-0.0021457798570394516
1769667560084950300,5.0759501953125,0.03375613912940025,-0.00982106372527778,-0.0153204648591578
1769667560094938400,5.0859384765625,-0.06174187816381454,-0.019422128024324775,-0.02781272055506706
1769667560104927200,5.09592724609375,-0.053075172105431556,-0.0002740677010267973,-0.0061892100289464
1769667560114915300,5.105915283203125,-0.06721358757317066,-0.01850296735279262,-0.004686842641979456
1769667560124904400,5.115904541015625,-0.10407178437113761,-0.0014360241524875163,-0.02562149412110448
1769667560134892300,5.125892333984375,-0.10924363405108452,0.02257438151016831,-0.014197452178597449
1769667560144881200,5.135881103515625,-0.015566986966133118,0.01661751893237233,-0.025407266848534345
1769667560154869200,5.145869140625,-0.013432897546887397,0.0068583414621651165,-0.074166621581465
1769667560164858400,5.1558583984375,0.017570728003978728,0.0007922463562339544,-0.05476867815032601
1769667560174846200,5.16584619140625,-0.030090017837285994,0.025311551389098165,-0.02269596206322312
1769667560184835000,5.1758349609375,-0.007929623955488204,-0.0022127806786447764,-0.061528381543606514
1769667560194824200,5.18582421875,0.08900047196745872,-0.008237009404227138,-0.03181333449855447
1769667560204812300,5.195812255859375,0.10938041217327117,-0.016314152071624993,-0.03844868085980415
1769667560214801400,5.205801513671875,0.11070026260018348,-0.022074980620667338,-0.05119374227300286
1769667560224789500,5.21578955078125,0.06492810698449611,-0.00406578813418746,-0.02856558474898338
1769667560234778000,5.225778076171875,-0.004614800319075584,0.011027955297008157,-0.012441840682923793
1769667560244766200,5.23576611328125,0.036976854741573334,-0.008758622125536204,-0.0016163491554558277
1769667560254755300,5.24575537109375,0.0645931759417057,-0.0021964140657335517,-0.03671323536932468
1769667560264743400,5.255743408203125,0.04351473207771778,-0.02432648587450385,-0.03635112405866384
1769667560274732300,5.265732177734375,0.012006079614162444,-0.022074176903069016,-0.004563362392783165
1769667560284720000,5.27572021484375,-0.01497252820432186,-0.00981996774673462,0.008949614652991295
1769667560294709200,5.285709228515625,0.001924246060848236,-0.02201930491067469,-0.018095482530444858
1769667560304697300,5.295697265625,0.033407764083147044,-0.009684504798799752,0.019732143821567297
1769667560314686200,5.305686279296875,0.026419220370054244,-0.03376980232857168,-0.008969050005823374
1769667560324675300,5.31567529296875,0.0669634122043848,-0.015531550326570867,0.006881283946335315
1769667560334663400,5.325663330078125,0.12153262225985527,-0.02723740488514304,0.0012897475495934486
1769667560344652300,5.33565234375,0.10417933639883994,-0.01744125640541315,0.015387684876471757
1769667560354640100,5.34564013671875,0.10148936666250229,-0.018246727569401263,0.022158348055183887
1769667560364629200,5.355629150390625,0.09797171393036842,-0.019819822105020285,-0.004986556240916252
1769667560374617300,5.365617431640625,0.05490881727337837,-0.015878683263808487,-0.006187748724222183
1769667560384606500,5.3756064453125,0.07057751104831696,-0.0026829554736614225,-0.024513386748731134
1769667560394594300,5.38559423828125,0.11072247443199157,-0.005459726710617542,-0.0047400341339409345
1769667560404583200,5.395583251953125,0.09741232648193836,-0.00471826069355011,-0.015991203727573157
1769667560414571300,5.4055712890625,0.0830757580935955,-0.005902355911582708,-0.0023714053064584732
1769667560424560400,5.415560302734375,0.03658756316304207,-0.006287555836886167,-0.01579655793830752
1769667560434549200,5.42554931640625,0.004655132329463958,0.006255991654843092,0.014386398879438638
1769667560444537000,5.435537109375,-0.013853168785572051,-0.002118745719641447,0.012339841613173485
1769667560454526200,5.445526123046875,-0.02351414657831192,-0.000985650036484003,0.012685878571867941
1769667560464514300,5.455514404296875,0.010236731854081154,-0.003574205224961042,-0.002693184606730938
1769667560474503200,5.465503173828125,0.053029579398036,0.007679448586702347,-0.020749504170566795
1769667560484491300,5.4754912109375,-0.004339490509033203,0.003766805187612772,-0.01115077795907855
1769667560494480400,5.48548046875,-0.023905191722512244,-0.008142828314751386,-0.013715075489133595
1769667560504468200,5.49546826171875,0.052879941794276235,-0.0034128771834075447,-0.015312573813647031
1769667560514457300,5.505457275390625,-0.015563479834794997,-0.014988602556288241,-0.005613748228549957
1769667560524445200,5.515445068359375,-0.04773673368692398,-0.0028511516474187372,0.016244447836279867
1769667560534434300,5.525434326171875,-0.035388124245405196,0.003617167583853006,0.0006967500925064087
1769667560544422400,5.53542236328125,-0.10575754550099373,0.0007759528085589408,0.00441737805083394
1769667560554411300,5.545411376953125,-0.07641220855116844,0.004080401181429624,0.00016980360895395277
1769667560564400000,5.555400146484375,-0.010939911687374114,-0.010419833336025476,-0.010494359876960515
1769667560574388200,5.56538818359375,-0.039616555595397944,-0.00520297547057271,-0.014760639019310474
1769667560584377300,5.57537744140625,-0.04246200815439224,-0.0032883740209043023,-0.007595131304115057
1769667560594365400,5.585365478515625,-0.048187400063872336,0.003698562256991863,-0.02063625305444002
1769667560604354300,5.595354248046875,-0.052739072018861764,0.003331920901685953,-0.018181114987283944
1769667560614342100,5.605342041015625,-0.019700141248106956,-0.0004728782087564468,-0.01162409455925226
1769667560624331300,5.615331298828125,0.023388474372029303,-0.011869739883393049,-0.013406155670434235
1769667560634319400,5.6253193359375,-0.01764730037152767,-0.0018277999490499495,-0.015185878694057464
1769667560644308200,5.63530810546875,-0.0037000235617160797,-0.011829407873004674,-0.023687603449076413
1769667560654296000,5.645296142578125,0.02041618056297302,-0.006319558410346508,-0.0017972586803138256
1769667560664285200,5.65528515625,-0.0849362912684679,-0.0015279402196407318,-0.031477818933874364
1769667560674274300,5.6652744140625,-0.09052373601198196,-0.0030798458367586132,-0.012155132696032524
1769667560684262400,5.675262451171875,-0.025661095479130744,-0.017381927433609962,0.006156915194541215
1769667560694251300,5.685251220703125,0.09222001853585243,-0.0064857087574899195,-0.036265929993242026
1769667560704239400,5.6952392578125,0.2077005011498928,0.008509908061474562,-0.045666357153654094
1769667560714228500,5.705228515625,0.2085059723138809,-0.028109803805500266,-0.04485986307635903
1769667560724216300,5.71521630859375,0.16728315056562423,-0.04284983842819929,-0.027618805418163535
1769667560734205200,5.725205078125,0.13123685467243193,-0.0432664564050734,-0.03409223921597004
1769667560744193300,5.735193359375,0.09195873725116252,-0.019444412921369076,-0.03181917971745133
1769667560754182400,5.745182373046875,0.05018178875148296,-0.01955050364434719,-0.0026342940263450144
1769667560764170200,5.755170166015625,0.038198505491018296,-0.016623802542686462,-0.013450287073105574
1769667560774159000,5.7651591796875,-0.021262568259239195,-0.034003391888737675,-0.004080839572846889
1769667560784148200,5.775148193359375,-0.01730827767550945,-0.025481062737107277,0.00710004126355052
1769667560794136300,5.78513623046875,0.12115794372856616,0.01499722425416112,-0.002110416282713413
1769667560804125200,5.795125244140625,0.13332593590617178,-0.00759980747923255,-0.03913403277546167
1769667560814113300,5.80511328125,0.08872165502607822,-0.009824497791379689,-0.021378888115286827
1769667560824102100,5.81510205078125,0.1029740522623062,-0.002316460248827934,-0.013143997602909803
1769667560834090200,5.82509033203125,0.00689502021074295,-0.01592851375490427,-0.016650982810556887
1769667560844079400,5.835079345703125,-0.09825169991552829,-0.009401742334663867,-0.00336187764853239
1769667560854067200,5.845067138671875,-0.1596077936321497,-0.012047872929275035,0.025477555605769156
1769667560864056300,5.855056396484375,-0.061306993877887725,-0.01854556438550353,-0.014251520453393458
1769667560874044200,5.865044189453125,0.09199673117399215,0.01839651130363345,-0.013541034096479415
1769667560884033300,5.875033203125,0.016768763971328735,-0.01722293747961521,-0.03186053464114666
1769667560894022100,5.885022216796875,0.0005821838021278381,0.01594736458584666,-0.004223316783457994
1769667560904010200,5.89501025390625,0.020919453909993172,0.022909312552958725,-0.017743746483325957
1769667560913999400,5.904999267578125,0.051015901488065715,-0.003937777840346097,-0.003341273251920938
1769667560923987500,5.914987548828125,0.03307107947468758,0.020427432609349486,-0.007383095988631248
1769667560933976000,5.92497607421875,-0.02452887657880783,0.005345598811656236,0.023446926560997963
1769667560943964200,5.934964111328125,-0.033332945281267165,0.012262684723734854,0.027688948044925926
1769667560953953300,5.944953369140625,-0.012408230674266815,-0.022724895896762607,0.0050695583492517465
1769667560963941400,5.95494140625,-0.054444122371077534,0.027050650141388178,0.015393968486785889
1769667560973930200,5.96493017578125,-0.01832300767600536,0.023136399307101964,0.018859598770737646
1769667560983918000,5.97491796875,0.04179623772203922,0.022491233271360395,0.003509469425678253
1769667560993907200,5.9849072265625,0.1986415809035301,0.006707096423208713,-0.0012178513571619986
1769667561003895300,5.994895263671875,0.14424480480551718,0.024223756152391432,-0.015039455960690975
1769667561013884400,6.004884521484375,0.0845049141138792,0.03839958102107048,-0.0008497486971318721
1769667561023873300,6.014873291015625,0.05624035813808441,0.03852905261963606,0.0076566522330045695
1769667561033861000,6.024861083984375,0.03026654344797134,0.009179624016582965,0.004009820163249969
1769667561043850200,6.034850341796875,0.08789631011784076,0.02283683183863759,-0.010202683454006909
1769667561053838300,6.04483837890625,0.06544891598820686,0.027266338718682524,-0.014483867904543877
1769667561063827200,6.0548271484375,0.04050035269260406,-0.00827098473906517,-0.02554185301363468
1769667561073815300,6.064815185546875,-0.0221381820499897,0.0022458792306482792,0.013907675451785326
1769667561083803400,6.074803466796875,-0.07626607807874679,-0.009305588483810424,0.01634936951547861
1769667561093791500,6.08479150390625,-0.022963526958227155,0.005587883134931326,-0.005514379507303237
1769667561103780600,6.094780517578125,-0.11498013187646865,-0.004761515313386917,0.0051703883752226825
1769667561113768700,6.104768798828125,-0.08537409816384316,0.0019194237552583216,0.010995149005949497
1769667561123757600,6.114757568359375,0.028459201765060425,0.009293313524127007,-0.022170623014867306
1769667561133746700,6.12474658203125,-0.04077273989319801,0.02100830123722553,-0.020011545284837482
1769667561143734500,6.134734619140625,0.01794189940392971,0.030865093863010406,-0.011114537601917981
1769667561153723400,6.144723388671875,0.15454992572069168,0.025839813046902416,-0.058982934844493864
1769667561163711500,6.15471142578125,0.09611994858384132,0.02819178300052881,-0.05985913315713405
1769667561173700600,6.16470068359375,0.05101356340050697,0.012029022098332643,-0.05047215000018477
1769667561183688700,6.174688720703125,0.07297638888359069,0.012049041973054408,-0.07199453823938966
1769667561193677300,6.18467724609375,0.03742226042151451,0.021817425663024186,-0.02702712313532829
1769667561203665400,6.19466552734375,0.05232639956474304,0.004309679892659187,-0.06224851251170039
1769667561213654500,6.204654541015625,-0.05158347224295139,0.023139906438440085,-0.01029328434690833
1769667561223642600,6.214642578125,0.061516837236285205,0.004530044645071029,-0.02547273330017924
1769667561233631500,6.224631591796875,0.020114567267894744,0.031671295679360625,-0.04611439318209886
1769667561243620600,6.23462060546875,-0.08430968380272388,0.01362578977048397,-0.03310235139578581
1769667561253608400,6.2446083984375,0.0010743512332439423,0.0035458559133112427,-0.02546177351474762
1769667561263597600,6.25459765625,-0.14405425066947936,0.012930939374119042,-0.011347323444485663
1769667561273585700,6.264585693359375,-0.09841945769786835,-0.011932283725589512,-0.004842909986525774
1769667561283574500,6.274574462890625,0.10417875187695026,-0.0015868308000266552,-0.005669862329959869
1769667561293562400,6.284562255859375,0.13542320044636724,0.003679273034632206,-0.03930719738528132
1769667561303551500,6.294551513671875,0.13082652030587197,0.01419043791592121,-0.02384717792496085
1769667561313539600,6.30453955078125,0.12367606402933597,0.01311097211614251,-0.008485212011635303
1769667561323528400,6.314528564453125,0.03383797219395637,0.009594342297315596,-0.017535802821069955
1769667561333516500,6.3245166015625,0.09970248324573039,0.012445640075206757,-0.005988572890311479
1769667561343505700,6.334505615234375,0.12676643126010895,0.04450666572451591,-0.05220306544601917
1769667561353494500,6.34449462890625,0.022160978403687477,0.009542758240550757,-0.05080620426014065
1769667561363482400,6.354482421875,0.006283610314130782,0.009328092576563357,-0.008728665378689765
1769667561373471500,6.364471435546875,-0.02475976272523403,-0.0017785539798438547,-0.022214169895648957
1769667561383459600,6.37445947265625,-0.17315175033807753,-0.021560966683924196,0.01634483947083354
1769667561393448700,6.38444873046875,-0.1142716913461685,-0.04164075489938259,0.01621975178644061
1769667561403436500,6.3944365234375,0.006700958943367004,-0.006616495530307293,-0.013979863905161618
1769667561413425400,6.40442529296875,0.004946224230527877,0.002116992153972387,-0.004527122035622597
1769667561423413500,6.41441357421875,0.07803133418560028,-0.010438099645078181,-0.02448708326369524
1769667561433402600,6.424402587890625,0.05786415994763374,0.00879566620029509,-0.020461627139896153
1769667561443390700,6.434390625,0.06418985583782195,0.018791575035825372,-0.022853198451548814
1769667561453379600,6.444379638671875,0.14593231950104235,0.022187720280140637,-0.033352380634099246
1769667561463368400,6.454368408203125,0.15645780516862867,0.024821137523651123,-0.048410541295260186
1769667561473356500,6.4643564453125,0.07384148128032685,0.046369463921710846,-0.04116071629747748
1769667561483345400,6.474345458984375,0.000187047004699707,0.0006799450881779193,-0.026310060907155274
1769667561493333500,6.48433349609375,0.030461189237236976,0.009169541013985871,-0.02427855507954955
1769667561503322600,6.494322509765625,0.06538403405845165,0.012018573769554496,-0.024719430714845655
1769667561513310500,6.504310546875,0.017433949881792067,-0.00837568722255528,-0.024193945536017416
1769667561523299300,6.51429931640625,0.031181904727220534,-0.004328311527892947,-0.033292467140406366
1769667561533287400,6.524287353515625,0.08222937039732933,-0.02890110031366348,-0.03564838261678815
1769667561543276500,6.534276611328125,0.032934301352500917,-0.005098492182791233,-0.01887596538364887
1769667561553264600,6.5442646484375,-0.017931962531805037,0.003762932730093598,-0.01289163027703762
1769667561563253800,6.554253662109375,-0.04562894775271415,0.00886127878241241,-0.0002478372812271118
1769667561573242400,6.564242431640625,-0.08647299931645393,0.0059074704781174655,0.01004281671717763
1769667561583230500,6.57423046875,-0.016827216160297392,0.0032709844946861265,0.0034931028127670287
1769667561593219600,6.584219482421875,0.05259644867777824,0.017247560464218256,-0.004605155707895756
1769667561603207700,6.594207763671875,0.08829904569983482,-0.0034079818125814197,-0.009607786300778388
1769667561613196500,6.604196533203125,0.11840659919381141,-0.0041226328879594805,-0.017142419589310884
1769667561623184400,6.614184326171875,0.11209493182897567,0.007067381102964281,-0.019400866040587425
1769667561633173500,6.624173583984375,0.08939794685244559,-0.010087605706974864,-0.025557635104656216
1769667561643161600,6.63416162109375,0.055465282112359994,0.007534048766642808,-0.013788140725344419
1769667561653150500,6.644150390625,0.050285249125957485,0.005525631553679704,-0.007148994971811771
1769667561663138600,6.654138671875,0.03315641967058182,-0.0012396247975528238,-0.01790551291629672
1769667561673127400,6.66412744140625,-0.02707154679894447,0.007287745855376124,-0.013804507338255643
1769667561683116500,6.674116455078125,-0.044528877556324,-0.0016506167512387036,0.004493512026965618
1769667561693104400,6.6841044921875,-0.0027449147939682004,-0.009746829445287585,-0.013549801924824714
1769667561703093500,6.694093505859375,-0.005126256972551346,0.00149316116720438,-0.017036913388222455
1769667561713081600,6.70408154296875,-0.0404161815404892,-0.006125131816789507,-0.0048538697719573975
1769667561723070700,6.71407080078125,0.016640753677487373,-0.0041795507069677116,-0.023334990619122982
1769667561733058600,6.72405859375,0.0834369926214218,-0.022269845605641603,-0.027275252677500247
1769667561743047400,6.73404736328125,0.07526888373494148,0.003947933908179402,-0.025844781482964752
1769667561753035500,6.744035400390625,0.04616553884744644,-0.003069689768925309,-0.00958382090330124
1769667561763024600,6.754024658203125,0.029194530302286147,0.0036170214533805846,-0.016541823347657917
1769667561773012700,6.7640126953125,-0.012028291445970535,0.015842296776175498,-0.01931684101894498
1769667561783001300,6.77400146484375,-0.0028431144714355467,0.006396276908367872,-0.03411664300486445
1769667561792990500,6.783990478515625,0.040913609668612475,0.010326529029384255,-0.034214696551859373
1769667561802978600,6.793978515625,0.122532739213109,0.00020494798757135868,-0.04359831870794296
1769667561812967400,6.803967529296875,0.035083003818988795,-0.015965484764426947,-0.018364800991117952
1769667561822955500,6.81395556640625,0.05351531708836555,-0.014203224332258105,-0.016934183666110037
1769667561832944600,6.823944580078125,0.06279284852147102,-0.001998626471310854,-0.0281181332424283
1769667561842932500,6.833932373046875,0.023773089775443075,0.00041851767301559446,-0.0064295946560800074
1769667561852921600,6.843921630859375,-0.015028642305731773,-0.007052694990485906,-0.011807488302141428
1769667561862909400,6.853909423828125,-0.037545010018348694,-0.012594108635187149,-0.024949147817492485
1769667561872898600,6.863898681640625,-0.017114216408133504,-0.009637304656207562,-0.02182400153428316
1769667561882887700,6.8738876953125,0.03202770790159702,-0.004213891367986798,-0.023471330349892378
1769667561892875500,6.88387548828125,0.018529928424954413,-0.027634733639657495,-0.027288404420018196
1769667561902864400,6.893864501953125,0.026049218013882637,-0.0017864450253546238,-0.01298573830127716
1769667561912852500,6.9038525390625,0.08633154501914977,-0.012787293119728564,-0.019956015705317257
1769667561922841600,6.913841552734375,0.13342881175875662,0.0019024726204574106,-0.03716872405186295
1769667561932829700,6.92382958984375,0.102870007365942,-0.009643734396994114,-0.010545651672780513
1769667561942818600,6.933818603515625,0.06624620384573936,0.023741160267218946,-0.006426672046631574
1769667561952806400,6.943806396484375,0.08078150967657566,0.008497486971318722,-0.016612404365837573
1769667561962795500,6.95379541015625,0.08389175065159797,-0.022945041453465816,-0.03398483331874013
1769667561972783600,6.96378369140625,0.003492518290877342,0.007172229716926813,-0.047679888933151955
1769667561982772500,6.9737724609375,0.06290624576807022,-0.026660774040967224,-0.035514088712632653
1769667561992761600,6.98376171875,0.116311088219285,-0.039245384195446965,-0.035449352913349864
1769667562002749400,6.99374951171875,0.15174538969397544,-0.03133256524428725,-0.03242956670075655
1769667562012738600,7.003738525390625,0.09796469966769218,-0.005123480493575334,-0.03490969307869673
1769667562022726700,7.0137265625,-0.052072717064619065,-0.013417553847283124,-0.016078151358664035
1769667562032715500,7.023715576171875,-0.08925532351136208,-0.009556932896375655,-0.014333938039839266
1769667562042703600,7.03370361328125,-0.011953472644090652,-0.008095920433104038,-0.028036738569289444
1769667562052692500,7.0436923828125,0.1622948407590389,-0.028374299960583448,-0.050251200725883245
1769667562062680600,7.0536806640625,0.30171909354031085,-0.028521161085367203,-0.06116919284239411
1769667562072669400,7.06366943359375,0.3689887952148914,0.029305151069909333,-0.030344138728827238
1769667562082658300,7.073658203125,0.23974399114251135,0.024390929412841794,-0.05400967647656798
1769667562092647400,7.0836474609375,0.19948855312168598,0.03753302731961012,-0.03634118718653917
1769667562102636000,7.093635986328125,0.26609891410470005,0.06510843198746442,-0.0201034613519907
1769667562112624000,7.1036240234375,0.2858978395521641,0.03292246478423476,-0.04215075024813413
1769667562122613200,7.11361328125,0.34959085178375243,0.04540171486809849,-0.07056947387233375
1769667562132601300,7.123601318359375,0.5425736762732267,0.22037088989168405,-0.02084507349953055
1769667562142590200,7.133590087890625,0.48296764109432694,-0.08722001829147338,-0.008058511032164097
1769667562152578000,7.143578125,0.2809516153216362,0.03649097092077136,-0.07442424960434436
1769667562162567200,7.153567138671875,0.2180442005097866,0.09144055859595536,-0.039424394024163485
1769667562172555300,7.16355517578125,0.07442015795111656,0.07072276473790406,0.04500979294106364
1769667562182544100,7.173544189453125,0.358019657433033,0.10416092395931481,0.0950511503085494
1769667562192532200,7.1835322265625,0.4749491698116064,0.09510945636704564,0.028044629614800212
1769667562202521000,7.19352099609375,0.164478614538908,0.14181969655044377,0.07036708316802978
1769667562212510200,7.20351025390625,-0.09387538452744483,0.20313319323435425,0.0011678747355937957
1769667562222498300,7.213498291015625,-0.07858604545891285,0.2905559675563127,-0.0617199585929513
1769667562232487200,7.223487060546875,-0.3750327515542507,0.2253615377858281,0.09386194052398204
1769667562242475300,7.233475341796875,-0.22326047385334968,0.2592133193094283,0.08857201742231845
1769667562252464400,7.24346435546875,-0.08525953187346458,0.2436591918248683,0.14462759357802568
1769667562262452200,7.2534521484375,-0.21537994973659513,0.3175008192356676,0.1524552184637636
1769667562272441000,7.263441162109375,-0.3335837198346853,0.07057268874272704,-0.00469436836130917
1769667562282429200,7.27342919921875,-0.2732300811588764,0.021891002355888485,0.1260376785941422
1769667562292418300,7.283418212890625,-0.12603636341989038,-0.15680771458484233,0.004867898297309875
1769667562302407200,7.2934072265625,-0.05729600467085838,-0.14338431551866232,-0.06276800634115934
1769667562312395000,7.30339501953125,0.15520400571525095,0.06321933030523359,0.012388429995253681
1769667562322384100,7.313384033203125,0.44031390976011753,0.3352503378726542,0.15567944120727478
1769667562332372200,7.323372314453125,0.4619599243789911,0.6320041371557861,0.2946200751900673
1769667562342361000,7.333361083984375,0.30082185243964193,0.9509326511070132,0.6490728339217603
1769667562352349200,7.34334912109375,0.31136136663258074,1.0539211702860891,0.4344088139021769
1769667562362338300,7.35333837890625,0.16501637467741964,0.9772194772690534,0.5247857983872294
1769667562372326100,7.363326171875,0.23657237536907194,1.8897570773996413,0.9839403099566697
1769667562382315300,7.373315185546875,0.39488077684044837,3.1634894578680393,0.9676958621203898
1769667562392303000,7.38330322265625,-0.1885562402188778,3.3317554819911717,0.9417605528097599
1769667562402292200,7.393292236328125,-0.7857645929992199,3.2096552889764305,1.0035045498654245
1769667562412281300,7.40328125,-1.050643609920144,3.0703263132631777,1.1542599056087433
1769667562422269200,7.413269287109375,-0.7443851193845271,2.8749019408404823,1.064943791820854
1769667562432258000,7.423258056640625,-0.46256373549103735,2.3424580289155243,0.7593142468385398
1769667562442246100,7.43324609375,-0.5516811118364334,1.8719559016406535,0.5334540753481909
1769667562452235300,7.4432353515625,-1.0892015963733195,1.272421590130776,0.9866012727942317
1769667562462223400,7.453223388671875,-1.3077087382197379,0.5665206613108515,1.2203446352824567
1769667562472212000,7.4632119140625,-0.8289701129972934,0.32883813274279233,1.1121285907134413
1769667562482200000,7.473199951171875,-0.7268488781720399,0.4661296112790704,1.1950931435175238
1769667562492189200,7.483189208984375,-0.8100842107415199,0.5308338463798165,1.2755489283710717
1769667562502178300,7.49317822265625,-0.5748065513581038,0.5151294967696071,1.1679144100170582
1769667562512166100,7.503166259765625,-0.4182523000776768,0.5252367570251226,1.0823482233472168
1769667562522155300,7.5131552734375,-0.0726712684571743,0.7133392621271312,1.3107900453612207
1769667562532143000,7.52314306640625,0.27547639878094193,0.8916090861313044,1.112392575411871
1769667562542132200,7.53313232421875,0.13054711884260176,1.0128872952386736,0.9671114132959395
1769667562552120300,7.543120361328125,-0.04724573529958725,1.0313485423415898,0.8348108749147504
1769667562562109200,7.553109130859375,-0.4820896892160177,1.341045482893288,0.4519565628893673
1769667562572097300,7.56309716796875,-0.7537351315319538,1.4511775902166961,0.06192757346164435
1769667562582086100,7.573086181640625,-0.7626397379994392,1.618315048701316,0.17327952316990122
1769667562592074200,7.58307421875,-0.7031698964208364,1.335042881477624,0.15846439575068652
1769667562602063000,7.59306298828125,0.021705635851621625,0.8087826266236603,-0.0367154775587609
1769667562612052200,7.60305224609375,0.09733458507061005,0.65178223901093,-0.13090204236065037
1769667562622040300,7.613040283203125,-0.8185615317076445,0.7349677410893142,-0.39580293318666515
1769667562632029200,7.623029296875,-1.0721429095447064,0.6503289714626967,-0.8214709894135593
1769667562642017000,7.63301708984375,-0.2813859150856733,0.17484759447053075,-0.7507980551667511
1769667562652006100,7.643006103515625,-1.6148954495161771,0.00033040099814534183,-0.4625970532387495
1769667562661994200,7.652994140625,-0.22830314419567585,-0.5454074383944273,-1.7338687426820396
1769667562671983400,7.6629833984375,2.258116780930757,-1.344094202939421,-1.1765640918754041
1769667562681971200,7.67297119140625,1.0952145730525256,-1.3708071455590427,-0.19931602783268315
1769667562691960000,7.6829599609375,0.544978983849287,-1.1620762784481047,-0.28286146753095087
1769667562701949200,7.69294921875,-0.2069078894674778,-1.3188516251333058,-0.3697555052710697
1769667562711937300,7.702937255859375,-1.584630075111985,-0.987534681186825,-0.28430903599075974
1769667562721926100,7.712926025390625,-1.7796639869123696,-0.08317907233759761,-0.12101902844822034
1769667562731914200,7.722914306640625,0.4545014250665903,0.11268617572039365,-0.005356663628364913
1769667562741903400,7.7329033203125,-0.36196167305707927,0.0965748527444899,-0.3251169202625751
1769667562751891200,7.74289111328125,-0.15429273608922958,0.16081424681246279,-1.5397617364682257
1769667562761880000,7.752880126953125,1.2290806071847677,0.22556188266351818,-1.5777878080017864
1769667562771868200,7.7628681640625,0.7261059508502483,-0.6010717502102255,-1.6465312354907393
1769667562781857300,7.772857177734375,-2.7441350417673585,-2.805349096664786,-2.340685904676467
1769667562791846400,7.782846435546875,-2.7472365149140354,-5.19570226469934,-2.2187059770405293
1769667562801834000,7.792833984375,0.9880290405750274,-6.7953726725548504,-2.241031059964746
1769667562811823000,7.802822998046875,3.084002956438064,-5.7660325474262235,-1.1643580327097325
1769667562821811200,7.812811279296875,0.12348141824007033,-3.218325502166152,-0.6431679937921464
1769667562831800300,7.82280029296875,0.7865180417150258,-2.409525047624856,-0.48326355530098075
1769667562841788400,7.832788330078125,1.6345710408449172,-2.450180590879172,-0.10250511957630515
1769667562851777000,7.842777099609375,0.6081611239492893,-2.6651091435864567,-0.288021261446923
1769667562861765000,7.85276513671875,0.9466934061020612,-2.6300769931718704,-0.7289120943121612
1769667562871754200,7.862754150390625,1.3913684336811303,-2.0320310205236076,-0.8393671499796211
1769667562881743000,7.8727431640625,0.8459270930171012,-1.0254930212464184,-0.7516955885283648
1769667562891731200,7.882731201171875,0.27784546599984167,-1.2174050746992229,-0.5431280952855945
1769667562901720300,7.89272021484375,0.10937807408571243,-1.4092996655605732,-0.5639636703044176
1769667562911708200,7.902708251953125,0.37778351156711576,-0.6485590391807258,-0.3430927219361067
1769667562921697000,7.912697021484375,0.4707873739570379,-0.11680303645469248,-0.1683143933095038
1769667562931685000,7.92268505859375,0.2503986561477184,-0.06708923054113984,-0.08265446394160389
1769667562941674200,7.93267431640625,0.07309270873963833,-0.016690803364291785,-0.09803601133823395
1769667562951662300,7.942662353515625,0.01610240901708603,0.007208177813142537,-0.04880976974591612
1769667562961651200,7.952651123046875,0.09725742818117142,0.03248195447511971,-0.04230199528709054
1769667562971640000,7.96264013671875,0.23737550844550132,0.020759879434108734,-0.027265315805375574
1769667562981628200,7.972628173828125,0.2016787566423416,0.06681603962294758,-0.0019974574275314805
1769667562991617300,7.9826171875,0.17063713716864584,0.09756897834837436,0.040955841375142334
1769667563001605400,7.99260546875,0.13250000647604465,0.06317169177122414,-0.005315495934337377
1769667563011594200,8.00259423828125,-0.014518354696035385,0.040269466546177864,0.02462020812407136
1769667563021582000,8.01258203125,-0.05689034647941589,0.042212125046551224,0.039299452470242975
1769667563031571200,8.0225712890625,-0.0046294133663177485,0.026979338470846412,0.013990093038231134
1769667563041559300,8.032559326171874,-0.04241816901266575,0.039238369932770724,-0.03272416573315859
1769667563051548200,8.042548095703125,-0.002353285127878189,0.036819106896594164,-0.020455781920999287
1769667563061537300,8.052537353515625,0.11851415122151374,0.025328356393426656,-0.001302753161638975
1769667563071525000,8.062525146484376,0.20142741222977636,0.026345716742426157,0.00819382784962654
1769667563081514000,8.072513916015625,0.18099018887877463,0.02405497545674443,0.016540800434350966
1769667563091501800,8.082501708984376,0.19771160657703876,0.02530475632213056,-0.005324848284572362
1769667563101490700,8.09249072265625,0.057526306295394895,0.04390007813349366,-0.006279664791375398
1769667563111478800,8.102478759765624,-0.16354922473430633,0.019949512899294496,-0.008774988738447427
1769667563121468000,8.112468017578125,-0.11773439902067184,0.004270589991286397,0.0016249708533287047
1769667563131455700,8.122455810546874,0.07347089440226555,0.008372107025980948,-0.006319996801763772
1769667563141444600,8.132444580078126,0.12228081027865409,-0.005074453720077872,-0.010931436119973659
1769667563151433700,8.142433837890625,0.10307692811489104,0.014003902367874979,-0.0021247370690107344
1769667563161421800,8.152421875,-0.008074585384130478,0.012671630850806831,0.04325461983680725
1769667563171410700,8.16241064453125,-0.07092939322590827,0.0032424159873276947,0.04735153376162052
1769667563181398800,8.172398681640624,-0.07195932079553603,0.02180558909475803,0.010836451312899589
1769667563191388000,8.182387939453125,-0.11833353395760059,0.023367358518764376,-0.007476327230036258
1769667563201375700,8.192375732421874,-0.06451660357415676,0.009334960708767175,0.003749415661394596
1769667563211364900,8.20236474609375,-0.023963059389591215,-0.0023626374781131744,0.00137508774548769
1769667563221352700,8.212352783203125,0.015346622213721274,0.0057964843843132255,0.01402794083058834
1769667563231341800,8.222341796875,0.03946691799163818,-0.007801832857355475,0.021132950530201196
1769667563241331000,8.2323310546875,-0.03862929812371731,0.0065115738511085505,0.02031461988463998
1769667563251318800,8.24231884765625,0.011653028392791748,-0.005926978896185755,-0.01743935670927167
1769667563261307600,8.2523076171875,0.022195465195178985,0.006215367383509874,-0.019129063361883164
1769667563271295700,8.262295654296874,-0.02200257297158241,-0.0037406478330492972,0.006999211237579584
1769667563281284900,8.272284912109376,-0.07492635390758513,-0.027733006382361054,0.02691767141148448
1769667563291273000,8.28227294921875,-0.17796470357775687,-0.03787964880019426,0.014386545009911059
1769667563301261600,8.292261474609376,-0.15511457386612892,-0.03957914619445801,0.03463102226778865
1769667563311249700,8.302249755859375,-0.13386018891334533,-0.02277370347455144,0.00019435352832078933
1769667563321238800,8.31223876953125,-0.10923895787596702,-0.026112930899858472,-0.019447335530817508
1769667563331228000,8.322227783203125,0.03785422209799289,-0.014270079023391008,-0.028014818998426196
1769667563341215700,8.3322158203125,0.03627192134261131,-0.003920022987946868,-0.031678456072509284
1769667563351204900,8.342204833984376,-0.005050853648781776,-0.006310059929639101,-0.020243454344570637
1769667563361192700,8.352192626953125,-0.001533200916647911,-0.01649221205227077,-0.044942134532332416
1769667563371181800,8.362181884765626,-0.047367315852642054,-0.0073326079104095694,-0.040353053176403045
1769667563381170000,8.372169921875,0.005566401955485344,-0.030813436741009354,-0.02458031450510025
1769667563391158800,8.38215869140625,0.0718301414579153,-0.006839344500750303,-0.032362638944387435
1769667563401147000,8.39214697265625,0.05111643925309181,-0.018647344259545204,-0.015295184287428855
1769667563411135700,8.4021357421875,-0.03010638445019722,0.00031688392944633956,-0.006302168884128332
1769667563421124600,8.41212451171875,-0.08890811750888825,-0.003646978200227022,-0.0007706921115517615
1769667563431112700,8.42211279296875,-0.09143091398477554,-0.002005640733987093,0.0064577978372573844
1769667563441101800,8.432101806640626,-0.040459436160326004,-0.0018393442563712596,-0.006647475190460682
1769667563451090000,8.44208984375,-0.051855274921655654,0.002682224821299314,-0.025559096409380436
1769667563461078800,8.452078857421874,0.0614297434747219,-0.012505991960316896,-0.01791530365794897
1769667563471066600,8.462066650390625,0.14995383010208607,-0.04113090568110347,-0.02871186135187745
1769667563481055700,8.4720556640625,0.12268413038253784,-0.00344794849678874,-0.015027911653369664
1769667563491043800,8.4820439453125,0.2737286783307791,-0.017897768001258373,-0.0271770530000329
1769667563501032700,8.49203271484375,0.22180092269480228,-0.016891367437690496,-0.05765533950254321
1769667563511020500,8.5020205078125,0.18279753056168555,0.0038902854368090627,-0.04114420355409384
1769667563521009700,8.512009765625,0.18215280291736125,-0.004434913707524538,-0.028059388792514798
1769667563530998800,8.521998779296876,0.13597148197889328,-0.020989742667227983,-0.03350274889022112
1769667563540987000,8.53198681640625,0.15910568932890892,-0.008836217406392097,-0.021570465164631604
1769667563550975700,8.541975830078124,0.1269207450389862,-0.018273761706799268,-0.017431319533288477
1769667563560963800,8.5519638671875,0.02391279050707817,-0.016086480795592068,-0.015469810201972722
1769667563570953000,8.561952880859375,0.0009036708414554595,-0.020920622953772543,0.016498130336403845
1769667563580940800,8.57194091796875,0.03423953873217106,-0.045658027716726064,-0.006843874545395374
1769667563590929700,8.5819296875,0.02726853067576885,-0.03887187470793724,-0.013544395097345114
1769667563600918800,8.591918701171876,-0.04768646480441093,-0.003617752105742693,-0.00278480841293931
1769667563610907000,8.601906982421875,-0.0522106642305851,-0.023219109154492615,0.007617489266395569
1769667563620895700,8.611895751953124,0.049824645876884455,-0.01626753645092249,-0.010546820716559886
1769667563630883600,8.621883544921875,0.061572366815805434,0.002517243517935276,-0.022075053685903546
1769667563640872700,8.631872802734375,0.03763385734558105,-0.005423632483929395,-0.010059475591033696
1769667563650860800,8.64186083984375,0.0682534520149231,-0.003431435753405094,0.0018467969104647636
1769667563660850000,8.651849853515625,0.00009703063368797301,0.015589052667468786,-0.00859510212689638
1769667563670837800,8.661837646484376,0.003997545203566551,-0.007637655271589755,0.001298223116993904
1769667563680826600,8.67182666015625,0.02383212648630142,0.0076491995789110655,0.014804185900092123
1769667563690815700,8.681815673828124,0.0389998850017786,0.014220833054184912,-0.017591040139645336
1769667563700803800,8.691803955078125,0.031577041524648665,0.014473346510529518,0.0043787996061146256
1769667563710792700,8.701792724609374,-0.029517770907282827,0.0072882573120295994,-0.0022439795345067974
1769667563720780800,8.71178076171875,0.002461421677470207,0.017752368181198835,0.010987257960438727
1769667563730770000,8.72177001953125,0.11817045235037803,0.022506284710019826,-0.01981499979943037
1769667563740757800,8.7317578125,0.09589198504686355,0.01903203272819519,0.013217355100065468
1769667563750746600,8.74174658203125,-0.051315176695585246,0.02892915736436844,0.027355039915442466
1769667563760734700,8.751734619140626,0.0029880759000778198,0.022566490464657543,0.020096885480731724
1769667563770723800,8.761723876953125,0.07716039656996726,0.013778349983692168,0.011369389145821333
1769667563780713000,8.771712890625,0.019983634364604947,0.011643968303501605,-0.0011282733775675297
1769667563790700800,8.78170068359375,0.07450316005945205,0.019836042587459086,-0.04233633594810962
1769667563800689700,8.791689697265625,0.023020225581526756,0.024554887802898884,-0.030496552811563014
1769667563810677800,8.801677734375,-0.04255260904729366,0.03315320480018854,-0.007531564548611641
1769667563820667000,8.8116669921875,-0.016820201897621154,0.01355287066474557,-0.0005430208355188369
1769667563830655000,8.821655029296876,-0.01952303111553192,0.00913476196154952,0.005873129817098379
1769667563840643800,8.831643798828125,-0.02063186914026737,-0.0090920918636024,-0.027023762134462594
1769667563850631700,8.841631591796874,-0.025574001717567442,-0.004358195209503174,-0.002545300568640232
1769667563860620800,8.851620849609375,-0.0124175830245018,0.0018524959988892077,-0.010935673903673887
1769667563870609700,8.861609619140625,0.011525602620840071,-0.010588321770727634,-0.01371112996637821
1769667563880597800,8.87159765625,-0.005526069945096969,-0.015607903498411178,-0.02162964800596237
1769667563890587000,8.8815869140625,-0.0523673160970211,-0.021801351311057805,-0.004605155707895756
1769667563900574700,8.89157470703125,0.005336100330948829,-0.0019847440764307975,0.011883914539217949
1769667563910563600,8.9015634765625,-0.03935761239826679,-0.013246142803132533,0.00082914430052042
1769667563920551700,8.9115517578125,0.05702011033892631,0.0015025135174393653,-0.02493555768355727
1769667563930540800,8.921540771484375,0.00958382090330124,0.009533113629370928,-0.035431378865242
1769667563940529000,8.93152880859375,-0.09609773675203323,-0.002450608022511005,0.01920885059982538
1769667563950518000,8.94151806640625,0.05673369461297988,-0.0019771452918648717,-0.010225333677232265
1769667563960506600,8.951506591796875,0.029154782813787458,0.0004151566721498966,-0.026849720741808414
1769667563970494700,8.96149462890625,0.014085808497667312,-0.014243044885993003,-0.0050970308780670165
1769667563980483800,8.97148388671875,0.0861824919372797,0.020195523549616335,-0.031829408850520845
1769667563990472000,8.981471923828124,0.14872224248051644,-0.00986263784468174,-0.05308788545653224
1769667564000460800,8.991460693359375,0.07781389204263686,-0.011592968768626451,-0.03466068675369024
1769667564010448600,9.00144873046875,-0.015272387933731079,0.011030658710747956,-0.026219752275198696
1769667564020437800,9.011437744140625,-0.010277063864469528,-0.017015432208776472,-0.02010097713395953
1769667564030425900,9.02142578125,0.050425534379482266,-0.0020186463460326195,-0.023382336892187595
1769667564040414700,9.031414794921876,0.10029343487620353,0.010566256069391966,-0.029798779805749652
1769667564050403800,9.04140380859375,-0.14115852922797203,-0.04483618993982672,0.01783376285433769
1769667564060391700,9.0513916015625,-0.0921603973031044,-0.00318783625587821,0.015570932488888502
1769667564070380800,9.061380859375,-0.09087269558012485,-0.01749371724501252,0.006870031899958848
1769667564080368600,9.07136865234375,-0.14540098910331725,-0.03220700999125838,0.025884967362880706
1769667564090357500,9.081357421875,0.01906593499779701,-0.005177694898843765,0.0023315116874873636
1769667564100345600,9.091345703125,0.06375964772701263,-0.011641630215942859,-0.034022827241569756
1769667564110334700,9.101334716796876,0.07200842063426971,-0.012523527617007493,-0.012576134587079285
1769667564120322600,9.111322509765625,0.11274141303896903,0.030170974119007585,-0.024618454558402298
1769667564130311400,9.1213115234375,0.03369593337476253,0.01779357697442174,-0.007644377273321151
1769667564140300500,9.131300537109375,0.06741583214700221,-0.0000564063623547554,-0.018105857793986796
1769667564150288600,9.14128857421875,0.10407762959003448,-0.014623714766651391,-0.045401860998570916
1769667564160277500,9.151277587890625,0.09715513685047626,0.0697454441383481,-0.037660014700144524
1769667564170265600,9.161265625,0.048048868376016615,-0.00002937222495675087,-0.007657090624421835
1769667564180254500,9.17125439453125,0.01855973904132843,0.002214972635731101,-0.02389525485038757
1769667564190242600,9.18124267578125,0.0547767153263092,-0.0010006284099072218,-0.015125380678474902
1769667564200231700,9.191231689453126,0.160565825009346,-0.013722308947518467,-0.01837079234048724
1769667564210219500,9.201219482421875,0.1226420448064804,0.00852305980399251,-0.012591039895266293
1769667564220208600,9.211208740234374,0.0994108068227768,0.005584083742648363,-0.007859627459198236
1769667564230197800,9.22119775390625,0.1603261710345745,0.017521628165245055,-0.03544613804295659
1769667564240185600,9.231185546875,0.09862053322792053,0.029701237715408203,-0.009177724320441484
1769667564250174500,9.241174560546876,0.01726560757756233,-0.019863368985801932,0.00353051221370697
1769667564260162600,9.25116259765625,0.0677215370953083,0.003017667320743203,-0.010353343971073627
1769667564270151700,9.261151611328126,0.06371171693205833,0.012994140803441405,-0.009579436989128588
1769667564280139800,9.271139892578125,0.09200842161178588,-0.017076880072429777,-0.034815292793512344
1769667564290128400,9.28112841796875,0.07398118201196194,-0.01291384210884571,-0.05128054377362132
1769667564300116500,9.291116455078125,-0.02367839722931385,0.03062229808308184,-0.04384951699003577
1769667564310105600,9.301105712890624,0.021791560569405555,0.0012107640292495488,-0.04166413577497005
1769667564320094500,9.311094482421876,0.0627940175652504,0.00766110921241343,-0.07237170098870992
1769667564330082600,9.32108251953125,0.04041851962804794,-0.007972294053435325,-0.060391924859583376
1769667564340071700,9.33107177734375,0.04775894551873207,-0.053416752084717155,-0.05659969296976924
1769667564350059500,9.3410595703125,0.06482581565380097,-0.04077135165371001,-0.040286563811451195
1769667564360048600,9.351048583984374,0.07333820793330668,-0.05040237269960344,-0.026632278598845004
1769667564370036500,9.361036376953125,0.006299976927042007,-0.04771642155125737,0.00025017536878585813
1769667564380025600,9.371025634765624,-0.048156420403718946,-0.04328011960424483,0.012992168042063712
1769667564390013400,9.381013427734375,-0.0295277077794075,-0.011686565336212516,-0.002228489704430103
1769667564400002600,9.39100244140625,0.02061491800546646,-0.023056100612506267,0.009415916990488767
1769667564409991400,9.400991455078126,-0.039918168890476224,-0.009643149875104427,0.008325053013861178
1769667564419979500,9.4109794921875,-0.06841302649080754,-0.001966404702141881,0.0011808803476393223
1769667564429968600,9.42096875,0.023155250138044356,-0.0031833792764693497,-0.016817571549117564
1769667564439956700,9.430956787109375,0.04138064265847206,-0.01499919701553881,-0.017075784093886614
1769667564449945600,9.440945556640624,0.017938976794481275,0.0036467590045183894,-0.04417202694267034
1769667564459933400,9.450933349609375,-0.0015291092634201048,0.0068230509530752895,-0.018091390877217055
1769667564469922600,9.460922607421875,-0.015803133809566498,0.020855083436891436,-0.025666794567555187
1769667564479911700,9.47091162109375,-0.009452888000011444,0.004867971362546086,-0.041777240760624404
1769667564489899500,9.4808994140625,0.02671265035867691,0.003615852409601211,-0.02676949511244893
1769667564499888600,9.490888671875,0.03892798880934715,0.0013671236347407101,-0.020896803686767815
1769667564509876500,9.50087646484375,0.0048550388157367706,0.00022365268804132936,-0.017498539550602436
1769667564519865600,9.510865478515624,0.025038579666614533,0.00009396189376711845,-0.03409121630266308
1769667564529853700,9.520853759765625,0.036490532529354094,0.010047273696586489,-0.0251814952686429
1769667564539842600,9.530842529296875,0.010295768564939498,0.007188084873184561,-0.017944383621960876
1769667564549830700,9.54083056640625,0.013557985231280326,0.0008012333802878856,-0.024247867680341005
1769667564559819500,9.550819580078125,0.00810498052239418,0.0006664280194789171,-0.03057590165808797
1769667564569808400,9.560808349609376,-0.0023100305080413818,-0.004892521281912922,-0.015505904428660868
1769667564579796500,9.57079638671875,-0.012763035461306572,-0.007247413844987749,-0.024089900639653203
1769667564589785600,9.58078564453125,0.039297406643629074,0.002328150686621666,-0.0141201491586864
1769667564599773700,9.590773681640625,0.09371054935455321,0.004310337479785084,-0.029073534271121023
1769667564609762600,9.600762451171875,0.07256722356081008,-0.006462400947138667,-0.0186013862259686
1769667564619750400,9.61075048828125,0.024360534274578093,-0.016027882476150987,-0.021727847683429717
1769667564629739500,9.620739501953125,0.052744917237758634,-0.008834317710250615,-0.04043620141521096
1769667564639727600,9.6307275390625,0.04102233074009418,-0.00725099404156208,-0.024499065962433814
1769667564649716700,9.640716796875,0.013545710271596907,-0.027343203347176312,-0.01829699645191431
1769667564659705600,9.65070556640625,0.01782148789465427,-0.02533493226468563,0.0031298224583268166
1769667564669693400,9.660693359375,-0.024844518399238586,-0.013492372649163007,0.006206599555164575
1769667564679682600,9.6706826171875,-0.00947743791937828,-0.024879005190730094,-0.015135171420127153
1769667564689670700,9.680670654296875,0.04642331300079822,-0.012814473387598991,-0.02717252295538783
1769667564699659500,9.690659423828125,0.04879705639481544,-0.02517353115789592,-0.032871757510304446
1769667564709647600,9.700647705078126,0.0532429298877716,-0.013569164212420583,-0.01279576868712902
1769667564719636700,9.71063671875,0.02277823351919651,-0.006426379785686731,-0.013388181622326373
1769667564729625300,9.720625244140624,0.019684359157085416,-0.011141717869788407,-0.02479775664806366
1769667564739613400,9.730613525390625,0.021679916888475415,-0.019729513473063707,-0.004658347199857235
1769667564749602600,9.7406025390625,0.05692074161767959,0.00437383117005229,-0.028532267001271247
1769667564759590700,9.750590576171875,0.03313654592633247,-0.01759301290102303,-0.02666471956372261
1769667564769579800,9.760579833984375,0.059144847407937046,-0.009710808283835649,-0.009290975436568259
1769667564779567400,9.7705673828125,0.034437691652774806,-0.014023849177360534,-0.028873773915320634
1769667564789556500,9.780556396484375,-0.013639233773946761,-0.011811726085841655,-0.026243425411731004
1769667564799544600,9.790544677734376,0.032983985713124275,-0.002873071218281984,-0.022639555700868366
1769667564809533700,9.80053369140625,0.02816051107943058,-0.005912365848943591,-0.013162117781490087
1769667564819522600,9.8105224609375,-0.029853870993852612,0.00457804850526154,-0.004119125756621361
1769667564829510700,9.8205107421875,0.004987725284695625,0.0045431233223527665,-0.01958762078434229
1769667564839499500,9.83049951171875,0.02241173829436302,0.005928586331382393,-0.034090485650300976
1769667564849487600,9.840487548828126,-0.04749474162459373,0.008892696833983063,-0.01742445140108466
1769667564859476500,9.8504765625,-0.007472527837753295,0.006179273156821727,-0.0021206454157829285
1769667564869464600,9.860464599609376,0.06035539224147796,0.006191182790324092,-0.014054828837513923
1769667564879453700,9.87045361328125,0.02273205628991127,-0.001470510943979025,-0.009116787913441657
1769667564889441500,9.880441650390624,0.06037760407328605,-0.0019487959802150724,-0.021910364643484354
1769667564899430400,9.890430419921875,0.08447744158506393,-0.008879618156701326,-0.019662147325277327
1769667564909419500,9.90041943359375,0.04838730655014515,0.00828077548071742,-0.019073095390945673
1769667564919407600,9.91040771484375,0.030493337941169738,-0.003357055342942476,-0.012346271353960037
1769667564929396700,9.920396728515625,0.07366086401641368,-0.0009532090716063976,-0.02437178632095456
1769667564939384600,9.930384521484376,0.055552960395812985,-0.007433072610199451,-0.01772811052277684
1769667564949373400,9.94037353515625,-0.0055599722146987916,-0.027547493747621773,-0.0037507308356463905
1769667564959361500,9.950361572265624,0.06395604708194733,-0.010547843629866839,0.0011199439406394957
1769667564969350700,9.9603505859375,0.1049134958922863,-0.008769289650022983,-0.005039893863350153
1769667564979338800,9.9703388671875,0.03734218092262745,0.0031748306438326834,-0.01403948513790965
1769667564989327600,9.98032763671875,0.03501403023600578,-0.03120996177792549,-0.018487988979369402
1769667564999316500,9.99031640625,0.054047232007980346,-0.03038812400102615,-0.04728767474517226
1769667565009304600,10.0003046875,0.028193828827142713,-0.025958763251453635,-0.027988077121973036
1769667565019293400,10.01029345703125,0.13575170174837112,-0.030586569182574748,-0.01670271299779415
1769667565029281500,10.020281494140624,0.1988426564335823,-0.03473784364312887,-0.040256753195077176
1769667565039270700,10.030270751953125,0.17332243072986603,-0.00005392214432358741,-0.06056640464365482
1769667565049258500,10.040258544921874,0.17807810082435607,0.04661109065786004,-0.04657762677967548
1769667565059247600,10.05024755859375,0.2036824976801872,0.07237740007713436,-0.029995033030211924
1769667565069235500,10.0602353515625,0.3629366555690765,0.08081395064145326,-0.059978375622630115
1769667565079224600,10.070224609375,0.4711152907371521,0.10352364896908402,-0.06516366930603981
1769667565089214000,10.0802138671875,0.4605553182780742,0.08416384559124708,-0.05367109217196703
1769667565099201800,10.090201904296874,0.5518658207535744,0.14273966093957424,-0.06951207377389072
1769667565109191000,10.10019091796875,0.5302759202361107,0.18650573742985724,-0.07536079980209469
1769667565119179000,10.110178955078124,0.4296434626638889,0.18639219405278562,-0.010952771168947219
1769667565129168000,10.12016796875,0.3155576492786407,0.6051663260474801,0.15501140575259922
1769667565139156000,10.130156005859375,0.2709972075402737,0.9590136662319302,0.4907506961859762
1769667565149144800,10.140144775390626,0.44348026483654973,0.6397695835255086,0.6473661761343479
1769667565159133000,10.1501328125,0.7153449028611183,0.38414325585737824,0.6483233307287096
1769667565169122000,10.1601220703125,1.179752220392227,0.6294323139064013,0.5979186930067837
1769667565179111000,10.17011083984375,1.1509703625440597,0.9630996203713118,0.7210455987207591
1769667565189098800,10.1800986328125,0.9040776686906814,1.8699980455711482,0.7793870207913219
1769667565199087900,10.190087890625,0.26827158196866513,2.830139546789229,0.7389579797692597
1769667565209076000,10.200075927734375,-0.9294155235648155,1.9112367955408989,0.038321766544505954
1769667565219064800,10.21006494140625,-0.609150134986639,1.0260913524657487,-0.25530286786742507
1769667565229053000,10.220052978515625,-0.23976035775542257,0.9421839658536016,-0.6238698574736714
1769667565239041800,10.230041748046874,-0.5482359398186206,0.9393485962972045,-0.8471829382970929
1769667565249031000,10.240031005859375,-0.41269700403809545,2.389607464233786,0.1442980693627149
1769667565259019000,10.25001904296875,-0.30985505372285843,3.122869862709939,0.13869802086595445
1769667565269008000,10.2600078125,-0.21995266447961329,2.675430923375487,-0.1103068063031882
1769667565278996000,10.269995849609375,-0.1274608432650566,2.3054019714578984,0.1660703407097608
1769667565288985000,10.279985107421876,-0.40629532030224796,2.0119731518790123,0.20619632539832963
1769667565298973000,10.289972900390625,-0.6475503005295992,1.7531874833971262,-0.11567717422991991
1769667565308961800,10.2999619140625,-0.5550654935777187,1.6499636941574514,-0.32264198151640594
1769667565318950000,10.309949951171875,-0.4332125533223152,1.2524041996270416,-0.2755523500939831
1769667565328939000,10.31993896484375,-0.38845571222901343,0.938618236196041,-0.32354528703168034
1769667565338927900,10.329927978515625,-0.44464697052836416,0.5359957591876388,-0.12413412826145068
1769667565348915700,10.339915771484375,-1.2242518718540667,0.3213151898920536,0.23314128667553885
1769667565358904800,10.34990478515625,-1.1995453006207941,0.1398836869865656,0.633828429973498
1769667565368893000,10.359892822265625,-0.8214636828899383,0.04217120851427317,0.9513021420065313
1769667565378882000,10.369882080078124,-0.6420867744266986,0.17726985318139193,1.5558523089170455
1769667565388870000,10.379869873046875,-0.20437398707568644,0.5160983418017625,1.9148570318646727
1769667565398858800,10.389858642578124,0.11649345904886722,0.9960440047264099,2.1575212943680584
1769667565408846800,10.399846923828125,-0.7597820104807614,0.5784121746346355,1.7359901187501847
1769667565418836000,10.4098359375,-1.4708826999008655,-0.0779484782077372,1.3530154682807622
1769667565428824800,10.419824951171876,-0.9283914412140846,-0.15786679518371818,1.0792860592976212
1769667565438813000,10.42981298828125,-0.6878957549214363,-0.3521171553909778,0.9598539164483547
1769667565448802000,10.439802001953124,-0.6025695875525474,-0.9486031852461397,0.6854588100980967
1769667565458790000,10.449789794921875,-0.30038813719749446,-1.0916923902757465,0.32001798968836664
1769667565468778800,10.45977880859375,0.5113204598754644,-0.8764765450596809,0.06097721393425017
1769667565478766800,10.469766845703125,1.5933914737164974,0.21777049813494084,0.13852021661363542
1769667565488756000,10.479755859375,0.9875117387026547,1.0779387363418935,0.27240499197896567
1769667565498745000,10.4897451171875,-0.8206763319045305,1.3076251515895128,0.3719752271471545
1769667565508732700,10.499732666015625,-1.3446791632205246,0.7298452835090458,-0.3433390979126096
1769667565518721800,10.5097216796875,-1.3486357918918133,0.5750460592024028,0.1627489412020892
1769667565528710000,10.5197099609375,-1.4427952540576456,0.19885785400271414,-0.09104408835796639
1769667565538699000,10.529698974609374,-0.22100538840293882,-0.3990066245988011,-0.8112146760761737
1769667565548687000,10.53968701171875,1.0789385610342026,-0.89629870525226,-0.8313004556410014
1769667565558676000,10.549676025390625,2.271126484629512,-0.601882189810276,-0.43394251156467945
1769667565568663800,10.559663818359375,1.3315817812383175,0.3075402009092271,-0.02202248553173849
1769667565578653000,10.56965283203125,-0.43650458060503006,0.15977365171834826,-0.2047760285379365
1769667565588641800,10.579641845703126,-1.3197709319353104,0.7045208726383745,0.2935401344662532
1769667565598630000,10.5896298828125,-1.360025785434246,0.6476164976336062,0.5030580237690359
1769667565608619000,10.599618896484374,-1.6586580188751219,0.016246347532421348,0.23311421600552273
1769667565618606800,10.60960693359375,-0.6526350564479827,-0.6217508194930851,-0.7337506203845143
1769667565628595700,10.619595703125,1.4294330836594105,-1.1920078908532856,-0.7297437228307128
1769667565638583800,10.629583740234375,0.2670926013171673,-2.1473824699304997,-1.1550110893022267
1769667565648573000,10.639572998046875,-2.8021429940998552,-2.2320525114782153,-1.3243784257307647
1769667565658562000,10.64956201171875,-1.6207424219787119,-1.7248336417026817,-1.788311403748393
1769667565668550000,10.6595498046875,4.7546273074388505,-2.2238203974448143,-1.1674458426572383
1769667565678538800,10.669538818359374,0.9748363815248012,-2.6595406958043575,-0.7975573221236467
1769667565688526800,10.67952685546875,-2.718773806017637,-2.8125778788745404,-0.8136898340180516
1769667565698516000,10.689515869140624,-1.0078782349050044,-2.76047067501843,-0.6849664965365082
1769667565708504000,10.699504150390625,0.4372726423680782,-3.034508565428853,-1.1066006210722028
1769667565718493000,10.709492919921875,-0.19323592246770857,-3.1364678876906633,-0.9375959074109792
1769667565728480800,10.719480712890626,2.0309680674672124,-2.569094408942759,-0.8142123965874314
1769667565738470000,10.729469970703125,1.7839608073234556,-2.5169255380272864,-0.9908725934378803
1769667565748458800,10.739458740234374,1.3458137202084064,-1.7844916993297635,-0.7379157772399485
1769667565758446800,10.74944677734375,0.8719067529261112,-1.3705495175361633,-0.7170480535171926
1769667565768436000,10.75943603515625,0.7470400178074836,-1.1772351230047642,-0.5586877757281065
1769667565778423800,10.769423828125,0.8471820615142583,-0.8630460586655885,-0.5270695254102349
1769667565788413000,10.779412841796875,0.8298609243571757,-1.0369967773616313,-0.465223894611001
1769667565798400800,10.78940087890625,0.69913494181633,-1.2847101399481295,-0.41709041669145225
1769667565808390000,10.799389892578125,0.18895020797252654,-1.0997159030597656,-0.39909196479469533
1769667565818378000,10.8093779296875,0.043536359387636184,-0.6027426060318947,-0.19963176098465918
1769667565828367000,10.8193671875,0.0484720622241497,-0.22881240889206528,-0.03870280175134539
1769667565838356000,10.82935595703125,-0.0676560706436634,-0.10810220893099903,-0.10448708717375993
1769667565848343800,10.83934375,-0.20372692134380338,-0.041200463785976166,-0.08948124122172593
1769667565858333000,10.8493330078125,-0.19127192891836164,-0.0625962299708277,0.012559767974168062
1769667565868321000,10.859321044921876,-0.09880758023262023,-0.04390606948286295,0.022334727535396812
1769667565878310000,10.869309814453125,0.008048866420984268,-0.007155059386417269,0.040969431509077545
1769667565888297700,10.879297607421876,0.011005378139019011,0.03578340717330575,0.03859378841891885
1769667565898286800,10.889286865234375,-0.06523790358603,0.046641924187541005,0.022932108906656503
1769667565908276000,10.89927587890625,-0.06382745226621628,0.03806435771733522,0.019015958376228808
1769667565918263800,10.909263916015625,-0.07541267611980437,0.046094446372613306,0.006125935534387826
1769667565928253000,10.9192529296875,-0.06168810214996338,0.018747589763626456,0.019471885450184342
1769667565938241000,10.929240966796876,-0.05067921687960624,0.014953604308143258,0.034237346775084734
1769667565948230000,10.93922998046875,-0.07719079170823097,0.015733721835166217,0.02297434061318636
1769667565958218000,10.949218017578126,-0.0023719898283481597,0.011832038221508264,0.04888955698385834
1769667565968206800,10.959206787109375,-0.04139876283705234,0.025248349959775804,0.07071618886664509
1769667565978195000,10.96919482421875,0.011807342171669006,0.05134016500636935,0.057141106370091434
1769667565988184000,10.97918408203125,-0.014374562311172484,0.04427241857722401,0.05061535786315798
1769667565998173000,10.9891728515625,0.052320554345846176,0.05908288808763027,0.00010258359163999557
1769667566008160800,10.999160888671875,0.18748714968264102,0.040317689602077,-0.0227099905885756
1769667566018150000,11.00914990234375,0.08718494697809219,0.023379779608920216,0.020568448515236377
1769667566028138000,11.019137939453126,-0.08549684776067733,0.04441401900500059,0.04686681898459792
1769667566038126800,11.029126953125,-0.12128361593484878,0.01065276530906558,0.09736687990501522
1769667566048115000,11.039114990234374,-0.06243044494986534,0.044027357774972915,0.053237669190764426
1769667566058103800,11.049103759765625,-0.015776245802640913,0.028254399907961487,-0.007818126405030488
1769667566068093000,11.059093017578125,-0.07043254961967468,0.03574402501098811,0.013180384090542792
1769667566078080800,11.069080810546875,-0.13458616510033608,0.006485416496545076,0.024228432327508924
1769667566088070400,11.0790703125,-0.1451250947713852,-0.0024034078799188134,0.00995601521655917
1769667566098058200,11.089058349609376,-0.058214288559556,-0.03342529973983764,0.000005845218896865844
1769667566108047400,11.09904736328125,0.05743628992438316,-0.028421938494592902,-0.024018881230056285
1769667566118035200,11.10903515625,0.08485270463824271,-0.028899785139411688,-0.0270582489259541
1769667566128024300,11.1190244140625,0.020479308927059174,-0.04370572460517287,-0.03954743588194251
1769667566138012200,11.12901220703125,0.1046346789509058,-0.03548763909712434,-0.07177329670414329
1769667566148001300,11.139001220703125,0.09459902262687682,-0.02847030768096447,-0.07799509382843971
1769667566157990100,11.148990234375,-0.027115970462560653,-0.0361328051328659,-0.04494418035894632
1769667566167978200,11.158978271484376,-0.04068564613163471,-0.03905585297271609,-0.052159956956654784
1769667566177967400,11.16896728515625,-0.12847089709043502,-0.04272226652577519,-0.03404869233518839
1769667566187955500,11.17895556640625,-0.09889350495040417,-0.022185966714471577,-0.0015197569131851195
1769667566197944000,11.188944091796875,0.03684592183828354,-0.0489979857943952,-0.012165654090046881
1769667566207932200,11.19893212890625,0.09295125541985035,-0.03239507990926504,-0.022438041779398916
1769667566217921300,11.20892138671875,0.21400281616449354,-0.011885521974414587,-0.07843611559420824
1769667566227909400,11.218909423828125,0.11776362511515617,-0.02843158310577273,-0.05101882409751415
1769667566237898200,11.228898193359376,0.06665010847151279,-0.0021853812150657175,-0.008575959035009146
1769667566247887400,11.238887451171875,0.07456453485786914,-0.004823913025110959,-0.0317662804864347
1769667566257875200,11.248875244140624,0.058688335812091826,0.005457242492586374,-0.05747969067469239
1769667566267864300,11.2588642578125,0.21017185969948768,-0.0526123768992722,-0.009039192632585763
1769667566277852400,11.268852294921874,0.2092950768649578,-0.0004769698619842529,0.0019335984110832214
1769667566287841300,11.27884130859375,0.15544365969002247,-0.010597527990490197,-0.0814724145501852
1769667566297829400,11.288829345703125,0.13951543819606305,0.005671177504211664,-0.024286153864115475
1769667566307818200,11.298818359375,0.028061726880073547,-0.004899754740297794,-0.034021365936845537
1769667566317807000,11.30880712890625,-0.027265608066320418,-0.00022474866658449172,-0.029725422308593985
1769667566327795200,11.318795166015626,0.14475918406844138,0.029694881039857863,-0.06537029779404402
1769667566337784300,11.328784423828125,0.33337153838872907,0.031006402029842138,-0.07934431648030876
1769667566347772400,11.3387724609375,0.2906441572964191,0.002463759765028953,-0.028357494956254958
1769667566357761300,11.34876123046875,0.066714990401268,0.03381766005828976,-0.010552958196401596
1769667566367749000,11.3587490234375,0.010852233403921127,0.004103489796072245,0.004471300195157527
1769667566377738200,11.36873828125,0.02100187149643898,0.00821691646426916,0.02108808847516775
1769667566387726300,11.378726318359375,0.05413257220387459,-0.0043944355666637415,-0.004474515065550804
1769667566397715500,11.388715576171874,0.08187982630729675,0.02246770626530051,0.07177417348697782
1769667566407704300,11.398704345703125,0.3356219476640224,-0.00818316032513976,-0.15273907690644264
1769667566417692200,11.408692138671874,0.07323240947127342,0.007561521295458078,0.0512345126748085
1769667566427681300,11.418681396484375,-0.11641922476887702,-0.00849295692667365,0.002471066288650036
1769667566437669400,11.42866943359375,-0.06083353114724159,-0.005388853431493043,0.034750849255174396
1769667566447658200,11.438658203125,0.07671966706514358,-0.010898264502733946,0.04815919688269496
1769667566457646300,11.448646240234375,0.13376257375776768,-0.037937662597745656,-0.038229631281644104
1769667566467635500,11.458635498046876,0.10524784241318702,-0.006967647055536508,-0.002052694746106863
1769667566477623300,11.468623291015625,-0.0709153647005558,-0.015390169094502925,-0.017860796991735695
1769667566487612200,11.478612060546874,-0.07919920892119407,-0.02670227509513497,-0.06854878169968724
1769667566497601300,11.488601318359375,-0.021199439895153046,-0.0035296354308724403,0.009139438136667013
1769667566507589400,11.49858935546875,-0.05674830766022205,0.021315029098838565,-0.05906096851676702
1769667566517578200,11.508578125,-0.14012275643944738,-0.0380554437585175,0.10161986117437481
1769667566527566000,11.518566162109375,0.06685819826424122,-0.024931612160801885,-0.10599807625859975
1769667566537555200,11.52855517578125,0.08555763803720473,-0.004546849649399519,-0.04380217071697116
1769667566547543300,11.538543212890625,0.1749924097687006,0.008957359568029642,-0.09780907071456313
1769667566557532400,11.548532470703124,0.23834581478238104,-0.011276304034888744,0.011687076792865991
1769667566567520300,11.558520263671875,0.2892670237243175,0.05536547499969601,-0.04116933799535036
1769667566577509000,11.568509033203124,0.21750059515237807,0.027575696928799152,0.06655614657774567
1769667566587498200,11.578498291015626,0.045943420529365536,0.036123891174048184,-0.09439911614060402
1769667566597486300,11.588486328125,0.10038871194422244,-0.04822831659615039,-0.050460751823335884
1769667566607475200,11.59847509765625,0.07015314815640449,0.0012722118929028511,-0.10275018037855625
1769667566617463300,11.60846337890625,-0.017061024916172028,0.05060498259961605,-0.0593754412934184
1769667566627452400,11.618452392578124,-0.1640121660709381,-0.041903059097379444,0.07672171289175748
1769667566637440300,11.628440185546875,-0.10230652826428413,0.04788534837737679,-0.07702011131644249
1769667566647429000,11.63842919921875,-0.008158756536245346,-0.0018310148194432257,-0.03653203358352184
1769667566657418200,11.648418212890626,-0.09435118534564971,-0.005525047031790018,-0.031642654106765984
1769667566667406300,11.65840625,-0.021931261301040648,0.08865516566112637,0.049615679301321505
1769667566677395500,11.6683955078125,-0.01894084731340408,0.023396657678484915,0.04012976581454277
1769667566687383300,11.67838330078125,-0.007667758148908615,-0.0008756137907505035,-0.07934753135070204
1769667566697372200,11.6883720703125,0.16808394555449485,-0.007158055061101913,0.041254824321717024
1769667566707360300,11.6983603515625,0.13635142120718954,-0.018611615359038113,-0.0572232316955924
1769667566717349400,11.708349365234374,0.09157821350097656,0.04193637684509158,0.012471066777408122
1769667566727337500,11.71833740234375,0.08846855704784393,-0.041752983102202414,-0.009793664261698722
1769667566737326300,11.728326416015625,0.10953238786458969,0.004610124143958091,-0.12094605454355478
1769667566747315200,11.738315185546876,0.07608604533672332,0.001071136362850666,-0.08917261366397142
1769667566757303300,11.74830322265625,0.01588847400546074,0.00971972224265337,-0.11656593976318835
1769667566767292200,11.758292236328124,0.04909282447099685,0.006991612453013658,-0.06646393824964761
1769667566777280300,11.7682802734375,0.14611059867739676,-0.0014219956271350382,-0.008939385519921779
1769667566787269400,11.778269287109374,0.1025824225962162,0.01161868773177266,-0.004139291761815548
1769667566797257200,11.78825732421875,0.051885670059919356,0.020631576879322527,-0.01278247081413865
1769667566807246300,11.798246337890625,0.11690905411243438,0.015123042590916156,0.011735592109709977
1769667566817235200,11.808235107421876,-0.033815760362148284,0.0032492110542953014,0.015277502500265836
1769667566827223300,11.818223388671875,-0.1085387006521225,-0.012511544918268919,0.036954058387875556
1769667566837212400,11.82821240234375,0.004496726897358894,-0.01042918568626046,0.00539747512936592
1769667566847200500,11.838200439453125,0.02443944472968578,0.017911358135193584,-0.001797843202203512
1769667566857189000,11.848189208984374,0.004837503159046173,0.006028758770227432,-0.03808320854827761
1769667566867177200,11.85817724609375,0.023191490495204924,-0.0015574585750699043,-0.03705035836920142
1769667566877166300,11.868166259765625,0.06500935552716255,0.0031422435484826563,-0.024075579853355882
1769667566887154400,11.878154541015626,0.10979659175872802,-0.0017870295472443103,-0.03797390295490622
1769667566897143300,11.888143310546875,0.18421265805661677,0.019843056850135325,-0.09866787950098514
1769667566907132400,11.89813232421875,0.21393618066906928,0.03253624194562435,-0.05758768109381199
1769667566917120300,11.908120361328125,0.11624036107063293,0.056030368649214506,-0.04430442115068436
1769667566927109000,11.918109130859374,0.03947977747321128,0.01013356374055147,-0.020246084693074224
1769667566937097200,11.92809716796875,0.014136661902070045,0.003723696698248386,-0.03180924284532666
1769667566947086300,11.93808642578125,0.03821428758203983,0.010071166028827428,-0.06831263485625386
1769667566957074200,11.94807421875,0.13707622835040092,0.040862756264209744,-0.06696282768249512
1769667566967063300,11.958063232421875,0.21411621341109274,0.0309960267663002,-0.041737347141653294
1769667566977052200,11.96805224609375,0.1821031185567379,-0.005575315914303064,-0.051367199143767354
1769667566987040300,11.978040283203125,0.16285130559802055,0.0007937076609581708,-0.03971797014325857
1769667566997029400,11.988029296875,0.1403840377241373,-0.018088833593949673,-0.029556933873891827
1769667567007017500,11.998017578125,0.12804594967663288,-0.06084697515070438,-0.023671236836165187
1769667567017006300,12.00800634765625,0.13065817800164223,-0.014636574248224496,-0.03268032659143209
1769667567026994200,12.017994140625,0.16917641696631908,-0.01467946354188025,-0.059268912179023026
1769667567036983300,12.0279833984375,0.10325929894447326,-0.028066768381372093,-0.02879822446107864
1769667567046971400,12.037971435546876,-0.030869185516238212,-0.026885522707551717,-0.08273162083104252
1769667567056960300,12.047960205078125,-0.06418517966270447,-0.06493782466091215,-0.056669835596531624
1769667567066949400,12.057949462890624,-0.016083704316616057,-0.24034553723223506,-0.16103753417432307
1769667567076937200,12.067937255859375,0.029219080221652982,0.010180106296017765,-0.0601861731544137
1769667567086925800,12.07792578125,-0.013147066342830657,-0.03538666294068098,-0.10817089025303721
1769667567096914000,12.087913818359375,-0.11818331183195113,-0.12436528840251267,-0.09450944464728235
1769667567106902800,12.09790283203125,-0.028648586857318876,-0.1656390366204083,-0.151781630051136
1769667567116891000,12.107890869140626,0.09550327799022197,-0.24676490275524554,-0.29769553711265323
1769667567126880000,12.1178798828125,0.13295359546244143,-0.1300564857814461,-0.2782442560590803
1769667567136868600,12.12786865234375,0.2800713253557682,-0.09286313874498009,-0.1783564793743193
1769667567146856700,12.137856689453125,0.38759061983227727,-0.1573809113629162,-0.14127660264968872
1769667567156845800,12.147845703125,0.356259077501297,-0.32208975446112453,-0.21721827107965944
1769667567166834000,12.157833984375,0.17332593786120415,-0.5510801502685994,-0.3385166461922228
