time,seconds_elapsed,acc_z,acc_y,acc_x,gyro_z,gyro_y,gyro_x
1.76967E+18,0.07169873,-0.136084879,-0.113725748,-0.110178029,0.005753371,0.189011902,-0.023487125
1.76967E+18,0.081687744,-0.040542438,-0.097122988,-0.230521368,-0.013310068,0.236759439,-0.029310126
1.76967E+18,0.091675781,0.05387509,-0.377457348,-0.864802401,-0.111774124,0.293485373,-0.056007113
1.76967E+18,0.101665039,-0.131356389,-0.038195583,-0.555358303,-0.075790554,0.356798321,-0.07652358
1.76967E+18,0.111652832,-0.091885087,-0.358558587,-0.470277342,-0.147515997,0.444749504,-0.126135617
1.76967E+18,0.121641602,-0.234405553,-0.191462483,-0.636622518,-0.140532926,0.471373916,-0.110293262
1.76967E+18,0.131629639,-0.303964242,-0.046260231,-0.549382078,-0.234880477,0.589411974,-0.093218394
1.76967E+18,0.141618896,-0.189304428,-0.309167656,-0.677747432,-0.273309916,0.600946665,-0.088211119
1.76967E+18,0.151606934,0.164156835,-0.055427873,-0.424063945,-0.293898463,0.660862267,-0.140394017
1.76967E+18,0.161595947,0.096723175,-0.088477325,-0.338287221,-0.299634099,0.72628653,-0.186871782
1.76967E+18,0.17158374,0.054745736,-0.049279871,-0.271174281,-0.318531334,0.748378277,-0.212168634
1.76967E+18,0.181572754,-0.044980128,-0.249113877,-0.550958241,-0.418419331,0.824956119,-0.185643286
1.76967E+18,0.191560791,-0.035353637,-0.364922861,-0.600703501,-0.50185883,0.840590775,-0.138063371
1.76967E+18,0.201549805,0.283569981,-0.531270192,-0.359631915,-0.562051296,0.768848419,-0.105435386
1.76967E+18,0.211537598,0.34773441,-0.583009732,-0.018189371,-0.612550199,0.714978814,-0.113332592
1.76967E+18,0.221526611,0.4612471,-0.606923691,0.135465505,-0.630866885,0.635167837,-0.164526552
1.76967E+18,0.231514893,0.377173855,-0.682035338,0.514781852,-0.587441504,0.591705859,-0.228544131
1.76967E+18,0.241503662,0.253319512,-0.616155045,0.913652576,-0.551854253,0.454737097,-0.265093088
1.76967E+18,0.251491699,0.29834348,-0.714915864,1.333571494,-0.50589776,0.320732623,-0.338108033
1.76967E+18,0.261480957,0.337592371,-0.835901958,1.416829915,-0.403434455,0.266375095,-0.434217781
1.76967E+18,0.27146875,0.389654567,-0.941655996,1.499932123,-0.290728569,0.143398181,-0.482835948
1.76967E+18,0.28145752,0.598499562,-1.364924663,1.08614557,-0.273112565,0.129643485,-0.537875772
1.76967E+18,0.291445801,0.897533069,-1.104117426,0.581173164,-0.342496812,0.129757434,-0.531501472
1.76967E+18,0.301434814,0.984116543,-0.486283634,0.213642312,-0.499410003,0.138452649,-0.467141122
1.76967E+18,0.311422852,0.580693856,-0.246017665,0.383290292,-0.588086426,0.072984464,-0.367733598
1.76967E+18,0.321411865,0.040566404,-0.149127901,0.738729139,-0.636789024,-0.030398382,-0.372478545
1.76967E+18,0.331399658,-0.08085779,-0.199583246,1.098678304,-0.674183428,-0.268707126,-0.424867988
1.76967E+18,0.341388672,-0.147861534,0.173487266,0.781686238,-0.762017965,-0.496491015,-0.489929795
1.76967E+18,0.351376953,-0.400932332,0.539586185,0.452407375,-0.886912227,-0.577357829,-0.496082753
1.76967E+18,0.361365967,-0.705522597,0.375928824,0.319548911,-1.027704239,-0.511814773,-0.486259669
1.76967E+18,0.37135376,-0.793824565,0.452629786,0.208011321,-1.171642303,-0.324415922,-0.500631154
1.76967E+18,0.381342773,-0.509623008,0.438067592,0.04622516,-1.230853081,-0.286773473,-0.488911152
1.76967E+18,0.391330811,-0.187746093,0.758262254,0.266274271,-1.323522091,-0.205151126,-0.55758673
1.76967E+18,0.401319824,0.131363111,0.398029596,-0.210675279,-1.412327647,-0.110600382,-0.659054458
1.76967E+18,0.411307861,-0.05135434,0.381665906,-0.665771017,-1.427806139,-0.02766704,-0.740064681
1.76967E+18,0.421296875,-0.124620067,0.146495799,-1.386660694,-1.511563063,0.03480193,-0.811217427
1.76967E+18,0.431284668,-0.893709419,-0.03744155,-0.893103124,-1.411555052,0.271097302,-0.689343214
1.76967E+18,0.441273682,-1.445573487,0.609286329,0.090318861,-1.267815113,0.296355277,-0.473172516
1.76967E+18,0.451261963,-0.811916102,0.910227423,0.599725012,-1.124752402,0.357854694,-0.441509396
1.76967E+18,0.461250732,0.141622055,0.556726705,0.432284333,-1.017954111,0.352121174,-0.492877245
1.76967E+18,0.471238525,0.376589918,0.063073419,0.209948572,-0.889999449,0.349644661,-0.515155554
1.76967E+18,0.481227783,0.088632223,-0.427713956,-0.317284035,-0.814582229,0.542897761,-0.531702816
1.76967E+18,0.49121582,-0.010434885,-0.777632724,-0.814241038,-0.723459363,0.714676678,-0.45546639
1.76967E+18,0.50120459,-0.093765494,-0.327326413,-0.664079118,-0.647027969,0.98187989,-0.383390069
1.76967E+18,0.511192871,-0.041551323,-0.449481551,-0.808507171,-0.637351215,1.21945858,-0.265207201
1.76967E+18,0.521181885,-0.190146724,-0.006178981,-0.841230167,-0.584188938,1.278058052,-0.137482271
1.76967E+18,0.531169678,-0.118275082,-0.114348848,-0.707050537,-0.536527395,1.317764282,-0.069811344
1.76967E+18,0.541158936,0.107587099,0.067502926,-0.366065601,-0.45933944,1.219014525,-0.074619949
1.76967E+18,0.551146729,0.57034548,0.534044917,0.148104695,-0.35125041,1.008140206,-0.154639825
1.76967E+18,0.561135742,0.672403002,0.92369247,0.232318225,-0.24787052,0.809951484,-0.206607148
1.76967E+18,0.571125,0.308262816,1.265035718,-0.02213409,-0.20837763,0.783555686,-0.236803532
1.76967E+18,0.581112793,0.053021981,1.557352192,-0.275949569,-0.152407825,0.886891127,-0.199273467
1.76967E+18,0.591101563,0.230818342,1.608938002,-0.283893222,-0.098385811,0.888084471,-0.176468685
1.76967E+18,0.601089844,0.657223553,1.030301079,-0.194420456,-0.06281051,0.78292346,-0.161722764
1.76967E+18,0.611078857,0.57512044,0.749839293,-0.140597973,-0.058143526,0.741287589,-0.144793972
1.76967E+18,0.621066895,0.409794853,0.612461451,0.072365271,-0.054987945,0.792600572,-0.139452472
1.76967E+18,0.631055908,0.36316345,0.211155026,-0.017760113,-0.086348124,0.707356691,-0.090564035
1.76967E+18,0.641043701,0.142130005,-0.161933022,0.022185821,-0.087295942,0.618816435,-0.037787113
1.76967E+18,0.651032715,0.174835173,0.347229383,-0.155787359,-0.07859426,0.616498232,-0.075387605
1.76967E+18,0.661020752,0.254286896,0.71122227,-0.372868852,-0.04883131,0.578837693,-0.170075506
1.76967E+18,0.671009766,-0.181383572,0.547128271,-0.594069762,-0.020178966,0.470159352,-0.180121586
1.76967E+18,0.680997559,-0.251261995,0.369897142,-0.367370839,0.017272267,0.380154341,-0.228484869
1.76967E+18,0.690986572,-0.096990009,0.14852409,-0.217514916,0.043546159,0.413040817,-0.303993642
1.76967E+18,0.700974854,-0.063344637,-0.252579507,-0.206598677,0.052910633,0.385190278,-0.322324425
1.76967E+18,0.710963867,0.206610952,-0.446229856,0.138279759,0.02398484,0.410239041,-0.316510767
1.76967E+18,0.72095166,0.401165556,-0.183207865,0.325058176,0.047676321,0.443336815,-0.352821618
1.76967E+18,0.730940918,0.405992538,-0.104638186,0.068861355,0.070288822,0.519813955,-0.385466903
1.76967E+18,0.740928711,-0.187935478,-0.419563383,-0.159326054,0.152741343,0.568435311,-0.297543973
1.76967E+18,0.750917725,-0.121974229,-0.481660066,-0.375129198,0.193685323,0.564709365,-0.193402931
1.76967E+18,0.760906006,0.190843182,-0.479638789,0.097995679,0.195787355,0.479106635,-0.071500726
1.76967E+18,0.770894775,0.2912883,-0.146645436,0.482893991,0.187426031,0.339553952,0.072489075
1.76967E+18,0.780882568,0.175189978,0.171056239,0.489283985,0.075393505,0.353473753,0.038542029
1.76967E+18,0.790871826,0.394227866,0.48627662,0.64946724,0.038396139,0.312346697,-0.062952511
1.76967E+18,0.800859863,-0.161767017,0.131561849,0.744748107,-0.019472487,0.201630816,-0.127114996
1.76967E+18,0.810848633,-0.240477858,0.098529932,0.350377618,-0.034231331,0.065245472,-0.145725414
1.76967E+18,0.820836914,-0.408053854,0.272593537,0.236326292,0.158001229,0.144142687,-0.250621468
1.76967E+18,0.830825928,-0.49592766,0.054427756,-0.731090169,0.199346349,0.332223803,-0.394393414
1.76967E+18,0.840813721,-0.643695086,-0.916537337,-1.061600473,0.133560941,0.221891165,-0.384101093
1.76967E+18,0.850802734,-0.253617034,-1.014201008,0.143418583,0.094803557,-0.202349186,-0.318760723
1.76967E+18,0.860790771,0.537914452,-0.345142056,1.024334572,0.114023857,-0.566203833,-0.324822873
1.76967E+18,0.870779785,0.48358022,-0.041455461,0.636659489,-0.010921812,-0.808083832,-0.244488075
1.76967E+18,0.880767822,0.094781393,-0.046803837,0.973882734,-0.045978867,-1.193930864,-0.106274553
1.76967E+18,0.890756592,0.002933715,0.365635978,0.944108943,-0.019511174,-1.220543861,0.049392547
1.76967E+18,0.900744629,-0.349048415,0.063632806,-0.199634099,0.108991675,-0.899912119,0.169220671
1.76967E+18,0.910733643,-0.151080788,0.038814007,-0.954204512,0.253431618,-0.466912001,0.221238464
1.76967E+18,0.920721924,-0.195837045,-0.502611668,-1.356659524,0.328609973,-0.126966164,0.291986138
1.76967E+18,0.930710938,-0.215620188,-0.636876346,-0.515129789,0.282339364,-0.044710018,0.343525916
1.76967E+18,0.940698486,0.050783846,-0.660879153,0.480609972,0.214107051,-0.135848984,0.357165813
1.76967E+18,0.950687744,0.107835521,-0.366425667,0.725922119,0.141166136,-0.33382225,0.421358109
1.76967E+18,0.960675781,-0.211190097,-0.106209381,0.85353786,0.06319996,-0.470734566,0.550233543
1.76967E+18,0.970664795,-0.138364515,-0.089165892,0.807243727,-0.04719799,-0.633103967,0.68913877
1.76967E+18,0.980653076,0.153339381,0.240798469,0.891016527,-0.142744213,-0.859166384,0.872404516
1.76967E+18,0.990641846,0.022371991,0.639008682,0.611170827,-0.332029194,-1.165003419,1.175470352
1.76967E+18,1.000629639,0.040742345,1.22342302,0.644831105,-0.508214355,-1.659834504,1.277536273
1.76967E+18,1.010618896,0.937302477,2.215996134,0.889423997,-0.72619319,-1.997837663,0.697071493
1.76967E+18,1.020606934,0.06689853,1.258578504,0.493960452,-0.154299334,-0.806445777,0.060734671
1.76967E+18,1.030595703,-2.45967045,-4.014909595,-1.910693921,0.180545419,0.267698169,-0.397996545
1.76967E+18,1.040583496,-3.031610506,-3.649413318,-3.80605291,0.393811613,0.40545097,0.008454563
1.76967E+18,1.050572754,-1.411857679,-2.072623435,-0.452937829,0.364582121,0.368323624,0.371153653
1.76967E+18,1.060561523,1.807500088,0.634385699,-0.467976408,0.307820559,0.168496802,0.2018224
1.76967E+18,1.070550293,1.004981929,0.976499346,0.775399559,0.312778503,0.111959681,0.094993845
1.76967E+18,1.080539307,0.042429275,0.02129121,0.955381155,0.294180304,-0.032877401,0.051076982
1.76967E+18,1.090527344,-0.146128719,0.153930333,-0.004683774,0.317473978,-0.16995883,-0.027903182
1.76967E+18,1.100516357,-0.634634705,-0.248062907,-0.373739205,0.3804138,-0.062551677,-0.095917121
1.76967E+18,1.11050415,-0.609606062,-0.316146263,-0.834222334,0.381050617,0.012362094,-0.027805051
1.76967E+18,1.120493164,-0.634798371,0.479671522,-0.452317067,0.36684373,-0.129376665,0.02892028
1.76967E+18,1.130481445,-0.642998629,0.748398447,0.186625857,0.311987549,-0.27600795,-0.000191525
1.76967E+18,1.140470215,-0.532630667,0.38743163,1.053417751,0.159312248,-0.36879912,-0.106471628
1.76967E+18,1.150458008,-0.471786906,0.068389061,1.684374936,0.125278443,-0.558063984,-0.290044785
1.76967E+18,1.160447266,-0.021497546,-0.062844286,1.311644032,0.181360349,-1.017899871,-0.437416941
1.76967E+18,1.170435303,-0.308071093,-0.184314365,1.127114855,0.168292418,-1.242349982,-0.526295841
1.76967E+18,1.180424316,-0.219380418,-0.520126282,0.945930021,0.079269603,-1.453871608,-0.49172318
1.76967E+18,1.190412109,0.814990687,-0.297763634,1.344454415,0.069010772,-1.63529551,-0.360926151
1.76967E+18,1.200401367,0.714166507,0.495582793,0.613217531,0.011318983,-1.70901525,-0.168002516
1.76967E+18,1.21038916,1.912702923,0.28993221,0.725344319,0.026686879,-1.709343553,0.025389878
1.76967E+18,1.220378418,2.905175499,2.351165067,0.400690924,-0.015687209,-1.512874126,-0.139399067
1.76967E+18,1.230366455,4.284190647,-2.189436628,-1.103080776,0.054688029,-0.421824098,-0.361668885
1.76967E+18,1.240355225,-2.377661444,-1.56142631,-4.241613195,0.044455629,0.30230245,-0.327525586
1.76967E+18,1.250343262,-1.81594,0.517974657,-1.746522473,0.005035053,0.043267429,-0.453917235
1.76967E+18,1.260332275,-0.658649202,1.393893568,-0.533748273,0.128923178,-0.15795517,-0.472145498
1.76967E+18,1.270320313,-0.074660981,1.068567389,0.088601244,0.173427925,-0.526188135,-0.479627907
1.76967E+18,1.280309082,0.076598087,0.40982934,0.587874415,0.136720777,-0.571753204,-0.4912678
1.76967E+18,1.290297363,0.230195826,0.371671751,0.315702903,0.100745797,-0.628661156,-0.452569783
1.76967E+18,1.300286377,-0.290503288,0.194792504,0.690544516,0.052169476,-0.753372192,-0.428141922
1.76967E+18,1.31027417,-0.443916903,-0.06450842,0.590854015,-0.016518308,-0.873621345,-0.396749526
1.76967E+18,1.320263184,-0.492884055,-0.017244565,0.35437341,0.006113768,-0.896280587,-0.37631616
1.76967E+18,1.330251221,-0.675558251,0.038148821,0.005636252,0.010615438,-0.772629976,-0.350552738
1.76967E+18,1.340240234,-0.666730802,-0.012392449,-0.36191155,-0.022926277,-0.72861433,-0.384890735
1.76967E+18,1.350228516,-0.313798823,-0.010520225,0.111529407,-0.042748317,-0.774958253,-0.465038031
1.76967E+18,1.360217285,-0.307462021,0.105099374,0.466766302,-0.092638917,-0.823722303,-0.555943727
1.76967E+18,1.370205078,-0.528977697,-0.051049804,0.084615096,-0.098773904,-0.833015084,-0.587617218
1.76967E+18,1.380194336,-0.51127779,-0.563218405,0.025710195,-0.023744131,-0.85424608,-0.55584681
1.76967E+18,1.390182373,-0.571518616,-0.725907798,0.199701027,0.012340438,-0.996461928,-0.523459971
1.76967E+18,1.400171387,-0.278291456,-0.514869092,0.482064847,0.027177975,-1.141912341,-0.508493781
1.76967E+18,1.41015918,-0.516425674,-0.177536834,0.465515279,0.026369104,-1.184877753,-0.494019091
1.76967E+18,1.420148193,-0.578832738,-0.084782562,0.086597649,-0.026040575,-1.288841724,-0.502594471
1.76967E+18,1.43013623,-0.48597033,-0.200838214,0.452432656,-0.054342795,-1.404091358,-0.48696062
1.76967E+18,1.440125488,-0.444675028,-0.003968904,0.156445676,-0.057965495,-1.492588758,-0.491068274
1.76967E+18,1.450113525,-0.207844878,0.092160397,0.065913757,-0.059466571,-1.517402768,-0.552535951
1.76967E+18,1.460102295,-0.066149758,0.36769934,-0.124328537,-0.049975067,-1.563073635,-0.642432272
1.76967E+18,1.470091309,-0.271162627,0.172873518,-0.452749613,-0.07971739,-1.669439077,-0.71413815
1.76967E+18,1.480079346,-0.288400178,0.293725757,-0.442932422,-0.119511142,-1.665292621,-0.791621506
1.76967E+18,1.490068115,0.07677052,0.296302914,-0.319452757,-0.133272082,-1.653355241,-0.884790838
1.76967E+18,1.500056152,0.007073299,0.006892098,-0.677238167,-0.250633597,-1.591254354,-0.970325708
1.76967E+18,1.51004541,-0.31092356,-0.210874455,0.294772416,-0.16969575,-1.742861032,-1.096440554
1.76967E+18,1.520033203,-0.46352995,0.084779055,0.360609674,-0.172459304,-1.661998153,-1.055280805
1.76967E+18,1.530021973,-0.096385906,-0.847418208,-0.655788114,-0.163874939,-1.467157125,-1.088059425
1.76967E+18,1.540010254,0.469075309,-1.33608786,-0.530822375,-0.190280989,-1.403871059,-1.163486838
1.76967E+18,1.549999268,-0.135408587,-0.612060469,-0.053801587,-0.238230988,-1.530802131,-1.088438869
1.76967E+18,1.559987305,-0.71713354,-0.129804192,0.2402313,-0.269564152,-1.568757415,-0.969395995
1.76967E+18,1.569976563,-0.928659737,0.183192083,0.142023549,-0.292634428,-1.625303984,-0.827791214
1.76967E+18,1.579964111,-0.864435979,1.041255604,0.204642867,-0.258934259,-1.603582978,-0.778192222
1.76967E+18,1.589953125,-0.435877973,0.315598566,-0.223879811,-0.218899518,-1.469105363,-0.915765762
1.76967E+18,1.599941406,-0.153037183,-0.366947645,-0.679613372,-0.161484957,-1.425847888,-1.085658431
1.76967E+18,1.60993042,-0.770936442,-0.587372018,-0.221199431,-0.051621698,-1.420909643,-1.210475206
1.76967E+18,1.619918213,-1.121049272,-0.870270676,-0.54356572,-0.009461198,-1.409418464,-1.383163929
1.76967E+18,1.629907227,-1.822080987,-0.72555124,-0.525123177,-0.015383537,-1.320615768,-1.523448586
1.76967E+18,1.639895264,-1.847158145,-0.364428355,-0.626882118,-0.096358553,-1.224438071,-1.683120012
1.76967E+18,1.649884277,-2.055102392,-0.424869672,-0.487097252,-0.246519089,-1.179785371,-1.764321685
1.76967E+18,1.659872559,-2.628953834,-0.448601846,0.02852792,-0.312144965,-1.316866517,-1.703269601
1.76967E+18,1.669861328,-2.725503991,-0.120645318,1.321378367,-0.323630661,-1.586388946,-1.578212261
1.76967E+18,1.679849121,-2.300238597,0.159596103,1.28837027,-0.405485839,-1.872506142,-1.529106259
1.76967E+18,1.689838379,0.061854106,0.313030177,0.844368392,-0.545678556,-2.534570217,-2.000340939
1.76967E+18,1.699826416,4.447067087,0.209531808,-0.143956636,-0.71194905,-3.132710695,-2.771073103
1.76967E+18,1.709815186,4.238567544,0.499698119,-0.993241588,-0.754550576,-3.115952015,-2.762931108
1.76967E+18,1.719803223,2.711159824,1.634304499,-0.321123467,-0.554454505,-1.848442435,-2.658334494
1.76967E+18,1.729792236,8.686486279,-0.149651632,2.963618335,-0.345888942,0.346799076,-3.346600294
1.76967E+18,1.739780273,7.46124715,-1.673670295,0.587836129,-0.328867882,1.234363794,-3.373255253
1.76967E+18,1.749769043,-0.969940426,-0.51560822,0.597265344,-0.160705715,0.77946651,-2.710988522
1.76967E+18,1.759757324,-2.139431949,-1.18960989,-0.29122941,-0.088634446,-0.013080154,-2.967839003
1.76967E+18,1.769746338,-0.418560928,-0.383261651,-1.293127401,0.109666996,0.157747209,-3.195264101
1.76967E+18,1.779735596,-0.338778366,1.033661495,-0.26216457,0.269006312,0.836260676,-2.80826664
1.76967E+18,1.789723389,0.862421132,0.990358068,-1.030111475,0.256400764,1.174577475,-1.974203944
1.76967E+18,1.799712158,2.07195708,1.492622384,-0.001253726,0.198061034,0.953385413,-0.943279862
1.76967E+18,1.809700195,3.750539112,0.20360841,-0.277840424,0.174078673,0.5764907,-0.206310064
1.76967E+18,1.819689453,2.836805142,-0.346040904,-0.414732821,0.170970753,0.274701834,0.303441316
1.76967E+18,1.829677246,0.836191296,0.086005674,-1.620245871,0.266488224,0.130761504,0.520727038
1.76967E+18,1.839666016,-0.067437459,0.536227668,-1.941318484,0.397143722,0.242293358,0.415067196
1.76967E+18,1.849654297,-0.605686258,0.787031106,-2.067260739,0.536547899,0.269523472,0.189310625
1.76967E+18,1.859643311,-0.814902425,0.422109414,-0.664019351,0.610635936,0.220528752,-0.069560356
1.76967E+18,1.869631348,-0.783441703,0.35479865,-0.089372009,0.595004261,0.292481214,-0.210267931
1.76967E+18,1.879620361,-0.319355873,0.117268535,0.382434698,0.511160731,0.259068131,-0.225491896
1.76967E+18,1.889608154,0.273463305,0.069577248,0.520602814,0.331982225,0.169104755,-0.202870741
1.76967E+18,1.899597168,0.037480713,0.271838773,-0.022019889,0.163193196,0.200760156,-0.107201472
1.76967E+18,1.909585449,0.088816932,0.489525538,0.33350912,0.059095759,0.231976181,-0.06861081
1.76967E+18,1.919574219,-0.117909756,0.744744454,-0.073975556,0.048749644,0.139324263,-0.008752531
1.76967E+18,1.929562256,0.32302667,0.410513376,-0.143200483,-0.014268939,0.113432653,0.008031368
1.76967E+18,1.93955127,0.448019662,0.580996492,-0.279142447,-0.042154901,-0.008568617,0.022987416
1.76967E+18,1.949539307,0.559400308,0.155309804,0.065800871,-0.012113107,-0.115441181,0.073216513
1.76967E+18,1.95952832,0.323982948,-0.236218301,0.277521787,-0.023669362,-0.133442819,0.135740876
1.76967E+18,1.969516113,0.280240252,-0.114017424,0.155648096,-0.011541858,-0.107967094,0.147338137
1.76967E+18,1.979505371,-0.095181206,0.432995403,0.001325111,-0.034246638,-0.113952816,0.120540343
1.76967E+18,1.989493164,-0.289416661,0.369983359,-0.123765861,-0.017428976,-0.14085862,0.065281741
1.76967E+18,1.999482422,-0.240597393,0.194123811,0.112191305,0.001220076,-0.119170368,0.05035739
1.76967E+18,2.009470459,-0.175679223,-0.010119974,0.269934839,-0.033744901,-0.149985582,0.040133908
1.76967E+18,2.019459229,-0.272227042,-0.100981417,0.192431766,-0.06413769,-0.176019043,0.04360614
1.76967E+18,2.029448486,-0.444646971,-0.123240011,0.229385386,-0.034672346,-0.034610894,0.077202193
1.76967E+18,2.039436279,-0.715516752,-0.077794311,0.425319535,-0.071697213,0.067762882,0.103393316
1.76967E+18,2.049425049,-0.690949297,-0.028700025,0.400127153,-0.023757646,0.123543292,0.100437209
1.76967E+18,2.059413086,-0.48823769,-0.180425102,0.371372402,-0.022818616,0.25845319,0.106477253
1.76967E+18,2.069401367,-0.229776139,-0.705768388,0.421590578,-0.056589026,0.268064648,0.064548045
1.76967E+18,2.079389404,-0.742151077,-1.06376788,0.653785542,-0.048021372,0.525525153,0.07187786
1.76967E+18,2.089378174,-1.050895539,-1.329950965,1.101396623,-0.014432987,0.632155299,0.141151607
1.76967E+18,2.099366455,-0.797790546,-2.059052591,0.966732643,0.042254262,0.739704132,0.033999853
1.76967E+18,2.109355225,-0.056527943,-1.925422265,1.216809301,0.051940043,0.780555606,-0.030608952
1.76967E+18,2.119343262,0.357971727,-0.930872006,0.860746769,0.015397212,0.709115207,-0.098293722
1.76967E+18,2.12933252,1.140478195,-0.475553712,0.280623991,0.022273429,0.539334476,-0.101279274
1.76967E+18,2.139320313,1.324416712,-0.545551085,0.222242237,0.025344586,0.422932237,-0.02394028
1.76967E+18,2.149309082,0.869219121,-0.404171752,0.377684581,0.004724995,0.377518743,0.037196454
1.76967E+18,2.159297119,0.723861387,-0.267838451,0.334017654,-0.013398882,0.337205917,0.054600213
1.76967E+18,2.169286377,0.521629672,-0.116331108,0.234696188,-0.032336619,0.296207994,0.05464761
1.76967E+18,2.179274414,0.504978982,0.014143822,0.040895782,-0.0274894,0.246906757,0.042757127
1.76967E+18,2.189263184,0.476017091,0.077092738,-0.04092583,-0.029367864,0.223224953,0.022897149
1.76967E+18,2.199251221,0.248164613,0.060882777,-0.043795449,-0.022625804,0.206026256,0.023195157
1.76967E+18,2.209240234,0.094552261,0.063989073,-0.037834732,-0.02013801,0.206228301,0.016933253
1.76967E+18,2.219228271,0.049088148,0.049309098,-0.030735805,-0.017181102,0.213710189,0.018456848
1.76967E+18,2.229217529,-0.117742582,-0.000369564,-0.008814791,-0.018363014,0.223358631,0.021913102
1.76967E+18,2.239205322,-0.129842185,-0.00836597,-0.015281375,-0.019914305,0.24196054,0.021343984
1.76967E+18,2.249194092,-0.046502223,-0.015620325,0.02085365,-0.021110995,0.245339602,0.025962967
1.76967E+18,2.259182373,-0.00564765,-0.011774317,-0.004321946,-0.021732843,0.245027751,0.016583046
1.76967E+18,2.269171387,-0.03565642,0.010741028,-0.045629286,-0.025093088,0.250082672,0.002199585
1.76967E+18,2.279160156,-0.090408585,-0.016304069,-0.069088085,-0.018294569,0.241171718,-0.002356285
1.76967E+18,2.289148438,0.100271223,0.025329087,-0.023287227,-0.020524435,0.215669975,-0.0002215
1.76967E+18,2.299137207,0.202684134,0.064102031,-0.060005446,-0.019862639,0.182723209,0.005624671
1.76967E+18,2.309125244,0.121475924,0.02556991,-0.087840899,-0.019815568,0.177437127,0.005996315
1.76967E+18,2.319114258,-0.033190322,-0.010060937,-0.014180538,-0.026390646,0.189601928,-0.008455595
1.76967E+18,2.329102295,-0.000817162,-0.024021219,0.020947981,-0.031861577,0.183951274,-0.029442102
1.76967E+18,2.339091309,0.188827458,0.024938626,0.009397431,-0.036231291,0.167700127,-0.033956427
1.76967E+18,2.349079346,0.188530521,0.033619361,-0.036552766,-0.032681432,0.147610873,-0.025949357
1.76967E+18,2.359068115,-0.001274258,-0.02092866,0.047978296,-0.0350607,0.158273369,-0.016185943
1.76967E+18,2.369056152,-0.212559047,-0.066431059,0.057023818,-0.041832786,0.184694171,-0.027513836
1.76967E+18,2.37904541,-0.291371887,-0.070363722,0.066617485,-0.051375691,0.220059618,-0.041544702
1.76967E+18,2.389033447,-0.171412213,-0.04926482,0.053275718,-0.058770292,0.249564618,-0.038477942
1.76967E+18,2.399022217,-0.179782567,-0.042905514,0.067586403,-0.060544759,0.280095637,-0.027749132
1.76967E+18,2.40901001,-0.162205993,-0.056102119,0.109957865,-0.070210695,0.294126421,-0.045095362
1.76967E+18,2.418999268,-0.190918878,0.00143997,0.082357088,-0.075262979,0.324736267,-0.025299022
1.76967E+18,2.428987305,-0.203054721,-0.054727762,0.063717197,-0.078798525,0.358595103,-0.044664863
1.76967E+18,2.438976563,-0.072401804,-0.050165714,0.088166067,-0.087188281,0.367162228,-0.053786721
1.76967E+18,2.448964355,0.138413614,0.039096039,0.035733869,-0.089454167,0.368938565,-0.051901072
1.76967E+18,2.458953125,0.035058454,0.027796938,0.013621625,-0.089849114,0.365194708,-0.058698256
1.76967E+18,2.468942383,0.045675125,0.001439677,0.044901474,-0.093294717,0.371710271,-0.08077959
1.76967E+18,2.47893042,0.135107559,0.066265347,-0.008566534,-0.095964,0.363699496,-0.081914626
1.76967E+18,2.488919189,0.141882752,0.011814064,0.025556941,-0.098494202,0.33784911,-0.084834658
1.76967E+18,2.498907227,0.357467869,0.081063249,-0.187138409,-0.082703523,0.296084642,-0.067149401
1.76967E+18,2.50889624,0.128209616,0.016980507,-0.130451951,-0.070113361,0.262252688,-0.052619062
1.76967E+18,2.518884277,-0.105111064,-0.022686464,-0.049357211,-0.07515765,0.270389199,-0.053714421
1.76967E+18,2.528873047,-0.052643795,0.023039661,-0.1075597,-0.0693423,0.246792242,-0.061049964
1.76967E+18,2.538861328,0.10740239,0.0803117,-0.088300142,-0.065206148,0.234600022,-0.07324484
1.76967E+18,2.548850342,0.076049805,0.023291444,-0.065199179,-0.059081215,0.222666755,-0.074493997
1.76967E+18,2.558838135,0.020849311,0.001784399,-0.051161667,-0.058525946,0.220893085,-0.078267962
1.76967E+18,2.568827393,-0.047516953,-0.002252455,0.002025441,-0.061482321,0.225185484,-0.081450179
1.76967E+18,2.578815186,-0.128282681,-0.002851736,0.007258958,-0.066374011,0.237279445,-0.097286664
1.76967E+18,2.588804199,-0.118190911,0.008311755,0.037135772,-0.070439324,0.225876391,-0.112078391
1.76967E+18,2.59879248,0.003833295,-0.014224048,-0.047057446,-0.068436898,0.23618789,-0.150799423
1.76967E+18,2.60878125,-0.110038584,0.004606325,0.005866189,-0.070600182,0.241380289,-0.185185626
1.76967E+18,2.618769287,-0.068891165,0.032983255,-0.046474824,-0.070402846,0.237736285,-0.172777146
1.76967E+18,2.628758301,-0.018468554,-0.052883887,0.012559549,-0.072555609,0.257194132,-0.177750081
1.76967E+18,2.638746338,-0.006927753,-0.011676555,0.063935589,-0.07744544,0.273365647,-0.188793942
1.76967E+18,2.648735352,0.049296238,-0.015865824,0.054971946,-0.083505996,0.291069031,-0.193861127
1.76967E+18,2.658723145,-0.06793781,0.017396979,0.065606299,-0.091867521,0.292717248,-0.214682788
1.76967E+18,2.668712158,-0.060514382,0.005357289,0.000524316,-0.092685051,0.281377792,-0.276627272
1.76967E+18,2.678701172,-0.029970775,0.056934624,-0.053428662,-0.091196075,0.288264722,-0.261342317
1.76967E+18,2.688689453,0.102809217,-0.009364625,-0.023343466,-0.088664472,0.284389466,-0.255964309
1.76967E+18,2.698678223,-0.007474866,-0.047887394,-0.007524185,-0.105867431,0.168959796,-0.343312532
1.76967E+18,2.70866626,-0.383044209,0.073780983,-0.04055274,-0.097163022,0.26478529,-0.48661989
1.76967E+18,2.718655273,-0.189609549,0.080400548,0.017843919,-0.102362044,0.275727659,-0.582846582
1.76967E+18,2.728643311,0.097787005,0.058980304,-0.051371583,-0.089871146,0.260275453,-0.48970598
1.76967E+18,2.738632324,0.234666249,-0.056606999,0.06049407,-0.08892519,0.284856707,-0.434162557
1.76967E+18,2.748620117,-0.037724458,-0.03967267,0.058306789,-0.106478289,0.18210417,-0.47208342
1.76967E+18,2.758609375,-0.109360538,0.083446929,-0.082580814,-0.090745665,0.260377169,-0.466347516
1.76967E+18,2.768597168,0.374009838,0.046185705,-0.144967128,-0.082888208,0.203386337,-0.384658098
1.76967E+18,2.778586426,0.491883938,0.030547991,-0.185673232,-0.069807291,0.134174243,-0.312071532
1.76967E+18,2.788574463,0.107543844,0.019320933,-0.097630645,-0.066674553,0.129095808,-0.299180925
1.76967E+18,2.798563232,-0.104858551,-0.009240999,-0.041650546,-0.062737867,0.114822067,-0.272592723
1.76967E+18,2.80855127,0.262702257,-0.003629589,-0.081008743,-0.056154668,0.094006047,-0.236639231
1.76967E+18,2.818540527,0.066924249,-0.020652327,-0.006662819,-0.055701662,0.103373982,-0.227983683
1.76967E+18,2.82852832,0.183282684,0.012760113,-0.034823184,-0.051292531,0.106289573,-0.220736951
1.76967E+18,2.83851709,0.342626858,-0.001591507,-0.124813836,-0.045215197,0.100608788,-0.218047693
1.76967E+18,2.848505371,0.034535891,0.013222324,-0.067217825,-0.043307312,0.103480846,-0.228498757
1.76967E+18,2.858494385,0.133986446,0.070748776,-0.072447397,-0.042891596,0.091751218,-0.22373569
1.76967E+18,2.868482178,0.404480964,0.068869684,-0.074538085,-0.039174285,0.066043161,-0.218588188
1.76967E+18,2.878471191,0.387390713,0.046253656,-0.123329881,-0.036286354,0.040775351,-0.209476709
1.76967E+18,2.888459229,0.304953838,0.013369477,-0.099649146,-0.032845549,0.030614633,-0.189224705
1.76967E+18,2.898448242,0.139203888,0.013237813,-0.072496058,-0.031304911,0.021632323,-0.190594107
1.76967E+18,2.9084375,0.029014498,0.011743337,-0.054308367,-0.029590238,0.015646555,-0.188799128
1.76967E+18,2.918425293,0.033816929,0.017175299,-0.026277474,-0.024280429,-0.002522862,-0.190387711
1.76967E+18,2.928414063,-0.059414312,-0.011759119,-0.048304012,-0.023030069,-0.013240286,-0.190423399
1.76967E+18,2.938402344,-0.111213473,-0.032910044,-0.032255964,-0.020049192,-0.018672604,-0.187998593
1.76967E+18,2.948391357,-0.069072952,-0.029045769,-0.03522022,-0.015935611,-0.024943745,-0.181053728
1.76967E+18,2.958379395,-0.057001406,-0.054239978,-0.028173955,-0.01327964,-0.026736584,-0.166461736
1.76967E+18,2.968368408,-0.040066637,-0.039550651,-0.028892479,-0.009104469,-0.024119077,-0.150937647
1.76967E+18,2.978356201,-0.02386486,-0.024674423,0.000370002,-0.007727081,-0.029966315,-0.141565979
1.76967E+18,2.988345215,-0.094026191,-0.01062047,-0.040411359,-0.003686866,-0.033380371,-0.132309228
1.76967E+18,2.998333496,-0.080796123,-0.050242287,-0.005206629,-0.003916164,-0.039617758,-0.126823917
1.76967E+18,3.008322266,-0.00473112,-0.011416589,-0.066804276,-0.001101602,-0.050257772,-0.115264997
1.76967E+18,3.018310303,0.13411504,0.005943126,-0.074471742,0.000871267,-0.059336223,-0.093486734
1.76967E+18,3.028299561,0.273262814,0.005764263,-0.093567926,0.005708967,-0.072495356,-0.070521899
1.76967E+18,3.038287354,0.356314023,0.014445874,-0.085918873,0.008761217,-0.068150409,-0.05066989
1.76967E+18,3.048276123,0.208805248,0.01716149,-0.040822424,0.006227949,-0.075074211,-0.042796392
1.76967E+18,3.05826416,0.140958623,0.01170264,-0.032974633,0.007559529,-0.076676905,-0.032819659
1.76967E+18,3.068254395,0.167677118,-0.000271072,-0.029079672,0.006203382,-0.071493477,-0.029392302
1.76967E+18,3.078242188,0.108747959,0.005704349,-0.019879297,0.005034521,-0.062904522,-0.026932608
1.76967E+18,3.088231445,0.036373044,-0.020026231,0.010193185,0.003192147,-0.050214779,-0.028102266
1.76967E+18,3.098220459,-0.017744331,-0.00866466,0.023104397,0.001411557,-0.036321335,-0.029725464
1.76967E+18,3.108208496,-0.057654901,-0.020851284,0.019495705,-0.001034556,-0.027386121,-0.026893722
1.76967E+18,3.11819751,-0.058346391,-0.030020314,0.02345774,-0.001230298,-0.018043488,-0.020960998
1.76967E+18,3.128185303,-0.023870705,-0.033631928,0.00541881,-0.000797668,-0.013725285,-0.01552815
1.76967E+18,3.138174316,-0.000648819,-0.021967721,0.008374007,-0.001602209,-0.006966448,-0.013393093
1.76967E+18,3.148162598,-0.010862755,-0.022161198,0.004589958,-0.002558356,-0.002710348,-0.011284271
1.76967E+18,3.158151367,-0.048383215,-0.022406039,-0.011961656,-0.002036376,0.001693988,-0.008346539
1.76967E+18,3.168139404,-0.013272154,-0.028689065,-0.004623568,-0.000476227,0.00251531,-0.003026742
1.76967E+18,3.178128418,0.020756372,-0.025184272,-0.024295798,0.000213265,0.002557921,0.002483338
1.76967E+18,3.188116455,0.041186581,-0.007112974,-0.037019233,0.001276733,0.003715028,0.005033715
1.76967E+18,3.198105225,0.038283846,-0.004763707,-0.051466422,0.003308991,0.004158178,0.004684574
1.76967E+18,3.208093262,0.072680621,-0.020959494,-0.02983239,0.001891388,0.002990301,0.008608209
1.76967E+18,3.21808252,0.074599606,-0.003924407,-0.033220717,0.001847979,0.001382817,0.007414581
1.76967E+18,3.228070313,0.023557986,-0.014805574,-0.024787089,0.001507298,0.006419092,0.007567847
1.76967E+18,3.23805957,-0.014981296,-0.017996991,0.004987871,0.000719535,0.009696645,0.008739638
1.76967E+18,3.248047363,-0.000383446,-0.021657267,-0.00464841,0.002777094,0.009173412,0.011049401
1.76967E+18,3.258036377,0.04269231,-0.025561288,-0.005768647,0.001256695,0.009777151,0.016311806
1.76967E+18,3.268025635,0.049765025,-0.014264234,-0.010830022,0.000611601,0.011200592,0.017700244
1.76967E+18,3.278013428,0.012864158,-0.02554083,-0.02722703,-0.000128492,0.008427443,0.019334359
1.76967E+18,3.288002197,0.0160159,-0.015741978,-0.026227936,-0.000220031,0.004684987,0.018580815
1.76967E+18,3.297990234,0.026487025,-0.011904007,-0.023960721,0.000919536,0.005914303,0.018868171
1.76967E+18,3.307979492,0.01902268,-0.013682488,-0.011140987,-0.000189472,0.005874125,0.019852608
1.76967E+18,3.317967529,0.034303252,-0.008340689,-0.023668606,-0.000475496,0.006787856,0.020949032
1.76967E+18,3.327956299,0.030886721,-0.00334478,-0.034093262,-0.000675698,0.008665348,0.017126463
1.76967E+18,3.337944336,0.009018004,-0.014360461,-0.020504736,-0.002445368,0.010039805,0.013513885
1.76967E+18,3.34793335,-0.022144027,-0.02559161,-0.033760085,-0.002050752,0.007390689,0.01188816
1.76967E+18,3.357921387,-0.001885668,-0.01928703,-0.039022097,-0.001740493,0.004046825,0.010355778
1.76967E+18,3.3679104,0.01531915,-0.013259441,-0.043376931,-0.003159892,0.000648288,0.010032869
1.76967E+18,3.377898438,0.035963878,-0.020355317,-0.038111412,-0.002389439,-0.00170275,0.01448168
1.76967E+18,3.387887207,0.077383099,-0.009565262,-0.049272711,-0.003258036,-0.002554517,0.00952234
1.76967E+18,3.397875488,0.037628012,-0.008908479,-0.035659196,-0.003341393,-0.003528702,0.005669812
1.76967E+18,3.407864502,0.004258826,-0.018876477,-0.02840601,-0.004313375,-0.004554466,0.000179837
1.76967E+18,3.417852295,0.002081482,-0.017613471,-0.024034663,-0.003592191,-0.004806135,-0.003791468
1.76967E+18,3.427841553,-0.033036593,-0.022570582,-0.038614247,-0.005070714,-0.005717892,-0.002626468
1.76967E+18,3.437830566,0.010897242,-0.030518911,-0.009605887,-0.006845178,-0.003772187,0.002646857
1.76967E+18,3.447818359,0.056420975,-0.027080168,-0.007554653,-0.004300725,0.001117647,0.002615831
1.76967E+18,3.457807373,-0.016553075,-0.004767872,-0.004621961,-0.004124158,0.004070294,-0.000158917
1.76967E+18,3.46779541,-0.053700026,-0.002059855,0.014204028,-0.004744078,0.005991873,0.006278876
1.76967E+18,3.477784424,0.003477905,-0.004363821,-0.002387041,-0.003857778,0.002756133,0.00962354
1.76967E+18,3.487772461,0.001854103,-0.001976853,-0.012121815,-0.00413308,0.00079898,0.015928973
1.76967E+18,3.49776123,0.04761866,-0.017049334,-0.024745442,-0.004353323,-0.001766443,0.027839428
1.76967E+18,3.507749268,0.126346745,-0.027182898,-0.02398191,-0.004617113,-0.01295009,0.034313843
1.76967E+18,3.517738525,0.196299986,-0.007289865,-0.02668737,-0.005180638,-0.017305423,0.042266306
1.76967E+18,3.527726563,0.078469726,-0.030109015,-0.011454729,-0.005035557,-0.010889098,0.047936574
1.76967E+18,3.537715332,-0.045301615,-0.024376609,-0.017778233,-0.005027034,-0.017744606,0.051234368
1.76967E+18,3.547703125,-0.026629064,-0.008142098,0.000682722,-0.006682062,-0.021796921,0.057846993
1.76967E+18,3.557692383,-0.000659341,-0.032079292,-0.023711277,-0.00525301,-0.028908627,0.059521325
1.76967E+18,3.56768042,0.082087916,-0.025089579,-0.027336189,-0.004511517,-0.028035104,0.068930671
1.76967E+18,3.577669678,0.114018009,-0.026578941,-0.0439578,-0.003179669,-0.025920823,0.068594046
1.76967E+18,3.587657471,0.125105805,-0.01830971,-0.044952218,-0.002963687,-0.015737958,0.072002098
1.76967E+18,3.59764624,0.078013799,-0.041087213,-0.056370853,-0.00240469,-0.006862708,0.076599509
1.76967E+18,3.607635498,-0.012259762,-0.01726137,-0.040490124,-0.001479047,-0.012974176,0.078351475
1.76967E+18,3.617623535,-0.042719198,-0.023181407,-0.021509821,-0.000982101,-0.018592115,0.085602731
1.76967E+18,3.627612305,0.042794017,-0.052997577,-0.031324382,-0.000110512,-0.016954154,0.103296369
1.76967E+18,3.637600342,0.143000942,-0.023556378,-0.018478637,-0.005943367,-0.017038044,0.106303073
1.76967E+18,3.6475896,0.288280935,0.008259879,-0.021978023,-0.010288777,-0.026180897,0.116924964
1.76967E+18,3.657577393,0.313157018,0.019032471,-0.017393618,-0.016549336,-0.040927351,0.136710107
1.76967E+18,3.667566162,0.227919113,0.002901859,-0.026300562,-0.01887494,-0.050282616,0.135847256
1.76967E+18,3.677554443,0.178908122,0.000324848,-0.00844488,-0.020842217,-0.056696571,0.136286139
1.76967E+18,3.687543457,0.022231706,-0.026115123,0.019646511,-0.024276501,-0.044555455,0.15315327
1.76967E+18,3.69753125,0.02025193,0.018440204,0.028441666,-0.032244146,-0.03116801,0.145751551
1.76967E+18,3.707520264,0.119498486,0.069967562,0.057878627,-0.053855035,-0.021770975,0.129226625
1.76967E+18,3.717508301,-0.02426818,0.032600393,0.108001671,-0.053653169,-0.032543197,0.142658561
1.76967E+18,3.727497314,-0.148421798,-0.02482216,0.110642395,-0.066529743,-0.019530455,0.142732188
1.76967E+18,3.737485596,0.061117609,-0.040335956,-0.00323869,-0.069150031,-0.036148578,0.129689097
1.76967E+18,3.747474365,0.235216285,-0.007015578,-0.045453007,-0.070687748,-0.0513447,0.13202548
1.76967E+18,3.757463379,0.129994161,-0.046714551,-0.008441446,-0.074665979,-0.043595966,0.134438038
1.76967E+18,3.767451416,0.240853414,0.019296237,0.008145313,-0.084267475,-0.056001276,0.110398754
1.76967E+18,3.77744043,0.309493819,0.002356062,0.047442135,-0.092440717,-0.089850053,0.101322435
1.76967E+18,3.787428467,0.167194888,-0.044444706,0.109030503,-0.114747807,-0.075830348,0.082014114
1.76967E+18,3.79741748,0.667651424,0.035572687,0.016682912,-0.138568446,-0.16767773,-0.006612686
1.76967E+18,3.807405273,1.170457153,0.165709618,0.08890841,-0.17459923,-0.270098567,-0.096253753
1.76967E+18,3.817394287,0.874218537,0.331620311,0.195088126,-0.185851887,-0.391064942,-0.162043422
1.76967E+18,3.827382568,0.73416417,0.5424746,0.085020243,-0.265812695,-0.470727861,-0.239376947
1.76967E+18,3.837371338,0.428461559,0.081812022,-0.06083017,-0.288670331,-0.60213834,-0.293134451
1.76967E+18,3.847359375,0.130832366,0.005697627,0.01464673,-0.317373693,-0.692700684,-0.288349956
1.76967E+18,3.857348633,0.135027479,0.077513009,-0.221825619,-0.335070908,-0.806702673,-0.297493935
1.76967E+18,3.867336426,-0.147974054,0.169514417,0.128368752,-0.294647008,-0.867965102,-0.247596547
1.76967E+18,3.877325195,-0.364503174,0.03538564,0.240005053,-0.232273117,-0.83077991,-0.185671121
1.76967E+18,3.887313232,-0.27416707,0.041476066,0.215963887,-0.218791723,-0.749155223,-0.077297367
1.76967E+18,3.89730249,-0.49256666,0.134850369,0.232022676,-0.21903035,-0.62456429,0.039482504
1.76967E+18,3.907291504,-0.323897023,0.406559524,0.170242841,-0.233192831,-0.6935004,0.128056973
1.76967E+18,3.917279541,0.391467169,0.464303419,0.435436257,-0.228206858,-0.808484793,0.133004859
1.76967E+18,3.927268311,0.416551341,0.483717144,0.642169119,-0.228613481,-0.729685247,0.113024905
1.76967E+18,3.937256348,-0.306695128,0.356117331,0.541536296,-0.240510076,-0.579250157,0.13669534
1.76967E+18,3.947245605,-0.720786802,0.415134753,0.936747839,-0.253207833,-0.443744898,0.153313592
1.76967E+18,3.957233643,-0.59348904,0.683905662,0.804062247,-0.2771824,-0.354962289,0.140041724
1.76967E+18,3.967222412,-0.363832143,1.303881873,0.778642851,-0.27337414,-0.403677076,0.1182146
1.76967E+18,3.977210205,-0.103531686,1.764481177,0.826319891,-0.224742964,-0.500571132,0.058591221
1.76967E+18,3.987199463,-0.140646488,2.071336172,0.779157304,-0.184028968,-0.530282676,0.012450362
1.76967E+18,3.9971875,-0.445881481,1.985654323,0.756656207,-0.12634702,-0.47965011,-0.018471867
1.76967E+18,4.00717627,-0.767047618,1.777387128,0.550510241,-0.079447336,-0.406934589,-0.044040754
1.76967E+18,4.017164307,-0.994188732,1.472512201,0.283268843,-0.025926592,-0.25177002,-0.044471387
1.76967E+18,4.02715332,-1.158831013,0.999466673,0.110896041,0.038244735,0.135539711,-0.051247932
1.76967E+18,4.037142578,-0.742543875,0.567725361,0.212701817,0.12144801,0.44243145,-0.097219683
1.76967E+18,4.047130371,-0.284555193,0.255590087,0.49529287,0.183038279,0.475337058,-0.140029728
1.76967E+18,4.057119385,-0.046481765,0.121607441,0.770283969,0.244599909,0.318469942,-0.142500609
1.76967E+18,4.067107178,-0.168546887,-0.040149201,0.921024273,0.279027581,0.151582971,-0.095513262
1.76967E+18,4.077096436,-0.009691373,-0.095954967,1.051715915,0.307400346,-0.020586401,-0.046030398
1.76967E+18,4.087084473,0.291339738,-0.057289575,1.049701945,0.330935985,-0.194886535,0.001730865
1.76967E+18,4.097073242,0.155939919,-0.21070129,1.237938452,0.377355665,-0.159969553,0.04819743
1.76967E+18,4.107061279,0.005585691,-0.661765434,1.144226441,0.3828924,-0.165535375,0.12780571
1.76967E+18,4.117050293,-0.017787001,-0.984232571,0.793436516,0.307292432,-0.055527654,0.169680193
1.76967E+18,4.12703833,0.301501651,-1.176130669,0.784856392,0.212285116,-0.091033399,0.142595574
1.76967E+18,4.137027344,0.329326647,-1.161138267,0.725482704,0.123227939,-0.110188983,0.108706586
1.76967E+18,4.147015381,0.096624975,-1.176700432,0.506188796,0.018798919,-0.144192621,0.0290055
1.76967E+18,4.15700415,0.030581601,-0.918956527,0.37469709,-0.036398821,-0.172705218,-0.048947889
1.76967E+18,4.166992432,-0.154812961,-0.559707328,-0.073788189,-0.100990005,-0.132983223,-0.162784576
1.76967E+18,4.176981201,-0.128242934,-0.076981679,-0.67921882,-0.14886032,-0.057315096,-0.259753734
1.76967E+18,4.186970215,-0.199102769,0.05896613,-1.053487163,-0.206614748,-0.03573776,-0.312499911
1.76967E+18,4.196958496,-0.344644628,-0.284918765,-1.637129932,-0.271369517,0.127270862,-0.309244722
1.76967E+18,4.206947266,-0.727788205,-0.47148237,-1.872778324,-0.316669375,0.478476048,-0.260270774
1.76967E+18,4.216935059,-0.595067834,-0.419243503,-1.5598972,-0.358824283,0.568432331,-0.26034534
1.76967E+18,4.226924316,-0.242651403,-0.565746608,-1.560770622,-0.377458602,0.499888986,-0.35457319
1.76967E+18,4.236912354,-0.089805359,-0.780298071,-1.429094207,-0.397828847,0.550089836,-0.489849269
1.76967E+18,4.246901367,-0.23491584,-0.790176637,-1.406368727,-0.418807238,0.678264916,-0.616474271
1.76967E+18,4.25688916,-0.62643094,-0.835947478,-1.525285467,-0.370540649,0.999691427,-0.549899518
1.76967E+18,4.266878174,-0.147692315,-0.537192202,-1.768922813,-0.238417625,1.058997154,-0.399601907
1.76967E+18,4.276866211,1.654529541,-0.265460616,-1.314120359,-0.080380589,0.601375043,-0.28445375
1.76967E+18,4.286855469,1.229799569,-0.661144891,-1.350368753,0.040147685,0.272143811,-0.091108255
1.76967E+18,4.296843506,-0.699409667,-0.903006459,-0.824790635,0.16569522,0.241427973,0.038854536
1.76967E+18,4.306832275,-0.949227308,-0.47149786,-0.322493586,0.192755878,0.306836873,-0.09078788
1.76967E+18,4.316821289,-0.119407301,0.291537891,-0.823655421,0.14595215,0.346245795,-0.260914892
1.76967E+18,4.326809326,-0.101615623,0.74135335,-0.577378155,0.124487542,0.215573579,-0.206567079
1.76967E+18,4.336798096,-0.134296242,1.090638351,-0.230061021,0.108743198,0.22949712,-0.077625342
1.76967E+18,4.346786133,0.312028306,1.25540835,0.434609488,0.098152936,0.390653193,-0.012004388
1.76967E+18,4.356775391,0.493832734,0.588236745,0.28724867,0.051496752,0.379355282,0.012000015
1.76967E+18,4.366763184,-0.313931509,0.366985346,0.03943287,0.006404306,0.349447519,0.043998029
1.76967E+18,4.376752441,-0.581069119,-0.349439388,0.04051482,-0.027657526,0.349399835,0.045896865
1.76967E+18,4.386740234,-0.049033203,-0.910287483,-0.107174207,-0.034068748,0.351199597,0.030339073
1.76967E+18,4.396729248,0.208577869,-0.683838223,-0.283163373,-0.056176446,0.307536006,0.065753788
1.76967E+18,4.406717285,0.280874458,-0.592129077,-0.11236352,-0.060277984,0.291286141,0.095391579
1.76967E+18,4.416706543,0.348331792,-0.586021919,-0.166084735,-0.066206716,0.285557151,0.078913003
1.76967E+18,4.426694336,0.28363574,-0.508023318,-0.165808694,-0.054627948,0.213167876,0.072409824
1.76967E+18,4.436683105,0.085376436,-0.418242071,-0.070491879,-0.053673472,0.214063764,0.080302902
1.76967E+18,4.446672363,-0.040128597,-0.823556783,-0.168664814,-0.046296723,0.230642781,0.061241999
1.76967E+18,4.4566604,-0.195142633,-0.9971101,-0.243630916,-0.044735581,0.259182781,0.076199375
1.76967E+18,4.46664917,0.069555767,-0.916854294,-0.252821134,-0.039113171,0.2436869,0.0802017
1.76967E+18,4.476637207,0.290610255,-0.5565135,-0.381207641,-0.028244011,0.196437374,0.090695083
1.76967E+18,4.486626221,-0.065935238,-0.39862084,-0.231052808,-0.021807833,0.167054355,0.110462412
1.76967E+18,4.496614258,-0.110590957,-0.25713381,-0.074273881,-0.016014125,0.163054556,0.121733174
1.76967E+18,4.506603271,0.050183542,-0.097068408,-0.020393676,-0.014580404,0.164687857,0.136181608
1.76967E+18,4.516591309,-0.018380875,-0.044689986,-0.022580811,-0.015356716,0.16600132,0.143428609
1.76967E+18,4.526580322,0.069235449,-0.033992286,-0.02929273,-0.017303748,0.152776137,0.135595188
1.76967E+18,4.536568359,0.133754975,0.039711467,-0.097394791,-0.016948216,0.129983753,0.114451818
1.76967E+18,4.546557373,0.256891525,-0.00804967,-0.162347448,-0.015243798,0.078837916,0.082955144
1.76967E+18,4.556545166,0.465416202,-0.033585751,-0.162032098,-0.015697867,0.012863961,0.059692439
1.76967E+18,4.566534424,0.446823146,-0.051299833,-0.112706634,-0.008926711,-0.022711113,0.042907462
1.76967E+18,4.576523438,0.379080566,-0.056762702,-0.069794398,-0.006204428,-0.032374926,0.040616076
1.76967E+18,4.58651123,0.179918176,-0.01367394,-0.016359599,-0.003430746,-0.029485662,0.038835488
1.76967E+18,4.596500244,0.123106155,-0.001196955,0.01454232,-0.003263765,-0.024388371,0.034401059
1.76967E+18,4.606488281,0.04680033,0.037090837,-0.011725071,-0.003284538,-0.013146902,0.034164838
1.76967E+18,4.616477295,-0.059549921,0.01197247,0.014050445,-0.002522608,-0.017588789,0.033525411
1.76967E+18,4.626465576,-0.02436521,-0.004532237,-0.039267304,-0.000939762,-0.021331791,0.040831264
1.76967E+18,4.636454102,-0.073129534,-0.010263766,0.00359481,-0.00031605,-0.016274981,0.058394011
1.76967E+18,4.646442139,-0.131928929,-0.025993396,0.021491409,0.001432917,-0.010979586,0.060420547
1.76967E+18,4.656431396,0.003269815,-0.043261488,0.024889673,0.002070211,-0.00419758,0.062459994
1.76967E+18,4.666419434,0.042713353,-0.006541311,-0.020753157,0.001127168,0.011568925,0.060671695
1.76967E+18,4.676408203,0.054168813,-0.001123524,0.018832126,0.001805741,0.02664721,0.048481073
1.76967E+18,4.686395996,0.029491467,0.011572803,-0.015344869,0.004928513,0.033170067,0.044998579
1.76967E+18,4.696385254,0.074465751,0.000763532,-0.033258126,0.005742908,0.019545071,0.04658236
1.76967E+18,4.706374268,0.116500473,0.000817527,-0.004278846,0.006907242,0.011123622,0.047155473
1.76967E+18,4.716362061,0.07147066,-0.013351064,0.017249241,0.003775365,0.01348265,0.041377213
1.76967E+18,4.726351318,0.104420744,0.001059227,0.0246715,0.004627438,0.014338128,0.043375388
1.76967E+18,4.736339355,0.215436064,0.002451923,-0.007344371,0.00439308,0.009389709,0.038688488
1.76967E+18,4.746328369,0.142899235,0.008325053,-0.035245355,0.004990775,0.006558671,0.027559796
1.76967E+18,4.756316406,0.043687166,0.014224121,-0.019072657,0.002680749,0.006689698,0.016658945
1.76967E+18,4.766305176,0.062359718,0.025473026,-0.010105214,0.003110235,0.009396633,0.013268884
1.76967E+18,4.776293213,-0.02014847,0.001746405,-0.000738397,0.00365565,0.009530324,0.013159161
1.76967E+18,4.786282471,0.001979191,0.000456658,-0.02531652,0.002991659,0.009616421,0.018130083
1.76967E+18,4.796270264,0.057988663,-0.023180458,0.007285481,0.001089896,0.013591454,0.018435815
1.76967E+18,4.806259033,0.047552025,0.0101964,-0.005065321,-0.000647886,0.013966464,0.01563457
1.76967E+18,4.816247314,0.005,0.012867811,0.003444003,-0.000443888,0.023720823,0.016975205
1.76967E+18,4.826236328,-0.021685762,-0.007836758,0.017461276,-0.002280733,0.030664869,0.019172443
1.76967E+18,4.836225098,-0.031883331,-0.004789645,-0.011304361,-0.00258886,0.029808396,0.014589943
1.76967E+18,4.846213135,-0.00929156,-0.008502748,-0.012843699,-0.002779732,0.012288878,0.013169539
1.76967E+18,4.856202148,0.054963762,-0.01038995,-0.024894641,-0.001277443,0.017309735,0.011959133
1.76967E+18,4.866190186,0.0068278,0.00843392,-0.040312867,-0.002732726,0.019371975,0.009087446
1.76967E+18,4.876179443,0.014192191,-0.029958866,0.006188772,-0.002316208,0.018991942,0.011676039
1.76967E+18,4.886167236,0.047325815,-0.023872239,-0.015708295,-0.004826108,0.02308609,0.009943654
1.76967E+18,4.89615625,-0.028510055,-0.004603183,-0.019458734,-0.004091874,0.015205264,0.008578784
1.76967E+18,4.906144287,-0.006482348,-0.006970789,-0.020587445,-0.004023443,0.021750616,0.010119164
1.76967E+18,4.916133301,-0.032806291,0.000807809,-0.002661913,-0.005835724,0.027358169,0.010151388
1.76967E+18,4.926121338,-0.098704704,0.007258885,-0.011216537,-0.007547255,0.038312718,0.011270572
1.76967E+18,4.936110352,-0.069268767,-0.008241101,0.00862842,-0.006912358,0.041738342,0.017105291
1.76967E+18,4.946099365,0.00028174,-0.00120901,-0.019807255,-0.007140058,0.036100697,0.019758865
1.76967E+18,4.956087158,0.038602995,-0.00514087,-0.017643355,-0.006521938,0.026808396,0.020473391
1.76967E+18,4.966076172,0.05263152,-0.003409078,-0.015732845,-0.005863741,0.027715541,0.021522678
1.76967E+18,4.976064209,0.052628013,-0.027705607,-0.049162236,-0.006285852,0.025049184,0.022302985
1.76967E+18,4.986053223,0.081946462,-0.001268193,-0.022451194,-0.007676162,0.014329724,0.010435943
1.76967E+18,4.996041504,0.075212185,-4.76385E-05,-0.041502515,-0.006965364,0.013543293,0.012370463
1.76967E+18,5.006030273,0.072549688,-0.016305603,-0.009422493,-0.006109494,0.017860312,0.010249922
1.76967E+18,5.016018066,-0.002052841,-0.000919234,-0.012785832,-0.00854309,0.020992722,0.010373494
1.76967E+18,5.026007324,-0.053075172,-0.003037979,-0.019514556,-0.00920242,0.022232389,0.018114369
1.76967E+18,5.035995361,0.079380411,-0.017435557,-0.018238398,-0.007739013,0.011609305,0.021852648
1.76967E+18,5.045984375,0.156214644,-0.006295082,-0.059373249,-0.005624125,0.005188696,0.022908188
1.76967E+18,5.055972168,0.017927286,0.003078969,-0.029219957,-0.007131475,0.002264545,0.017422609
1.76967E+18,5.065961182,0.045536593,-0.008018764,-0.00214578,-0.00802937,0.004759116,0.014513913
1.76967E+18,5.075950195,0.033756139,-0.009821064,-0.015320465,-0.009702634,0.001263185,0.007600613
1.76967E+18,5.085938477,-0.061741878,-0.019422128,-0.027812721,-0.008046016,-0.008282537,0.001534732
1.76967E+18,5.095927246,-0.053075172,-0.000274068,-0.00618921,-0.007619112,0.002311251,0.004315871
1.76967E+18,5.105915283,-0.067213588,-0.018502967,-0.004686843,-0.006742847,0.008578945,0.017707964
1.76967E+18,5.115904541,-0.104071784,-0.001436024,-0.025621494,-0.006517277,0.015813421,0.02333336
1.76967E+18,5.125892334,-0.109243634,0.022574382,-0.014197452,-0.009204832,0.009625883,0.026698815
1.76967E+18,5.135881104,-0.015566987,0.016617519,-0.025407267,-0.00687936,0.005683606,0.028005628
1.76967E+18,5.145869141,-0.013432898,0.006858341,-0.074166622,-0.006575209,-0.004504642,0.030092999
1.76967E+18,5.155858398,0.017570728,0.000792246,-0.054768678,-0.007034604,-0.002829514,0.037009496
1.76967E+18,5.165846191,-0.030090018,0.025311551,-0.022695962,-0.007597991,-0.002897762,0.034800403
1.76967E+18,5.175834961,-0.007929624,-0.002212781,-0.061528382,-0.007048848,-0.008573492,0.033785202
1.76967E+18,5.185824219,0.089000472,-0.008237009,-0.031813334,-0.005815284,-0.01285309,0.032153759
1.76967E+18,5.195812256,0.109380412,-0.016314152,-0.038448681,-0.005055218,-0.023717988,0.030591283
1.76967E+18,5.205801514,0.110700263,-0.022074981,-0.051193742,-0.004470256,-0.03251563,0.026602667
1.76967E+18,5.215789551,0.064928107,-0.004065788,-0.028565585,-0.003954934,-0.034826454,0.024995448
1.76967E+18,5.225778076,-0.0046148,0.011027955,-0.012441841,-0.002682074,-0.033771154,0.026175227
1.76967E+18,5.235766113,0.036976855,-0.008758622,-0.001616349,-0.002742795,-0.040514011,0.02492727
1.76967E+18,5.245755371,0.064593176,-0.002196414,-0.036713235,-0.001982466,-0.045348756,0.025603184
1.76967E+18,5.255743408,0.043514732,-0.024326486,-0.036351124,-0.000829051,-0.04760392,0.026197068
1.76967E+18,5.265732178,0.01200608,-0.022074177,-0.004563362,-0.001323919,-0.041126072,0.02650106
1.76967E+18,5.275720215,-0.014972528,-0.009819968,0.008949615,4.44133E-05,-0.039841898,0.026497066
1.76967E+18,5.285709229,0.001924246,-0.022019305,-0.018095483,-0.001067072,-0.035843212,0.025917305
1.76967E+18,5.295697266,0.033407764,-0.009684505,0.019732144,0.000394471,-0.028410595,0.027909083
1.76967E+18,5.305686279,0.02641922,-0.033769802,-0.00896905,0.001992178,-0.020175522,0.030652799
1.76967E+18,5.315675293,0.066963412,-0.01553155,0.006881284,0.004382897,-0.018463111,0.031444289
1.76967E+18,5.32566333,0.121532622,-0.027237405,0.001289748,0.00168737,-0.023054371,0.025164295
1.76967E+18,5.335652344,0.104179336,-0.017441256,0.015387685,0.001831713,-0.021453811,0.021995932
1.76967E+18,5.345640137,0.101489367,-0.018246728,0.022158348,0.001590103,-0.016332699,0.019803217
1.76967E+18,5.35562915,0.097971714,-0.019819822,-0.004986556,0.001664938,-0.008839097,0.019585369
1.76967E+18,5.365617432,0.054908817,-0.015878683,-0.006187749,0.001224257,-0.003317293,0.021479538
1.76967E+18,5.375606445,0.070577511,-0.002682955,-0.024513387,0.004130032,0.002448984,0.024757624
1.76967E+18,5.385594238,0.110722474,-0.005459727,-0.004740034,0.001750819,0.002176341,0.023743633
1.76967E+18,5.395583252,0.097412326,-0.004718261,-0.015991204,0.003017419,0.003490078,0.022178227
1.76967E+18,5.405571289,0.083075758,-0.005902356,-0.002371405,0.004491216,0.008596731,0.020765416
1.76967E+18,5.415560303,0.036587563,-0.006287556,-0.015796558,0.002519145,0.012782156,0.016878799
1.76967E+18,5.425549316,0.004655132,0.006255992,0.014386399,5.53112E-06,0.017897567,0.017601574
1.76967E+18,5.435537109,-0.013853169,-0.002118746,0.012339842,0.002210895,0.025730722,0.022710048
1.76967E+18,5.445526123,-0.023514147,-0.00098565,0.012685879,0.000651611,0.031619996,0.025898654
1.76967E+18,5.455514404,0.010236732,-0.003574205,-0.002693185,0.001731789,0.029920898,0.018976033
1.76967E+18,5.465503174,0.053029579,0.007679449,-0.020749504,0.001773408,0.028311595,0.017219009
1.76967E+18,5.475491211,-0.004339491,0.003766805,-0.011150778,0.000547022,0.026555508,0.016548159
1.76967E+18,5.485480469,-0.023905192,-0.008142828,-0.013715075,0.002355439,0.019709125,0.01704271
1.76967E+18,5.495468262,0.052879942,-0.003412877,-0.015312574,0.001252091,0.021171467,0.018244328
1.76967E+18,5.505457275,-0.01556348,-0.014988603,-0.005613748,0.000203784,0.026893629,0.017564837
1.76967E+18,5.515445068,-0.047736734,-0.002851152,0.016244448,0.000441605,0.030894762,0.019139297
1.76967E+18,5.525434326,-0.035388124,0.003617168,0.00069675,-0.00201681,0.037480738,0.022612713
1.76967E+18,5.535422363,-0.105757546,0.000775953,0.004417378,3.06281E-05,0.043914936,0.027470585
1.76967E+18,5.545411377,-0.076412209,0.004080401,0.000169804,0.001699362,0.041938029,0.031296752
1.76967E+18,5.555400146,-0.010939912,-0.010419833,-0.01049436,0.000649011,0.044050179,0.035760209
1.76967E+18,5.565388184,-0.039616556,-0.005202975,-0.014760639,-0.000821324,0.047996681,0.044730805
1.76967E+18,5.575377441,-0.042462008,-0.003288374,-0.007595131,0.001860746,0.048335169,0.04468926
1.76967E+18,5.585365479,-0.0481874,0.003698562,-0.020636253,0.001125319,0.040802613,0.04710554
1.76967E+18,5.595354248,-0.052739072,0.003331921,-0.018181115,0.00050134,0.040901948,0.048821148
1.76967E+18,5.605342041,-0.019700141,-0.000472878,-0.011624095,0.002040706,0.038723323,0.052508168
1.76967E+18,5.615331299,0.023388474,-0.01186974,-0.013406156,0.000914189,0.038354475,0.056563899
1.76967E+18,5.625319336,-0.0176473,-0.0018278,-0.015185879,0.002445302,0.039858241,0.065153524
1.76967E+18,5.635308105,-0.003700024,-0.011829408,-0.023687603,0.001056729,0.037057661,0.070246294
1.76967E+18,5.645296143,0.020416181,-0.006319558,-0.001797259,0.004681366,0.032914057,0.067214675
1.76967E+18,5.655285156,-0.084936291,-0.00152794,-0.031477819,0.00357349,0.029928919,0.073598541
1.76967E+18,5.665274414,-0.090523736,-0.003079846,-0.012155133,0.00567374,0.03255732,0.086538695
1.76967E+18,5.675262451,-0.025661095,-0.017381927,0.006156915,0.00419968,0.028129017,0.087109409
1.76967E+18,5.685251221,0.092220019,-0.006485709,-0.03626593,0.005080854,0.017501749,0.086996093
1.76967E+18,5.695239258,0.207700501,0.008509908,-0.045666357,0.007314714,0.008507987,0.086334027
1.76967E+18,5.705228516,0.208505972,-0.028109804,-0.044859863,0.00601381,0.006610469,0.086245492
1.76967E+18,5.715216309,0.167283151,-0.042849838,-0.027618805,0.007502784,0.006529243,0.086314738
1.76967E+18,5.725205078,0.131236855,-0.043266456,-0.034092239,0.006670607,0.002654225,0.086664282
1.76967E+18,5.735193359,0.091958737,-0.019444413,-0.03181918,0.007437598,0.006867079,0.086108744
1.76967E+18,5.745182373,0.050181789,-0.019550504,-0.002634294,0.008711796,0.010029022,0.08633697
1.76967E+18,5.755170166,0.038198505,-0.016623803,-0.013450287,0.008647881,0.012121733,0.087775871
1.76967E+18,5.76515918,-0.021262568,-0.034003392,-0.00408084,0.006825664,0.017431455,0.094870679
1.76967E+18,5.775148193,-0.017308278,-0.025481063,0.007100041,0.008332747,0.013758156,0.095666431
1.76967E+18,5.78513623,0.121157944,0.014997224,-0.002110416,0.009017258,0.004240066,0.088454448
1.76967E+18,5.795125244,0.133325936,-0.007599807,-0.039134033,0.010182657,0.002160138,0.085187018
1.76967E+18,5.805113281,0.088721655,-0.009824498,-0.021378888,0.009308141,0.001414375,0.078831255
1.76967E+18,5.815102051,0.102974052,-0.00231646,-0.013143998,0.006884397,0.002088954,0.072486274
1.76967E+18,5.825090332,0.00689502,-0.015928514,-0.016650983,0.006412616,0.00628461,0.068196453
1.76967E+18,5.835079346,-0.0982517,-0.009401742,-0.003361878,0.006400099,0.012720938,0.069510721
1.76967E+18,5.845067139,-0.159607794,-0.012047873,0.025477556,0.006416809,0.012281286,0.071816891
1.76967E+18,5.855056396,-0.061306994,-0.018545564,-0.01425152,0.003212759,0.013076772,0.069054395
1.76967E+18,5.865044189,0.091996731,0.018396511,-0.013541034,0.002018458,0.009282636,0.063886799
1.76967E+18,5.875033203,0.016768764,-0.017222937,-0.031860535,0.000941209,0.006103088,0.052431211
1.76967E+18,5.885022217,0.000582184,0.015947365,-0.004223317,-0.000665651,0.00190616,0.043969665
1.76967E+18,5.895010254,0.020919454,0.022909313,-0.017743746,-0.001599089,0.003690478,0.035997223
1.76967E+18,5.904999268,0.051015901,-0.003937778,-0.003341273,-0.00096307,0.010625681,0.037370224
1.76967E+18,5.914987549,0.033071079,0.020427433,-0.007383096,-0.001809955,0.019927304,0.037904456
1.76967E+18,5.924976074,-0.024528877,0.005345599,0.023446927,-0.00266152,0.0274339,0.043045439
1.76967E+18,5.934964111,-0.033332945,0.012262685,0.027688948,-0.002250328,0.035493158,0.043622546
1.76967E+18,5.944953369,-0.012408231,-0.022724896,0.005069558,-0.001499233,0.039832603,0.04284662
1.76967E+18,5.954941406,-0.054444122,0.02705065,0.015393968,-0.005981334,0.045428969,0.037915245
1.76967E+18,5.964930176,-0.018323008,0.023136399,0.018859599,-0.004488318,0.048398949,0.041586295
1.76967E+18,5.974917969,0.041796238,0.022491233,0.003509469,-0.004424136,0.050452515,0.037934568
1.76967E+18,5.984907227,0.198641581,0.006707096,-0.001217851,-0.003575164,0.053846732,0.03017343
1.76967E+18,5.994895264,0.144244805,0.024223756,-0.015039456,-0.006583204,0.05334739,0.018744742
1.76967E+18,6.004884521,0.084504914,0.038399581,-0.000849749,-0.004584715,0.057726756,0.012909899
1.76967E+18,6.014873291,0.056240358,0.038529053,0.007656652,-0.007709402,0.060695648,0.001554447
1.76967E+18,6.024861084,0.030266543,0.009179624,0.00400982,-0.007514377,0.063316286,-0.005533435
1.76967E+18,6.034850342,0.08789631,0.022836832,-0.010202683,-0.008589495,0.060120493,-0.008477027
1.76967E+18,6.044838379,0.065448916,0.027266339,-0.014483868,-0.009427526,0.064048849,-0.011422882
1.76967E+18,6.054827148,0.040500353,-0.008270985,-0.025541853,-0.009436847,0.071349904,-0.01077893
1.76967E+18,6.064815186,-0.022138182,0.002245879,0.013907675,-0.011088941,0.074070431,-0.017295949
1.76967E+18,6.074803467,-0.076266078,-0.009305588,0.01634937,-0.011581093,0.081877492,-0.022315476
1.76967E+18,6.084791504,-0.022963527,0.005587883,-0.00551438,-0.013515613,0.089843534,-0.019000106
1.76967E+18,6.094780518,-0.114980132,-0.004761515,0.005170388,-0.016632045,0.098168842,-0.020470437
1.76967E+18,6.104768799,-0.085374098,0.001919424,0.010995149,-0.016203409,0.103798613,-0.02265982
1.76967E+18,6.114757568,0.028459202,0.009293314,-0.022170623,-0.016354145,0.105199173,-0.02740664
1.76967E+18,6.124746582,-0.04077274,0.021008301,-0.020011545,-0.020182112,0.107178845,-0.033197545
1.76967E+18,6.134734619,0.017941899,0.030865094,-0.011114538,-0.020193297,0.094609261,-0.041990504
1.76967E+18,6.144723389,0.154549926,0.025839813,-0.058982935,-0.019670309,0.080124751,-0.04728847
1.76967E+18,6.154711426,0.096119949,0.028191783,-0.059859133,-0.019504394,0.076277815,-0.059027951
1.76967E+18,6.164700684,0.051013563,0.012029022,-0.05047215,-0.021309087,0.065233,-0.070431337
1.76967E+18,6.174688721,0.072976389,0.012049042,-0.071994538,-0.023731498,0.061678745,-0.079992883
1.76967E+18,6.184677246,0.03742226,0.021817426,-0.027027123,-0.022655234,0.057741433,-0.078290731
1.76967E+18,6.194665527,0.0523264,0.00430968,-0.062248513,-0.024742352,0.040548865,-0.0906462
1.76967E+18,6.204654541,-0.051583472,0.023139906,-0.010293284,-0.025589911,0.038525384,-0.102249861
1.76967E+18,6.214642578,0.061516837,0.004530045,-0.025472733,-0.024832243,0.036615096,-0.108820148
1.76967E+18,6.224631592,0.020114567,0.031671296,-0.046114393,-0.023962788,0.029632591,-0.122798145
1.76967E+18,6.234620605,-0.084309684,0.01362579,-0.033102351,-0.026037391,0.02545489,-0.122880697
1.76967E+18,6.244608398,0.001074351,0.003545856,-0.025461774,-0.024996385,0.021611964,-0.128927395
1.76967E+18,6.254597656,-0.144054251,0.012930939,-0.011347323,-0.025410242,0.018160507,-0.127604067
1.76967E+18,6.264585693,-0.098419458,-0.011932284,-0.00484291,-0.024082961,0.020785954,-0.117595255
1.76967E+18,6.274574463,0.104178752,-0.001586831,-0.005669862,-0.022477608,0.021263726,-0.112368271
1.76967E+18,6.284562256,0.1354232,0.003679273,-0.039307197,-0.024085712,0.018268295,-0.116849162
1.76967E+18,6.294551514,0.13082652,0.014190438,-0.023847178,-0.023676651,0.019683499,-0.116865136
1.76967E+18,6.304539551,0.123676064,0.013110972,-0.008485212,-0.022800859,0.015112155,-0.126730293
1.76967E+18,6.314528564,0.033837972,0.009594342,-0.017535803,-0.023414452,0.021792695,-0.129027545
1.76967E+18,6.324516602,0.099702483,0.01244564,-0.005988573,-0.026135597,0.025721129,-0.134344146
1.76967E+18,6.334505615,0.126766431,0.044506666,-0.052203065,-0.027607793,0.025121918,-0.141826034
1.76967E+18,6.344494629,0.022160978,0.009542758,-0.050806204,-0.02524345,0.016179431,-0.140568212
1.76967E+18,6.354482422,0.00628361,0.009328093,-0.008728665,-0.02447859,0.013153015,-0.13256754
1.76967E+18,6.364471436,-0.024759763,-0.001778554,-0.02221417,-0.026145052,0.016944796,-0.132439449
1.76967E+18,6.374459473,-0.17315175,-0.021560967,0.016344839,-0.022244586,0.02005803,-0.120560154
1.76967E+18,6.38444873,-0.114271691,-0.041640755,0.016219752,-0.019774111,0.01739707,-0.104848832
1.76967E+18,6.394436523,0.006700959,-0.006616496,-0.013979864,-0.019458793,0.015006084,-0.102044523
1.76967E+18,6.404425293,0.004946224,0.002116992,-0.004527122,-0.019181022,0.013233526,-0.098856188
1.76967E+18,6.414413574,0.078031334,-0.0104381,-0.024487083,-0.020024978,0.020189969,-0.089503966
1.76967E+18,6.424402588,0.05786416,0.008795666,-0.020461627,-0.018303119,0.022804691,-0.09087602
1.76967E+18,6.434390625,0.064189856,0.018791575,-0.022853198,-0.018910587,0.022740241,-0.088973455
1.76967E+18,6.444379639,0.14593232,0.02218772,-0.033352381,-0.016978445,0.019176913,-0.088468805
1.76967E+18,6.454368408,0.156457805,0.024821138,-0.048410541,-0.019469565,0.016229859,-0.084741175
1.76967E+18,6.464356445,0.073841481,0.046369464,-0.041160716,-0.015959473,0.016843393,-0.088780239
1.76967E+18,6.474345459,0.000187047,0.000679945,-0.026310061,-0.015509931,0.013778361,-0.085043825
1.76967E+18,6.484333496,0.030461189,0.009169541,-0.024278555,-0.013863889,0.012233089,-0.075934626
1.76967E+18,6.49432251,0.065384034,0.012018574,-0.024719431,-0.01080871,0.007115026,-0.071848802
1.76967E+18,6.504310547,0.01743395,-0.008375687,-0.024193946,-0.010751989,0.006628158,-0.065670535
1.76967E+18,6.514299316,0.031181905,-0.004328312,-0.033292467,-0.007384688,0.000429385,-0.055086333
1.76967E+18,6.524287354,0.08222937,-0.0289011,-0.035648383,-0.005765224,-0.000606893,-0.048783697
1.76967E+18,6.534276611,0.032934301,-0.005098492,-0.018875965,-0.003159321,4.74455E-05,-0.044577498
1.76967E+18,6.544264648,-0.017931963,0.003762933,-0.01289163,-0.003246197,0.0002801,-0.040673178
1.76967E+18,6.554253662,-0.045628948,0.008861279,-0.000247837,-0.002236061,-0.000728173,-0.042904906
1.76967E+18,6.564242432,-0.086472999,0.00590747,0.010042817,-0.000842896,0.000895479,-0.040380362
1.76967E+18,6.574230469,-0.016827216,0.003270984,0.003493103,-0.000276175,-0.001235582,-0.031271286
1.76967E+18,6.584219482,0.052596449,0.01724756,-0.004605156,0.000805542,-0.001326503,-0.024984501
1.76967E+18,6.594207764,0.088299046,-0.003407982,-0.009607786,0.00147293,0.002109508,-0.01661605
1.76967E+18,6.604196533,0.118406599,-0.004122633,-0.01714242,0.003543543,0.003131178,-0.011864707
1.76967E+18,6.614184326,0.112094932,0.007067381,-0.019400866,0.002772291,0.007251888,-0.00855999
1.76967E+18,6.624173584,0.089397947,-0.010087606,-0.025557635,0.000203012,0.007227886,-0.008113379
1.76967E+18,6.634161621,0.055465282,0.007534049,-0.013788141,0.001500504,0.007130682,-0.009007402
1.76967E+18,6.644150391,0.050285249,0.005525632,-0.007148995,0.00059801,0.009183923,-0.008935356
1.76967E+18,6.654138672,0.03315642,-0.001239625,-0.017905513,-0.000114652,0.011510461,-0.010672802
1.76967E+18,6.664127441,-0.027071547,0.007287746,-0.013804507,-0.001575465,0.013902281,-0.01272623
1.76967E+18,6.674116455,-0.044528878,-0.001650617,0.004493512,-0.001493706,0.012843142,-0.012791478
1.76967E+18,6.684104492,-0.002744915,-0.009746829,-0.013549802,-0.002553112,0.009234026,-0.013891629
1.76967E+18,6.694093506,-0.005126257,0.001493161,-0.017036913,-0.002406372,0.011130463,-0.013790163
1.76967E+18,6.704081543,-0.040416182,-0.006125132,-0.00485387,-0.000867995,0.009375062,-0.00857676
1.76967E+18,6.714070801,0.016640754,-0.004179551,-0.023334991,0.001411937,0.005363275,-0.002640841
1.76967E+18,6.724058594,0.083436993,-0.022269846,-0.027275253,0.00177806,0.001822721,0.00374768
1.76967E+18,6.734047363,0.075268884,0.003947934,-0.025844781,0.002377005,-0.000250284,0.005068075
1.76967E+18,6.7440354,0.046165539,-0.00306969,-0.009583821,0.000912054,-0.000102147,0.007362797
1.76967E+18,6.754024658,0.02919453,0.003617021,-0.016541823,0.00299145,0.000397196,0.007180637
1.76967E+18,6.764012695,-0.012028291,0.015842297,-0.019316841,0.002060741,-0.001304908,0.009144053
1.76967E+18,6.774001465,-0.002843114,0.006396277,-0.034116643,0.003073275,-0.005846929,0.010524103
1.76967E+18,6.783990479,0.04091361,0.010326529,-0.034214697,0.003798261,-0.024041107,0.012062473
1.76967E+18,6.793978516,0.122532739,0.000204948,-0.043598319,0.003176146,-0.022916453,0.018960327
1.76967E+18,6.803967529,0.035083004,-0.015965485,-0.018364801,0.006044039,-0.018877959,0.030069035
1.76967E+18,6.813955566,0.053515317,-0.014203224,-0.016934184,0.005019521,-0.02165111,0.034268577
1.76967E+18,6.82394458,0.062792849,-0.001998626,-0.028118133,0.004717833,-0.024013044,0.033223964
1.76967E+18,6.833932373,0.02377309,0.000418518,-0.006429595,0.005788424,-0.022785326,0.041706935
1.76967E+18,6.843921631,-0.015028642,-0.007052695,-0.011807488,0.005523719,-0.027501926,0.046949618
1.76967E+18,6.853909424,-0.03754501,-0.012594109,-0.024949148,0.005441428,-0.030733937,0.047434583
1.76967E+18,6.863898682,-0.017114216,-0.009637305,-0.021824002,0.006460951,-0.031234691,0.057699867
1.76967E+18,6.873887695,0.032027708,-0.004213891,-0.02347133,0.004518708,-0.029642919,0.063337512
1.76967E+18,6.883875488,0.018529928,-0.027634734,-0.027288404,0.004811197,-0.031371038,0.069512181
1.76967E+18,6.893864502,0.026049218,-0.001786445,-0.012985738,0.006714824,-0.032804884,0.078638837
1.76967E+18,6.903852539,0.086331545,-0.012787293,-0.019956016,0.006537263,-0.036955681,0.086769059
1.76967E+18,6.913841553,0.133428812,0.001902473,-0.037168724,0.008217451,-0.040265456,0.089641549
1.76967E+18,6.92382959,0.102870007,-0.009643734,-0.010545652,0.00823103,-0.040525422,0.092468761
1.76967E+18,6.933818604,0.066246204,0.02374116,-0.006426672,0.007729823,-0.044206444,0.099532261
1.76967E+18,6.943806396,0.08078151,0.008497487,-0.016612404,0.004336825,-0.045570891,0.102725126
1.76967E+18,6.95379541,0.083891751,-0.022945041,-0.033984833,0.000906407,-0.054457061,0.099422537
1.76967E+18,6.963783691,0.003492518,0.00717223,-0.047679889,0.000708742,-0.059319526,0.091703497
1.76967E+18,6.973772461,0.062906246,-0.026660774,-0.035514089,0.001685856,-0.062978975,0.092306435
1.76967E+18,6.983761719,0.116311088,-0.039245384,-0.035449353,0.004585564,-0.059209473,0.085464649
1.76967E+18,6.993749512,0.15174539,-0.031332565,-0.032429567,0.003341868,-0.050353661,0.072578944
1.76967E+18,7.003738525,0.0979647,-0.00512348,-0.034909693,0.002477274,-0.044535834,0.065488011
1.76967E+18,7.013726563,-0.052072717,-0.013417554,-0.016078151,0.002334529,-0.04369694,0.053936549
1.76967E+18,7.023715576,-0.089255324,-0.009556933,-0.014333938,0.000583285,-0.044803191,0.045288876
1.76967E+18,7.033703613,-0.011953473,-0.00809592,-0.028036739,0.002929796,-0.036837943,0.045463845
1.76967E+18,7.043692383,0.162294841,-0.0283743,-0.050251201,0.003369942,-0.029014651,0.043585394
1.76967E+18,7.053680664,0.301719094,-0.028521161,-0.061169193,0.004681016,-0.022241965,0.037696879
1.76967E+18,7.063669434,0.368988795,0.029305151,-0.030344139,0.001079246,-0.008758018,0.034530092
1.76967E+18,7.073658203,0.239743991,0.024390929,-0.054009676,0.001122922,-0.008764409,0.015985439
1.76967E+18,7.083647461,0.199488553,0.037533027,-0.036341187,-0.003233418,6.80706E-05,-0.006056076
1.76967E+18,7.093635986,0.266098914,0.065108432,-0.020103461,-0.004770328,0.001841203,-0.016978499
1.76967E+18,7.103624023,0.28589784,0.032922465,-0.04215075,-0.005851109,0.002994387,-0.029891497
1.76967E+18,7.113613281,0.349590852,0.045401715,-0.070569474,-0.020477457,-0.006727216,-0.042345241
1.76967E+18,7.123601318,0.542573676,0.22037089,-0.020845073,-0.060689908,-0.053700872,-0.011499851
1.76967E+18,7.133590088,0.482967641,-0.087220018,-0.008058511,-0.040178508,-0.098818816,-0.038687531
1.76967E+18,7.143578125,0.280951615,0.036490971,-0.07442425,-0.045734141,-0.136636138,-0.083974309
1.76967E+18,7.153567139,0.218044201,0.091440559,-0.039424394,-0.053888209,-0.179749787,-0.081936456
1.76967E+18,7.163555176,0.074420158,0.070722765,0.045009793,-0.097151868,-0.242705807,-0.030270996
1.76967E+18,7.173544189,0.358019657,0.104160924,0.09505115,-0.125823453,-0.315019697,-0.030777531
1.76967E+18,7.183532227,0.47494917,0.095109456,0.02804463,-0.153072998,-0.450905949,-0.050575059
1.76967E+18,7.193520996,0.164478615,0.141819697,0.070367083,-0.169529736,-0.515360296,-0.071788736
1.76967E+18,7.203510254,-0.093875385,0.203133193,0.001167875,-0.18342337,-0.559003592,-0.117968351
1.76967E+18,7.213498291,-0.078586045,0.290555968,-0.061719959,-0.196231842,-0.545375407,-0.166711122
1.76967E+18,7.223487061,-0.375032752,0.225361538,0.093861941,-0.191018358,-0.536232412,-0.172242925
1.76967E+18,7.233475342,-0.223260474,0.259213319,0.088572017,-0.159692124,-0.549020648,-0.167015672
1.76967E+18,7.243464355,-0.085259532,0.243659192,0.144627594,-0.125244215,-0.591442406,-0.117322549
1.76967E+18,7.253452148,-0.21537995,0.317500819,0.152455218,-0.114917539,-0.570788026,-0.065007143
1.76967E+18,7.263441162,-0.33358372,0.070572689,-0.004694368,-0.115390442,-0.553271651,-0.018225394
1.76967E+18,7.273429199,-0.273230081,0.021891002,0.126037679,-0.08860863,-0.554133952,0.011716791
1.76967E+18,7.283418213,-0.126036363,-0.156807715,0.004867898,-0.07128644,-0.546026766,0.049662981
1.76967E+18,7.293407227,-0.057296005,-0.143384316,-0.062768006,-0.070357263,-0.543208599,0.118301697
1.76967E+18,7.30339502,0.155204006,0.06321933,0.01238843,-0.086047083,-0.646732092,0.1862223
1.76967E+18,7.313384033,0.44031391,0.335250338,0.155679441,-0.103152834,-0.750396669,0.254520923
1.76967E+18,7.323372314,0.461959924,0.632004137,0.294620075,-0.11453712,-0.799518406,0.325710565
1.76967E+18,7.333361084,0.300821852,0.950932651,0.649072834,-0.110564746,-0.905701578,0.420760095
1.76967E+18,7.343349121,0.311361367,1.05392117,0.434408814,-0.203544408,-0.956579328,0.507720709
1.76967E+18,7.353338379,0.165016375,0.977219477,0.524785798,-0.253160685,-0.992310166,0.594673157
1.76967E+18,7.363326172,0.236572375,1.889757077,0.98394031,-0.192547232,-1.060083508,0.625696957
1.76967E+18,7.373315186,0.394880777,3.163489458,0.967695862,-0.135354251,-1.07283318,0.599992931
1.76967E+18,7.383303223,-0.18855624,3.331755482,0.941760553,-0.093549937,-0.935372949,0.564127386
1.76967E+18,7.393292236,-0.785764593,3.209655289,1.00350455,-0.058692086,-0.721984744,0.521915734
1.76967E+18,7.40328125,-1.05064361,3.070326313,1.154259906,-0.008932075,-0.452005059,0.428543091
1.76967E+18,7.413269287,-0.744385119,2.874901941,1.064943792,0.019216208,-0.184918776,0.260290921
1.76967E+18,7.423258057,-0.462563735,2.342458029,0.759314247,-0.012895903,0.064936504,0.094119534
1.76967E+18,7.433246094,-0.551681112,1.871955902,0.533454075,-0.029621622,0.107115656,0.006883428
1.76967E+18,7.443235352,-1.089201596,1.27242159,0.986601273,0.030306626,0.217335925,0.042310528
1.76967E+18,7.453223389,-1.307708738,0.566520661,1.220344635,0.023010362,0.412462294,0.080652066
1.76967E+18,7.463211914,-0.828970113,0.328838133,1.112128591,-0.045029674,0.529797137,0.098724276
1.76967E+18,7.473199951,-0.726848878,0.466129611,1.195093144,-0.105693817,0.528891146,0.159063786
1.76967E+18,7.483189209,-0.810084211,0.530833846,1.275548928,-0.161095545,0.390669286,0.228976265
1.76967E+18,7.493178223,-0.574806551,0.515129497,1.16791441,-0.235403061,0.122722775,0.265550256
1.76967E+18,7.50316626,-0.4182523,0.525236757,1.082348223,-0.250711471,-0.244994104,0.274067581
1.76967E+18,7.513155273,-0.072671268,0.713339262,1.310790045,-0.210628226,-0.583902955,0.216533989
1.76967E+18,7.523143066,0.275476399,0.891609086,1.112392575,-0.1697772,-0.79101783,0.113940246
1.76967E+18,7.533132324,0.130547119,1.012887295,0.967111413,-0.104657851,-0.68589139,0.060543064
1.76967E+18,7.543120361,-0.047245735,1.031348542,0.834810875,-0.055348706,-0.433940947,0.075438
1.76967E+18,7.553109131,-0.482089689,1.341045483,0.451956563,-0.048686273,-0.258880466,0.178353727
1.76967E+18,7.563097168,-0.753735132,1.45117759,0.061927573,-0.087662958,-0.092195205,0.207951024
1.76967E+18,7.573086182,-0.762639738,1.618315049,0.173279523,-0.11309801,0.125217274,0.187065452
1.76967E+18,7.583074219,-0.703169896,1.335042881,0.158464396,-0.148889557,0.187353656,0.101391822
1.76967E+18,7.593062988,0.021705636,0.808782627,-0.036715478,-0.196424589,-0.034662634,-0.022672601
1.76967E+18,7.603052246,0.097334585,0.651782239,-0.130902042,-0.282877117,-0.268007845,-0.087698065
1.76967E+18,7.613040283,-0.818561532,0.734967741,-0.395802933,-0.31477195,-0.465226382,-0.102690868
1.76967E+18,7.623029297,-1.07214291,0.650328971,-0.821470989,-0.336126745,-0.616150677,-0.16688931
1.76967E+18,7.63301709,-0.281385915,0.174847594,-0.750798055,-0.246648252,-0.797511399,-0.198359624
1.76967E+18,7.643006104,-1.61489545,0.000330401,-0.462597053,-0.230389878,-0.534427583,-0.098072015
1.76967E+18,7.652994141,-0.228303144,-0.545407438,-1.733868743,-0.265348136,-0.091740981,-0.410442978
1.76967E+18,7.662983398,2.258116781,-1.344094203,-1.176564092,-0.152328819,0.182169616,-0.686178565
1.76967E+18,7.672971191,1.095214573,-1.370807146,-0.199316028,0.039010238,0.412149817,-0.75715524
1.76967E+18,7.682959961,0.544978984,-1.162076278,-0.282861468,0.143544167,0.671376944,-0.787121832
1.76967E+18,7.692949219,-0.206907889,-1.318851625,-0.369755505,0.135854289,0.859123409,-0.705147862
1.76967E+18,7.702937256,-1.584630075,-0.987534681,-0.284309036,0.068046987,0.809344828,-0.484902263
1.76967E+18,7.712926025,-1.779663987,-0.083179072,-0.121019028,-0.003092171,0.509208679,-0.419795692
1.76967E+18,7.722914307,0.454501425,0.112686176,-0.005356664,0.008639483,0.545470357,-0.361731112
1.76967E+18,7.73290332,-0.361961673,0.096574853,-0.32511692,-0.014435477,0.719260275,-0.127941236
1.76967E+18,7.742891113,-0.154292736,0.160814247,-1.539761736,-0.03710863,0.980789661,-0.156749576
1.76967E+18,7.752880127,1.229080607,0.225561883,-1.577787808,0.046463229,1.075024128,-0.355718344
1.76967E+18,7.762868164,0.726105951,-0.60107175,-1.646531235,0.14090611,1.329911232,-0.450185716
1.76967E+18,7.772857178,-2.744135042,-2.805349097,-2.340685905,0.142884031,1.82257688,-0.314071029
1.76967E+18,7.782846436,-2.747236515,-5.195702265,-2.218705977,0.191136912,1.861035824,-0.401067704
1.76967E+18,7.792833984,0.988029041,-6.795372673,-2.24103106,0.204888403,1.539620996,-0.458544821
1.76967E+18,7.802822998,3.084002956,-5.766032547,-1.164358033,0.206964731,1.240747809,-0.228894591
1.76967E+18,7.812811279,0.123481418,-3.218325502,-0.643167994,0.167157665,1.476806164,0.253207326
1.76967E+18,7.822800293,0.786518042,-2.409525048,-0.483263555,0.105670474,1.139543176,0.282343388
1.76967E+18,7.83278833,1.634571041,-2.450180591,-0.10250512,0.00083727,0.936754286,0.100488365
1.76967E+18,7.8427771,0.608161124,-2.665109144,-0.288021261,-0.04126057,0.671831131,-0.161170557
1.76967E+18,7.852765137,0.946693406,-2.630076993,-0.728912094,-0.057293333,0.491039723,-0.323320061
1.76967E+18,7.86275415,1.391368434,-2.032031021,-0.83936715,-0.029288193,0.302302182,-0.277243108
1.76967E+18,7.872743164,0.845927093,-1.025493021,-0.751695589,-0.039258536,0.206622541,-0.125636533
1.76967E+18,7.882731201,0.277845466,-1.217405075,-0.543128095,-0.042927254,0.157843873,-0.067485996
1.76967E+18,7.892720215,0.109378074,-1.409299666,-0.56396367,-0.019048819,0.033732578,-0.055731069
1.76967E+18,7.902708252,0.377783512,-0.648559039,-0.343092722,-0.014313187,-0.021432139,-0.020976018
1.76967E+18,7.912697021,0.470787374,-0.116803036,-0.168314393,-0.007923198,0.004773364,0.004413493
1.76967E+18,7.922685059,0.250398656,-0.067089231,-0.082654464,-0.002193458,-0.001168211,0.017563503
1.76967E+18,7.932674316,0.073092709,-0.016690803,-0.098036011,0.005891367,0.016275495,0.018043138
1.76967E+18,7.942662354,0.016102409,0.007208178,-0.04880977,0.007774094,-0.004092432,0.03686982
1.76967E+18,7.952651123,0.097257428,0.032481954,-0.042301995,0.010908901,-0.045158908,0.052106827
1.76967E+18,7.962640137,0.237375508,0.020759879,-0.027265316,0.012837288,-0.090446047,0.063977078
1.76967E+18,7.972628174,0.201678757,0.06681604,-0.001997457,0.008094198,-0.101093099,0.068303913
1.76967E+18,7.982617188,0.170637137,0.097568978,0.040955841,0.008328768,-0.101066262,0.068792462
1.76967E+18,7.992605469,0.132500006,0.063171692,-0.005315496,0.005903427,-0.09057501,0.070199676
1.76967E+18,8.002594238,-0.014518355,0.040269467,0.024620208,0.006741513,-0.081156328,0.074679919
1.76967E+18,8.012582031,-0.056890346,0.042212125,0.039299452,0.009368721,-0.072963916,0.073005594
1.76967E+18,8.022571289,-0.004629413,0.026979338,0.013990093,0.010729427,-0.085448153,0.070016496
1.76967E+18,8.032559326,-0.042418169,0.03923837,-0.032724166,0.012066601,-0.08890973,0.065739721
1.76967E+18,8.042548096,-0.002353285,0.036819107,-0.020455782,0.011427324,-0.08879444,0.062212616
1.76967E+18,8.052537354,0.118514151,0.025328356,-0.001302753,0.012389258,-0.084573075,0.054583456
1.76967E+18,8.062525146,0.201427412,0.026345717,0.008193828,0.011511421,-0.077250853,0.046736848
1.76967E+18,8.072513916,0.180990189,0.024054975,0.0165408,0.011005687,-0.066902876,0.039017942
1.76967E+18,8.082501709,0.197711607,0.025304756,-0.005324848,0.009621109,-0.072969824,0.030054806
1.76967E+18,8.092490723,0.057526306,0.043900078,-0.006279665,0.009349466,-0.067532718,0.022317789
1.76967E+18,8.10247876,-0.163549225,0.019949513,-0.008774989,0.006190158,-0.059814338,0.022951355
1.76967E+18,8.112468018,-0.117734399,0.00427059,0.001624971,0.006871807,-0.065234967,0.025943674
1.76967E+18,8.122455811,0.073470894,0.008372107,-0.006319997,0.008490331,-0.063629583,0.025643013
1.76967E+18,8.13244458,0.12228081,-0.005074454,-0.010931436,0.008102308,-0.057773024,0.023564948
1.76967E+18,8.142433838,0.103076928,0.014003902,-0.002124737,0.007184794,-0.043021347,0.018692553
1.76967E+18,8.152421875,-0.008074585,0.012671631,0.04325462,0.007003433,-0.020197792,0.016743651
1.76967E+18,8.162410645,-0.070929393,0.003242416,0.047351534,0.005257726,-0.009875156,0.013632551
1.76967E+18,8.172398682,-0.071959321,0.021805589,0.010836451,0.004511242,-0.006902802,0.006701142
1.76967E+18,8.182387939,-0.118333534,0.023367359,-0.007476327,0.002519518,-0.004609716,0.003006682
1.76967E+18,8.192375732,-0.064516604,0.009334961,0.003749416,0.000954911,-0.004600928,0.001023426
1.76967E+18,8.202364746,-0.023963059,-0.002362637,0.001375088,0.000408507,0.001647655,0.003935984
1.76967E+18,8.212352783,0.015346622,0.005796484,0.014027941,0.000482809,0.010874443,0.00536184
1.76967E+18,8.222341797,0.039466918,-0.007801833,0.021132951,-0.002680375,0.023967901,0.007940858
1.76967E+18,8.232331055,-0.038629298,0.006511574,0.02031462,-0.006625315,0.031181606,0.002151145
1.76967E+18,8.242318848,0.011653028,-0.005926979,-0.017439357,-0.007388897,0.032573804,-0.0002288
1.76967E+18,8.252307617,0.022195465,0.006215367,-0.019129063,-0.007883713,0.039785907,-0.001848002
1.76967E+18,8.262295654,-0.022002573,-0.003740648,0.006999211,-0.009915053,0.055111896,0.00035045
1.76967E+18,8.272284912,-0.074926354,-0.027733006,0.026917671,-0.012021613,0.068229824,0.001700407
1.76967E+18,8.282272949,-0.177964704,-0.037879649,0.014386545,-0.012887869,0.083579987,-0.002859328
1.76967E+18,8.292261475,-0.155114574,-0.039579146,0.034631022,-0.014016517,0.100618362,-0.00256931
1.76967E+18,8.302249756,-0.133860189,-0.022773703,0.000194354,-0.013215723,0.102827586,0.004294206
1.76967E+18,8.31223877,-0.109238958,-0.026112931,-0.019447336,-0.015639465,0.085646473,0.0008803
1.76967E+18,8.322227783,0.037854222,-0.014270079,-0.028014819,-0.014031087,0.074145213,0.000631401
1.76967E+18,8.33221582,0.036271921,-0.003920023,-0.031678456,-0.014250798,0.068877213,0.006589691
1.76967E+18,8.342204834,-0.005050854,-0.00631006,-0.020243454,-0.013807643,0.050078802,0.008155893
1.76967E+18,8.352192627,-0.001533201,-0.016492212,-0.044942135,-0.015057199,0.052280437,0.006335622
1.76967E+18,8.362181885,-0.047367316,-0.007332608,-0.040353053,-0.009933735,0.047878508,0.009965637
1.76967E+18,8.372169922,0.005566402,-0.030813437,-0.024580315,-0.009584062,0.04338469,0.017550586
1.76967E+18,8.382158691,0.071830141,-0.006839345,-0.032362639,-0.009056634,0.045467041,0.020123476
1.76967E+18,8.392146973,0.051116439,-0.018647344,-0.015295184,-0.006572704,0.04340256,0.029977437
1.76967E+18,8.402135742,-0.030106384,0.000316884,-0.006302169,-0.005102911,0.045154877,0.041243948
1.76967E+18,8.412124512,-0.088908118,-0.003646978,-0.000770692,-0.004156157,0.062549844,0.043958772
1.76967E+18,8.422112793,-0.091430914,-0.002005641,0.006457798,-0.005328297,0.062860318,0.047386941
1.76967E+18,8.432101807,-0.040459436,-0.001839344,-0.006647475,-0.004659577,0.063727446,0.047668438
1.76967E+18,8.442089844,-0.051855275,0.002682225,-0.025559096,-0.004659811,0.046853378,0.049835153
1.76967E+18,8.452078857,0.061429743,-0.012505992,-0.017915304,-0.006249186,0.034956504,0.049221568
1.76967E+18,8.46206665,0.14995383,-0.041130906,-0.028711861,-0.004103367,0.023909654,0.056208652
1.76967E+18,8.472055664,0.12268413,-0.003447948,-0.015027912,-0.000422079,0.016891427,0.058421206
1.76967E+18,8.482043945,0.273728678,-0.017897768,-0.027177053,-0.001204374,0.014461222,0.058719743
1.76967E+18,8.492032715,0.221800923,-0.016891367,-0.05765534,-0.000977473,0.009629183,0.056064036
1.76967E+18,8.502020508,0.182797531,0.003890285,-0.041144204,0.001466374,0.004289657,0.053669859
1.76967E+18,8.512009766,0.182152803,-0.004434914,-0.028059389,0.001606456,0.002553809,0.051251974
1.76967E+18,8.521998779,0.135971482,-0.020989743,-0.033502749,0.004810791,-0.007369494,0.055380389
1.76967E+18,8.531986816,0.159105689,-0.008836217,-0.021570465,0.003640598,-0.011579685,0.053062908
1.76967E+18,8.54197583,0.126920745,-0.018273762,-0.01743132,0.00486012,-0.016464839,0.051107217
1.76967E+18,8.551963867,0.023912791,-0.016086481,-0.01546981,0.002347961,-0.008523027,0.047248829
1.76967E+18,8.561952881,0.000903671,-0.020920623,0.01649813,0.001326688,-0.004698399,0.048690546
1.76967E+18,8.571940918,0.034239539,-0.045658028,-0.006843875,0.001742674,-0.001712463,0.050863687
1.76967E+18,8.581929688,0.027268531,-0.038871875,-0.013544395,0.002957955,-0.002377671,0.058181107
1.76967E+18,8.591918701,-0.047686465,-0.003617752,-0.002784808,0.002241565,0.003771834,0.060673561
1.76967E+18,8.601906982,-0.052210664,-0.023219109,0.007617489,0.002093288,0.005164548,0.06249344
1.76967E+18,8.611895752,0.049824646,-0.016267536,-0.010546821,0.002633909,0.003014578,0.061062787
1.76967E+18,8.621883545,0.061572367,0.002517244,-0.022075054,0.00186618,0.004767617,0.059895396
1.76967E+18,8.631872803,0.037633857,-0.005423632,-0.010059476,0.000816362,0.007956753,0.057992034
1.76967E+18,8.64186084,0.068253452,-0.003431436,0.001846797,0.000413506,0.010245523,0.052547321
1.76967E+18,8.651849854,9.70306E-05,0.015589053,-0.008595102,3.93318E-05,0.01243624,0.051649839
1.76967E+18,8.661837646,0.003997545,-0.007637655,0.001298223,-0.002254328,0.017819315,0.050882861
1.76967E+18,8.67182666,0.023832126,0.0076492,0.014804186,6.42196E-05,0.021120036,0.046336044
1.76967E+18,8.681815674,0.038999885,0.014220833,-0.01759104,-0.000325054,0.023646893,0.04542616
1.76967E+18,8.691803955,0.031577042,0.014473347,0.0043788,-0.002304049,0.029056041,0.03804601
1.76967E+18,8.701792725,-0.029517771,0.007288257,-0.00224398,-0.003676676,0.031542376,0.038493983
1.76967E+18,8.711780762,0.002461422,0.017752368,0.010987258,-0.003748848,0.028056033,0.035744268
1.76967E+18,8.72177002,0.118170452,0.022506285,-0.019815,-0.002112719,0.019913658,0.031079197
1.76967E+18,8.731757813,0.095891985,0.019032033,0.013217355,-0.002173972,0.029478669,0.025510527
1.76967E+18,8.741746582,-0.051315177,0.028929157,0.02735504,-0.003487106,0.031906106,0.024321023
1.76967E+18,8.751734619,0.002988076,0.02256649,0.020096885,-0.004238916,0.039649777,0.019257022
1.76967E+18,8.761723877,0.077160397,0.01377835,0.011369389,-0.005308311,0.045857452,0.022176381
1.76967E+18,8.771712891,0.019983634,0.011643968,-0.001128273,-0.00580286,0.044991925,0.022617668
1.76967E+18,8.781700684,0.07450316,0.019836043,-0.042336336,-0.004984199,0.042824421,0.010288824
1.76967E+18,8.791689697,0.023020226,0.024554888,-0.030496553,-0.004443843,0.040527713,0.002140883
1.76967E+18,8.801677734,-0.042552609,0.033153205,-0.007531565,-0.005268707,0.047827117,-0.00222389
1.76967E+18,8.811666992,-0.016820202,0.013552871,-0.000543021,-0.00627698,0.049305171,-0.002881691
1.76967E+18,8.821655029,-0.019523031,0.009134762,0.00587313,-0.006030105,0.0499161,-0.003939498
1.76967E+18,8.831643799,-0.020631869,-0.009092092,-0.027023762,-0.005434089,0.046918977,-0.00751639
1.76967E+18,8.841631592,-0.025574002,-0.004358195,-0.002545301,-0.007742897,0.044950124,-0.010051205
1.76967E+18,8.85162085,-0.012417583,0.001852496,-0.010935674,-0.00752798,0.046494223,-0.011373997
1.76967E+18,8.861609619,0.011525603,-0.010588322,-0.01371113,-0.009884008,0.048016451,-0.013797609
1.76967E+18,8.871597656,-0.00552607,-0.015607903,-0.021629648,-0.0109032,0.048742693,-0.014059931
1.76967E+18,8.881586914,-0.052367316,-0.021801351,-0.004605156,-0.011046604,0.057510015,-0.008634811
1.76967E+18,8.891574707,0.0053361,-0.001984744,0.011883915,-0.013014147,0.062775351,-0.012954459
1.76967E+18,8.901563477,-0.039357612,-0.013246143,0.000829144,-0.014470669,0.067788988,-0.013076129
1.76967E+18,8.911551758,0.05702011,0.001502514,-0.024935558,-0.014764948,0.064784408,-0.018575825
1.76967E+18,8.921540771,0.009583821,0.009533114,-0.035431379,-0.016121397,0.060690966,-0.025285954
1.76967E+18,8.931528809,-0.096097737,-0.002450608,0.019208851,-0.02162775,0.065817013,-0.026135769
1.76967E+18,8.941518066,0.056733695,-0.001977145,-0.010225334,-0.022020575,0.068469182,-0.02730968
1.76967E+18,8.951506592,0.029154783,0.000415157,-0.026849721,-0.021158513,0.059854381,-0.03063437
1.76967E+18,8.961494629,0.014085808,-0.014243045,-0.005097031,-0.022440622,0.059845939,-0.037473768
1.76967E+18,8.971483887,0.086182492,0.020195524,-0.031829409,-0.020560695,0.050767753,-0.037136614
1.76967E+18,8.981471924,0.148722242,-0.009862638,-0.053087885,-0.018876163,0.045777079,-0.041941367
1.76967E+18,8.991460693,0.077813892,-0.011592969,-0.034660687,-0.020219726,0.041983142,-0.044286817
1.76967E+18,9.00144873,-0.015272388,0.011030659,-0.026219752,-0.019926989,0.043250378,-0.043052033
1.76967E+18,9.011437744,-0.010277064,-0.017015432,-0.020100977,-0.023725191,0.042072728,-0.055631474
1.76967E+18,9.021425781,0.050425534,-0.002018646,-0.023382337,-0.020849453,0.03337495,-0.051286384
1.76967E+18,9.031414795,0.100293435,0.010566256,-0.02979878,-0.021753063,0.038866121,-0.060470559
1.76967E+18,9.041403809,-0.141158529,-0.04483619,0.017833763,-0.023985585,0.047823973,-0.062292434
1.76967E+18,9.051391602,-0.092160397,-0.003187836,0.015570932,-0.022689691,0.057843052,-0.066706888
1.76967E+18,9.061380859,-0.090872696,-0.017493717,0.006870032,-0.025182677,0.072431847,-0.071885936
1.76967E+18,9.071368652,-0.145400989,-0.03220701,0.025884967,-0.026311325,0.07504867,-0.068309046
1.76967E+18,9.081357422,0.019065935,-0.005177695,0.002331512,-0.024889927,0.076435074,-0.07243149
1.76967E+18,9.091345703,0.063759648,-0.01164163,-0.034022827,-0.026544282,0.065112643,-0.082936861
1.76967E+18,9.101334717,0.072008421,-0.012523528,-0.012576135,-0.025388993,0.070764221,-0.081387177
1.76967E+18,9.11132251,0.112741413,0.030170974,-0.024618455,-0.026496869,0.068488285,-0.085595772
1.76967E+18,9.121311523,0.033695933,0.017793577,-0.007644377,-0.028883144,0.06821496,-0.089770392
1.76967E+18,9.131300537,0.067415832,-5.64064E-05,-0.018105858,-0.025851935,0.063733123,-0.089222051
1.76967E+18,9.141288574,0.10407763,-0.014623715,-0.045401861,-0.025784699,0.045178682,-0.090335242
1.76967E+18,9.151277588,0.097155137,0.069745444,-0.037660015,-0.026741574,0.047048751,-0.096926302
1.76967E+18,9.161265625,0.048048868,-2.93722E-05,-0.007657091,-0.027167775,0.036826659,-0.099256597
1.76967E+18,9.171254395,0.018559739,0.002214973,-0.023895255,-0.027903873,0.038727887,-0.089209817
1.76967E+18,9.181242676,0.054776715,-0.001000628,-0.015125381,-0.024379473,0.035585109,-0.07597176
1.76967E+18,9.191231689,0.160565825,-0.013722309,-0.018370792,-0.022972791,0.038902875,-0.069049135
1.76967E+18,9.201219482,0.122642045,0.00852306,-0.01259104,-0.020522542,0.040438917,-0.066293038
1.76967E+18,9.21120874,0.099410807,0.005584084,-0.007859627,-0.017387468,0.035249747,-0.055768754
1.76967E+18,9.221197754,0.160326171,0.017521628,-0.035446138,-0.016938319,0.033446185,-0.04818967
1.76967E+18,9.231185547,0.098620533,0.029701238,-0.009177724,-0.01858229,0.035795622,-0.043818362
1.76967E+18,9.241174561,0.017265608,-0.019863369,0.003530512,-0.015551758,0.040590938,-0.038979918
1.76967E+18,9.251162598,0.067721537,0.003017667,-0.010353344,-0.015995972,0.037848681,-0.03270125
1.76967E+18,9.261151611,0.063711717,0.012994141,-0.009579437,-0.013737962,0.034263484,-0.027437365
1.76967E+18,9.271139893,0.092008422,-0.01707688,-0.034815293,-0.010905956,0.031149717,-0.021061758
1.76967E+18,9.281128418,0.073981182,-0.012913842,-0.051280544,-0.009851795,0.017957533,-0.024219349
1.76967E+18,9.291116455,-0.023678397,0.030622298,-0.043849517,-0.00879878,0.016109299,-0.021023555
1.76967E+18,9.301105713,0.021791561,0.001210764,-0.041664136,-0.005795605,0.006913971,-0.019284908
1.76967E+18,9.311094482,0.062794018,0.007661109,-0.072371701,-0.005339405,0.000205468,-0.016662493
1.76967E+18,9.32108252,0.04041852,-0.007972294,-0.060391925,-0.004288567,-0.007075368,-0.011480132
1.76967E+18,9.331071777,0.047758946,-0.053416752,-0.056599693,-0.000818734,-0.013274408,-0.005044071
1.76967E+18,9.34105957,0.064825816,-0.040771352,-0.040286564,0.000563083,-0.013985116,0.000776161
1.76967E+18,9.351048584,0.073338208,-0.050402373,-0.026632279,0.003954885,-0.010717152,0.008252453
1.76967E+18,9.361036377,0.006299977,-0.047716422,0.000250175,0.002878915,-0.004189049,0.012648654
1.76967E+18,9.371025635,-0.04815642,-0.04328012,0.012992168,0.004789732,0.001115436,0.016113959
1.76967E+18,9.381013428,-0.029527708,-0.011686565,-0.00222849,0.00597185,-0.002107136,0.016627811
1.76967E+18,9.391002441,0.020614918,-0.023056101,0.009415917,0.005723111,-0.00095452,0.015430986
1.76967E+18,9.400991455,-0.039918169,-0.00964315,0.008325053,0.002466467,0.003856635,0.013463707
1.76967E+18,9.410979492,-0.068413026,-0.001966405,0.00118088,0.00229123,0.004011365,0.014498345
1.76967E+18,9.42096875,0.02315525,-0.003183379,-0.016817572,0.001203052,-0.005314311,0.013041872
1.76967E+18,9.430956787,0.041380643,-0.014999197,-0.017075784,0.001033409,-0.008250712,0.007723805
1.76967E+18,9.440945557,0.017938977,0.003646759,-0.044172027,0.001712022,-0.010734892,0.005758018
1.76967E+18,9.45093335,-0.001529109,0.006823051,-0.018091391,0.001711756,-0.010626502,-0.00010067
1.76967E+18,9.460922607,-0.015803134,0.020855083,-0.025666795,0.001796611,-0.009948093,-0.003157744
1.76967E+18,9.470911621,-0.009452888,0.004867971,-0.041777241,0.002480777,-0.009183233,-0.003058941
1.76967E+18,9.480899414,0.02671265,0.003615852,-0.026769495,0.002888224,-0.009015847,-0.003034957
1.76967E+18,9.490888672,0.038927989,0.001367124,-0.020896804,0.003542297,-0.009519717,-0.00397745
1.76967E+18,9.500876465,0.004855039,0.000223653,-0.01749854,0.002450738,-0.012470534,-0.004008479
1.76967E+18,9.510865479,0.02503858,9.39619E-05,-0.034091216,0.003486974,-0.015355537,-0.004863887
1.76967E+18,9.52085376,0.036490533,0.010047274,-0.025181495,0.002799351,-0.019586457,-0.006971251
1.76967E+18,9.530842529,0.010295769,0.007188085,-0.017944384,0.004331734,-0.020654652,-0.008568349
1.76967E+18,9.540830566,0.013557985,0.000801233,-0.024247868,0.001475429,-0.021975769,-0.009835617
1.76967E+18,9.55081958,0.008104981,0.000666428,-0.030575902,0.002995295,-0.022365656,-0.01107878
1.76967E+18,9.56080835,-0.002310031,-0.004892521,-0.015505904,0.002165122,-0.023460669,-0.010766525
1.76967E+18,9.570796387,-0.012763035,-0.007247414,-0.024089901,0.002671655,-0.025348052,-0.011641107
1.76967E+18,9.580785645,0.039297407,0.002328151,-0.014120149,0.002288486,-0.029876348,-0.008710425
1.76967E+18,9.590773682,0.093710549,0.004310337,-0.029073534,0.003284775,-0.033831138,-0.004683726
1.76967E+18,9.600762451,0.072567224,-0.006462401,-0.018601386,0.003054216,-0.032718241,-0.003013528
1.76967E+18,9.610750488,0.024360534,-0.016027882,-0.021727848,0.004111224,-0.034360345,-0.000294973
1.76967E+18,9.620739502,0.052744917,-0.008834318,-0.040436201,0.004437136,-0.037344564,0.00115125
1.76967E+18,9.630727539,0.041022331,-0.007250994,-0.024499066,0.005736758,-0.039131012,0.002265517
1.76967E+18,9.640716797,0.01354571,-0.027343203,-0.018296996,0.005081934,-0.043160316,0.002244362
1.76967E+18,9.650705566,0.017821488,-0.025334932,0.003129822,0.006029753,-0.034628879,0.004243064
1.76967E+18,9.660693359,-0.024844518,-0.013492373,0.0062066,0.004134138,-0.027156675,0.009940878
1.76967E+18,9.670682617,-0.009477438,-0.024879005,-0.015135171,0.003863561,-0.026664257,0.010670317
1.76967E+18,9.680670654,0.046423313,-0.012814473,-0.027172523,0.00424266,-0.027013019,0.009942478
1.76967E+18,9.690659424,0.048797056,-0.025173531,-0.032871758,0.005180891,-0.025185559,0.012233328
1.76967E+18,9.700647705,0.05324293,-0.013569164,-0.012795769,0.002394208,-0.017084427,0.016814647
1.76967E+18,9.710636719,0.022778234,-0.00642638,-0.013388182,0.006484823,-0.019042648,0.018763015
1.76967E+18,9.720625244,0.019684359,-0.011141718,-0.024797757,0.003843592,-0.021262258,0.022328567
1.76967E+18,9.730613525,0.021679917,-0.019729513,-0.004658347,0.003968494,-0.020703526,0.024923552
1.76967E+18,9.740602539,0.056920742,0.004373831,-0.028532267,0.005631221,-0.020602075,0.027878078
1.76967E+18,9.750590576,0.033136546,-0.017593013,-0.02666472,0.00490258,-0.016979111,0.03352771
1.76967E+18,9.760579834,0.059144847,-0.009710808,-0.009290975,0.008641936,-0.016608313,0.036392462
1.76967E+18,9.770567383,0.034437692,-0.014023849,-0.028873774,0.008321024,-0.01792445,0.03558952
1.76967E+18,9.780556396,-0.013639234,-0.011811726,-0.026243425,0.008252325,-0.017067092,0.036551706
1.76967E+18,9.790544678,0.032983986,-0.002873071,-0.022639556,0.005838968,-0.020043174,0.038414855
1.76967E+18,9.800533691,0.028160511,-0.005912366,-0.013162118,0.005343469,-0.019069271,0.041727044
1.76967E+18,9.810522461,-0.029853871,0.004578049,-0.004119126,0.005669706,-0.017335288,0.048326094
1.76967E+18,9.820510742,0.004987725,0.004543123,-0.019587621,0.007226318,-0.020427527,0.05278689
1.76967E+18,9.830499512,0.022411738,0.005928586,-0.034090486,0.007350688,-0.027073445,0.051708844
1.76967E+18,9.840487549,-0.047494742,0.008892697,-0.017424451,0.00604276,-0.028581388,0.056393459
1.76967E+18,9.850476563,-0.007472528,0.006179273,-0.002120645,0.005806805,-0.029056229,0.06608551
1.76967E+18,9.8604646,0.060355392,0.006191183,-0.014054829,0.007132445,-0.027795274,0.069794372
1.76967E+18,9.870453613,0.022732056,-0.001470511,-0.009116788,0.005873835,-0.028736435,0.073673263
1.76967E+18,9.88044165,0.060377604,-0.001948796,-0.021910365,0.007845253,-0.03319566,0.076358251
1.76967E+18,9.89043042,0.084477442,-0.008879618,-0.019662147,0.007675876,-0.0356194,0.06995894
1.76967E+18,9.900419434,0.048387307,0.008280775,-0.019073095,0.005710648,-0.032853495,0.070542052
1.76967E+18,9.910407715,0.030493338,-0.003357055,-0.012346271,0.003698364,-0.029847316,0.07408832
1.76967E+18,9.920396729,0.073660864,-0.000953209,-0.024371786,0.00479107,-0.032330628,0.070868813
1.76967E+18,9.930384521,0.05555296,-0.007433073,-0.017728111,0.005657662,-0.029133506,0.064990684
1.76967E+18,9.940373535,-0.005559972,-0.027547494,-0.003750731,0.005301106,-0.022267591,0.068446025
1.76967E+18,9.950361572,0.063956047,-0.010547844,0.001119944,0.004093895,-0.014138557,0.065632395
1.76967E+18,9.960350586,0.104913496,-0.00876929,-0.005039894,0.004866783,-0.014369689,0.060196847
1.76967E+18,9.970338867,0.037342181,0.003174831,-0.014039485,0.003736537,-0.008665465,0.05081027
1.76967E+18,9.980327637,0.03501403,-0.031209962,-0.018487989,0.005725567,-0.005876162,0.049164854
1.76967E+18,9.990316406,0.054047232,-0.030388124,-0.047287675,0.008267288,-0.006666054,0.04028108
1.76967E+18,10.00030469,0.028193829,-0.025958763,-0.027988077,0.006102263,-0.010831436,0.035477277
1.76967E+18,10.01029346,0.135751702,-0.030586569,-0.016702713,0.006564322,-0.00808332,0.031546187
1.76967E+18,10.02028149,0.198842656,-0.034737844,-0.040256753,0.00905498,-0.007014361,0.02450119
1.76967E+18,10.03027075,0.173322431,-5.39221E-05,-0.060566405,0.010492022,-0.012501805,0.012534009
1.76967E+18,10.04025854,0.178078101,0.046611091,-0.046577627,0.008635729,-0.016666688,0.001678303
1.76967E+18,10.05024756,0.203682498,0.0723774,-0.029995033,0.008872483,-0.030735102,-0.011218054
1.76967E+18,10.06023535,0.362936656,0.080813951,-0.059978376,0.0014834,-0.039505888,-0.032093767
1.76967E+18,10.07022461,0.471115291,0.103523649,-0.065163669,-0.005149735,-0.051090375,-0.050069571
1.76967E+18,10.08021387,0.460555318,0.084163846,-0.053671092,-0.008638671,-0.064994775,-0.061845671
1.76967E+18,10.0902019,0.551865821,0.142739661,-0.069512074,-0.020127015,-0.072838314,-0.073002726
1.76967E+18,10.10019092,0.53027592,0.186505737,-0.0753608,-0.033211097,-0.0888405,-0.091746069
1.76967E+18,10.11017896,0.429643463,0.186392194,-0.010952771,-0.057080477,-0.102655917,-0.100948893
1.76967E+18,10.12016797,0.315557649,0.605166326,0.155011406,-0.163001418,-0.183418006,-0.012108613
1.76967E+18,10.13015601,0.270997208,0.959013666,0.490750696,-0.284974962,-0.246229455,0.102579884
1.76967E+18,10.14014478,0.443480265,0.639769584,0.647366176,-0.38850826,-0.321317375,0.171408996
1.76967E+18,10.15013281,0.715344903,0.384143256,0.648323331,-0.450790018,-0.442896277,0.17892684
1.76967E+18,10.16012207,1.17975222,0.629432314,0.597918693,-0.539241672,-0.657033145,0.184291661
1.76967E+18,10.17011084,1.150970363,0.96309962,0.721045599,-0.618842244,-0.905707717,0.19988206
1.76967E+18,10.18009863,0.904077669,1.869998046,0.779387021,-0.647168159,-1.10287714,0.06792856
1.76967E+18,10.19008789,0.268271582,2.830139547,0.73895798,-0.640125692,-1.37075305,0.043912712
1.76967E+18,10.20007593,-0.929415524,1.911236796,0.038321767,-0.621237516,-1.507884741,0.070130721
1.76967E+18,10.21006494,-0.609150135,1.026091352,-0.255302868,-0.440117478,-1.567797661,0.023158154
1.76967E+18,10.22005298,-0.239760358,0.942183966,-0.623869857,-0.19715324,-1.425533772,0.022575321
1.76967E+18,10.23004175,-0.54823594,0.939348596,-0.847182938,-0.054080773,-1.225118399,0.109235384
1.76967E+18,10.24003101,-0.412697004,2.389607464,0.144298069,0.067724615,-1.067038417,0.223752648
1.76967E+18,10.25001904,-0.309855054,3.122869863,0.138698021,0.078538381,-0.951393366,0.34267211
1.76967E+18,10.26000781,-0.219952664,2.675430923,-0.110306806,0.032545779,-0.985053301,0.42303288
1.76967E+18,10.26999585,-0.127460843,2.305401971,0.166070341,-0.017779712,-1.045277953,0.486021966
1.76967E+18,10.27998511,-0.40629532,2.011973152,0.206196325,-0.075190522,-0.949674428,0.526450574
1.76967E+18,10.2899729,-0.647550301,1.753187483,-0.115677174,-0.132827178,-0.800858021,0.551343143
1.76967E+18,10.29996191,-0.555065494,1.649963694,-0.322641982,-0.163058668,-0.590939701,0.533974409
1.76967E+18,10.30994995,-0.433212553,1.2524042,-0.27555235,-0.173419967,-0.432616383,0.544399381
1.76967E+18,10.31993896,-0.388455712,0.938618236,-0.323545287,-0.188308671,-0.334222674,0.544734001
1.76967E+18,10.32992798,-0.444646971,0.535995759,-0.124134128,-0.223984376,-0.23668094,0.607291102
1.76967E+18,10.33991577,-1.224251872,0.32131519,0.233141287,-0.250620961,-0.105428368,0.718070447
1.76967E+18,10.34990479,-1.199545301,0.139883687,0.63382843,-0.284258842,0.03563261,0.752886474
1.76967E+18,10.35989282,-0.821463683,0.042171209,0.951302142,-0.271135092,0.13860707,0.731843293
1.76967E+18,10.36988208,-0.642086774,0.177269853,1.555852309,-0.247334674,0.137243807,0.650784373
1.76967E+18,10.37986987,-0.204373987,0.516098342,1.914857032,-0.195277974,0.058911737,0.4523139
1.76967E+18,10.38985864,0.116493459,0.996044005,2.157521294,-0.161306426,-0.010746971,0.313657522
1.76967E+18,10.39984692,-0.75978201,0.578412175,1.735990119,-0.193259254,-0.130448237,0.291737944
1.76967E+18,10.40983594,-1.4708827,-0.077948478,1.353015468,-0.241584703,-0.463049889,0.288013786
1.76967E+18,10.41982495,-0.928391441,-0.157866795,1.079286059,-0.259305328,-0.750932336,0.255330294
1.76967E+18,10.42981299,-0.687895755,-0.352117155,0.959853916,-0.262361825,-0.833537698,0.18254289
1.76967E+18,10.439802,-0.602569588,-0.948603185,0.68545881,-0.252143204,-0.56683892,0.118918508
1.76967E+18,10.44978979,-0.300388137,-1.09169239,0.32001799,-0.229754269,-0.179185227,0.033272579
1.76967E+18,10.45977881,0.51132046,-0.876476545,0.060977214,-0.158333972,0.146806687,-0.124591209
1.76967E+18,10.46976685,1.593391474,0.217770498,0.138520217,-0.031006906,0.189342424,-0.306300282
1.76967E+18,10.47975586,0.987511739,1.077938736,0.272404992,0.094431184,0.153773561,-0.312086523
1.76967E+18,10.48974512,-0.820676332,1.307625152,0.371975227,0.089048669,0.158179492,-0.171703339
1.76967E+18,10.49973267,-1.344679163,0.729845284,-0.343339098,-0.023157863,0.048641957,-0.086562097
1.76967E+18,10.50972168,-1.348635792,0.575046059,0.162748941,-0.088163488,-0.229608834,-0.02193943
1.76967E+18,10.51970996,-1.442795254,0.198857854,-0.091044088,-0.133562073,-0.271473676,-0.04143735
1.76967E+18,10.52969897,-0.221005388,-0.399006625,-0.811214676,-0.157592043,-0.203940704,-0.117946506
1.76967E+18,10.53968701,1.078938561,-0.896298705,-0.831300456,-0.094306491,0.331671298,-0.487334281
1.76967E+18,10.54967603,2.271126485,-0.60188219,-0.433942512,0.109561421,0.93335551,-0.80945611
1.76967E+18,10.55966382,1.331581781,0.307540201,-0.022022486,0.210138485,1.040630341,-0.857306182
1.76967E+18,10.56965283,-0.436504581,0.159773652,-0.204776029,0.164772868,0.852249205,-0.718073726
1.76967E+18,10.57964185,-1.319770932,0.704520873,0.293540134,0.111310028,0.475713253,-0.56223011
1.76967E+18,10.58962988,-1.360025785,0.647616498,0.503058024,0.073440947,0.262290448,-0.452194631
1.76967E+18,10.5996189,-1.658658019,0.016246348,0.233114216,-0.02696155,0.433414012,-0.369398028
1.76967E+18,10.60960693,-0.652635056,-0.621750819,-0.73375062,-0.112099081,0.310047895,-0.512450576
1.76967E+18,10.6195957,1.429433084,-1.192007891,-0.729743723,-0.123286068,0.034420855,-0.685912311
1.76967E+18,10.62958374,0.267092601,-2.14738247,-1.155011089,-0.089446343,0.337884068,-0.693234682
1.76967E+18,10.639573,-2.802142994,-2.232052511,-1.324378426,-0.108998105,0.310283005,-0.314912677
1.76967E+18,10.64956201,-1.620742422,-1.724833642,-1.788311404,-0.038558561,0.881224811,-0.75167644
1.76967E+18,10.6595498,4.754627307,-2.223820397,-1.167445843,0.075818963,1.748616338,-1.337327838
1.76967E+18,10.66953882,0.974836382,-2.659540696,-0.797557322,0.04898202,1.806470871,-1.20321846
1.76967E+18,10.67952686,-2.718773806,-2.812577879,-0.813689834,-0.047210012,1.543327093,-0.860637188
1.76967E+18,10.68951587,-1.007878235,-2.760470675,-0.684966497,-0.136545211,1.133103609,-0.607737005
1.76967E+18,10.69950415,0.437272642,-3.034508565,-1.106600621,-0.216490522,1.111559987,-0.282677412
1.76967E+18,10.70949292,-0.193235922,-3.136467888,-0.937595907,-0.184080914,1.090319872,-0.071376614
1.76967E+18,10.71948071,2.030968067,-2.569094409,-0.814212397,-0.092855021,0.99672544,-0.03088562
1.76967E+18,10.72946997,1.783960807,-2.516925538,-0.990872593,-0.064067051,0.848331213,0.038191181
1.76967E+18,10.73945874,1.34581372,-1.784491699,-0.737915777,-0.048338063,0.538529277,0.019769412
1.76967E+18,10.74944678,0.871906753,-1.370549518,-0.717048054,-0.036985807,0.382557213,-0.062923603
1.76967E+18,10.75943604,0.747040018,-1.177235123,-0.558687776,0.005337278,0.269444078,-0.165226266
1.76967E+18,10.76942383,0.847182062,-0.863046059,-0.527069525,8.65902E-05,0.099108584,-0.087092318
1.76967E+18,10.77941284,0.829860924,-1.036996777,-0.465223895,-0.016343664,0.045209952,0.011345849
1.76967E+18,10.78940088,0.699134942,-1.28471014,-0.417090417,-0.016032873,0.004056391,0.018920412
1.76967E+18,10.79938989,0.188950208,-1.099715903,-0.399091965,-0.007197102,-0.050168421,-0.011276507
1.76967E+18,10.80937793,0.043536359,-0.602742606,-0.199631761,-0.006911345,-0.074525163,0.018820142
1.76967E+18,10.81936719,0.048472062,-0.228812409,-0.038702802,-0.002216251,-0.073510639,0.053657077
1.76967E+18,10.82935596,-0.067656071,-0.108102209,-0.104487087,-0.000334461,-0.077668101,0.059091523
1.76967E+18,10.83934375,-0.203726921,-0.041200464,-0.089481241,0.002483281,-0.06448783,0.065733999
1.76967E+18,10.84933301,-0.191271929,-0.06259623,0.012559768,0.008937717,-0.049513403,0.082126819
1.76967E+18,10.85932104,-0.09880758,-0.043906069,0.022334728,0.01298187,-0.047135271,0.092258804
1.76967E+18,10.86930981,0.008048866,-0.007155059,0.040969432,0.014633296,-0.040260587,0.102763906
1.76967E+18,10.87929761,0.011005378,0.035783407,0.038593788,0.013626343,-0.028075112,0.10730461
1.76967E+18,10.88928687,-0.065237904,0.046641924,0.022932109,0.015372045,-0.028772328,0.106311522
1.76967E+18,10.89927588,-0.063827452,0.038064358,0.019015958,0.014586502,-0.030299557,0.108925261
1.76967E+18,10.90926392,-0.075412676,0.046094446,0.006125936,0.016387332,-0.035632536,0.113569275
1.76967E+18,10.91925293,-0.061688102,0.01874759,0.019471885,0.015017799,-0.030209161,0.113005757
1.76967E+18,10.92924097,-0.050679217,0.014953604,0.034237347,0.011902433,-0.020102998,0.115928039
1.76967E+18,10.93922998,-0.077190792,0.015733722,0.022974341,0.01199869,-0.02666074,0.113854252
1.76967E+18,10.94921802,-0.00237199,0.011832038,0.048889557,0.008250291,-0.014846692,0.11194583
1.76967E+18,10.95920679,-0.041398763,0.02524835,0.070716189,0.005203907,0.022505783,0.103485756
1.76967E+18,10.96919482,0.011807342,0.051340165,0.057141106,0.000323132,0.048542175,0.087000258
1.76967E+18,10.97918408,-0.014374562,0.044272419,0.050615358,-0.001711375,0.069621868,0.075531878
1.76967E+18,10.98917285,0.052320554,0.059082888,0.000102584,-0.00178621,0.067226358,0.075022146
1.76967E+18,10.99916089,0.18748715,0.04031769,-0.022709991,-0.001446941,0.072760537,0.075380899
1.76967E+18,11.0091499,0.087184947,0.02337978,0.020568449,-0.001318577,0.087592214,0.081013747
1.76967E+18,11.01913794,-0.085496848,0.044414019,0.046866819,-0.005237166,0.101215266,0.086439148
1.76967E+18,11.02912695,-0.121283616,0.010652765,0.09736688,-0.005886444,0.126334205,0.09367203
1.76967E+18,11.03911499,-0.062430445,0.044027358,0.053237669,-0.005898065,0.140357479,0.090836398
1.76967E+18,11.04910376,-0.015776246,0.0282544,-0.007818126,-0.007456014,0.138736948,0.089239836
1.76967E+18,11.05909302,-0.07043255,0.035744025,0.013180384,-0.011504955,0.138649702,0.085471466
1.76967E+18,11.06908081,-0.134586165,0.006485416,0.024228432,-0.010326239,0.134842992,0.087951668
1.76967E+18,11.07907031,-0.145125095,-0.002403408,0.009956015,-0.006254558,0.135812208,0.095899098
1.76967E+18,11.08905835,-0.058214289,-0.0334253,5.84522E-06,-0.007005037,0.142892748,0.105127215
1.76967E+18,11.09904736,0.05743629,-0.028421938,-0.024018881,-0.005620972,0.144257218,0.107242011
1.76967E+18,11.10903516,0.084852705,-0.028899785,-0.027058249,-0.003499231,0.129850581,0.102889605
1.76967E+18,11.11902441,0.020479309,-0.043705725,-0.039547436,-0.003648564,0.125377774,0.095554329
1.76967E+18,11.12901221,0.104634679,-0.035487639,-0.071773297,-0.002658933,0.110062987,0.093710355
1.76967E+18,11.13900122,0.094599023,-0.028470308,-0.077995094,-0.003666461,0.106159233,0.100971587
1.76967E+18,11.14899023,-0.02711597,-0.036132805,-0.04494418,-0.00395355,0.10190323,0.094232455
1.76967E+18,11.15897827,-0.040685646,-0.039055853,-0.052159957,-0.004159272,0.100756139,0.0990858
1.76967E+18,11.16896729,-0.128470897,-0.042722267,-0.034048692,-0.003347008,0.100140147,0.093778916
1.76967E+18,11.17895557,-0.098893505,-0.022185967,-0.001519757,0.000177274,0.10087467,0.102898121
1.76967E+18,11.18894409,0.036845922,-0.048997986,-0.012165654,0.001895545,0.085115686,0.087471761
1.76967E+18,11.19893213,0.092951255,-0.03239508,-0.022438042,0.001136408,0.081326388,0.077662811
1.76967E+18,11.20892139,0.214002816,-0.011885522,-0.078436116,0.005715714,0.063297056,0.08972773
1.76967E+18,11.21890942,0.117763625,-0.028431583,-0.051018824,0.004690598,0.063573562,0.08790306
1.76967E+18,11.22889819,0.066650108,-0.002185381,-0.008575959,0.006123911,0.054529738,0.090495117
1.76967E+18,11.23888745,0.074564535,-0.004823913,-0.03176628,0.006707475,0.058618676,0.092861466
1.76967E+18,11.24887524,0.058688336,0.005457242,-0.057479691,0.007337845,0.062736459,0.095589347
1.76967E+18,11.25886426,0.21017186,-0.052612377,-0.009039193,0.011449163,0.063909881,0.110443264
1.76967E+18,11.26885229,0.209295077,-0.00047697,0.001933598,0.012166618,0.062953271,0.103486821
1.76967E+18,11.27884131,0.15544366,-0.010597528,-0.081472415,0.01294794,0.058897216,0.102580667
1.76967E+18,11.28882935,0.139515438,0.005671178,-0.024286154,0.013372448,0.04934179,0.098973677
1.76967E+18,11.29881836,0.028061727,-0.004899755,-0.034021366,0.014647364,0.054151077,0.096884303
1.76967E+18,11.30880713,-0.027265608,-0.000224749,-0.029725422,0.016339535,0.049537417,0.087327816
1.76967E+18,11.31879517,0.144759184,0.029694881,-0.065370298,0.01715631,0.023391971,0.075757988
1.76967E+18,11.32878442,0.333371538,0.031006402,-0.079344316,0.018724114,-0.000659836,0.075342268
1.76967E+18,11.33877246,0.290644157,0.00246376,-0.028357495,0.014127313,0.00855635,0.063381866
1.76967E+18,11.34876123,0.06671499,0.03381766,-0.010552958,0.011766155,0.008458879,0.061238557
1.76967E+18,11.35874902,0.010852233,0.00410349,0.0044713,0.012884938,0.002960431,0.057676852
1.76967E+18,11.36873828,0.021001871,0.008216916,0.021088088,0.010036687,0.011233008,0.051129472
1.76967E+18,11.37872632,0.054132572,-0.004394436,-0.004474515,0.010118802,0.01028559,0.056607708
1.76967E+18,11.38871558,0.081879826,0.022467706,0.071774173,0.000123693,0.002980539,0.04181651
1.76967E+18,11.39870435,0.335621948,-0.00818316,-0.152739077,0.005586811,0.00251595,0.049600285
1.76967E+18,11.40869214,0.073232409,0.007561521,0.051234513,0.001643469,-3.66904E-05,0.042344503
1.76967E+18,11.4186814,-0.116419225,-0.008492957,0.002471066,9.6419E-05,0.005829325,0.04590863
1.76967E+18,11.42866943,-0.060833531,-0.005388853,0.034750849,-0.005267987,0.016014852,0.044268657
1.76967E+18,11.4386582,0.076719667,-0.010898265,0.048159197,-0.003347425,0.027077639,0.050023194
1.76967E+18,11.44864624,0.133762574,-0.037937663,-0.038229631,-0.001149785,0.037523624,0.055165224
1.76967E+18,11.4586355,0.105247842,-0.006967647,-0.002052695,-0.00131325,0.050721552,0.052835371
1.76967E+18,11.46862329,-0.070915365,-0.015390169,-0.017860797,-0.005427302,0.033871733,0.04361444
1.76967E+18,11.47861206,-0.079199209,-0.026702275,-0.068548782,-0.002448413,0.011367154,0.047503181
1.76967E+18,11.48860132,-0.02119944,-0.003529635,0.009139438,-0.010501812,0.014430854,0.034222528
1.76967E+18,11.49858936,-0.056748308,0.021315029,-0.059060969,-0.005054169,0.014739488,0.041536357
1.76967E+18,11.50857813,-0.140122756,-0.038055444,0.101619861,-0.007899225,0.035535049,0.036655847
1.76967E+18,11.51856616,0.066858198,-0.024931612,-0.105998076,-0.006601015,0.038877532,0.038752966
1.76967E+18,11.52855518,0.085557638,-0.00454685,-0.043802171,-0.009054852,0.024303649,0.024917046
1.76967E+18,11.53854321,0.17499241,0.00895736,-0.097809071,0.000897426,0.008578008,0.025745442
1.76967E+18,11.54853247,0.238345815,-0.011276304,0.011687077,0.000793296,-0.002289021,0.020525647
1.76967E+18,11.55852026,0.289267024,0.055365475,-0.041169338,-0.004115298,0.016087787,0.02540881
1.76967E+18,11.56850903,0.217500595,0.027575697,0.066556147,-0.009183028,0.022325709,0.009688436
1.76967E+18,11.57849829,0.045943421,0.036123891,-0.094399116,-0.004093578,0.013358555,-0.005418626
1.76967E+18,11.58848633,0.100388712,-0.048228317,-0.050460752,-0.007540508,0.023945419,-0.013596661
1.76967E+18,11.5984751,0.070153148,0.001272212,-0.10275018,0.00394319,0.013836033,-0.022873528
1.76967E+18,11.60846338,-0.017061025,0.050604983,-0.059375441,-0.004464144,0.029351607,-0.02438141
1.76967E+18,11.61845239,-0.164012166,-0.041903059,0.076721713,-0.00907662,0.025970487,-0.031087238
1.76967E+18,11.62844019,-0.102306528,0.047885348,-0.077020111,-0.006602542,0.009225062,-0.035606887
1.76967E+18,11.6384292,-0.008158757,-0.001831015,-0.036532034,-0.005233281,0.007163354,-0.045937289
1.76967E+18,11.64841821,-0.094351185,-0.005525047,-0.031642654,-0.010710072,0.003702843,-0.05121674
1.76967E+18,11.65840625,-0.021931261,0.088655166,0.049615679,-0.020613274,0.007312996,-0.04255677
1.76967E+18,11.66839551,-0.018940847,0.023396658,0.040129766,-0.015913593,0.007078638,-0.046899855
1.76967E+18,11.6783833,-0.007667758,-0.000875614,-0.079347531,-0.012751504,-0.00504407,-0.047985803
1.76967E+18,11.68837207,0.168083946,-0.007158055,0.041254824,-0.01073842,0.003467659,-0.049660929
1.76967E+18,11.69836035,0.136351421,-0.018611615,-0.057223232,-0.005686214,0.001104895,-0.052666966
1.76967E+18,11.70834937,0.091578214,0.041936377,0.012471067,-0.007318199,0.001410892,-0.060883082
1.76967E+18,11.7183374,0.088468557,-0.041752983,-0.009793664,-0.004028928,-0.000462908,-0.059199434
1.76967E+18,11.72832642,0.109532388,0.004610124,-0.120946055,-0.000720217,-0.01426261,-0.059504636
1.76967E+18,11.73831519,0.076086045,0.001071136,-0.089172614,0.00208176,-0.024429038,-0.069365382
1.76967E+18,11.74830322,0.015888474,0.009719722,-0.11656594,0.006972122,-0.042488731,-0.081231363
1.76967E+18,11.75829224,0.049092824,0.006991612,-0.066463938,0.004791467,-0.058954403,-0.086188979
1.76967E+18,11.76828027,0.146110599,-0.001421996,-0.008939386,0.006652484,-0.073000453,-0.092374437
1.76967E+18,11.77826929,0.102582423,0.011618688,-0.004139292,0.003922848,-0.082452595,-0.107775472
1.76967E+18,11.78825732,0.05188567,0.020631577,-0.012782471,0.003044538,-0.088158682,-0.112956651
1.76967E+18,11.79824634,0.116909054,0.015123043,0.011735592,0.001984678,-0.077328406,-0.112215109
1.76967E+18,11.80823511,-0.03381576,0.003249211,0.015277503,0.003684041,-0.061974213,-0.107186526
1.76967E+18,11.81822339,-0.108538701,-0.012511545,0.036954058,0.001566101,-0.046506606,-0.096756391
1.76967E+18,11.8282124,0.004496727,-0.010429186,0.005397475,0.004412488,-0.047475997,-0.092602663
1.76967E+18,11.83820044,0.024439445,0.017911358,-0.001797843,0.005574093,-0.049815778,-0.09185338
1.76967E+18,11.84818921,0.004837503,0.006028759,-0.038083209,0.00466995,-0.049107376,-0.08981207
1.76967E+18,11.85817725,0.02319149,-0.001557459,-0.037050358,0.005199528,-0.045181144,-0.08509881
1.76967E+18,11.86816626,0.065009356,0.003142244,-0.02407558,0.003098826,-0.045715377,-0.083112627
1.76967E+18,11.87815454,0.109796592,-0.00178703,-0.037973903,0.00659303,-0.055410195,-0.091538601
1.76967E+18,11.88814331,0.184212658,0.019843057,-0.09866788,0.005957067,-0.070026949,-0.097459078
1.76967E+18,11.89813232,0.213936181,0.032536242,-0.057587681,0.009337623,-0.071347497,-0.115417972
1.76967E+18,11.90812036,0.116240361,0.056030369,-0.044304421,0.007726677,-0.069502458,-0.128857091
1.76967E+18,11.91810913,0.039479777,0.010133564,-0.020246085,0.008958698,-0.066087201,-0.133082837
1.76967E+18,11.92809717,0.014136662,0.003723697,-0.031809243,0.009052175,-0.070216432,-0.138346583
1.76967E+18,11.93808643,0.038214288,0.010071166,-0.068312635,0.009532277,-0.081827998,-0.13191092
1.76967E+18,11.94807422,0.137076228,0.040862756,-0.066962828,0.00768218,-0.092459075,-0.121059336
1.76967E+18,11.95806323,0.214116213,0.030996027,-0.041737347,0.005875654,-0.102846369,-0.122100115
1.76967E+18,11.96805225,0.182103119,-0.005575316,-0.051367199,0.007612301,-0.111304298,-0.12499471
1.76967E+18,11.97804028,0.162851306,0.000793708,-0.03971797,0.004545113,-0.128280044,-0.129963621
1.76967E+18,11.9880293,0.140384038,-0.018088834,-0.029556934,0.002524839,-0.14054203,-0.121543229
1.76967E+18,11.99801758,0.12804595,-0.060846975,-0.023671237,-0.000984746,-0.139241293,-0.114715815
1.76967E+18,12.00800635,0.130658178,-0.014636574,-0.032680327,-0.001359187,-0.146241412,-0.109261662
1.76967E+18,12.01799414,0.169176417,-0.014679464,-0.059268912,0.000580452,-0.152279198,-0.106083564
1.76967E+18,12.0279834,0.103259299,-0.028066768,-0.028798224,0.00458771,-0.151260793,-0.103955701
1.76967E+18,12.03797144,-0.030869186,-0.026885523,-0.082731621,0.006969323,-0.162576154,-0.097058266
1.76967E+18,12.04796021,-0.06418518,-0.064937825,-0.056669836,0.036020946,-0.15695022,-0.100275099
1.76967E+18,12.05794946,-0.016083704,-0.240345537,-0.161037534,0.034080558,-0.184934258,-0.072214149
1.76967E+18,12.06793726,0.02921908,0.010180106,-0.060186173,0.04500724,-0.180827931,-0.063707218
1.76967E+18,12.07792578,-0.013147066,-0.035386663,-0.10817089,0.065410331,-0.176915705,-0.06197498
1.76967E+18,12.08791382,-0.118183312,-0.124365288,-0.094509445,0.081533909,-0.171821341,-0.051792651
1.76967E+18,12.09790283,-0.028648587,-0.165639037,-0.15178163,0.113400616,-0.145258635,-0.049914315
1.76967E+18,12.10789087,0.095503278,-0.246764903,-0.297695537,0.139967248,-0.157650322,-0.040565021
1.76967E+18,12.11787988,0.132953595,-0.130056486,-0.278244256,0.149724662,-0.183494821,-0.033511911
1.76967E+18,12.12786865,0.280071325,-0.092863139,-0.178356479,0.158676878,-0.22815311,-0.025320292
1.76967E+18,12.13785669,0.38759062,-0.157380911,-0.141276603,0.169634745,-0.289212674,-0.025774099
1.76967E+18,12.1478457,0.356259078,-0.322089754,-0.217218271,0.171574056,-0.293562949,-0.023618272
1.76967E+18,12.15783398,0.173325938,-0.55108015,-0.338516646,0.188117832,-0.29830125,-0.050443381
1.76967E+18,12.16782275,0.262120658,-0.512007419,-0.344054991,0.195049241,-0.347099662,-0.084479377
1.76967E+18,12.17781055,0.087844288,-0.329815599,-0.424396502,0.214045793,-0.393362373,-0.102171771
1.76967E+18,12.1877998,0.114593178,-0.585060234,-0.637818449,0.227955207,-0.459277213,-0.133614913
1.76967E+18,12.19778784,0.122038818,-1.058905973,-0.690482922,0.247416094,-0.445016652,-0.145531923
1.76967E+18,12.20777686,0.018511808,-1.388328043,-0.924298546,0.298824668,-0.448539495,-0.178182274
1.76967E+18,12.21776587,0.385163685,-1.029917267,-0.779295762,0.434382051,-0.594202459,-0.249507993
1.76967E+18,12.22775366,0.526466591,-0.047270724,-0.869911707,0.463395059,-0.625373185,-0.325372934
1.76967E+18,12.23774268,-0.471735468,0.317172391,-0.574213773,0.454856813,-0.54248935,-0.289392561
