time,seconds_elapsed,z,y,x
1769667555075704800,0.066704833984375,0.007767375558614731,0.17719341814517975,-0.027606859803199768
1769667555085693000,0.07669287109375,-0.0006242449744604528,0.20883098244667053,-0.02822764404118061
1769667555095681800,0.086681884765625,-0.09313127398490906,0.25283998250961304,-0.05218091234564781
1769667555105669600,0.096669677734375,-0.08486056327819824,0.326179176568985,-0.06685652583837509
1769667555115658800,0.10665869140625,-0.09712628275156021,0.41059792041778564,-0.12177703529596329
1769667555125646800,0.116646728515625,-0.14062821865081787,0.44511035084724426,-0.11743848025798798
1769667555135636000,0.126635986328125,-0.1818893700838089,0.5345560908317566,-0.10969080775976181
1769667555145623800,0.136623779296875,-0.26262471079826355,0.6023372411727905,-0.08991710841655731
1769667555155612700,0.14661279296875,-0.2801315188407898,0.6200896501541138,-0.10931530594825745
1769667555165600800,0.156600830078125,-0.30309808254241943,0.6977836489677429,-0.1707264631986618
1769667555175590000,0.16658984375,-0.297000527381897,0.7359720468521118,-0.20505595207214355
1769667555185578000,0.176577880859375,-0.3671329915523529,0.7803719639778137,-0.21158228814601898
1769667555195566800,0.18656689453125,-0.4652084410190582,0.8420150876045227,-0.1653205156326294
1769667555205554700,0.1965546875,-0.5326114296913147,0.8034719824790955,-0.12081137299537659
1769667555215543800,0.206543701171875,-0.586530864238739,0.7372724413871765,-0.10495251417160034
1769667555225532000,0.216531982421875,-0.6261624097824097,0.6732372641563416,-0.13813470304012299
1769667555235520800,0.226520751953125,-0.6091378927230835,0.6171771883964539,-0.2006521373987198
1769667555245508600,0.236508544921875,-0.5704134106636047,0.5374994277954102,-0.24972674250602722
1769667555255497700,0.246497802734375,-0.5283905863761902,0.36059680581092834,-0.29584816098213196
1769667555265486600,0.256486572265625,-0.4676649272441864,0.2944513261318207,-0.3925914764404297
1769667555275474700,0.266474609375,-0.33963558077812195,0.2049105316400528,-0.46258336305618286
1769667555285463800,0.2764638671875,-0.2704402804374695,0.12170512974262238,-0.5141333937644958
1769667555295452000,0.286451904296875,-0.29370272159576416,0.12434059381484985,-0.5490125417709351
1769667555305440800,0.296440673828125,-0.4182467758655548,0.13036200404167175,-0.5104147791862488
1769667555315428600,0.3064287109375,-0.54454505443573,0.1177402138710022,-0.41327279806137085
1769667555325417700,0.316417724609375,-0.6237293481826782,0.027277160435914993,-0.3586934506893158
1769667555335405800,0.32640576171875,-0.641967236995697,-0.1380566656589508,-0.4008646011352539
1769667555345395000,0.33639501953125,-0.7127665877342224,-0.40045154094696045,-0.46033644676208496
1769667555355382800,0.3463828125,-0.8261668682098389,-0.5468944907188416,-0.5083415508270264
1769667555365371600,0.35637158203125,-0.9494350552558899,-0.5760321617126465,-0.4880828559398651
1769667555375359700,0.36635986328125,-1.099020004272461,-0.4094189405441284,-0.49527764320373535
1769667555385348900,0.376348876953125,-1.206020712852478,-0.29815712571144104,-0.5031819343566895
1769667555395337000,0.3863369140625,-1.2677628993988037,-0.2638918459415436,-0.5057385563850403
1769667555405325800,0.396325927734375,-1.3662410974502563,-0.16630534827709198,-0.6120750904083252
1769667555415313700,0.406313720703125,-1.4293049573898315,-0.06067106872797012,-0.6942504048347473
1769667555425302800,0.416302734375,-1.4726614952087402,-0.01836409419775009,-0.7902525663375854
1769667555435291000,0.426290771484375,-1.4943020343780518,0.1682470589876175,-0.7729694247245789
1769667555445279700,0.43627978515625,-1.3377559185028076,0.3020525276660919,-0.5837135314941406
1769667555455267600,0.446267578125,-1.1831330060958862,0.31083643436431885,-0.42952820658683777
1769667555465256700,0.456256591796875,-1.0764009952545166,0.3783470392227173,-0.4814710319042206
1769667555475244800,0.466244873046875,-0.9505349397659302,0.315451443195343,-0.5013805627822876
1769667555485233700,0.476233642578125,-0.8459033370018005,0.45093390345573425,-0.5393617749214172
1769667555495221800,0.4862216796875,-0.7690990567207336,0.6273499131202698,-0.5044264197349548
1769667555505211000,0.4962109375,-0.6785318851470947,0.8022668957710266,-0.4088548719882965
1769667555515198700,0.50619873046875,-0.6515732407569885,1.1415035724639893,-0.3231112062931061
1769667555525187800,0.516187744140625,-0.6016373634338379,1.263675570487976,-0.21286647021770477
1769667555535175700,0.52617578125,-0.5641776323318481,1.2890650033950806,-0.09461598843336105
1769667555545164800,0.536164794921875,-0.4998455047607422,1.2919255495071411,-0.06033870950341225
1769667555555153000,0.54615283203125,-0.4032422602176666,1.1207484006881714,-0.11842171847820282
1769667555565141800,0.556141845703125,-0.2944111227989197,0.8788295984268188,-0.18475334346294403
1769667555575129900,0.5661298828125,-0.2245718538761139,0.7800103425979614,-0.2365238517522812
1769667555585118700,0.57611865234375,-0.17633002996444702,0.8294867873191833,-0.22599345445632935
1769667555595106800,0.58610693359375,-0.1302775740623474,0.9092586040496826,-0.19299182295799255
1769667555605096000,0.596095947265625,-0.07748280465602875,0.8273602724075317,-0.16684703528881073
1769667555615083800,0.606083740234375,-0.05901351943612099,0.7451900243759155,-0.161840558052063
1769667555625072600,0.61607275390625,-0.052314069122076035,0.7659951448440552,-0.14001409709453583
1769667555635060700,0.626060791015625,-0.07206327468156815,0.7584951519966125,-0.12261353433132172
1769667555645049900,0.6360498046875,-0.08410768955945969,0.6555831432342529,-0.06712257862091064
1769667555655038000,0.646037841796875,-0.0858408734202385,0.6028427481651306,-0.037930071353912354
1769667555665026600,0.656026611328125,-0.0637960210442543,0.6091911792755127,-0.13600337505340576
1769667555675014700,0.6660146484375,-0.02841273322701454,0.5270273089408875,-0.1815519481897354
1769667555685003800,0.676003662109375,-0.003623230615630746,0.40700212121009827,-0.19732239842414856
1769667555694992000,0.685991943359375,0.041141312569379807,0.38916534185409546,-0.27661535143852234
1769667555704980700,0.695980712890625,0.043526969850063324,0.40153464674949646,-0.32111090421676636
1769667555714968600,0.705968505859375,0.05226666480302811,0.37979525327682495,-0.3279706835746765
1769667555724957700,0.715957763671875,0.025177525356411934,0.4245334267616272,-0.31655317544937134
1769667555734945800,0.72594580078125,0.056170329451560974,0.47462430596351624,-0.392826646566391
1769667555744935000,0.735934814453125,0.11278221011161804,0.5485890507698059,-0.3502427041530609
1769667555754922800,0.7459228515625,0.17674361169338226,0.5811337232589722,-0.2507762908935547
1769667555764911900,0.755911865234375,0.2031877338886261,0.521152675151825,-0.13714134693145752
1769667555774899700,0.765899658203125,0.18763966858386993,0.41735729575157166,-0.01028832420706749
1769667555784888800,0.775888916015625,0.14639875292778015,0.3297286331653595,0.08867767453193665
1769667555794877000,0.785876953125,0.06554758548736572,0.34761175513267517,-0.03387061506509781
1769667555804865800,0.79586572265625,0.01896383799612522,0.2669517993927002,-0.09318986535072327
1769667555814853600,0.805853515625,-0.047145143151283264,0.12797793745994568,-0.14047455787658691
1769667555824842800,0.8158427734375,0.05698632076382637,0.06228840723633766,-0.1894969642162323
1769667555834830800,0.825830810546875,0.20616088807582855,0.26019856333732605,-0.34025025367736816
1769667555844819700,0.83581982421875,0.17052780091762543,0.3224334418773651,-0.4111816883087158
1769667555854808800,0.845808837890625,0.11069988459348679,0.01956464722752571,-0.35215112566947937
1769667555864797000,0.855796875,0.10983195900917053,-0.4012880325317383,-0.3288516700267792
1769667555874785500,0.86578564453125,0.05955733731389046,-0.6744937300682068,-0.301332950592041
1769667555884773600,0.875773681640625,-0.08994346857070923,-1.0135271549224854,-0.15200258791446686
1769667555894762800,0.8857626953125,-0.00929389987140894,-1.2583454847335815,-0.04813370853662491
1769667555904750800,0.895750732421875,0.02617647685110569,-1.0849494934082031,0.12395337224006653
1769667555914740000,0.905739990234375,0.19124452769756317,-0.7004638314247131,0.19092388451099396
1769667555924727600,0.9157275390625,0.30395668745040894,-0.2688189446926117,0.24874377250671387
1769667555934716700,0.925716552734375,0.3086768686771393,-0.056953564286231995,0.3199921250343323
1769667555944704800,0.935704833984375,0.25252625346183777,-0.08322858065366745,0.34732282161712646
1769667555954694000,0.94569384765625,0.17529885470867157,-0.2464824765920639,0.3744979798793793
1769667555964682000,0.955681884765625,0.11214651167392731,-0.4165405035018921,0.48010963201522827
1769667555974670800,0.9656708984375,0.005023787263780832,-0.5512373447418213,0.6237267255783081
1769667555984658700,0.97565869140625,-0.0890830010175705,-0.7664121985435486,0.7553233504295349
1769667555994647800,0.985647705078125,-0.21700900793075562,-0.9977626204490662,1.0057965517044067
1769667556004636000,0.995635986328125,-0.43589556217193604,-1.3667176961898804,1.3126933574676514
1769667556014624800,1.005624755859375,-0.5796234011650085,-1.8533196449279785,1.1320077180862427
1769667556024612600,1.015612548828125,-0.5453959703445435,-1.633832573890686,0.39284050464630127
1769667556034601700,1.025601806640625,0.0632423534989357,-0.10680074989795685,-0.27402010560035706
1769667556044589800,1.03558984375,0.29979950189590454,0.3770793676376343,-0.27583903074264526
1769667556054578700,1.04557861328125,0.39658409357070923,0.4042862355709076,0.26941362023353577
1769667556064566800,1.05556689453125,0.32591018080711365,0.24140463769435883,0.31265750527381897
1769667556074556400,1.065556396484375,0.30556416511535645,0.1310213953256607,0.13038890063762665
1769667556084544300,1.075544189453125,0.32845139503479004,0.06401706486940384,0.057979412376880646
1769667556094533000,1.085533203125,0.2842503786087036,-0.14673803746700287,0.01751401275396347
1769667556104521200,1.095521240234375,0.35623082518577576,-0.1272548884153366,-0.09120021760463715
1769667556114510300,1.10551025390625,0.3830224871635437,-0.0223255455493927,-0.06982968002557755
1769667556124498400,1.11549853515625,0.38061127066612244,-0.04201535880565643,0.008257131092250347
1769667556134487300,1.1254873046875,0.3477984368801117,-0.1994316130876541,0.0261240117251873
1769667556144475100,1.13547509765625,0.2591482102870941,-0.31666502356529236,-0.05585021525621414
1769667556154464300,1.14546435546875,0.11059628427028656,-0.4394564628601074,-0.18987272679805756
1769667556164452400,1.155452392578125,0.1704987734556198,-0.762123703956604,-0.38653600215911865
1769667556174441200,1.165441162109375,0.17929919064044952,-1.1405082941055298,-0.505909264087677
1769667556184429000,1.175428955078125,0.12935106456279755,-1.362536907196045,-0.5102962851524353
1769667556194418200,1.185418212890625,0.09038209170103073,-1.57309091091156,-0.4491943120956421
1769667556204406300,1.19540625,0.019206717610359192,-1.6426368951797485,-0.26169684529304504
1769667556214395400,1.2053955078125,0.05939887836575508,-1.6175904273986816,-0.1271776556968689
1769667556224383200,1.21538330078125,-0.0011166634503751993,-1.6557705402374268,0.042160503566265106
1769667556234372400,1.225372314453125,0.020674118772149086,-1.0441138744354248,-0.40367424488067627
1769667556244360200,1.235360107421875,0.1017703041434288,0.1532777100801468,-0.28358352184295654
1769667556254349300,1.245349365234375,-0.013879063539206982,0.1546923667192459,-0.4138645529747009
1769667556264337400,1.25533740234375,0.07454374432563782,-0.03491324186325073,-0.4655431807041168
1769667556274326300,1.265326171875,0.1615646630525589,-0.34421250224113464,-0.47828614711761475
1769667556284314400,1.275314453125,0.16596287488937378,-0.5938223600387573,-0.48844876885414124
1769667556294303200,1.28530322265625,0.11897885054349899,-0.56837397813797,-0.48410916328430176
1769667556304292000,1.2952919921875,0.08167515695095062,-0.702333390712738,-0.43609368801116943
1769667556314280200,1.3052802734375,0.015080415643751621,-0.8084776401519775,-0.4149836003780365
1769667556324269300,1.315269287109375,-0.02527845837175846,-0.9050662517547607,-0.3931398391723633
1769667556334257400,1.32525732421875,0.021768944337964058,-0.8577187061309814,-0.3652504086494446
1769667556344246300,1.335246337890625,-0.008675513789057732,-0.7331216335296631,-0.36214888095855713
1769667556354234000,1.345234130859375,-0.02743615210056305,-0.7615357041358948,-0.4244152009487152
1769667556364223200,1.35522314453125,-0.06661871075630188,-0.8072131872177124,-0.5196165442466736
1769667556374211300,1.36521142578125,-0.10133780539035797,-0.8330420851707458,-0.583760142326355
1769667556384200400,1.375200439453125,-0.059250541031360626,-0.8390816450119019,-0.5861085057258606
1769667556394188300,1.385188232421875,-0.003724430687725544,-0.9181913733482361,-0.5333302021026611
1769667556404177200,1.39517724609375,0.026281937956809998,-1.076832890510559,-0.5201970934867859
1769667556414165200,1.405165283203125,0.03361361846327782,-1.173640489578247,-0.5100882649421692
1769667556424154400,1.415154296875,-0.00259418529458344,-1.2333260774612427,-0.49935707449913025
1769667556434142500,1.425142578125,-0.03356168791651726,-1.3451474905014038,-0.4981845021247864
1769667556444131300,1.43513134765625,-0.05892696604132652,-1.4717352390289307,-0.4845488369464874
1769667556454119200,1.445119140625,-0.05716981366276741,-1.498376727104187,-0.5166530013084412
1769667556464108300,1.4551083984375,-0.056951433420181274,-1.5434483289718628,-0.60199373960495
1769667556474096400,1.465096435546875,-0.06303302943706512,-1.6291309595108032,-0.680965781211853
1769667556484085200,1.475085205078125,-0.09515847265720367,-1.6764814853668213,-0.7514516711235046
1769667556494073300,1.4850732421875,-0.130604088306427,-1.6698248386383057,-0.8405013680458069
1769667556504062200,1.495062255859375,-0.19588881731033325,-1.6398379802703857,-0.941433310508728
1769667556514050300,1.50505029296875,-0.18023128807544708,-1.5448638200759888,-1.0784329175949097
1769667556524039200,1.5150390625,-0.17131130397319794,-1.7321923971176147,-1.0652353763580322
1769667556534027300,1.52502734375,-0.16439001262187958,-1.560402274131775,-1.068106770515442
1769667556544016400,1.535016357421875,-0.17363250255584717,-1.393402099609375,-1.1447070837020874
1769667556554004200,1.545004150390625,-0.20850233733654022,-1.4545482397079468,-1.140417218208313
1769667556563993000,1.5549931640625,-0.255756139755249,-1.5651317834854126,-1.037679672241211
1769667556573981200,1.564981201171875,-0.27819859981536865,-1.5743780136108398,-0.9096633791923523
1769667556583970300,1.57497021484375,-0.28624001145362854,-1.6774731874465942,-0.7773884534835815
1769667556593958400,1.58495849609375,-0.22922173142433167,-1.5196188688278198,-0.8372088670730591
1769667556603947300,1.594947265625,-0.2142595648765564,-1.4573757648468018,-1.0160225629806519
1769667556613935400,1.604935302734375,-0.09365059435367584,-1.4145052433013916,-1.1406593322753906
1769667556623924200,1.61492431640625,-0.029227660968899727,-1.435015082359314,-1.3068362474441528
1769667556633912300,1.624912353515625,0.002630670554935932,-1.3695305585861206,-1.4541347026824951
1769667556643901400,1.6349013671875,-0.04857099801301956,-1.2791247367858887,-1.6111022233963013
1769667556653890300,1.644890380859375,-0.16181713342666626,-1.201216697692871,-1.7410969734191895
1769667556663878100,1.654878173828125,-0.32241666316986084,-1.2336246967315674,-1.7596296072006226
1769667556673867300,1.6648671875,-0.29064273834228516,-1.4319862127304077,-1.6379817724227905
1769667556683855400,1.67485546875,-0.36254650354385376,-1.711172342300415,-1.5245145559310913
1769667556693844200,1.68484423828125,-0.4669405519962311,-2.166909694671631,-1.6915719509124756
1769667556703832300,1.694832275390625,-0.6373133659362793,-2.893228054046631,-2.410919666290283
1769667556713821200,1.7048212890625,-0.7333477139472961,-3.1753885746002197,-2.9382288455963135
1769667556728803300,1.71980322265625,-0.5529505610466003,-1.8506535291671753,-2.661344051361084
1769667556738792200,1.729792236328125,-0.3443848192691803,0.3445877432823181,-3.349609375
1769667556748780300,1.7397802734375,-0.3273637592792511,1.2321524620056152,-3.3762643337249756
1769667556758769200,1.74976904296875,-0.15920217335224152,0.7772558331489563,-2.713998794555664
1769667556768757200,1.75975732421875,-0.08713090419769287,-0.015290805138647556,-2.9708492755889893
1769667556778746400,1.769746337890625,0.11117073148488998,0.15553632378578186,-3.1982741355895996
1769667556788735500,1.779735595703125,0.2705100476741791,0.8340498208999634,-2.81127667427063
1769667556798723300,1.789723388671875,0.2579042315483093,1.1723668575286865,-1.9772144556045532
1769667556808712200,1.799712158203125,0.19956450164318085,0.9511748552322388,-0.9462903738021851
1769667556818700300,1.8097001953125,0.175584077835083,0.574277937412262,-0.20931673049926758
1769667556828689400,1.819689453125,0.1724761575460434,0.2724890410900116,0.3004346489906311
1769667556838677200,1.82967724609375,0.2679922878742218,0.12855024635791779,0.517717719078064
1769667556848666000,1.839666015625,0.3986477851867676,0.24008210003376007,0.41205787658691406
1769667556858654200,1.849654296875,0.5380520224571228,0.2673121392726898,0.18630144000053406
1769667556868643300,1.859643310546875,0.6121400594711304,0.2183174192905426,-0.07256954163312912
1769667556878631400,1.86963134765625,0.5965081453323364,0.2902701795101166,-0.2132776528596878
1769667556888620300,1.879620361328125,0.5126646161079407,0.25685709714889526,-0.22850161790847778
1769667556898608000,1.889608154296875,0.3334866166114807,0.1668931096792221,-0.20587939023971558
1769667556908597200,1.89959716796875,0.16469760239124298,0.19854851067066193,-0.1102101281285286
1769667556918585300,1.90958544921875,0.06059996411204338,0.22976475954055786,-0.07161986082792282
1769667556928574200,1.91957421875,0.05025384947657585,0.1371128410100937,-0.01176158431917429
1769667556938562300,1.929562255859375,-0.012766661122441292,0.11122345924377441,0.005018460564315319
1769667556948551200,1.93955126953125,-0.040652621537446976,-0.010777812451124191,0.01997450739145279
1769667556958539300,1.949539306640625,-0.010608435608446598,-0.11765313148498535,0.07020838558673859
1769667556968528400,1.9595283203125,-0.022164691239595413,-0.1356547623872757,0.13273274898529053
1769667556978516200,1.96951611328125,-0.010037720203399658,-0.11017843335866928,0.14432895183563232
1769667556988505300,1.97950537109375,-0.03274250030517578,-0.11616415530443192,0.11753115803003311
1769667556998493200,1.9894931640625,-0.015925437211990356,-0.14306926727294922,0.0622713640332222
1769667557008482300,1.999482421875,0.0027236149180680513,-0.12138102203607559,0.04734700918197632
1769667557018470400,2.009470458984375,-0.03224209323525429,-0.15219539403915405,0.03712206706404686
1769667557028459300,2.019459228515625,-0.06263488531112671,-0.17822885513305664,0.040594298392534256
1769667557038448400,2.029448486328125,-0.03316754102706909,-0.03682299703359604,0.07419433444738388
1769667557048436200,2.039436279296875,-0.07019240409135818,0.0655507817864418,0.10038545727729797
1769667557058425000,2.049425048828125,-0.02225310727953911,0.12133149057626724,0.0974288210272789
1769667557068413200,2.0594130859375,-0.021314077079296112,0.2562413811683655,0.1034688651561737
1769667557078401300,2.0694013671875,-0.055085089057683945,0.26585352420806885,0.0615384615957737
1769667557088389400,2.079389404296875,-0.04651743546128273,0.5233140587806702,0.06886827945709229
1769667557098378200,2.089378173828125,-0.012929913587868214,0.6299451589584351,0.13814029097557068
1769667557108366300,2.099366455078125,0.04375733435153961,0.7374939918518066,0.0309885423630476
1769667557118355200,2.109355224609375,0.05344511568546295,0.7783432006835938,-0.03361628204584122
1769667557128343300,2.11934326171875,0.01690228469669819,0.706902801990509,-0.10130105167627335
1769667557138332400,2.12933251953125,0.02377643622457981,0.5371244549751282,-0.10429071635007858
1769667557148320300,2.1393203125,0.02684759348630905,0.42072218656539917,-0.02695172280073166
1769667557158309000,2.14930908203125,0.006229666527360678,0.37530678510665894,0.03418833017349243
1769667557168297200,2.159297119140625,-0.011894210241734982,0.33499395847320557,0.05159208923578262
1769667557178286300,2.169286376953125,-0.030833013355731964,0.29399725794792175,0.05163736268877983
1769667557188274400,2.1792744140625,-0.02598579414188862,0.24469603598117828,0.039746880531311035
1769667557198263300,2.18926318359375,-0.0278627909719944,0.22101254761219025,0.019889818504452705
1769667557208251100,2.199251220703125,-0.02112073078751564,0.2038138508796692,0.020187826827168465
1769667557218240300,2.209240234375,-0.018634404987096786,0.20401757955551147,0.013923006132245064
1769667557228228400,2.219228271484375,-0.015677496790885925,0.21149946749210358,0.015446600504219532
1769667557238217500,2.229217529296875,-0.01685887575149536,0.2211472988128662,0.01890391670167446
1769667557248205300,2.239205322265625,-0.01841016672551632,0.23974920809268951,0.018334798514842987
1769667557258194200,2.249194091796875,-0.01960752345621586,0.24312902987003326,0.022952454164624214
1769667557268182300,2.259182373046875,-0.020229371264576912,0.24281717836856842,0.01357253361493349
1769667557278171400,2.26917138671875,-0.02358894981443882,0.24787132441997528,-0.0008096009842120111
1769667557288160300,2.27916015625,-0.01679043099284172,0.2389603853225708,-0.005365470424294472
1769667557298148400,2.2891484375,-0.01902109570801258,0.2134595513343811,-0.0032322786282747984
1769667557308137200,2.29913720703125,-0.01835929974913597,0.18051278591156006,0.0026138925459235907
1769667557318125300,2.309125244140625,-0.018312428146600723,0.17522694170475006,0.0029851372819393873
1769667557328114200,2.3191142578125,-0.024887505918741226,0.1873917281627655,-0.01146677229553461
1769667557338102300,2.329102294921875,-0.030358171090483665,0.18174077570438385,-0.032452747225761414
1769667557348091400,2.33909130859375,-0.03472788631916046,0.16548962891101837,-0.03696707263588905
1769667557358079200,2.349079345703125,-0.03117682784795761,0.14539900422096252,-0.028957614675164223
1769667557368068000,2.359068115234375,-0.033556096255779266,0.15606150031089783,-0.01919420063495636
1769667557378056200,2.36905615234375,-0.04032878205180168,0.1824829876422882,-0.030523287132382393
1769667557388045300,2.37904541015625,-0.04987168684601784,0.21784843504428864,-0.044554151594638824
1769667557398033400,2.389033447265625,-0.05726781487464905,0.24735519289970398,-0.041490450501441956
1769667557408022300,2.399022216796875,-0.05904228240251541,0.27788621187210083,-0.030761640518903732
1769667557418010000,2.409010009765625,-0.06870689243078232,0.2919154763221741,-0.048105210065841675
1769667557427999200,2.418999267578125,-0.07375917583703995,0.3225253224372864,-0.028308870270848274
1769667557437987300,2.4289873046875,-0.07729478925466537,0.3563842177391052,-0.04767484590411186
1769667557447976400,2.4389765625,-0.08568454533815384,0.36495134234428406,-0.05679670348763466
1769667557457964300,2.44896435546875,-0.08795062452554703,0.36672791838645935,-0.054911453276872635
1769667557467953200,2.458953125,-0.08834557235240936,0.3629840612411499,-0.061708636581897736
1769667557477942300,2.4689423828125,-0.09179197251796722,0.3695005476474762,-0.0837915688753128
1769667557487930400,2.478930419921875,-0.09446125477552414,0.36148977279663086,-0.08492660522460938
1769667557497919200,2.488919189453125,-0.09699179232120514,0.3356397747993469,-0.08784729987382889
1769667557507907300,2.4989072265625,-0.08120111376047134,0.2938753068447113,-0.07016204297542572
1769667557517896200,2.508896240234375,-0.06861022114753723,0.2600424885749817,-0.055630240589380264
1769667557527884300,2.51888427734375,-0.07365451008081436,0.2681789994239807,-0.056725598871707916
1769667557537873200,2.528873046875,-0.06783869862556458,0.24458152055740356,-0.06406021118164062
1769667557547861200,2.538861328125,-0.0637025460600853,0.23238930106163025,-0.07625509053468704
1769667557557850400,2.548850341796875,-0.05757754296064377,0.22045594453811646,-0.07750411331653595
1769667557567838200,2.558838134765625,-0.057022273540496826,0.21868227422237396,-0.08127807825803757
1769667557577827300,2.568827392578125,-0.05997918173670769,0.22297528386116028,-0.08446135371923447
1769667557587815200,2.578815185546875,-0.06487087160348892,0.23506924510002136,-0.10029783844947815
1769667557597804300,2.58880419921875,-0.06893565505743027,0.22366558015346527,-0.11508850753307343
1769667557607792400,2.59879248046875,-0.06693322956562042,0.2339770793914795,-0.1538095325231552
1769667557617781200,2.60878125,-0.06909624487161636,0.239169180393219,-0.18819521367549896
1769667557627769300,2.618769287109375,-0.06889890879392624,0.23552517592906952,-0.17578673362731934
1769667557637758200,2.62875830078125,-0.07105260342359543,0.2549840807914734,-0.18076153099536896
1769667557647746300,2.638746337890625,-0.07594243437051773,0.27115559577941895,-0.1918053925037384
1769667557657735400,2.6487353515625,-0.08200298994779587,0.28885897994041443,-0.19687257707118988
1769667557667723300,2.65872314453125,-0.09036451578140259,0.2905071973800659,-0.2176942378282547
1769667557677712100,2.668712158203125,-0.09118157625198364,0.27916720509529114,-0.27963778376579285
1769667557687701200,2.678701171875,-0.0896926000714302,0.2860541343688965,-0.26435282826423645
1769667557697689300,2.688689453125,-0.08716153353452682,0.28217950463294983,-0.25897589325904846
1769667557707678200,2.69867822265625,-0.10436449199914932,0.16674983501434326,-0.3463241159915924
1769667557717666300,2.708666259765625,-0.09565994888544083,0.2625751793384552,-0.48963120579719543
1769667557727655200,2.7186552734375,-0.10085897147655487,0.27351754903793335,-0.5858578681945801
1769667557737643300,2.728643310546875,-0.08836741000413895,0.2580645680427551,-0.4927159547805786
1769667557747632400,2.73863232421875,-0.08742145448923111,0.2826458215713501,-0.437172532081604
1769667557757620200,2.7486201171875,-0.10497435182332993,0.17989306151866913,-0.4750930070877075
1769667557767609300,2.758609375,-0.08924172818660736,0.25816604495048523,-0.46935710310935974
1769667557777597200,2.76859716796875,-0.08138540387153625,0.20117652416229248,-0.38766995072364807
1769667557787586300,2.77858642578125,-0.06830448657274246,0.13196443021297455,-0.315083384513855
1769667557797574400,2.788574462890625,-0.06517154723405838,0.1268857717514038,-0.302192360162735
1769667557807563300,2.798563232421875,-0.061234861612319946,0.1126120314002037,-0.27560415863990784
1769667557817551400,2.80855126953125,-0.05465046316385269,0.09179463237524033,-0.23964828252792358
1769667557827540500,2.81854052734375,-0.05419745668768883,0.10116256773471832,-0.23099273443222046
1769667557837528300,2.8285283203125,-0.049788594245910645,0.10407846421003342,-0.22374653816223145
1769667557847517200,2.83851708984375,-0.043711259961128235,0.09839767962694168,-0.22105728089809418
1769667557857505300,2.84850537109375,-0.04180443659424782,0.10127095878124237,-0.2315104603767395
1769667557867494400,2.858494384765625,-0.04138872027397156,0.08954133093357086,-0.22674739360809326
1769667557877482200,2.868482177734375,-0.03767121210694313,0.06383304297924042,-0.2215995043516159
1769667557887471000,2.87847119140625,-0.03478328138589859,0.03856523707509041,-0.21248802542686462
1769667557897459200,2.888459228515625,-0.03134220838546753,0.02840421162545681,-0.19223548471927643
1769667557907448300,2.8984482421875,-0.029801571741700172,0.019421901553869247,-0.19360488653182983
1769667557917437400,2.9084375,-0.028088092803955078,0.013437511399388313,-0.19181230664253235
1769667557927425300,2.91842529296875,-0.022778283804655075,-0.004731904715299606,-0.19340088963508606
1769667557937414100,2.9284140625,-0.021526597440242767,-0.015450861304998398,-0.19343391060829163
1769667557947402200,2.93840234375,-0.018545720726251602,-0.02088317833840847,-0.19100910425186157
1769667557957391400,2.948391357421875,-0.014433001168072224,-0.027153324335813522,-0.18406596779823303
1769667557967379500,2.95837939453125,-0.011777031235396862,-0.02894616313278675,-0.16947397589683533
1769667557977368300,2.968368408203125,-0.007601726800203323,-0.026328809559345245,-0.15394961833953857
1769667557987356200,2.978356201171875,-0.0062243398278951645,-0.032176047563552856,-0.14457795023918152
1769667557997345300,2.98834521484375,-0.002183792181313038,-0.035590484738349915,-0.1353205442428589
1769667558007333400,2.99833349609375,-0.002413090318441391,-0.04182787239551544,-0.12983523309230804
1769667558017322200,3.008322265625,0.0004013383586425334,-0.05246773362159729,-0.11827657371759415
1769667558027310300,3.018310302734375,0.002374208066612482,-0.06154618412256241,-0.09649831056594849
1769667558037299500,3.028299560546875,0.007212905213236809,-0.07470646500587463,-0.07353147864341736
1769667558047287300,3.038287353515625,0.010265154764056206,-0.07036151736974716,-0.05367947369813919
1769667558057276200,3.048276123046875,0.007730624172836542,-0.07728386670351028,-0.04580850154161453
1769667558067264300,3.05826416015625,0.009062204509973526,-0.07888656109571457,-0.035831768065690994
1769667558077254400,3.06825439453125,0.007706389296799898,-0.07370351254940033,-0.032403744757175446
1769667558087242200,3.0782421875,0.0065375277772545815,-0.06511455774307251,-0.029944051057100296
1769667558097231400,3.0882314453125,0.00469541922211647,-0.05242512375116348,-0.03111317753791809
1769667558107220500,3.098220458984375,0.0029148298781365156,-0.03853167966008186,-0.03273637592792511
1769667558117208600,3.10820849609375,0.0004689826746471226,-0.02959677390754223,-0.02990410290658474
1769667558127197400,3.118197509765625,0.00027324032271280885,-0.020254138857126236,-0.023971378803253174
1769667558137185300,3.128185302734375,0.0007060039788484573,-0.01593608967959881,-0.01853826455771923
1769667558147174400,3.13817431640625,-0.00009853696246864274,-0.009177252650260925,-0.016403207555413246
1769667558157162500,3.14816259765625,-0.001056209672242403,-0.0049193911254405975,-0.014297446236014366
1769667558167151400,3.1581513671875,-0.0005342300864867866,-0.0005150553770363331,-0.011359713971614838
1769667558177139500,3.168139404296875,0.001026382320560515,0.0003057308786083013,-0.006038983818143606
1769667558187128300,3.17812841796875,0.0017158746486529708,0.0003483414766378701,-0.0005289037944748998
1769667558197116400,3.188116455078125,0.002779541304334998,0.0015052186790853739,0.0020218719728291035
1769667558207105300,3.198105224609375,0.004811799619346857,0.001948368619196117,0.0016727314796298742
1769667558217093400,3.20809326171875,0.0033936661202460527,0.0007811051327735186,0.005595301277935505
1769667558227082500,3.21808251953125,0.003350256709381938,-0.0008263788768090308,0.0044016726315021515
1769667558237070300,3.2280703125,0.003010703483596444,0.004208593629300594,0.0045572011731565
1769667558247059500,3.2380595703125,0.002222940558567643,0.007486145943403244,0.0057289921678602695
1769667558257047300,3.24804736328125,0.004281031433492899,0.006962302140891552,0.008039817214012146
1769667558267036400,3.258036376953125,0.00276063266210258,0.0075660403817892075,0.013302222825586796
1769667558277025500,3.268025634765625,0.002113218419253826,0.008992163464426994,0.01468600146472454
1769667558287013400,3.278013427734375,0.0013731258222833276,0.006219013594090939,0.016320116817951202
1769667558297002200,3.288002197265625,0.0012825783342123032,0.00247540813870728,0.015568573027849197
1769667558306990300,3.297990234375,0.00242214510217309,0.003704723436385393,0.015855928882956505
1769667558316979500,3.3079794921875,0.0013129384024068713,0.0036647759843617678,0.01683996617794037
1769667558326967600,3.317967529296875,0.0010269149206578732,0.004578506574034691,0.01793638989329338
1769667558336956400,3.327956298828125,0.0008269115351140499,0.006455768831074238,0.01411422062665224
1769667558346944300,3.3379443359375,-0.0009427590412087739,0.007830225862562656,0.01050164271146059
1769667558356933400,3.347933349609375,-0.000547279603779316,0.0051801144145429134,0.0088776471093297
1769667558366921500,3.35792138671875,-0.00023702133330516517,0.0018362496048212051,0.007345264777541161
1769667558376910300,3.367910400390625,-0.0016564861871302128,-0.0015622102655470371,0.0070222229696810246
1769667558386898400,3.3778984375,-0.0008860336965881288,-0.003913248889148235,0.011471034027636051
1769667558396887300,3.38788720703125,-0.0017560884589329362,-0.004763329867273569,0.006508765742182732
1769667558406875400,3.39787548828125,-0.0018394453218206763,-0.0057375142350792885,0.002656236756592989
1769667558416864500,3.407864501953125,-0.0028104339726269245,-0.006764429155737162,-0.002831739140674472
1769667558426852400,3.417852294921875,-0.002089249901473522,-0.0070160976611077785,-0.0068030450493097305
1769667558436841500,3.427841552734375,-0.0035683694295585155,-0.007927165366709232,-0.0056392434053123
1769667558446830600,3.43783056640625,-0.005342833697795868,-0.0059814597479999065,-0.000365918327588588
1769667558456818400,3.447818359375,-0.0027979169972240925,-0.0010921623324975371,-0.00039601203752681613
1769667558466807300,3.457807373046875,-0.002621349412947893,0.0018604843644425273,-0.0031707596499472857
1769667558476795400,3.46779541015625,-0.0032418658956885338,0.0037827540654689074,0.0032658344134688377
1769667558486784500,3.477784423828125,-0.0023555660154670477,0.0005470133037306368,0.006610498297959566
1769667558496772400,3.4877724609375,-0.002630404196679592,-0.0014106763992458582,0.012916863895952702
1769667558506761200,3.49776123046875,-0.0028506475500762463,-0.003976099658757448,0.024827318266034126
1769667558516749300,3.507749267578125,-0.0031150993891060352,-0.01515897922217846,0.03130039945244789
1769667558526738400,3.517738525390625,-0.0036786242853850126,-0.019514312967658043,0.039252862334251404
1769667558536726500,3.5277265625,-0.0035324168857187033,-0.013099290430545807,0.044925395399332047
1769667558546715400,3.53771533203125,-0.0035238948184996843,-0.019954798743128777,0.048223190009593964
1769667558556703200,3.547703125,-0.0051801144145429134,-0.02400573343038559,0.05483341962099075
1769667558566692400,3.5576923828125,-0.003751062322407961,-0.03111743927001953,0.05650775134563446
1769667558576680400,3.567680419921875,-0.0030091057997196913,-0.030244454741477966,0.06591802835464478
1769667558586669600,3.577669677734375,-0.0016772588714957237,-0.028130171820521355,0.06558140367269516
1769667558596657400,3.587657470703125,-0.0014612764352932572,-0.017947308719158173,0.06898945569992065
1769667558606646300,3.597646240234375,-0.0009022789890877903,-0.009072057902812958,0.07358686625957489
1769667558616635400,3.607635498046875,0.000022636868379777297,-0.015182681381702423,0.07533736526966095
1769667558626623500,3.61762353515625,0.0005195827106945217,-0.020800620317459106,0.08258862048387527
1769667558636612400,3.6276123046875,0.0013915016315877438,-0.019163042306900024,0.1002829298377037
1769667558646600400,3.637600341796875,-0.004441353492438793,-0.019246932119131088,0.1032896339893341
1769667558656589600,3.647589599609375,-0.008786034770309925,-0.028390629217028618,0.11391298472881317
1769667558666577400,3.657577392578125,-0.015046593733131886,-0.0431370846927166,0.13369813561439514
1769667558676566300,3.667566162109375,-0.017372066155076027,-0.05249250307679176,0.13283555209636688
1769667558686554400,3.677554443359375,-0.019339343532919884,-0.05890645831823349,0.13327443599700928
1769667558696543500,3.68754345703125,-0.022774288430809975,-0.04676457494497299,0.15014022588729858
1769667558706531300,3.69753125,-0.03074193373322487,-0.03337712958455086,0.14273850619792938
1769667558716520200,3.707520263671875,-0.05235321819782257,-0.023979634046554565,0.12621279060840607
1769667558726508300,3.71750830078125,-0.05215135216712952,-0.034751854836940765,0.13964471220970154
1769667558736497400,3.727497314453125,-0.06502746790647507,-0.021739650517702103,0.13971927762031555
1769667558746485500,3.737485595703125,-0.06764775514602661,-0.038357775658369064,0.12667618691921234
1769667558756474400,3.747474365234375,-0.0691862627863884,-0.05355297401547432,0.12901097536087036
1769667558766463500,3.75746337890625,-0.07316449284553528,-0.04580423980951309,0.13142353296279907
1769667558776451300,3.767451416015625,-0.08276624977588654,-0.058209244161844254,0.10738371312618256
1769667558786440400,3.7774404296875,-0.0909394919872284,-0.09205801784992218,0.09830739349126816
1769667558796428500,3.787428466796875,-0.11324426531791687,-0.07804100215435028,0.07900373637676239
1769667558806417400,3.79741748046875,-0.13706490397453308,-0.16988837718963623,-0.009623066522181034
1769667558816405200,3.8074052734375,-0.17309747636318207,-0.2723071575164795,-0.09926772862672806
1769667558826394400,3.817394287109375,-0.1843501329421997,-0.3932735323905945,-0.16505739092826843
1769667558836382500,3.827382568359375,-0.264310747385025,-0.4729366600513458,-0.24239052832126617
1769667558846371300,3.837371337890625,-0.28716838359832764,-0.6043471693992615,-0.29614803194999695
1769667558856359400,3.847359375,-0.3158722221851349,-0.6949089765548706,-0.291364461183548
1769667558866348500,3.8573486328125,-0.3335694372653961,-0.8089109659194946,-0.30050843954086304
1769667558876336400,3.86733642578125,-0.2931458652019501,-0.8701729774475098,-0.25061172246932983
1769667558886325200,3.8773251953125,-0.2307719588279724,-0.8329877853393555,-0.1886862963438034
1769667558896313300,3.887313232421875,-0.2172902375459671,-0.7513635158538818,-0.08031187951564789
1769667558906302500,3.897302490234375,-0.21752886474132538,-0.6267725825309753,0.03646799549460411
1769667558916291600,3.90729150390625,-0.23169128596782684,-0.6957087516784668,0.1250426024198532
1769667558926279400,3.917279541015625,-0.22670531272888184,-0.8106931447982788,0.12999048829078674
1769667558936268300,3.927268310546875,-0.2271125167608261,-0.7318928837776184,0.1100093275308609
1769667558946256400,3.93725634765625,-0.23900911211967468,-0.581457793712616,0.13367976248264313
1769667558956245500,3.94724560546875,-0.2517062723636627,-0.44595324993133545,0.15029922127723694
1769667558966233600,3.957233642578125,-0.2756808400154114,-0.35717064142227173,0.13702735304832458
1769667558976222500,3.967222412109375,-0.27187278866767883,-0.4058851897716522,0.11519982665777206
1769667558986210300,3.977210205078125,-0.22324161231517792,-0.5027792453765869,0.055576443672180176
1769667558996199400,3.987199462890625,-0.1825282722711563,-0.5324900150299072,0.009434248320758343
1769667559006187500,3.9971875,-0.12484632432460785,-0.48185744881629944,-0.02148798108100891
1769667559016176400,4.00717626953125,-0.0779443308711052,-0.40914463996887207,-0.04705219715833664
1769667559026164200,4.017164306640625,-0.02442358434200287,-0.2539800703525543,-0.04748282954096794
1769667559036153300,4.0271533203125,0.039747145026922226,0.1333303600549698,-0.05426057428121567
1769667559046142500,4.037142578125,0.12295041978359222,0.4402221143245697,-0.1002323254942894
1769667559056130300,4.04713037109375,0.1845405548810959,0.4731278717517853,-0.1430426388978958
1769667559066119400,4.057119384765625,0.24610218405723572,0.31626075506210327,-0.14551351964473724
1769667559076107500,4.067107421875,0.2805294096469879,0.14937430620193481,-0.09852710366249084
1769667559086096400,4.077096435546875,0.30890217423439026,-0.0227950606495142,-0.04904424026608467
1769667559096084500,4.08708447265625,0.3324376046657562,-0.19709496200084686,-0.0012833772925660014
1769667559106073300,4.0970732421875,0.378857284784317,-0.16217797994613647,0.04518318921327591
1769667559116061200,4.107061279296875,0.38439348340034485,-0.16774319112300873,0.12479040026664734
1769667559126050300,4.11705029296875,0.3087935149669647,-0.057735469192266464,0.16666488349437714
1769667559136038400,4.127038330078125,0.21378739178180695,-0.0932425931096077,0.13958266377449036
1769667559146027300,4.13702734375,0.12473021447658539,-0.1123981773853302,0.10569367557764053
1769667559156015400,4.147015380859375,0.020299945026636124,-0.1464003622531891,0.02599005587399006
1769667559166004200,4.157004150390625,-0.03489779680967331,-0.1749129593372345,-0.051963333040475845
1769667559175992300,4.166992431640625,-0.09948930889368057,-0.13519057631492615,-0.16580069065093994
1769667559185981200,4.176981201171875,-0.14735962450504303,-0.05952244997024536,-0.2627698481082916
1769667559195970300,4.18697021484375,-0.20511187613010406,-0.0379476472735405,-0.3155116140842438
1769667559205958400,4.19695849609375,-0.2698666453361511,0.12506097555160522,-0.31225642561912537
1769667559215947300,4.206947265625,-0.3151680827140808,0.4762679934501648,-0.26328569650650024
1769667559225935000,4.21693505859375,-0.3573229908943176,0.5662242770195007,-0.26336026191711426
1769667559235924200,4.22692431640625,-0.37595659494400024,0.49768009781837463,-0.3575866222381592
1769667559245912300,4.236912353515625,-0.39632683992385864,0.5478809475898743,-0.4928627014160156
1769667559255901400,4.2469013671875,-0.4173053503036499,0.6760562062263489,-0.619488000869751
1769667559265889300,4.25688916015625,-0.36903876066207886,0.9974827170372009,-0.552913248538971
1769667559275878100,4.266878173828125,-0.23691613972187042,1.0567889213562012,-0.402616411447525
1769667559285866200,4.2768662109375,-0.07887910306453705,0.599166750907898,-0.2874682545661926
1769667559295855400,4.28685546875,0.04164864495396614,0.26993614435195923,-0.09412383288145065
1769667559305843500,4.296843505859375,0.16719618439674377,0.23922030627727509,0.035838957875967026
1769667559315832300,4.306832275390625,0.19425736367702484,0.3046286106109619,-0.09380239248275757
1769667559325821200,4.3168212890625,0.14745363593101501,0.3440375328063965,-0.2639293968677521
1769667559335809300,4.326809326171875,0.12598882615566254,0.21336553990840912,-0.20958198606967926
1769667559345798100,4.336798095703125,0.11024448275566101,0.227289080619812,-0.08064024895429611
1769667559355786200,4.3467861328125,0.099654421210289,0.3884449303150177,-0.015018897131085396
1769667559365775400,4.356775390625,0.05299823731184006,0.37714701890945435,0.008985505439341068
1769667559375763200,4.36676318359375,0.007905594073235989,0.3472394645214081,0.04098311811685562
1769667559385752300,4.37675244140625,-0.026156237348914146,0.34719178080558777,0.042881954461336136
1769667559395740200,4.386740234375,-0.03256699815392494,0.3489910066127777,0.0273250974714756
1769667559405729300,4.396729248046875,-0.054674696177244186,0.3053274154663086,0.06273981183767319
1769667559415717400,4.40671728515625,-0.05877649784088135,0.28907787799835205,0.09237706661224365
1769667559425706500,4.41670654296875,-0.06470523029565811,0.2833488881587982,0.07589849084615707
1769667559435694300,4.4266943359375,-0.05312580242753029,0.2109588384628296,0.06939665228128433
1769667559445683200,4.43668310546875,-0.05217132717370987,0.2118547260761261,0.07728973031044006
1769667559455672300,4.44667236328125,-0.044795699417591095,0.22843503952026367,0.058226555585861206
1769667559465660400,4.456660400390625,-0.043234556913375854,0.25697505474090576,0.07318393141031265
1769667559475649300,4.466649169921875,-0.03761102631688118,0.2414778620004654,0.07718852907419205
1769667559485637000,4.47663720703125,-0.026741866022348404,0.19422833621501923,0.08768191188573837
1769667559495626200,4.486626220703125,-0.020307136699557304,0.1648470014333725,0.10744629800319672
1769667559505614300,4.4966142578125,-0.014513429254293442,0.16084720194339752,0.11871705949306488
1769667559515603200,4.506603271484375,-0.013079049997031689,0.1624797284603119,0.1331668347120285
1769667559525591300,4.51659130859375,-0.013855361379683018,0.1637931913137436,0.14041383564472198
1769667559535580400,4.526580322265625,-0.015801865607500076,0.15056739747524261,0.13258147239685059
1769667559545568300,4.536568359375,-0.015446334145963192,0.12777501344680786,0.11143811047077179
1769667559555557400,4.546557373046875,-0.013742444105446339,0.07662979513406754,0.07994037121534348
1769667559565545200,4.556545166015625,-0.014196512289345264,0.010655839927494526,0.05667766183614731
1769667559575534300,4.566534423828125,-0.007425159215927124,-0.02491946518421173,0.03989308699965477
1769667559585523500,4.5765234375,-0.0047028763219714165,-0.03458327800035477,0.03760170191526413
1769667559595511300,4.58651123046875,-0.0019291938515380025,-0.03169401362538338,0.03582111373543739
1769667559605500200,4.596500244140625,-0.0017622136510908604,-0.02659672312438488,0.031386684626340866
1769667559615488300,4.60648828125,-0.0017829863354563713,-0.015355254523456097,0.031150462105870247
1769667559625477400,4.616477294921875,-0.0010210559703409672,-0.01979714073240757,0.0305110365152359
1769667559635465500,4.626465576171875,0.0005613943794742227,-0.023539680987596512,0.037816088646650314
1769667559645454000,4.6364541015625,0.0011851066956296563,-0.01848287135362625,0.055378835648298264
1769667559655442200,4.646442138671875,0.0029342707712203264,-0.013187707401812077,0.05740576982498169
1769667559665431300,4.656431396484375,0.0035715652629733086,-0.006405701395124197,0.05944521725177765
1769667559675419400,4.66641943359375,0.002627208363264799,0.009362342767417431,0.0576542429625988
1769667559685408300,4.676408203125,0.003305781865492463,0.024440627545118332,0.045463621616363525
1769667559695396000,4.68639599609375,0.006429669912904501,0.030962176620960236,0.04198340326547623
1769667559705385200,4.69638525390625,0.007244064472615719,0.01733717881143093,0.04356718435883522
1769667559715374300,4.706374267578125,0.008408398367464542,0.008915730752050877,0.044140297919511795
1769667559725362200,4.716362060546875,0.005276521202176809,0.011274758726358414,0.038362037390470505
1769667559735351300,4.726351318359375,0.006128199864178896,0.01213069912046194,0.04035940766334534
1769667559745339400,4.73633935546875,0.005893841851502657,0.007182279136031866,0.03567250818014145
1769667559755328300,4.746328369140625,0.006493052933365107,0.004349474795162678,0.02454688772559166
1769667559765316400,4.75631640625,0.00418302696198225,0.004480502102524042,0.013646037317812443
1769667559775305200,4.76630517578125,0.004610997159034014,0.007189203519374132,0.010252904146909714
1769667559785293300,4.776293212890625,0.0051564122550189495,0.0073228939436376095,0.010143181309103966
1769667559795282400,4.786282470703125,0.004492486361414194,0.007408914156258106,0.015114237554371357
1769667559805270300,4.796270263671875,0.002590723102912307,0.011383947916328907,0.015419969335198402
1769667559815259100,4.806259033203125,0.0008527441532351077,0.011759188026189804,0.012618323788046837
1769667559825247200,4.816247314453125,0.0010567422723397613,0.021513547748327255,0.01395895890891552
1769667559835236400,4.826236328125,-0.0007797735743224621,0.02845720760524273,0.016156865283846855
1769667559845225200,4.83622509765625,-0.0010879012988880277,0.027600735425949097,0.011574364267289639
1769667559855213000,4.846213134765625,-0.0012777847005054355,0.0100800646468997,0.010155964642763138
1769667559865202200,4.8562021484375,0.00022450447431765497,0.01510092243552208,0.008945558220148087
1769667559875190300,4.866190185546875,-0.0012306467397138476,0.017163008451461792,0.006074137985706329
1769667559885179400,4.876179443359375,-0.0008141283178701997,0.01678297482430935,0.00866273045539856
1769667559895167200,4.886167236328125,-0.0033244239166378975,0.02087758481502533,0.006929545197635889
1769667559905156400,4.89615625,-0.0025901903863996267,0.012996758334338665,0.005564675200730562
1769667559915144200,4.906144287109375,-0.002522812457755208,0.019543340429663658,0.007102916948497295
1769667559925133300,4.91613330078125,-0.004335093777626753,0.02515089325606823,0.007135141175240278
1769667559935121400,4.926121337890625,-0.006045109126716852,0.03610367700457573,0.008257397450506687
1769667559945110300,4.9361103515625,-0.005410211626440287,0.03952930122613907,0.014092116616666317
1769667559955099400,4.946099365234375,-0.005637912079691887,0.03389165550470352,0.016745690256357193
1769667559965087200,4.956087158203125,-0.005019792355597019,0.024599352851510048,0.017460215836763382
1769667559975076000,4.966076171875,-0.0043619913049042225,0.02550695836544037,0.018508702516555786
1769667559985064200,4.976064208984375,-0.00478410255163908,0.022840600460767746,0.019289009273052216
1769667559995053300,4.98605322265625,-0.006175071466714144,0.012121910229325294,0.007420632056891918
1769667560005041400,4.99604150390625,-0.0054642739705741405,0.011335479095578194,0.009355152025818825
1769667560015030300,5.0060302734375,-0.004608600400388241,0.0156527291983366,0.007234210614115
1769667560025018000,5.01601806640625,-0.007042197044938803,0.0187851395457983,0.007357781287282705
1769667560035007200,5.02600732421875,-0.007701328955590725,0.020024575293064117,0.0150990579277277
1769667560044995300,5.035995361328125,-0.006237922236323357,0.009401490911841393,0.0188373364508152
1769667560054984400,5.045984375,-0.004122573416680098,0.002980343531817198,0.019893813878297806
1769667560064972300,5.05597216796875,-0.005629922728985548,0.00005619269722956233,0.0144082335755229
1769667560074961200,5.065961181640625,-0.0065287393517792225,0.002551840851083398,0.01149766519665718
1769667560084950300,5.0759501953125,-0.008202003315091133,-0.0009440905996598303,0.004584365524351597
1769667560094938400,5.0859384765625,-0.00654551712796092,-0.010489658452570438,-0.0014817827614024282
1769667560104927200,5.09592724609375,-0.006118612363934517,0.00010412959818495438,0.0012993563432246447
1769667560114915300,5.105915283203125,-0.005240568425506353,0.006369748618453741,0.014695056714117527
1769667560124904400,5.115904541015625,-0.005014998838305473,0.013604225590825081,0.020320450887084007
1769667560134892300,5.125892333984375,-0.007704791147261858,0.007419300265610218,0.023681361228227615
1769667560144881200,5.135881103515625,-0.005379319190979004,0.003477022983133793,0.024988174438476562
1769667560154869200,5.145869140625,-0.005073854699730873,-0.006712763570249081,0.02707822248339653
1769667560164858400,5.1558583984375,-0.005533249583095312,-0.005037635564804077,0.03399471938610077
1769667560174846200,5.16584619140625,-0.006096241995692253,-0.005106344819068909,0.03178642690181732
1769667560184835000,5.1758349609375,-0.005547098349779844,-0.010782074183225632,0.030771227553486824
1769667560194824200,5.18582421875,-0.004314587451517582,-0.015060442499816418,0.029137644916772842
1769667560204812300,5.195812255859375,-0.0035545211285352707,-0.02592534013092518,0.027575168758630753
1769667560214801400,5.205801513671875,-0.0029696908313781023,-0.03472282737493515,0.02358628623187542
1769667560224789500,5.21578955078125,-0.002454369328916073,-0.037033651024103165,0.021979067474603653
1769667560234778000,5.225778076171875,-0.001181378262117505,-0.03597850725054741,0.02315911464393139
1769667560244766200,5.23576611328125,-0.0012420982820913196,-0.04272136464715004,0.02191115729510784
1769667560254755300,5.24575537109375,-0.0004820321628358215,-0.04755580052733421,0.022586535662412643
1769667560264743400,5.255743408203125,0.0006713828770443797,-0.04981096461415291,0.023180419579148293
1769667560274732300,5.265732177734375,0.0001776328426785767,-0.04333442449569702,0.023486683145165443
1769667560284720000,5.27572021484375,0.0015459649730473757,-0.04205024987459183,0.023482689633965492
1769667560294709200,5.285709228515625,0.00043329631444066763,-0.038050178438425064,0.022900521755218506
1769667560304697300,5.295697265625,0.001894839107990265,-0.03061756305396557,0.024892300367355347
1769667560314686200,5.305686279296875,0.0034932682756334543,-0.02238333597779274,0.027637487277388573
1769667560324675300,5.31567529296875,0.005883987993001938,-0.020670924335718155,0.028428977355360985
1769667560334663400,5.325663330078125,0.0031878037843853235,-0.025261415168642998,0.0221476461738348
1769667560344652300,5.33565234375,0.00333214714191854,-0.023660855367779732,0.018979283049702644
1769667560354640100,5.34564013671875,0.003090864745900035,-0.01854012906551361,0.01678723655641079
1769667560364629200,5.355629150390625,0.003165699541568756,-0.01104652602225542,0.016569389030337334
1769667560374617300,5.365617431640625,0.0027254789602011442,-0.005525260232388973,0.01846449449658394
1769667560384606500,5.3756064453125,0.005631254054605961,0.00024101608141791075,0.021742580458521843
1769667560394594300,5.38559423828125,0.003251187037676573,-0.00003062635369133204,0.020726850256323814
1769667560404583200,5.395583251953125,0.004517786670476198,0.0012831110507249832,0.019161444157361984
1769667560414571300,5.4055712890625,0.005991845857352018,0.006389455869793892,0.01774916984140873
1769667560424560400,5.415560302734375,0.004019775427877903,0.010574880056083202,0.013862552121281624
1769667560434549200,5.42554931640625,0.0015070828376337886,0.015689214691519737,0.01458719838410616
1769667560444537000,5.435537109375,0.003712446428835392,0.02352236956357956,0.019695673137903214
1769667560454526200,5.445526123046875,0.0021528995130211115,0.029411951079964638,0.022883744910359383
1769667560464514300,5.455514404296875,0.003233077470213175,0.027712853625416756,0.015961123630404472
1769667560474503200,5.465503173828125,0.0032754219137132168,0.026102706789970398,0.01420556753873825
1769667560484491300,5.4754912109375,0.002049036091193557,0.024346617981791496,0.01353471726179123
1769667560494480400,5.48548046875,0.0038570561446249485,0.01750069670379162,0.014028467237949371
1769667560504468200,5.49546826171875,0.0027537085115909576,0.0189630389213562,0.015230085700750351
1769667560514457300,5.505457275390625,0.0017038905061781406,0.024686969816684723,0.014547517523169518
1769667560524445200,5.515445068359375,0.0019417107105255127,0.028688102960586548,0.01612197794020176
1769667560534434300,5.525434326171875,-0.0005155879771336913,0.03527276962995529,0.019597670063376427
1769667560544422400,5.53542236328125,0.001531850197352469,0.04170696809887886,0.024455541744828224
1769667560554411300,5.545411376953125,0.0032003207597881556,0.03973037004470825,0.02828117273747921
1769667560564400000,5.555400146484375,0.0021499700378626585,0.041842520236968994,0.0327446311712265
1769667560574388200,5.56538818359375,0.0006793724023737013,0.04578932747244835,0.04171469062566757
1769667560584377300,5.57537744140625,0.00336144189350307,0.046127814799547195,0.041673146188259125
1769667560594365400,5.585365478515625,0.0026264095213264227,0.038594797253608704,0.04409023001790047
1769667560604354300,5.595354248046875,0.002002430846914649,0.03869413211941719,0.04580583795905113
1769667560614342100,5.605342041015625,0.0035412053111940622,0.03651620075106621,0.049491651356220245
1769667560624331300,5.615331298828125,0.0024146882351487875,0.0361473523080349,0.05354738235473633
1769667560634319400,5.6253193359375,0.003945473115891218,0.03765150532126427,0.062136340886354446
1769667560644308200,5.63530810546875,0.0025569009594619274,0.03485092520713806,0.06722910702228546
1769667560654296000,5.645296142578125,0.00618199585005641,0.030706780031323433,0.06419842690229416
1769667560664285200,5.65528515625,0.005074120592325926,0.027721643447875977,0.07058229297399521
1769667560674274300,5.6652744140625,0.00717562111094594,0.030348584055900574,0.08352498710155487
1769667560684262400,5.675262451171875,0.0057015614584088326,0.025920281186699867,0.08409570157527924
1769667560694251300,5.685251220703125,0.006582801695913076,0.015292936004698277,0.08398251980543137
1769667560704239400,5.6952392578125,0.008816661313176155,0.006299174856394529,0.08332045376300812
1769667560714228500,5.705228515625,0.007514375261962414,0.004403270315378904,0.08322910964488983
1769667560724216300,5.71521630859375,0.009003348648548126,0.004322044085711241,0.08329835534095764
1769667560734205200,5.725205078125,0.008170844055712223,0.0004474110610317439,0.0836472287774086
1769667560744193300,5.735193359375,0.0089378347620368,0.0046602655202150345,0.08309169113636017
1769667560754182400,5.745182373046875,0.010212689638137817,0.007821437902748585,0.08332125842571259
1769667560764170200,5.755170166015625,0.010148773901164532,0.009914149530231953,0.0847601592540741
1769667560774159000,5.7651591796875,0.008325573988258839,0.015225025825202465,0.09185295552015305
1769667560784148200,5.775148193359375,0.009832656942307949,0.011551727540791035,0.0926487073302269
1769667560794136300,5.78513623046875,0.010517888702452183,0.0020327907986938953,0.08543819934129715
1769667560804125200,5.795125244140625,0.011683288030326366,-0.00004713794987765141,0.082170769572258
1769667560814113300,5.80511328125,0.010808705352246761,-0.0007928230334073305,0.0758148729801178
1769667560824102100,5.81510205078125,0.008384962566196918,-0.00011824435205198824,0.0694698914885521
1769667560834090200,5.82509033203125,0.00791305024176836,0.004077565856277943,0.06517980247735977
1769667560844079400,5.835079345703125,0.007900533266365528,0.010513893328607082,0.06649406999349594
1769667560854067200,5.845067138671875,0.00791704561561346,0.010074472054839134,0.06879983842372894
1769667560864056300,5.855056396484375,0.004712996073067188,0.010869958437979221,0.06603734195232391
1769667560874044200,5.865044189453125,0.0035183019936084747,0.0070762853138148785,0.060868941247463226
1769667560884033300,5.875033203125,0.0024410535115748644,0.003896737238392234,0.04941335693001747
1769667560894022100,5.885022216796875,0.000835966260638088,-0.0003022687742486596,0.040955424308776855
1769667560904010200,5.89501025390625,-0.00009747169679030776,0.0014820491196587682,0.03298298269510269
1769667560913999400,5.904999267578125,0.0005376922199502587,0.008418251760303974,0.03435424342751503
1769667560923987500,5.914987548828125,-0.0003091930120717734,0.017719874158501625,0.03488847613334656
1769667560933976000,5.92497607421875,-0.0011619371362030506,0.025227857753634453,0.04002704471349716
1769667560943964200,5.934964111328125,-0.0007507451227866113,0.03328711539506912,0.04060415178537369
1769667560953953300,5.944953369140625,0.0000013315805063029984,0.03762540593743324,0.03983023762702942
1769667560963941400,5.95494140625,-0.004480768460780382,0.04322177171707153,0.03489886224269867
1769667560973930200,5.96493017578125,-0.0029888655990362167,0.04619305953383446,0.03856763243675232
1769667560983918000,5.97491796875,-0.002924683503806591,0.04824662581086159,0.03491590544581413
1769667560993907200,5.9849072265625,-0.0020743361674249172,0.05163922533392906,0.027157584205269814
1769667561003895300,5.994895263671875,-0.005082376766949892,0.05113988369703293,0.015728896483778954
1769667561013884400,6.004884521484375,-0.003084739437326789,0.055520251393318176,0.009892311878502369
1769667561023873300,6.014873291015625,-0.006209426559507847,0.05848914384841919,-0.0014631407102569938
1769667561033861000,6.024861083984375,-0.006013417616486549,0.061108626425266266,-0.008549013175070286
1769667561043850200,6.034850341796875,-0.0070885359309613705,0.057912833988666534,-0.011492605321109295
1769667561053838300,6.04483837890625,-0.007926632650196552,0.06184126436710358,-0.01443859376013279
1769667561063827200,6.0548271484375,-0.007935953326523304,0.06914231926202774,-0.013794641941785812
1769667561073815300,6.064815185546875,-0.009588179178535938,0.07186300307512283,-0.020311929285526276
1769667561083803400,6.074803466796875,-0.01008033100515604,0.07967006415128708,-0.02533145621418953
1769667561093791500,6.08479150390625,-0.012014850974082947,0.08763610571622849,-0.02201608568429947
1769667561103780600,6.094780517578125,-0.01513128262013197,0.09596141427755356,-0.023486416786909103
1769667561113768700,6.104768798828125,-0.014702779240906239,0.10159134119749069,-0.025676067918539047
1769667561123757600,6.114757568359375,-0.014853514730930328,0.10299189388751984,-0.030422886833548546
1769667561133746700,6.12474658203125,-0.018681809306144714,0.10497195273637772,-0.03621446341276169
1769667561143734500,6.134734619140625,-0.018692994490265846,0.0924023687839508,-0.04500742256641388
1769667561153723400,6.144723388671875,-0.01816941611468792,0.07791716605424881,-0.05030418187379837
1769667561163711500,6.15471142578125,-0.018003500998020172,0.07407023012638092,-0.06204366311430931
1769667561173700600,6.16470068359375,-0.019808325916528702,0.0630255714058876,-0.0734473168849945
1769667561183688700,6.174688720703125,-0.022230736911296844,0.05947131663560867,-0.08300886303186417
1769667561193677300,6.18467724609375,-0.021152956411242485,0.05553223565220833,-0.08130364120006561
1769667561203665400,6.19466552734375,-0.023240074515342712,0.03833966702222824,-0.09365911036729813
1769667561213654500,6.204654541015625,-0.024088557809591293,0.036317262798547745,-0.10526463389396667
1769667561223642600,6.214642578125,-0.023330889642238617,0.03440697491168976,-0.11183492094278336
1769667561233631500,6.224631591796875,-0.022461632266640663,0.027424700558185577,-0.1258133202791214
1769667561243620600,6.23462060546875,-0.024536235257983208,0.023246999830007553,-0.12589587271213531
1769667561253608400,6.2446083984375,-0.023496802896261215,0.019405921921133995,-0.13194578886032104
1769667561263597600,6.25459765625,-0.023910658434033394,0.01595446467399597,-0.13062246143817902
1769667561273585700,6.264585693359375,-0.022581474855542183,0.018577678129076958,-0.12060976773500443
1769667561283574500,6.274574462890625,-0.020976122468709946,0.019055450335144997,-0.11538278311491013
1769667561293562400,6.284562255859375,-0.022585736587643623,0.01606179028749466,-0.1198667511343956
1769667561303551500,6.294551513671875,-0.022176675498485565,0.017476994544267654,-0.1198827251791954
1769667561313539600,6.30453955078125,-0.02130022831261158,0.01290487963706255,-0.12974654138088226
1769667561323528400,6.314528564453125,-0.021913820877671242,0.019585419446229935,-0.13204379379749298
1769667561333516500,6.3245166015625,-0.024634506553411484,0.023513315245509148,-0.13735945522785187
1769667561343505700,6.334505615234375,-0.0261067021638155,0.022914104163646698,-0.14484134316444397
1769667561353494500,6.34449462890625,-0.023743147030472755,0.013972541317343712,-0.14358513057231903
1769667561363482400,6.354482421875,-0.0229782871901989,0.010946124792098999,-0.13558445870876312
1769667561373471500,6.364471435546875,-0.024644093587994576,0.014737134799361229,-0.13545502722263336
1769667561383459600,6.37445947265625,-0.020743627101182938,0.017850369215011597,-0.12357573211193085
1769667561393448700,6.38444873046875,-0.018273545429110527,0.01518987212330103,-0.10786521434783936
1769667561403436500,6.3944365234375,-0.017958227545022964,0.012798885814845562,-0.10506090521812439
1769667561413425400,6.40442529296875,-0.017680194228887558,0.011026019230484962,-0.1018720343708992
1769667561423413500,6.41441357421875,-0.01852414943277836,0.01798246242105961,-0.09251981228590012
1769667561433402600,6.424402587890625,-0.016802947968244553,0.020597953349351883,-0.09389320760965347
1769667561443390700,6.434390625,-0.017410416156053543,0.020533503964543343,-0.0919906422495842
1769667561453379600,6.444379638671875,-0.015476694330573082,0.01696833036839962,-0.09148278087377548
1769667561463368400,6.454368408203125,-0.017967814579606056,0.014021276496350765,-0.08775515109300613
1769667561473356500,6.4643564453125,-0.014459366910159588,0.014636733569204807,-0.09179756045341492
1769667561483345400,6.474345458984375,-0.014009824953973293,0.011571701616048813,-0.0880611464381218
1769667561493333500,6.48433349609375,-0.0123631926253438,0.010025735944509506,-0.07895074039697647
1769667561503322600,6.494322509765625,-0.009308014065027237,0.004907673224806786,-0.07486491650342941
1769667561513310500,6.504310546875,-0.009251555427908897,0.004421113524585962,-0.06868718564510345
1769667561523299300,6.51429931640625,-0.005884254351258278,-0.0017776599852368236,-0.058102983981370926
1769667561533287400,6.524287353515625,-0.004265052266418934,-0.002813629573211074,-0.05180088058114052
1769667561543276500,6.534276611328125,-0.0016591493040323257,-0.002159290947020054,-0.04759468138217926
1769667561553264600,6.5442646484375,-0.0017454357584938407,-0.0019273296929895878,-0.04368915781378746
1769667561563253800,6.554253662109375,-0.0007352987886406481,-0.0029356025625020266,-0.04592088609933853
1769667561573242400,6.564242431640625,0.0006578007596544921,-0.001311873085796833,-0.0433964766561985
1769667561583230500,6.57423046875,0.0012245214311406016,-0.003442934714257717,-0.03428740054368973
1769667561593219600,6.584219482421875,0.0023068301379680634,-0.003534547286108136,-0.027999410405755043
1769667561603207700,6.594207763671875,0.002974218223243952,-0.00009853696246864274,-0.019630959257483482
1769667561613196500,6.604196533203125,0.005045358557254076,0.000922519015148282,-0.014878548681735992
1769667561623184400,6.614184326171875,0.004274107050150633,0.005043228156864643,-0.011573831550776958
1769667561633173500,6.624173583984375,0.0017054883064702153,0.005018460564315319,-0.011125887744128704
1769667561643161600,6.63416162109375,0.0030029804911464453,0.00492125516757369,-0.012019910849630833
1769667561653150500,6.644150390625,0.0020988371688872576,0.006976416800171137,-0.011951201595366001
1769667561663138600,6.654138671875,0.001386175281368196,0.009302954189479351,-0.013688648119568825
1769667561673127400,6.66412744140625,-0.00007483482477255166,0.011695005930960178,-0.015742477029561996
1769667561683116500,6.674116455078125,0.000006924218723725062,0.010635866783559322,-0.015807725489139557
1769667561693104400,6.6841044921875,-0.0010524812387302518,0.007026750594377518,-0.01690787635743618
1769667561703093500,6.694093505859375,-0.0009057410643436015,0.008923187851905823,-0.016806410625576973
1769667561713081600,6.70408154296875,0.0006327670416794717,0.007167631760239601,-0.011592740193009377
1769667561723070700,6.71407080078125,0.002912699244916439,0.0031558459158986807,-0.005656820256263018
1769667561733058600,6.72405859375,0.003279150230810046,-0.00038509309524670243,0.0007323693134821951
1769667561743047400,6.73404736328125,0.0038780951872467995,-0.0024580976460129023,0.00205276464112103
1769667561753035500,6.744035400390625,0.002412291243672371,-0.0023089605383574963,0.004345746245235205
1769667561763024600,6.754024658203125,0.004491687286645174,-0.0018096179701387882,0.004163586068898439
1769667561773012700,6.7640126953125,0.003560912562534213,-0.0035116442013531923,0.006126868538558483
1769667561783001300,6.77400146484375,0.004573446698486805,-0.008053665049374104,0.007506918627768755
1769667561792990500,6.783990478515625,0.005298891570419073,-0.026248382404446602,0.009046225808560848
1769667561802978600,6.793978515625,0.004676776938140392,-0.025123728439211845,0.01594407856464386
1769667561812967400,6.803967529296875,0.007544735446572304,-0.021085310727357864,0.027052922174334526
1769667561822955500,6.81395556640625,0.0065202172845602036,-0.023858461529016495,0.03125246241688728
1769667561832944600,6.823944580078125,0.006217415910214186,-0.026219086721539497,0.03020557202398777
1769667561842932500,6.833932373046875,0.007288006599992514,-0.024991368874907494,0.0386885404586792
1769667561852921600,6.843921630859375,0.007024087477475405,-0.029708893969655037,0.04393283650279045
1769667561862909400,6.853909423828125,0.006941795814782381,-0.032940905541181564,0.04441779851913452
1769667561872898600,6.863898681640625,0.007961253635585308,-0.03344158083200455,0.05468295142054558
1769667561882887700,6.8738876953125,0.006019010208547115,-0.03184980899095535,0.060320597141981125
1769667561892875500,6.88387548828125,0.006311958190053701,-0.03357846662402153,0.06649620085954666
1769667561902864400,6.893864501953125,0.008215585723519325,-0.03501231223344803,0.07562285661697388
1769667561912852500,6.9038525390625,0.008038485422730446,-0.03916364908218384,0.08375401794910431
1769667561922841600,6.913841552734375,0.009718673303723335,-0.04247342422604561,0.08662650734186172
1769667561932829700,6.92382958984375,0.009731989353895187,-0.0427330806851387,0.08945318311452866
1769667561942818600,6.933818603515625,0.0092307822778821,-0.046414103358983994,0.0965166836977005
1769667561952806400,6.943806396484375,0.00583791546523571,-0.04777870699763298,0.09970981627702713
1769667561962795500,6.95379541015625,0.0024074974935501814,-0.05666487663984299,0.09640722721815109
1769667561972783600,6.96378369140625,0.002210689941421151,-0.061528339982032776,0.08868992328643799
1769667561982772500,6.9737724609375,0.0031878037843853235,-0.06518778949975967,0.08929286152124405
1769667561992761600,6.98376171875,0.006086654495447874,-0.061417289078235626,0.08244933933019638
1769667562002749400,6.99374951171875,0.00484295841306448,-0.052561476826667786,0.06956363469362259
1769667562012738600,7.003738525390625,0.003978496417403221,-0.04674380272626877,0.06247296556830406
1769667562022726700,7.0137265625,0.003835750976577401,-0.04590490832924843,0.05092150345444679
1769667562032715500,7.023715576171875,0.002083390951156616,-0.04700985178351402,0.042271558195352554
1769667562042703600,7.03370361328125,0.004429901950061321,-0.03904460370540619,0.042446527630090714
1769667562052692500,7.0436923828125,0.004869590047746897,-0.03122076950967312,0.04056713357567787
1769667562062680600,7.0536806640625,0.00618066405877471,-0.024448085576295853,0.0346786193549633
1769667562072669400,7.06366943359375,0.0025803367607295513,-0.010965831577777863,0.03151478245854378
1769667562082658300,7.073658203125,0.002624012529850006,-0.010972223244607449,0.012970127165317535
1769667562092647400,7.0836474609375,-0.0017329188995063305,-0.002139050979167223,-0.009072590619325638
1769667562102636000,7.093635986328125,-0.003269829088822007,-0.000365918327588588,-0.019995013251900673
1769667562112624000,7.1036240234375,-0.004350806120783091,0.0007874967413954437,-0.03290841355919838
1769667562122613200,7.11361328125,-0.018977154046297073,-0.008934106677770615,-0.04536215588450432
1769667562132601300,7.123601318359375,-0.059188488870859146,-0.05590907111763954,-0.014514493755996227
1769667562142590200,7.133590087890625,-0.03867708891630173,-0.10102701187133789,-0.04170217365026474
1769667562152578000,7.143578125,-0.0442337729036808,-0.1388431042432785,-0.0869910940527916
1769667562162567200,7.153567138671875,-0.052387841045856476,-0.18195675313472748,-0.08495324105024338
1769667562172555300,7.16355517578125,-0.09565169364213943,-0.2449125498533249,-0.03328818082809448
1769667562182544100,7.173544189453125,-0.1243232861161232,-0.31722643971443176,-0.033794716000556946
1769667562192532200,7.1835322265625,-0.1515735387802124,-0.45311182737350464,-0.053593721240758896
1769667562202521000,7.19352099609375,-0.1680302768945694,-0.5175662040710449,-0.07480739802122116
1769667562212510200,7.20351025390625,-0.18192346394062042,-0.561210036277771,-0.12098607420921326
1769667562222498300,7.213498291015625,-0.1947319358587265,-0.5475818514823914,-0.1697288453578949
1769667562232487200,7.223487060546875,-0.18951719999313354,-0.5384402871131897,-0.1752581000328064
1769667562242475300,7.233475341796875,-0.15819096565246582,-0.5512285232543945,-0.1700308471918106
1769667562252464400,7.24346435546875,-0.12374351173639297,-0.5936497449874878,-0.12033866345882416
1769667562262452200,7.2534521484375,-0.11341684311628342,-0.5729953646659851,-0.06802325695753098
1769667562272441000,7.263441162109375,-0.11388955265283585,-0.5554792284965515,-0.02124110609292984
1769667562282429200,7.27342919921875,-0.08710774034261703,-0.5563415288925171,0.008701079525053501
1769667562292418300,7.283418212890625,-0.06978600472211838,-0.5482338070869446,0.04664633050560951
1769667562302407200,7.2934072265625,-0.06885682791471481,-0.5454156398773193,0.11528504639863968
1769667562312395000,7.30339501953125,-0.08454710990190506,-0.6489385962486267,0.18320471048355103
1769667562322384100,7.313384033203125,-0.10165286064147949,-0.7526031732559204,0.2515033483505249
1769667562332372200,7.323372314453125,-0.1130373403429985,-0.8017246723175049,0.3226925730705261
1769667562342361000,7.333361083984375,-0.1090649664402008,-0.9079078435897827,0.4177421033382416
1769667562352349200,7.34334912109375,-0.20204390585422516,-0.9587864279747009,0.5047041773796082
1769667562362338300,7.35333837890625,-0.25166019797325134,-0.9945172667503357,0.5916566252708435
1769667562372326100,7.363326171875,-0.19104692339897156,-1.0622904300689697,0.6226800680160522
1769667562382315300,7.373315185546875,-0.133853942155838,-1.0750401020050049,0.5969760417938232
1769667562392303000,7.38330322265625,-0.0920495018362999,-0.9375799894332886,0.5611107349395752
1769667562402292200,7.393292236328125,-0.057191651314496994,-0.7241917848587036,0.5188990831375122
1769667562412281300,7.40328125,-0.00743288267403841,-0.45421063899993896,0.42552387714385986
1769667562422269200,7.413269287109375,0.020715398713946342,-0.1871243566274643,0.25727173686027527
1769667562432258000,7.423258056640625,-0.011395665816962719,0.06272969394922256,0.0911024808883667
1769667562442246100,7.43324609375,-0.028121383860707283,0.10490883886814117,0.0038663772866129875
1769667562452235300,7.4432353515625,0.031806666404008865,0.21512934565544128,0.0392930768430233
1769667562462223400,7.453223388671875,0.024510402232408524,0.41025570034980774,0.07763461023569107
1769667562472212000,7.4632119140625,-0.043529633432626724,0.5275905728340149,0.09570682048797607
1769667562482200000,7.473199951171875,-0.104193776845932,0.526684582233429,0.1560463309288025
1769667562492189200,7.483189208984375,-0.15959446132183075,0.38846147060394287,0.22596095502376556
1769667562502178300,7.49317822265625,-0.2339019775390625,0.12051495909690857,0.2625349462032318
1769667562512166100,7.503166259765625,-0.2492111623287201,-0.24720099568367004,0.27105066180229187
1769667562522155300,7.5131552734375,-0.20912791788578033,-0.5861098170280457,0.21351706981658936
1769667562532143000,7.52314306640625,-0.16827715933322906,-0.7932243943214417,0.11092279106378555
1769667562542132200,7.53313232421875,-0.10315781086683273,-0.6880979537963867,0.05752561241388321
1769667562552120300,7.543120361328125,-0.05384938418865204,-0.43614667654037476,0.07241906970739365
1769667562562109200,7.553109130859375,-0.0471869520843029,-0.26108619570732117,0.17533479630947113
1769667562572097300,7.56309716796875,-0.08616285026073456,-0.09440186619758606,0.20493370294570923
1769667562582086100,7.573086181640625,-0.11159790307283401,0.12301061302423477,0.184048131108284
1769667562592074200,7.58307421875,-0.14738918840885162,0.18514668941497803,0.09837503731250763
1769667562602063000,7.59306298828125,-0.1949242204427719,-0.0368696004152298,-0.0256893839687109
1769667562612052200,7.60305224609375,-0.28137707710266113,-0.2702144384384155,-0.09071552008390427
1769667562622040300,7.613040283203125,-0.3132719099521637,-0.46743297576904297,-0.10570832341909409
1769667562632029200,7.623029296875,-0.33462512493133545,-0.6183590888977051,-0.16990354657173157
1769667562642017000,7.63301708984375,-0.24514663219451904,-0.7997198104858398,-0.2013738602399826
1769667562652006100,7.643006103515625,-0.22888964414596558,-0.5366343855857849,-0.10108906775712967
1769667562661994200,7.652994140625,-0.26384788751602173,-0.09394779801368713,-0.41346001625061035
1769667562671983400,7.6629833984375,-0.15082839131355286,0.17996257543563843,-0.6891952157020569
1769667562681971200,7.67297119140625,0.04051067307591438,0.40994277596473694,-0.7601718902587891
1769667562691960000,7.6829599609375,0.1450440138578415,0.669170618057251,-0.7901396751403809
1769667562701949200,7.69294921875,0.13735413551330566,0.8569170832633972,-0.70816570520401
1769667562711937300,7.702937255859375,0.06954579055309296,0.8071396946907043,-0.4879222810268402
1769667562721926100,7.712926025390625,-0.0015933692920953035,0.5070035457611084,-0.4228157103061676
1769667562731914200,7.722914306640625,0.01013971958309412,0.5432635545730591,-0.36474815011024475
1769667562741903400,7.7329033203125,-0.01293523982167244,0.7170534729957581,-0.13095828890800476
1769667562751891200,7.74289111328125,-0.03560832887887955,0.9785827994346619,-0.15976649522781372
1769667562761880000,7.752880126953125,0.04796352982521057,1.0728172063827515,-0.35873526334762573
1769667562771868200,7.7628681640625,0.1424064189195633,1.3277043104171753,-0.45320263504981995
1769667562781857300,7.772857177734375,0.14438433945178986,1.8203699588775635,-0.31708794832229614
1769667562791846400,7.782846435546875,0.19263629615306854,1.8588299751281738,-0.40408650040626526
1769667562801834000,7.792833984375,0.20638778805732727,1.5374151468276978,-0.4615636169910431
1769667562811823000,7.802822998046875,0.20846372842788696,1.2385424375534058,-0.2319141924381256
1769667562821811200,7.812811279296875,0.16865666210651398,1.4746007919311523,0.2501877248287201
1769667562831800300,7.82280029296875,0.10716985911130905,1.137337327003479,0.27932459115982056
1769667562841788400,7.832788330078125,0.0023366576060652733,0.9345484972000122,0.09746956825256348
1769667562851777000,7.842777099609375,-0.03976046293973923,0.6696244478225708,-0.16418787837028503
1769667562861765000,7.85276513671875,-0.05579322576522827,0.48883306980133057,-0.32633736729621887
1769667562871754200,7.862754150390625,-0.027787955477833748,0.3000953793525696,-0.2802601456642151
1769667562881743000,7.8727431640625,-0.037758298218250275,0.2044157236814499,-0.12865358591079712
1769667562891731200,7.882731201171875,-0.041427865624427795,0.15563806891441345,-0.07050479203462601
1769667562901720300,7.89272021484375,-0.017549432814121246,0.03152676671743393,-0.05874986574053764
1769667562911708200,7.902708251953125,-0.01281379908323288,-0.02363795042037964,-0.023994814604520798
1769667562921697000,7.912697021484375,-0.006423810962587595,0.002567553659901023,0.0013946974650025368
1769667562931685000,7.92268505859375,-0.000693220819812268,-0.0033750240691006184,0.014546452090144157
1769667562941674200,7.93267431640625,0.007391603663563728,0.014068680815398693,0.015026086941361427
1769667562951662300,7.942662353515625,0.009274724870920181,-0.006299707572907209,0.033853571861982346
1769667562961651200,7.952651123046875,0.012409531511366367,-0.0473661832511425,0.04909057915210724
1769667562971640000,7.96264013671875,0.014337394386529922,-0.09265270829200745,0.06095975637435913
1769667562981628200,7.972628173828125,0.009594304487109184,-0.10329975932836533,0.06528659164905548
1769667562991617300,7.9826171875,0.009829727932810783,-0.1032739207148552,0.06577688455581665
1769667563001605400,7.99260546875,0.007404386531561613,-0.09278266876935959,0.06718409806489944
1769667563011594200,8.00259423828125,0.008241684176027775,-0.08336306363344193,0.07166273146867752
1769667563021582000,8.01258203125,0.010868893004953861,-0.07517065107822418,0.06998840719461441
1769667563031571200,8.0225712890625,0.012227904051542282,-0.08765288442373276,0.06699581444263458
1769667563041559300,8.032559326171874,0.01356507744640112,-0.09111446142196655,0.06271903961896896
1769667563051548200,8.042548095703125,0.012926450930535793,-0.09099994599819183,0.05919328331947327
1769667563061537300,8.052537353515625,0.013888385146856308,-0.08677857369184494,0.05156412348151207
1769667563071525000,8.062525146484376,0.013010873459279537,-0.07945673912763596,0.043718185275793076
1769667563081514000,8.072513916015625,0.012505139224231243,-0.0691087618470192,0.03599927946925163
1769667563091501800,8.082501708984376,0.011120561510324478,-0.0751757100224495,0.027036145329475403
1769667563101490700,8.09249072265625,0.010848918929696083,-0.06973860412836075,0.019299129024147987
1769667563111478800,8.102478759765624,0.007689611054956913,-0.06202022731304169,0.019932694733142853
1769667563121468000,8.112468017578125,0.008371912874281406,-0.06744162738323212,0.02292635478079319
1769667563131455700,8.122455810546874,0.00998978316783905,-0.06583546847105026,0.02262435294687748
1769667563141444600,8.132444580078126,0.009601760655641556,-0.0599789135158062,0.020546287298202515
1769667563151433700,8.142433837890625,0.008684834465384483,-0.04522792994976044,0.015675099566578865
1769667563161421800,8.152421875,0.008503473363816738,-0.022404374554753304,0.013726198114454746
1769667563171410700,8.16241064453125,0.0067575047723948956,-0.012081430293619633,0.010614560917019844
1769667563181398800,8.172398681640624,0.0060110208578407764,-0.009109076112508774,0.003683151677250862
1769667563191388000,8.182387939453125,0.004018709994852543,-0.0068152956664562225,-0.0000125168571685208
1769667563201375700,8.192375732421874,0.002454102970659733,-0.006806507240980864,-0.001995772821828723
1769667563211364900,8.20236474609375,0.0019081549253314734,-0.0005584649043157697,0.0009177253232337534
1769667563221352700,8.212352783203125,0.0019824570044875145,0.008668323047459126,0.0023435817565768957
1769667563231341800,8.222341796875,-0.001181378262117505,0.021762553602457047,0.00492125516757369
1769667563241331000,8.2323310546875,-0.005126318894326687,0.028976257890462875,-0.0008684568456374109
1769667563251318800,8.24231884765625,-0.005889314226806164,0.030367759987711906,-0.0032471923623234034
1769667563261307600,8.2523076171875,-0.006384129635989666,0.037579864263534546,-0.004866394214332104
1769667563271295700,8.262295654296874,-0.008416121825575829,0.05290662497282028,-0.002669286448508501
1769667563281284900,8.272284912109376,-0.010522682219743729,0.06602455675601959,-0.0013193299528211355
1769667563291273000,8.28227294921875,-0.011388742364943027,0.08137448132038116,-0.005878661759197712
1769667563301261600,8.292261474609376,-0.012517389841377735,0.09841285645961761,-0.005588643718510866
1769667563311249700,8.302249755859375,-0.011717376299202442,0.10062301158905029,0.001273257308639586
1769667563321238800,8.31223876953125,-0.014141119085252285,0.08344189822673798,-0.0021406488958746195
1769667563331228000,8.322227783203125,-0.012531504034996033,0.07193917036056519,-0.0023869911674410105
1769667563341215700,8.3322158203125,-0.012751215137541294,0.06667117029428482,0.0035712989047169685
1769667563351204900,8.342204833984376,-0.012307798489928246,0.047872450202703476,0.005138036794960499
1769667563361192700,8.352192626953125,-0.013557353988289833,0.05007408559322357,0.003317766124382615
1769667563371181800,8.362181884765626,-0.008433432318270206,0.04567161574959755,0.00694871973246336
1769667563381170000,8.372169921875,-0.008083758875727654,0.04117779806256294,0.014533668756484985
1769667563391158800,8.38215869140625,-0.007556986063718796,0.04326092079281807,0.017105218023061752
1769667563401147000,8.39214697265625,-0.005073055624961853,0.041196439415216446,0.02695917896926403
1769667563411135700,8.4021357421875,-0.0036035231314599514,0.04294906556606293,0.03822515159845352
1769667563421124600,8.41212451171875,-0.002656769473105669,0.06034403294324875,0.040939975529909134
1769667563431112700,8.42211279296875,-0.003829625668004155,0.06065535917878151,0.04436666518449783
1769667563441101800,8.432101806640626,-0.0031609057914465666,0.061522483825683594,0.04464816302061081
1769667563451090000,8.44208984375,-0.00315957423299551,0.04464656487107277,0.04681810364127159
1769667563461078800,8.452078857421874,-0.004748948849737644,0.03274969011545181,0.04620451480150223
1769667563471066600,8.462066650390625,-0.0026043052785098553,0.021704230457544327,0.05318918451666832
1769667563481055700,8.4720556640625,0.001076982356607914,0.01468600146472454,0.05540173873305321
1769667563491043800,8.4820439453125,0.0002950782363768667,0.012255334295332432,0.055701080709695816
1769667563501032700,8.49203271484375,0.0005219795857556164,0.007423295173794031,0.053045373409986496
1769667563511020500,8.5020205078125,0.002965696156024933,0.0020839234348386526,0.05065092816948891
1769667563521009700,8.512009765625,0.00310577847994864,0.0003480751474853605,0.048233043402433395
1769667563530998800,8.521998779296876,0.006311159115284681,-0.009576461277902126,0.05236360430717468
1769667563540987000,8.53198681640625,0.005140966270118952,-0.013786652125418186,0.05004612356424332
1769667563550975700,8.541975830078124,0.006360161118209362,-0.018671421334147453,0.04808976501226425
1769667563560963800,8.5519638671875,0.0038480013608932495,-0.010729609988629818,0.04423137754201889
1769667563570953000,8.561952880859375,0.002825880190357566,-0.006903978530317545,0.04567134752869606
1769667563580940800,8.57194091796875,0.0032418658956885338,-0.003918042406439781,0.04784448817372322
1769667563590929700,8.5819296875,0.004457865376025438,-0.004584099166095257,0.05516338720917702
1769667563600918800,8.591918701171876,0.0037414750549942255,0.0015654060989618301,0.05765584111213684
1769667563610907000,8.601906982421875,0.0035928706638514996,0.0029585056472569704,0.059475045651197433
1769667563620895700,8.611895751953124,0.0041334922425448895,0.0008085357258096337,0.05804439261555672
1769667563630883600,8.621883544921875,0.0033654365688562393,0.0025619608350098133,0.05687633156776428
1769667563640872700,8.631872802734375,0.0023156185634434223,0.005751096177846193,0.054972968995571136
1769667563650860800,8.64186083984375,0.001913481275551021,0.008039018139243126,0.04952973499894142
1769667563660850000,8.651849853515625,0.0015393070643767715,0.01022973470389843,0.04863224923610687
1769667563670837800,8.661837646484376,-0.0007550061563961208,0.01561358105391264,0.047863930463790894
1769667563680826600,8.67182666015625,0.0015635418239980936,0.018914302811026573,0.04331711307168007
1769667563690815700,8.681815673828124,0.0011749867117032409,0.021440310403704643,0.04240870848298073
1769667563700803800,8.691803955078125,-0.0008040083339437842,0.02684945799410343,0.03502855822443962
1769667563710792700,8.701792724609374,-0.0021781993564218283,0.029337648302316666,0.035473305732011795
1769667563720780800,8.71178076171875,-0.0022503710351884365,0.025851303711533546,0.03272359073162079
1769667563730770000,8.72177001953125,-0.0006135923322290182,0.017708156257867813,0.028059864416718483
1769667563740757800,8.7317578125,-0.0006748450105078518,0.027273166924715042,0.022491194307804108
1769667563750746600,8.74174658203125,-0.001987783471122384,0.029700370505452156,0.02130209282040596
1769667563760734700,8.751734619140626,-0.0027395938523113728,0.03744404390454292,0.01623809151351452
1769667563770723800,8.761723876953125,-0.0038091193418949842,0.043651871383190155,0.019157182425260544
1769667563780713000,8.771712890625,-0.004303668159991503,0.04278634488582611,0.019598469138145447
1769667563790700800,8.78170068359375,-0.0034847462084144354,0.04061853140592575,0.007270163390785456
1769667563800689700,8.791689697265625,-0.0029443909879773855,0.03832182288169861,-0.0008777778712101281
1769667563810677800,8.801677734375,-0.0037699707318097353,0.0456220805644989,-0.005244030617177486
1769667563820667000,8.8116669921875,-0.004778243601322174,0.04710013419389725,-0.005901831202208996
1769667563830655000,8.821655029296876,-0.004531368613243103,0.04771106317639351,-0.006959639023989439
1769667563840643800,8.831643798828125,-0.003935352899134159,0.04471394047141075,-0.010536530055105686
1769667563850631700,8.841631591796874,-0.0062432484701275826,0.04274400323629379,-0.013069462962448597
1769667563860620800,8.851620849609375,-0.006028331350535154,0.04428810253739357,-0.014392254874110222
1769667563870609700,8.861609619140625,-0.008384163491427898,0.04581009969115257,-0.016815464943647385
1769667563880597800,8.87159765625,-0.009403355419635773,0.046536341309547424,-0.017077786847949028
1769667563890587000,8.8815869140625,-0.009546367451548576,0.05530320107936859,-0.011651862412691116
1769667563900574700,8.89157470703125,-0.011513910256326199,0.060568537563085556,-0.015971509739756584
1769667563910563600,8.9015634765625,-0.012972258031368256,0.06558433920145035,-0.016096943989396095
1769667563920551700,8.9115517578125,-0.01326653640717268,0.06257975846529007,-0.0215966384857893
1769667563930540800,8.921540771484375,-0.014621553011238575,0.05848461389541626,-0.028303809463977814
1769667563940529000,8.93152880859375,-0.020127905532717705,0.06361066550016403,-0.029153624549508095
1769667563950518000,8.94151806640625,-0.02052125334739685,0.06626344472169876,-0.03032861091196537
1769667563960506600,8.951506591796875,-0.019659189507365227,0.05764864757657051,-0.03365330025553703
1769667563970494700,8.96149462890625,-0.02094123512506485,0.05764012783765793,-0.04049256443977356
1769667563980483800,8.97148388671875,-0.019061308354139328,0.048561941832304,-0.04015541076660156
1769667563990472000,8.981471923828124,-0.017375795170664787,0.04357011243700981,-0.04495815187692642
1769667564000460800,8.991460693359375,-0.01871935836970806,0.03977617621421814,-0.04730359837412834
1769667564010448600,9.00144873046875,-0.018427209928631783,0.04104410484433174,-0.046070024371147156
1769667564020437800,9.011437744140625,-0.022225411608815193,0.039866454899311066,-0.058649465441703796
1769667564030425900,9.02142578125,-0.019350262358784676,0.03116937167942524,-0.054305583238601685
1769667564040414700,9.031414794921876,-0.020253872498869896,0.03666054084897041,-0.06348975747823715
1769667564050403800,9.04140380859375,-0.022486133500933647,0.04561808332800865,-0.06531109660863876
1769667564060391700,9.0513916015625,-0.021190239116549492,0.055637162178754807,-0.06972555071115494
1769667564070380800,9.061380859375,-0.023683225736021996,0.07022596150636673,-0.07490459829568863
1769667564080368600,9.07136865234375,-0.024811873212456703,0.0728427842259407,-0.07132770866155624
1769667564090357500,9.081357421875,-0.023390278220176697,0.07422895729541779,-0.07544974982738495
1769667564100345600,9.091345703125,-0.025044633075594902,0.06290652602910995,-0.08595512062311172
1769667564110334700,9.101334716796876,-0.02388882078230381,0.0685574859380722,-0.0844043642282486
1769667564120322600,9.111322509765625,-0.024996696040034294,0.06628154963254929,-0.08861295878887177
1769667564130311400,9.1213115234375,-0.027383953332901,0.06600937992334366,-0.09278959035873413
1769667564140300500,9.131300537109375,-0.024352744221687317,0.061527542769908905,-0.09224124997854233
1769667564150288600,9.14128857421875,-0.024285897612571716,0.04297356680035591,-0.09335524588823318
1769667564160277500,9.151277587890625,-0.025242771953344345,0.0448436364531517,-0.09994630515575409
1769667564170265600,9.161265625,-0.025667013600468636,0.03461923077702522,-0.10227257758378983
1769667564180254500,9.17125439453125,-0.026403112336993217,0.03652045875787735,-0.09222579747438431
1769667564190242600,9.18124267578125,-0.022880282253026962,0.03337952867150307,-0.07899095863103867
1769667564200231700,9.191231689453126,-0.0214735995978117,0.03669729456305504,-0.07206833362579346
1769667564210219500,9.201219482421875,-0.01902296021580696,0.03823287412524223,-0.06931143254041672
1769667564220208600,9.211208740234374,-0.01588788628578186,0.03304370492696762,-0.05878714844584465
1769667564230197800,9.22119775390625,-0.015438344329595566,0.03123967908322811,-0.05120725929737091
1769667564240185600,9.231185546875,-0.01708231493830681,0.03358911722898483,-0.046835947781801224
1769667564250174500,9.241174560546876,-0.014052435755729675,0.03838520497083664,-0.04199884831905365
1769667564260162600,9.25116259765625,-0.01449665054678917,0.035642948001623154,-0.035720180720090866
1769667564270151700,9.261151611328126,-0.012239355593919754,0.03205860033631325,-0.03045777417719364
1769667564280139800,9.271139892578125,-0.009407349862158298,0.0289448332041502,-0.024082167074084282
1769667564290128400,9.28112841796875,-0.008352472446858883,0.015751799568533897,-0.027238279581069946
1769667564300116500,9.291116455078125,-0.007299458142369986,0.013903564773499966,-0.024042485281825066
1769667564310105600,9.301105712890624,-0.004296477884054184,0.004708468914031982,-0.022304240614175797
1769667564320094500,9.311094482421876,-0.0038402783684432507,-0.0020000338554382324,-0.01968182623386383
1769667564330082600,9.32108251953125,-0.002788329729810357,-0.009282181970775127,-0.01449718326330185
1769667564340071700,9.33107177734375,0.0006815029191784561,-0.015481221489608288,-0.00806112214922905
1769667564350059500,9.3410595703125,0.002061819192022085,-0.01619015447795391,-0.002243979601189494
1769667564360048600,9.351048583984374,0.005453621037304401,-0.012922190129756927,0.0052323127165436745
1769667564370036500,9.361036376953125,0.004378236830234528,-0.006394782569259405,0.00962972454726696
1769667564380025600,9.371025634765624,0.00628905463963747,-0.0010902981739491224,0.013095029629766941
1769667564390013400,9.381013427734375,0.007471498567610979,-0.004313255660235882,0.013609551824629307
1769667564400002600,9.39100244140625,0.007222759071737528,-0.00316063966602087,0.012412727810442448
1769667564409991400,9.400991455078126,0.003966245800256729,0.0016503608785569668,0.010445716790854931
1769667564419979500,9.4109794921875,0.0037910097744315863,0.0018050905782729387,0.011480354703962803
1769667564429968600,9.42096875,0.0027023095171898603,-0.00751996785402298,0.01002280693501234
1769667564439956700,9.430956787109375,0.0025326660834252834,-0.010456369258463383,0.004704740364104509
1769667564449945600,9.440945556640624,0.003210174385458231,-0.012939234264194965,0.0027366643771529198
1769667564459933400,9.450933349609375,0.003209908027201891,-0.012830844148993492,-0.0031220237724483013
1769667564469922600,9.460922607421875,0.003296194365248084,-0.012154134921729565,-0.006176136899739504
1769667564479911700,9.47091162109375,0.003980360459536314,-0.011389275081455708,-0.006077333353459835
1769667564489899500,9.4808994140625,0.0043870252557098866,-0.0112209627404809,-0.006054962985217571
1769667564499888600,9.490888671875,0.00504109775647521,-0.011724832467734814,-0.006997455842792988
1769667564509876500,9.50087646484375,0.003949734382331371,-0.014675881713628769,-0.0070280819199979305
1769667564519865600,9.510865478515624,0.004985969979315996,-0.017560884356498718,-0.00788348913192749
1769667564529853700,9.520853759765625,0.004298608284443617,-0.021792113780975342,-0.00999031588435173
1769667564539842600,9.530842529296875,0.005830991081893444,-0.02286030910909176,-0.01158741395920515
1769667564549830700,9.54083056640625,0.002974750939756632,-0.02418150193989277,-0.012854546308517456
1769667564559819500,9.550819580078125,0.004494616761803627,-0.024571388959884644,-0.014097709208726883
1769667564569808400,9.560808349609376,0.0036645096261054277,-0.025666480883955956,-0.013785320334136486
1769667564579796500,9.57079638671875,0.004171042703092098,-0.02755386382341385,-0.014659903012216091
1769667564589785600,9.58078564453125,0.0037875475827604532,-0.03208177164196968,-0.011729893274605274
1769667564599773700,9.590773681640625,0.00478383619338274,-0.03603656217455864,-0.007703193463385105
1769667564609762600,9.600762451171875,0.004553472623229027,-0.034923896193504333,-0.0060325926169753075
1769667564619750400,9.61075048828125,0.00561048137024045,-0.03656600043177605,-0.003314037574455142
1769667564629739500,9.620739501953125,0.005936718545854092,-0.03955060616135597,-0.0018671422731131315
1769667564639727600,9.6307275390625,0.00723634148016572,-0.04133705422282219,-0.000752875639591366
1769667564649716700,9.640716796875,0.006580670829862356,-0.0453653521835804,-0.0007757788407616317
1769667564659705600,9.65070556640625,0.007528489921241999,-0.03683391585946083,0.0012229235144332051
1769667564669693400,9.660693359375,0.005633917171508074,-0.02936294861137867,0.006922887172549963
1769667564679682600,9.6706826171875,0.005363340023905039,-0.028870530426502228,0.007652326952666044
1769667564689670700,9.680670654296875,0.005742307752370834,-0.029219137504696846,0.006924218963831663
1769667564699659500,9.690659423828125,0.006680539343506098,-0.027391677722334862,0.009215069934725761
1769667564709647600,9.700647705078126,0.0038930089212954044,-0.019289541989564896,0.013794641941785812
1769667564719636700,9.71063671875,0.007983624003827572,-0.02124776504933834,0.015743009746074677
1769667564729625300,9.720625244140624,0.005343632772564888,-0.02346884086728096,0.01931111328303814
1769667564739613400,9.730613525390625,0.005468534771353006,-0.022910108789801598,0.02190609835088253
1769667564749602600,9.7406025390625,0.007130347657948732,-0.02280757762491703,0.02485874481499195
1769667564759590700,9.750590576171875,0.006401706486940384,-0.019184613600373268,0.03050837479531765
1769667564769579800,9.760579833984375,0.0101415840908885,-0.018814433366060257,0.033374201506376266
1769667564779567400,9.7705673828125,0.009820672683417797,-0.020130569115281105,0.03257125988602638
1769667564789556500,9.780556396484375,0.009752496145665646,-0.019273828715085983,0.03353452309966087
1769667564799544600,9.790544677734376,0.007339139468967915,-0.022249910980463028,0.03539767116308212
1769667564809533700,9.80053369140625,0.006842725910246372,-0.021274928003549576,0.038707979023456573
1769667564819522600,9.8105224609375,0.007168963085860014,-0.019540945068001747,0.04530702903866768
1769667564829510700,9.8205107421875,0.008725314401090145,-0.02263287454843521,0.04976728931069374
1769667564839499500,9.83049951171875,0.00884968414902687,-0.029278792440891266,0.04868924245238304
1769667564849487600,9.840487548828126,0.0075426045805215836,-0.030787739902734756,0.05337560549378395
1769667564859476500,9.8504765625,0.007306648883968592,-0.031262580305337906,0.06306765228509903
1769667564869464600,9.860464599609376,0.00863157119601965,-0.030000776052474976,0.06677503883838654
1769667564879453700,9.87045361328125,0.00737296137958765,-0.030941937118768692,0.07065393030643463
1769667564889441500,9.880441650390624,0.009345032274723053,-0.03540193289518356,0.07334025949239731
1769667564899430400,9.890430419921875,0.00917565543204546,-0.03782567381858826,0.06694094836711884
1769667564909419500,9.90041943359375,0.007209709845483303,-0.035058919340372086,0.06752258539199829
1769667564919407600,9.91040771484375,0.005197425372898579,-0.03205274045467377,0.07106885313987732
1769667564929396700,9.920396728515625,0.00629065278917551,-0.03453667089343071,0.06785041838884354
1769667564939384600,9.930384521484376,0.007157245185226202,-0.03133954852819443,0.06197229027748108
1769667564949373400,9.94037353515625,0.0067995828576385975,-0.024472320452332497,0.065425343811512
1769667564959361500,9.950361572265624,0.005592371802777052,-0.016343286260962486,0.06261171400547028
1769667564969350700,9.9603505859375,0.006367085501551628,-0.016576578840613365,0.05717993155121803
1769667564979338800,9.9703388671875,0.00523683987557888,-0.010872354730963707,0.04779335483908653
1769667564989327600,9.98032763671875,0.007224889472126961,-0.008081895299255848,0.04614592343568802
1769667564999316500,9.99031640625,0.009766610339283943,-0.008871788159012794,0.03726214915513992
1769667565009304600,10.0003046875,0.007601194549351931,-0.013036706484854221,0.032457541674375534
1769667565019293400,10.01029345703125,0.00806325301527977,-0.01028859056532383,0.02852644957602024
1769667565029281500,10.020281494140624,0.010554106906056404,-0.009219863452017307,0.02148185670375824
1769667565039270700,10.030270751953125,0.011991148814558983,-0.014707307331264019,0.009514675475656986
1769667565049258500,10.040258544921874,0.010134659707546234,-0.018871957436203957,-0.001341434195637703
1769667565059247600,10.05024755859375,0.010371414013206959,-0.032940372824668884,-0.014237791299819946
1769667565069235500,10.0602353515625,0.0029819414485245943,-0.04171069338917732,-0.035114310681819916
1769667565079224600,10.070224609375,-0.0036511938087642193,-0.05329518020153046,-0.053090114146471024
1769667565089214000,10.0802138671875,-0.007139934692531824,-0.06719981133937836,-0.06486581265926361
1769667565099201800,10.090201904296874,-0.018628278747200966,-0.07504335045814514,-0.07602286338806152
1769667565109191000,10.10019091796875,-0.03171105682849884,-0.09104708582162857,-0.09476352483034134
1769667565119179000,10.110178955078124,-0.05558043718338013,-0.10486249625682831,-0.10396634787321091
1769667565129168000,10.12016796875,-0.16150261461734772,-0.18562312424182892,-0.01512861903756857
1769667565139156000,10.130156005859375,-0.28347617387771606,-0.24843457341194153,0.09955988079309464
1769667565149144800,10.140144775390626,-0.3870084285736084,-0.32352373003959656,0.1683911383152008
1769667565159133000,10.1501328125,-0.4492901861667633,-0.44510263204574585,0.17590898275375366
1769667565169122000,10.1601220703125,-0.5377427935600281,-0.659238338470459,0.18127179145812988
1769667565179111000,10.17011083984375,-0.6173433661460876,-0.9079129099845886,0.19686219096183777
1769667565189098800,10.1800986328125,-0.6456692814826965,-1.105082392692566,0.06490869075059891
1769667565199087900,10.190087890625,-0.6386268138885498,-1.3729583024978638,0.040892839431762695
1769667565209076000,10.200075927734375,-0.6197381019592285,-1.5100905895233154,0.06711192429065704
1769667565219064800,10.21006494140625,-0.43861809372901917,-1.5700035095214844,0.020139357075095177
1769667565229053000,10.220052978515625,-0.19565391540527344,-1.4277395009994507,0.01955639012157917
1769667565239041800,10.230041748046874,-0.05258145183324814,-1.22732412815094,0.10621645301580429
1769667565249031000,10.240031005859375,0.0692235454916954,-1.0692436695098877,0.2207329124212265
1769667565259019000,10.25001904296875,0.08003731071949005,-0.9535986185073853,0.3396523594856262
1769667565269008000,10.2600078125,0.03404425457119942,-0.9872580170631409,0.4200122058391571
1769667565278996000,10.269995849609375,-0.016281235963106155,-1.0474827289581299,0.4830012917518616
1769667565288985000,10.279985107421876,-0.07369126379489899,-0.9518800973892212,0.5234315395355225
1769667565298973000,10.289972900390625,-0.13132792711257935,-0.803063690662384,0.5483241081237793
1769667565308961800,10.2999619140625,-0.16155986487865448,-0.5931448340415955,0.5309544205665588
1769667565318950000,10.309949951171875,-0.17192116379737854,-0.4348214864730835,0.5413793921470642
1769667565328939000,10.31993896484375,-0.1868084967136383,-0.3364294171333313,0.5417168140411377
1769667565338927900,10.329927978515625,-0.22248420119285583,-0.23888768255710602,0.6042739152908325
1769667565348915700,10.339915771484375,-0.2491203397512436,-0.10763564705848694,0.7150542140007019
1769667565358904800,10.34990478515625,-0.2827582061290741,0.033425334841012955,0.749870240688324
1769667565368893000,10.359892822265625,-0.2696368098258972,0.13640257716178894,0.7288222312927246
1769667565378882000,10.369882080078124,-0.24583639204502106,0.1350393146276474,0.6477633118629456
1769667565388870000,10.379869873046875,-0.19377878308296204,0.056706156581640244,0.44929471611976624
1769667565398858800,10.389858642578124,-0.1598072350025177,-0.012952550314366817,0.31063830852508545
1769667565408846800,10.399846923828125,-0.19176064431667328,-0.1326531171798706,0.2887175381183624
1769667565418836000,10.4098359375,-0.24008609354496002,-0.4652547836303711,0.28499338030815125
1769667565428824800,10.419824951171876,-0.25780677795410156,-0.7531371712684631,0.25230973958969116
1769667565438813000,10.42981298828125,-0.2608632743358612,-0.8357425332069397,0.1795223504304886
1769667565448802000,10.439802001953124,-0.2506442070007324,-0.569044291973114,0.11589890718460083
1769667565458790000,10.449789794921875,-0.2282552719116211,-0.18139056861400604,0.030252976343035698
1769667565468778800,10.45977880859375,-0.15683569014072418,0.1446021944284439,-0.12761229276657104
1769667565478766800,10.469766845703125,-0.029508624225854874,0.1871379315853119,-0.3093213737010956
1769667565488756000,10.479755859375,0.09592972695827484,0.15156875550746918,-0.3151070773601532
1769667565498745000,10.4897451171875,0.09054721146821976,0.15597468614578247,-0.17472387850284576
1769667565508732700,10.499732666015625,-0.02165762521326542,0.046435143798589706,-0.08957915008068085
1769667565518721800,10.5097216796875,-0.08666325360536575,-0.2318156510591507,-0.024956481531262398
1769667565528710000,10.5197099609375,-0.13206268846988678,-0.2736794948577881,-0.04445614665746689
1769667565538699000,10.529698974609374,-0.15609265863895416,-0.2061465084552765,-0.12096530199050903
1769667565548687000,10.53968701171875,-0.09280690550804138,0.32946524024009705,-0.49035266041755676
1769667565558676000,10.549676025390625,0.11106100678443909,0.9311494827270508,-0.8124744892120361
1769667565568663800,10.559663818359375,0.21163715422153473,1.038425326347351,-0.8603264689445496
1769667565578653000,10.56965283203125,0.16627153754234314,0.8500442504882812,-0.721094012260437
1769667565588641800,10.579641845703126,0.11280857026576996,0.47350844740867615,-0.5652506351470947
1769667565598630000,10.5896298828125,0.07493948936462402,0.2600856423377991,-0.455215185880661
1769667565608619000,10.599618896484374,-0.025462748482823372,0.43120890855789185,-0.37241804599761963
1769667565618606800,10.60960693359375,-0.11060027778148651,0.30784279108047485,-0.515470564365387
1769667565628595700,10.619595703125,-0.12178635597229004,0.032214660197496414,-0.6889304518699646
1769667565638583800,10.629583740234375,-0.08794663101434708,0.3356778621673584,-0.6962528228759766
1769667565648573000,10.639572998046875,-0.10749956220388412,0.30807819962501526,-0.31793323159217834
1769667565658562000,10.64956201171875,-0.03706001862883568,0.8790199756622314,-0.7546969652175903
1769667565668550000,10.6595498046875,0.07731796056032181,1.7464109659194946,-1.340347409248352
1769667565678538800,10.669538818359374,0.05048101767897606,1.8042654991149902,-1.206238031387329
1769667565688526800,10.67952685546875,-0.045710232108831406,1.5411207675933838,-0.863655149936676
1769667565698516000,10.689515869140624,-0.13504543900489807,1.1308972835540771,-0.6107549667358398
1769667565708504000,10.699504150390625,-0.21499086916446686,1.1093538999557495,-0.2856956720352173
1769667565718493000,10.709492919921875,-0.18258126080036163,1.088113784790039,-0.07439487427473068
1769667565728480800,10.719480712890626,-0.0913565456867218,0.9945207238197327,-0.033906299620866776
1769667565738470000,10.729469970703125,-0.06256857514381409,0.8461264967918396,0.035170502960681915
1769667565748458800,10.739458740234374,-0.046838611364364624,0.5363233685493469,0.016750751063227654
1769667565758446800,10.74944677734375,-0.03548635542392731,0.38035133481025696,-0.06594226509332657
1769667565768436000,10.75943603515625,0.006836600601673126,0.2672383487224579,-0.16824519634246826
1769667565778423800,10.769423828125,0.001585912425071001,0.09690284729003906,-0.09011124819517136
1769667565788413000,10.779412841796875,-0.014844992198050022,0.04300498962402344,0.008325573988258839
1769667565798400800,10.78940087890625,-0.014534201472997665,0.0018514295807108283,0.015900136902928352
1769667565808390000,10.799389892578125,-0.0056983656249940395,-0.052373457700014114,-0.014296647161245346
1769667565818378000,10.8093779296875,-0.00541260838508606,-0.07673019915819168,0.015800001099705696
1769667565828367000,10.8193671875,-0.0007171892793849111,-0.0757160633802414,0.050637610256671906
1769667565838356000,10.82935595703125,0.0011646003695204854,-0.07987352460622787,0.05607205629348755
1769667565848343800,10.83934375,0.003981692250818014,-0.06669247895479202,0.06271318346261978
1769667565858333000,10.8493330078125,0.010436128824949265,-0.051718056201934814,0.07910600304603577
1769667565868321000,10.859321044921876,0.014480671845376492,-0.0493403859436512,0.08923880010843277
1769667565878310000,10.869309814453125,0.01613209769129753,-0.0424657016992569,0.09974390268325806
1769667565888297700,10.879297607421876,0.015124624595046043,-0.030279608443379402,0.10428352653980255
1769667565898286800,10.889286865234375,0.016870327293872833,-0.030976824462413788,0.10329043865203857
1769667565908276000,10.89927587890625,0.016085758805274963,-0.03250521421432495,0.10590619593858719
1769667565918263800,10.909263916015625,0.017886588349938393,-0.03783819079399109,0.11055020987987518
1769667565928253000,10.9192529296875,0.016516925767064095,-0.03241466358304024,0.10998642444610596
1769667565938241000,10.929240966796876,0.013401559554040432,-0.022308500483632088,0.11290870606899261
1769667565948230000,10.93922998046875,0.013497166335582733,-0.028865469619631767,0.11083357036113739
1769667565958218000,10.949218017578126,0.009748767130076885,-0.017051421105861664,0.10892514884471893
1769667565968206800,10.959206787109375,0.006702643819153309,0.020300744101405144,0.10046561807394028
1769667565978195000,10.96919482421875,0.0018218684708699584,0.04633713886141777,0.08398012071847916
1769667565988184000,10.97918408203125,-0.00021198761533014476,0.06741605699062347,0.07251308113336563
1769667565998173000,10.9891728515625,-0.0002868224401026964,0.06502054631710052,0.07200334966182709
1769667566008160800,10.999160888671875,0.00005166532355360687,0.0705556571483612,0.07236048579216003
1769667566018150000,11.00914990234375,0.000180029688635841,0.08538733422756195,0.07799333333969116
1769667566028138000,11.019137939453126,-0.003739078063517809,0.09901100397109985,0.08341766148805618
1769667566038126800,11.029126953125,-0.004388356581330299,0.12412993609905243,0.0906505435705185
1769667566048115000,11.039114990234374,-0.0043987431563436985,0.13815174996852875,0.0878174677491188
1769667566058103800,11.049103759765625,-0.0059566921554505825,0.13653121888637543,0.08622090518474579
1769667566068093000,11.059093017578125,-0.010005762800574303,0.1364441215991974,0.08245226740837097
1769667566078080800,11.069080810546875,-0.008827047422528267,0.1326374113559723,0.08493246883153915
1769667566088070400,11.0790703125,-0.004756405483931303,0.1336078643798828,0.09287774562835693
1769667566098058200,11.089058349609376,-0.005506884306669235,0.14068840444087982,0.10210586339235306
1769667566108047400,11.09904736328125,-0.0041220407001674175,0.14205195009708405,0.10422227531671524
1769667566118035200,11.10903515625,-0.0020003002136945724,0.1276453137397766,0.09986986964941025
1769667566128024300,11.1190244140625,-0.0021494373213499784,0.12317226827144623,0.09253499656915665
1769667566138012200,11.12901220703125,-0.0011598066193982959,0.10785748809576035,0.09069102257490158
1769667566148001300,11.139001220703125,-0.0021667478140443563,0.1039530336856842,0.09795346111059189
1769667566157990100,11.148990234375,-0.002453836612403393,0.09969703108072281,0.09121432900428772
1769667566167978200,11.158978271484376,-0.002659166231751442,0.09854947775602341,0.09606847912073135
1769667566177967400,11.16896728515625,-0.0018469021888449788,0.09793348610401154,0.09076159447431564
1769667566187955500,11.17895556640625,0.0016767261549830437,0.09866878390312195,0.09987945854663849
1769667566197944000,11.188944091796875,0.0033949976786971092,0.08290980011224747,0.08445309847593307
1769667566207932200,11.19893212890625,0.002635730430483818,0.07912065088748932,0.07464388012886047
1769667566217921300,11.20892138671875,0.007215036079287529,0.06109131872653961,0.08670879900455475
1769667566227909400,11.218909423828125,0.006189985200762749,0.06136775389313698,0.08488426357507706
1769667566237898200,11.228898193359376,0.007623298559337854,0.052323926240205765,0.08747632056474686
1769667566247887400,11.238887451171875,0.008206796832382679,0.056412942707538605,0.0898425355553627
1769667566257875200,11.248875244140624,0.008837167173624039,0.06053072214126587,0.09257041662931442
1769667566267864300,11.2588642578125,0.012948289513587952,0.061704378575086594,0.10742393136024475
1769667566277852400,11.268852294921874,0.013665745034813881,0.060747768729925156,0.1004674881696701
1769667566287841300,11.27884130859375,0.014447915367782116,0.05669071152806282,0.09956307709217072
1769667566297829400,11.288829345703125,0.014872423373162746,0.047135286033153534,0.09595608711242676
1769667566307818200,11.298818359375,0.016147011891007423,0.05194495618343353,0.09386604279279709
1769667566317807000,11.30880712890625,0.017839184030890465,0.047331295907497406,0.08430955559015274
1769667566327795200,11.318795166015626,0.01865517720580101,0.02118677832186222,0.07273811846971512
1769667566337784300,11.328784423828125,0.0202229805290699,-0.002865028567612171,0.07232239842414856
1769667566347772400,11.3387724609375,0.015626896172761917,0.00635030772536993,0.06036347523331642
1769667566357761300,11.34876123046875,0.013265738263726234,0.006252835970371962,0.058220162987709045
1769667566367749000,11.3587490234375,0.01438399963080883,0.0007550061563961208,0.054657384753227234
1769667566377738200,11.36873828125,0.011535748839378357,0.00902758352458477,0.048110004514455795
1769667566387726300,11.378726318359375,0.011619105003774166,0.008078699000179768,0.053590789437294006
1769667566397715500,11.388715576171874,0.00162399560213089,0.0007736482657492161,0.03879959508776665
1769667566407704300,11.398704345703125,0.0070858728140592575,0.0003105245705228299,0.04658081755042076
1769667566417692200,11.408692138671874,0.0031425300985574722,-0.0022421153262257576,0.039325036108493805
1769667566427681300,11.418681396484375,0.00159470085054636,0.0036248285323381424,0.04288754612207413
1769667566437669400,11.42866943359375,-0.003769704606384039,0.01381035428494215,0.041247572749853134
1769667566447658200,11.438658203125,-0.0018482337472960353,0.024872060865163803,0.04700399562716484
1769667566457646300,11.448646240234375,0.00034940673504024744,0.0353180430829525,0.052146025002002716
1769667566467635500,11.458635498046876,0.0001853560097515583,0.04851666837930679,0.04981496185064316
1769667566477623300,11.468623291015625,-0.00392869533970952,0.03166684880852699,0.04059403017163277
1769667566487612200,11.478612060546874,-0.0009494169498793781,0.009161806665360928,0.04448357969522476
1769667566497601300,11.488601318359375,-0.009002815932035446,0.012225506827235222,0.031202927231788635
1769667566507589400,11.49858935546875,-0.0035545211285352707,0.012533368542790413,0.03851809725165367
1769667566517578200,11.508578125,-0.006399576086550951,0.03332892805337906,0.03363758698105812
1769667566527566000,11.518566162109375,-0.005102084018290043,0.036672260612249374,0.03573323041200638
1769667566537555200,11.52855517578125,-0.007555920630693436,0.022098377346992493,0.02189730852842331
1769667566547543300,11.538543212890625,0.002395513467490673,0.006373743526637554,0.022723954170942307
1769667566557532400,11.548532470703124,0.0022913836874067783,-0.004493285436183214,0.01750415936112404
1769667566567520300,11.558520263671875,-0.0026168220210820436,0.013883058913052082,0.02238813042640686
1769667566577509000,11.568509033203124,-0.007684551179409027,0.020120980218052864,0.006667756475508213
1769667566587498200,11.578498291015626,-0.002594451420009136,0.011153052560985088,-0.008437959477305412
1769667566597486300,11.588486328125,-0.006041381042450666,0.021739916875958443,-0.01661599427461624
1769667566607475200,11.59847509765625,0.0054429685696959496,0.011629758402705193,-0.025891518220305443
1769667566617463300,11.60846337890625,-0.0029643645975738764,0.02714533358812332,-0.027399400249123573
1769667566627452400,11.618452392578124,-0.007577492389827967,0.02376498468220234,-0.03410657122731209
1769667566637440300,11.628440185546875,-0.005103415343910456,0.007019559852778912,-0.03862622007727623
1769667566647429000,11.63842919921875,-0.003734284546226263,0.004958007019013166,-0.048956889659166336
1769667566657418200,11.648418212890626,-0.009211075492203236,0.0014974954538047314,-0.05423634126782417
1769667566667406300,11.65840625,-0.019115637987852097,0.005109274294227362,-0.045579202473163605
1769667566677395500,11.6683955078125,-0.014415957033634186,0.004874916281551123,-0.049922287464141846
1769667566687383300,11.67838330078125,-0.01125185564160347,-0.007250189781188965,-0.051004063338041306
1769667566697372200,11.6883720703125,-0.009238772094249725,0.001261539408005774,-0.052679188549518585
1769667566707360300,11.6983603515625,-0.004187021870166063,-0.001100684516131878,-0.055686164647340775
1769667566717349400,11.708349365234374,-0.005819006823003292,-0.0007946872501634061,-0.06390228122472763
1769667566727337500,11.71833740234375,-0.0025297366082668304,-0.002668487373739481,-0.06221863254904747
1769667566737326300,11.728326416015625,0.0007789746159687638,-0.016468189656734467,-0.06252383440732956
1769667566747315200,11.738315185546876,0.0035808864049613476,-0.026634540408849716,-0.07238471508026123
1769667566757303300,11.74830322265625,0.008471248671412468,-0.04469423368573189,-0.08425069600343704
1769667566767292200,11.758292236328124,0.00629091914743185,-0.061160292476415634,-0.08920764178037643
1769667566777280300,11.7682802734375,0.00815193634480238,-0.07520633935928345,-0.0953930988907814
1769667566787269400,11.778269287109374,0.0054211304523050785,-0.08465709537267685,-0.11079655587673187
1769667566797257200,11.78825732421875,0.004542820155620575,-0.09036318212747574,-0.11597773432731628
1769667566807246300,11.798246337890625,0.003483414649963379,-0.07953344285488129,-0.11523524671792984
1769667566817235200,11.808235107421876,0.005182777531445026,-0.06417924910783768,-0.11020666360855103
1769667566827223300,11.818223388671875,0.003065032185986638,-0.048711877316236496,-0.09977612644433975
1769667566837212400,11.82821240234375,0.005911418702453375,-0.04968126863241196,-0.09562239795923233
1769667566847200500,11.838200439453125,0.0070730894804000854,-0.052021123468875885,-0.09487298130989075
1769667566857189000,11.848189208984374,0.006168946158140898,-0.05131272226572037,-0.09283167123794556
1769667566867177200,11.85817724609375,0.006698915269225836,-0.047386955469846725,-0.08811760693788528
1769667566877166300,11.868166259765625,0.004598213825374842,-0.04792118817567825,-0.08613142371177673
1769667566887154400,11.878154541015626,0.0080925477668643,-0.057616159319877625,-0.09455712884664536
1769667566897143300,11.888143310546875,0.007456584833562374,-0.0722329169511795,-0.10047760605812073
1769667566907132400,11.89813232421875,0.010837467387318611,-0.07355384528636932,-0.1184358298778534
1769667566917120300,11.908120361328125,0.009226521477103233,-0.0717088058590889,-0.1318749487400055
1769667566927109000,11.918109130859374,0.010457434691488743,-0.06829223781824112,-0.13610297441482544
1769667566937097200,11.92809716796875,0.010550911538302898,-0.07242146879434586,-0.14136672019958496
1769667566947086300,11.93808642578125,0.011031079106032848,-0.08403311669826508,-0.13493092358112335
1769667566957074200,11.94807421875,0.009180981665849686,-0.09466419368982315,-0.12407933920621872
1769667566967063300,11.958063232421875,0.007375890854746103,-0.10505317896604538,-0.12511716783046722
1769667566977052200,11.96805224609375,0.00911253783851862,-0.1135111153125763,-0.1280117630958557
1769667566987040300,11.978040283203125,0.006044044159352779,-0.13048531115055084,-0.13298335671424866
1769667566997029400,11.988029296875,0.004023769870400429,-0.14274729788303375,-0.12456296384334564
1769667567007017500,11.998017578125,0.0005139900604262948,-0.1414463371038437,-0.11773595213890076
1769667567017006300,12.00800634765625,0.0001395496365148574,-0.1484464555978775,-0.11228179931640625
1769667567026994200,12.017994140625,0.0020788635592907667,-0.1544838547706604,-0.10910438001155853
1769667567036983300,12.0279833984375,0.006086121778935194,-0.15346544981002808,-0.10697651654481888
1769667567046971400,12.037971435546876,0.008468319661915302,-0.16478149592876434,-0.10007786750793457
1769667567056960300,12.047960205078125,0.037519942969083786,-0.15915556252002716,-0.10329470038414001
1769667567066949400,12.057949462890624,0.03557903319597244,-0.18713898956775665,-0.07523483037948608
1769667567076937200,12.067937255859375,0.04650571569800377,-0.18303266167640686,-0.0667278990149498
1769667567086925800,12.07792578125,0.06690952181816101,-0.17912128567695618,-0.06499417871236801
1769667567096914000,12.087913818359375,0.08303309977054596,-0.17402692139148712,-0.05481185019016266
1769667567106902800,12.09790283203125,0.1148994192481041,-0.14746375381946564,-0.052934322506189346
1769667567116891000,12.107890869140626,0.14146605134010315,-0.1598554402589798,-0.04358502849936485
