time,seconds_elapsed,z,y,x
1769667555080698600,0.07169873046875,0.005753370933234692,0.18901190161705017,-0.02348712459206581
1769667555090687700,0.081687744140625,-0.013310068286955357,0.23675943911075592,-0.02931012585759163
1769667555100675800,0.09167578125,-0.11177412420511246,0.2934853732585907,-0.05600711330771446
1769667555110665000,0.1016650390625,-0.07579055428504944,0.35679832100868225,-0.07652357965707779
1769667555120652800,0.11165283203125,-0.14751599729061127,0.44474950432777405,-0.12613561749458313
1769667555130641700,0.1216416015625,-0.14053292572498322,0.47137391567230225,-0.11029326170682907
1769667555140629800,0.131629638671875,-0.2348804771900177,0.5894119739532471,-0.09321839362382889
1769667555150619000,0.141618896484375,-0.2733099162578583,0.6009466648101807,-0.08821111917495728
1769667555160607000,0.15160693359375,-0.29389846324920654,0.6608622670173645,-0.14039401710033417
1769667555170595800,0.161595947265625,-0.29963409900665283,0.7262865304946899,-0.18687178194522858
1769667555180583700,0.171583740234375,-0.318531334400177,0.7483782768249512,-0.2121686339378357
1769667555190572800,0.18157275390625,-0.41841933131217957,0.8249561190605164,-0.1856432855129242
1769667555200561000,0.191560791015625,-0.5018588304519653,0.84059077501297,-0.13806337118148804
1769667555210549800,0.2015498046875,-0.5620512962341309,0.7688484191894531,-0.10543538630008698
1769667555220537600,0.21153759765625,-0.6125501990318298,0.714978814125061,-0.1133325919508934
1769667555230526700,0.221526611328125,-0.6308668851852417,0.6351678371429443,-0.1645265519618988
1769667555240514800,0.231514892578125,-0.5874415040016174,0.591705858707428,-0.22854413092136383
1769667555250503700,0.241503662109375,-0.5518542528152466,0.4547370970249176,-0.2650930881500244
1769667555260491800,0.25149169921875,-0.5058977603912354,0.32073262333869934,-0.33810803294181824
1769667555270481000,0.26148095703125,-0.4034344553947449,0.2663750946521759,-0.43421778082847595
1769667555280468700,0.27146875,-0.2907285690307617,0.14339818060398102,-0.48283594846725464
1769667555290457600,0.28145751953125,-0.27311256527900696,0.1296434849500656,-0.537875771522522
1769667555300445700,0.29144580078125,-0.3424968123435974,0.12975743412971497,-0.5315014719963074
1769667555310434800,0.301434814453125,-0.4994100034236908,0.1384526491165161,-0.46714112162590027
1769667555320423000,0.3114228515625,-0.5880864262580872,0.07298446446657181,-0.36773359775543213
1769667555330411800,0.321411865234375,-0.6367890238761902,-0.030398381873965263,-0.37247854471206665
1769667555340399600,0.331399658203125,-0.6741834282875061,-0.26870712637901306,-0.42486798763275146
1769667555350388700,0.341388671875,-0.7620179653167725,-0.496491014957428,-0.48992979526519775
1769667555360376800,0.351376953125,-0.8869122266769409,-0.577357828617096,-0.49608275294303894
1769667555370366000,0.361365966796875,-1.0277042388916016,-0.5118147730827332,-0.48625966906547546
1769667555380353800,0.371353759765625,-1.1716423034667969,-0.324415922164917,-0.5006311535835266
1769667555390342700,0.3813427734375,-1.2308530807495117,-0.2867734730243683,-0.48891115188598633
1769667555400330800,0.391330810546875,-1.3235220909118652,-0.20515112578868866,-0.5575867295265198
1769667555410320000,0.40131982421875,-1.4123276472091675,-0.11060038208961487,-0.6590544581413269
1769667555420308000,0.411307861328125,-1.4278061389923096,-0.02766704000532627,-0.7400646805763245
1769667555430296800,0.421296875,-1.5115630626678467,0.03480193018913269,-0.8112174272537231
1769667555440284700,0.43128466796875,-1.4115550518035889,0.2710973024368286,-0.6893432140350342
1769667555450273800,0.441273681640625,-1.267815113067627,0.296355277299881,-0.47317251563072205
1769667555460262000,0.451261962890625,-1.124752402305603,0.3578546941280365,-0.4415093958377838
1769667555470250800,0.461250732421875,-1.0179541110992432,0.35212117433547974,-0.4928772449493408
1769667555480238600,0.471238525390625,-0.8899994492530823,0.34964466094970703,-0.515155553817749
1769667555490227700,0.481227783203125,-0.8145822286605835,0.5428977608680725,-0.5317028164863586
1769667555500215800,0.4912158203125,-0.7234593629837036,0.7146766781806946,-0.4554663896560669
1769667555510204700,0.50120458984375,-0.6470279693603516,0.9818798899650574,-0.38339006900787354
1769667555520192800,0.51119287109375,-0.6373512148857117,1.2194585800170898,-0.2652072012424469
1769667555530182000,0.521181884765625,-0.5841889381408691,1.2780580520629883,-0.13748227059841156
1769667555540169700,0.531169677734375,-0.5365273952484131,1.3177642822265625,-0.06981134414672852
1769667555550158800,0.541158935546875,-0.459339439868927,1.2190145254135132,-0.07461994886398315
1769667555560146700,0.551146728515625,-0.35125041007995605,1.008140206336975,-0.1546398252248764
1769667555570135800,0.5611357421875,-0.2478705197572708,0.8099514842033386,-0.2066071480512619
1769667555580125000,0.571125,-0.2083776295185089,0.7835556864738464,-0.23680353164672852
1769667555590112800,0.58111279296875,-0.15240782499313354,0.8868911266326904,-0.1992734670639038
1769667555600101600,0.5911015625,-0.09838581085205078,0.8880844712257385,-0.17646868526935577
1769667555610089700,0.60108984375,-0.0628105103969574,0.7829234600067139,-0.16172276437282562
1769667555620078800,0.611078857421875,-0.05814352631568909,0.7412875890731812,-0.14479397237300873
1769667555630067000,0.62106689453125,-0.05498794466257095,0.7926005721092224,-0.1394524723291397
1769667555640055800,0.631055908203125,-0.08634812384843826,0.7073566913604736,-0.09056403487920761
1769667555650043600,0.641043701171875,-0.08729594200849533,0.6188164353370667,-0.03778711333870888
1769667555660032800,0.65103271484375,-0.07859425991773605,0.6164982318878174,-0.07538760453462601
1769667555670020900,0.661020751953125,-0.048831310123205185,0.5788376927375793,-0.17007550597190857
1769667555680009700,0.671009765625,-0.020178966224193573,0.4701593518257141,-0.18012158572673798
1769667555689997600,0.68099755859375,0.01727226749062538,0.3801543414592743,-0.2284848690032959
1769667555699986700,0.690986572265625,0.0435461588203907,0.41304081678390503,-0.3039936423301697
1769667555709974800,0.700974853515625,0.05291063338518143,0.38519027829170227,-0.3223244249820709
1769667555719964000,0.7109638671875,0.023984840139746666,0.410239040851593,-0.31651076674461365
1769667555729951700,0.72095166015625,0.04767632111907005,0.4433368146419525,-0.35282161831855774
1769667555739940900,0.73094091796875,0.07028882205486298,0.5198139548301697,-0.38546690344810486
1769667555749928700,0.7409287109375,0.15274134278297424,0.5684353113174438,-0.2975439727306366
1769667555759917800,0.750917724609375,0.19368532299995422,0.5647093653678894,-0.19340293109416962
1769667555769906000,0.760906005859375,0.19578735530376434,0.4791066348552704,-0.07150072604417801
1769667555779894800,0.770894775390625,0.18742603063583374,0.33955395221710205,0.07248907536268234
1769667555789882600,0.780882568359375,0.07539350539445877,0.3534737527370453,0.03854202851653099
1769667555799871700,0.790871826171875,0.038396138697862625,0.3123466968536377,-0.06295251101255417
1769667555809859800,0.80085986328125,-0.019472487270832062,0.20163081586360931,-0.12711499631404877
1769667555819848700,0.8108486328125,-0.03423133119940758,0.06524547189474106,-0.14572541415691376
1769667555829836800,0.8208369140625,0.15800122916698456,0.14414268732070923,-0.2506214678287506
1769667555839826000,0.830825927734375,0.19934634864330292,0.3322238028049469,-0.3943934142589569
1769667555849813800,0.840813720703125,0.1335609406232834,0.22189116477966309,-0.38410109281539917
1769667555859802600,0.850802734375,0.09480355679988861,-0.20234918594360352,-0.3187607228755951
1769667555869790700,0.860790771484375,0.114023856818676,-0.5662038326263428,-0.32482287287712097
1769667555879779800,0.87077978515625,-0.010921811684966087,-0.8080838322639465,-0.24448807537555695
1769667555889768000,0.880767822265625,-0.04597886651754379,-1.1939308643341064,-0.1062745526432991
1769667555899756500,0.890756591796875,-0.01951117441058159,-1.2205438613891602,0.04939254745841026
1769667555909744600,0.90074462890625,0.10899167507886887,-0.8999121189117432,0.1692206710577011
1769667555919733800,0.910733642578125,0.25343161821365356,-0.46691200137138367,0.22123846411705017
1769667555929721900,0.920721923828125,0.32860997319221497,-0.12696616351604462,0.2919861376285553
1769667555939711000,0.9307109375,0.2823393642902374,-0.04471001774072647,0.3435259163379669
1769667555949698600,0.940698486328125,0.21410705149173737,-0.1358489841222763,0.3571658134460449
1769667555959687700,0.950687744140625,0.14116613566875458,-0.33382225036621094,0.4213581085205078
1769667555969675800,0.96067578125,0.0631999596953392,-0.470734566450119,0.5502335429191589
1769667555979665000,0.970664794921875,-0.047197990119457245,-0.6331039667129517,0.6891387701034546
1769667555989653000,0.980653076171875,-0.14274421334266663,-0.8591663837432861,0.8724045157432556
1769667555999641900,0.990641845703125,-0.33202919363975525,-1.1650034189224243,1.1754703521728516
1769667556009629700,1.000629638671875,-0.5082143545150757,-1.6598345041275024,1.2775362730026245
1769667556019618800,1.010618896484375,-0.7261931896209717,-1.9978376626968384,0.6970714926719666
1769667556029607000,1.02060693359375,-0.15429933369159698,-0.8064457774162292,0.060734670609235764
1769667556039595800,1.030595703125,0.18054541945457458,0.26769816875457764,-0.39799654483795166
1769667556049583600,1.04058349609375,0.3938116133213043,0.4054509699344635,0.008454563096165657
1769667556059572700,1.05057275390625,0.3645821213722229,0.3683236241340637,0.37115365266799927
1769667556069561600,1.0605615234375,0.30782055854797363,0.16849680244922638,0.2018224000930786
1769667556079550200,1.07055029296875,0.312778502702713,0.11195968091487885,0.09499384462833405
1769667556089539300,1.080539306640625,0.294180303812027,-0.032877400517463684,0.0510769821703434
1769667556099527400,1.09052734375,0.31747397780418396,-0.16995882987976074,-0.027903182432055473
1769667556109516300,1.100516357421875,0.38041380047798157,-0.06255167722702026,-0.09591712057590485
1769667556119504100,1.110504150390625,0.38105061650276184,0.012362093664705753,-0.02780505083501339
1769667556129493200,1.1204931640625,0.36684373021125793,-0.12937666475772858,0.028920279815793037
1769667556139481300,1.1304814453125,0.3119875490665436,-0.2760079503059387,-0.00019152462482452393
1769667556149470200,1.14047021484375,0.15931224822998047,-0.3687991201877594,-0.10647162795066833
1769667556159458000,1.1504580078125,0.12527844309806824,-0.5580639839172363,-0.29004478454589844
1769667556169447200,1.160447265625,0.18136034905910492,-1.0178998708724976,-0.4374169409275055
1769667556179435300,1.170435302734375,0.16829241812229156,-1.2423499822616577,-0.5262958407402039
1769667556189424400,1.18042431640625,0.07926960289478302,-1.4538716077804565,-0.4917231798171997
1769667556199412200,1.190412109375,0.06901077181100845,-1.6352955102920532,-0.36092615127563477
1769667556209401300,1.2004013671875,0.01131898257881403,-1.7090152502059937,-0.16800251603126526
1769667556219389200,1.21038916015625,0.026686878874897957,-1.7093435525894165,0.02538987807929516
1769667556229378300,1.22037841796875,-0.015687208622694016,-1.5128741264343262,-0.13939906656742096
1769667556239366400,1.230366455078125,0.05468802899122238,-0.4218240976333618,-0.3616688847541809
1769667556249355300,1.240355224609375,0.0444556288421154,0.30230244994163513,-0.3275255858898163
1769667556259343400,1.25034326171875,0.005035053007304668,0.04326742887496948,-0.4539172351360321
1769667556269332200,1.260332275390625,0.1289231777191162,-0.15795516967773438,-0.4721454977989197
1769667556279320300,1.2703203125,0.17342792451381683,-0.5261881351470947,-0.47962790727615356
1769667556289309200,1.28030908203125,0.13672077655792236,-0.571753203868866,-0.4912678003311157
1769667556299297300,1.29029736328125,0.1007457971572876,-0.6286611557006836,-0.45256978273391724
1769667556309286400,1.300286376953125,0.052169475704431534,-0.7533721923828125,-0.42814192175865173
1769667556319274200,1.310274169921875,-0.016518307849764824,-0.8736213445663452,-0.3967495262622833
1769667556329263000,1.32026318359375,0.006113767623901367,-0.8962805867195129,-0.3763161599636078
1769667556339251200,1.330251220703125,0.010615438222885132,-0.772629976272583,-0.3505527377128601
1769667556349240300,1.340240234375,-0.022926276549696922,-0.728614330291748,-0.38489073514938354
1769667556359228400,1.350228515625,-0.04274831712245941,-0.7749582529067993,-0.4650380313396454
1769667556369217300,1.36021728515625,-0.09263891726732254,-0.8237223029136658,-0.5559437274932861
1769667556379205000,1.370205078125,-0.09877390414476395,-0.8330150842666626,-0.5876172184944153
1769667556389194200,1.3801943359375,-0.02374413050711155,-0.8542460799217224,-0.5558468103408813
1769667556399182300,1.390182373046875,0.01234043762087822,-0.9964619278907776,-0.5234599709510803
1769667556409171500,1.40017138671875,0.027177974581718445,-1.1419123411178589,-0.5084937810897827
1769667556419159300,1.4101591796875,0.02636910416185856,-1.1848777532577515,-0.494019091129303
1769667556429148200,1.420148193359375,-0.0260405745357275,-1.288841724395752,-0.5025944709777832
1769667556439136300,1.43013623046875,-0.05434279516339302,-1.4040913581848145,-0.48696061968803406
1769667556449125400,1.44012548828125,-0.05796549469232559,-1.492588758468628,-0.4910682737827301
1769667556459113500,1.450113525390625,-0.05946657061576843,-1.5174027681350708,-0.5525359511375427
1769667556469102300,1.460102294921875,-0.049975067377090454,-1.5630736351013184,-0.6424322724342346
1769667556479091200,1.47009130859375,-0.07971739023923874,-1.6694390773773193,-0.7141381502151489
1769667556489079300,1.480079345703125,-0.11951114237308502,-1.6652926206588745,-0.7916215062141418
1769667556499068200,1.490068115234375,-0.13327208161354065,-1.6533552408218384,-0.88479083776474
1769667556509056300,1.50005615234375,-0.2506335973739624,-1.5912543535232544,-0.9703257083892822
1769667556519045400,1.51004541015625,-0.16969574987888336,-1.742861032485962,-1.0964405536651611
1769667556529033200,1.520033203125,-0.17245930433273315,-1.6619981527328491,-1.0552808046340942
1769667556539022000,1.53002197265625,-0.16387493908405304,-1.4671571254730225,-1.088059425354004
1769667556549010200,1.54001025390625,-0.1902809888124466,-1.4038710594177246,-1.1634868383407593
1769667556558999300,1.549999267578125,-0.23823098838329315,-1.5308021306991577,-1.088438868522644
1769667556568987400,1.5599873046875,-0.269564151763916,-1.56875741481781,-0.9693959951400757
1769667556578976500,1.5699765625,-0.29263442754745483,-1.6253039836883545,-0.8277912139892578
1769667556588964000,1.579964111328125,-0.25893425941467285,-1.6035829782485962,-0.7781922221183777
1769667556598953200,1.589953125,-0.21889951825141907,-1.4691053628921509,-0.9157657623291016
1769667556608941300,1.59994140625,-0.161484956741333,-1.4258478879928589,-1.0856584310531616
1769667556618930400,1.609930419921875,-0.0516216978430748,-1.4209096431732178,-1.210475206375122
1769667556628918300,1.619918212890625,-0.00946119800209999,-1.4094184637069702,-1.3831639289855957
1769667556638907100,1.6299072265625,-0.01538353692740202,-1.3206157684326172,-1.5234485864639282
1769667556648895200,1.639895263671875,-0.09635855257511139,-1.2244380712509155,-1.6831200122833252
1769667556658884400,1.64988427734375,-0.2465190887451172,-1.1797853708267212,-1.7643216848373413
1769667556668872400,1.65987255859375,-0.3121449649333954,-1.3168665170669556,-1.703269600868225
1769667556678861300,1.669861328125,-0.3236306607723236,-1.5863889455795288,-1.5782122611999512
1769667556688849200,1.67984912109375,-0.4054858386516571,-1.8725061416625977,-1.5291062593460083
1769667556698838300,1.68983837890625,-0.5456785559654236,-2.5345702171325684,-2.0003409385681152
1769667556708826400,1.699826416015625,-0.7119490504264832,-3.1327106952667236,-2.77107310295105
1769667556718815200,1.709815185546875,-0.754550576210022,-3.1159520149230957,-2.7629311084747314
1769667556728803300,1.71980322265625,-0.554454505443573,-1.8484424352645874,-2.658334493637085
1769667556738792200,1.729792236328125,-0.3458889424800873,0.3467990756034851,-3.346600294113159
1769667556748780300,1.7397802734375,-0.3288678824901581,1.2343637943267822,-3.3732552528381348
1769667556758769200,1.74976904296875,-0.16070571541786194,0.7794665098190308,-2.7109885215759277
1769667556768757200,1.75975732421875,-0.0886344462633133,-0.013080153614282608,-2.967839002609253
1769667556778746400,1.769746337890625,0.10966699570417404,0.15774720907211304,-3.1952641010284424
1769667556788735500,1.779735595703125,0.26900631189346313,0.8362606763839722,-2.8082666397094727
1769667556798723300,1.789723388671875,0.2564007639884949,1.1745774745941162,-1.9742039442062378
1769667556808712200,1.799712158203125,0.1980610340833664,0.9533854126930237,-0.9432798624038696
1769667556818700300,1.8097001953125,0.17407867312431335,0.5764907002449036,-0.20631006360054016
1769667556828689400,1.819689453125,0.17097075283527374,0.2747018337249756,0.3034413158893585
1769667556838677200,1.82967724609375,0.2664882242679596,0.1307615041732788,0.5207270383834839
1769667556848666000,1.839666015625,0.39714372158050537,0.2422933578491211,0.415067195892334
1769667556858654200,1.849654296875,0.5365478992462158,0.2695234715938568,0.18931062519550323
1769667556868643300,1.859643310546875,0.6106359362602234,0.2205287516117096,-0.06956035643815994
1769667556878631400,1.86963134765625,0.5950042605400085,0.2924812138080597,-0.21026793122291565
1769667556888620300,1.879620361328125,0.5111607313156128,0.2590681314468384,-0.22549189627170563
1769667556898608000,1.889608154296875,0.33198222517967224,0.16910475492477417,-0.20287074148654938
1769667556908597200,1.89959716796875,0.16319319605827332,0.200760155916214,-0.1072014719247818
1769667556918585300,1.90958544921875,0.05909575894474983,0.23197618126869202,-0.06861080974340439
1769667556928574200,1.91957421875,0.0487496443092823,0.13932426273822784,-0.008752531372010708
1769667556938562300,1.929562255859375,-0.014268939383327961,0.11343265324831009,0.008031368255615234
1769667556948551200,1.93955126953125,-0.04215490072965622,-0.008568616583943367,0.02298741601407528
1769667556958539300,1.949539306640625,-0.012113107368350029,-0.11544118076562881,0.073216512799263
1769667556968528400,1.9595283203125,-0.02366936206817627,-0.13344281911849976,0.13574087619781494
1769667556978516200,1.96951611328125,-0.011541858315467834,-0.10796709358692169,0.1473381370306015
1769667556988505300,1.97950537109375,-0.03424663841724396,-0.11395281553268433,0.12054034322500229
1769667556998493200,1.9894931640625,-0.01742897555232048,-0.14085862040519714,0.06528174132108688
1769667557008482300,1.999482421875,0.0012200763449072838,-0.11917036771774292,0.0503573901951313
1769667557018470400,2.009470458984375,-0.03374490141868591,-0.14998558163642883,0.04013390839099884
1769667557028459300,2.019459228515625,-0.06413768976926804,-0.17601904273033142,0.04360613971948624
1769667557038448400,2.029448486328125,-0.03467234596610069,-0.034610893577337265,0.0772021934390068
1769667557048436200,2.039436279296875,-0.07169721275568008,0.06776288151741028,0.1033933162689209
1769667557058425000,2.049425048828125,-0.02375764586031437,0.12354329228401184,0.1004372090101242
1769667557068413200,2.0594130859375,-0.022818615660071373,0.2584531903266907,0.10647725313901901
1769667557078401300,2.0694013671875,-0.056589026004076004,0.2680646479129791,0.06454804539680481
1769667557088389400,2.079389404296875,-0.04802137240767479,0.5255251526832581,0.0718778595328331
1769667557098378200,2.089378173828125,-0.014432987198233604,0.6321552991867065,0.14115160703659058
1769667557108366300,2.099366455078125,0.042254261672496796,0.7397041320800781,0.03399985283613205
1769667557118355200,2.109355224609375,0.05194004252552986,0.7805556058883667,-0.030608952045440674
1769667557128343300,2.11934326171875,0.015397211536765099,0.709115207195282,-0.0982937216758728
1769667557138332400,2.12933251953125,0.022273428738117218,0.5393344759941101,-0.10127927362918854
1769667557148320300,2.1393203125,0.02534458599984646,0.4229322373867035,-0.023940280079841614
1769667557158309000,2.14930908203125,0.004724994767457247,0.37751874327659607,0.03719645366072655
1769667557168297200,2.159297119140625,-0.013398882001638412,0.3372059166431427,0.05460021272301674
1769667557178286300,2.169286376953125,-0.03233661875128746,0.296207994222641,0.05464760959148407
1769667557188274400,2.1792744140625,-0.027489399537444115,0.24690675735473633,0.042757127434015274
1769667557198263300,2.18926318359375,-0.02936786413192749,0.2232249528169632,0.02289714850485325
1769667557208251100,2.199251220703125,-0.02262580394744873,0.20602625608444214,0.023195156827569008
1769667557218240300,2.209240234375,-0.020138010382652283,0.20622830092906952,0.016933253034949303
1769667557228228400,2.219228271484375,-0.01718110218644142,0.21371018886566162,0.018456848338246346
1769667557238217500,2.229217529296875,-0.018363013863563538,0.2233586311340332,0.02191310189664364
1769667557248205300,2.239205322265625,-0.019914304837584496,0.2419605404138565,0.021343983709812164
1769667557258194200,2.249194091796875,-0.02111099474132061,0.24533960223197937,0.025962967425584793
1769667557268182300,2.259182373046875,-0.021732842549681664,0.24502775073051453,0.016583045944571495
1769667557278171400,2.26917138671875,-0.025093087926506996,0.25008267164230347,0.0021995846182107925
1769667557288160300,2.27916015625,-0.018294569104909897,0.2411717176437378,-0.002356284763664007
1769667557298148400,2.2891484375,-0.020524434745311737,0.21566997468471527,-0.0002214997075498104
1769667557308137200,2.29913720703125,-0.019862638786435127,0.18272320926189423,0.005624671466648579
1769667557318125300,2.309125244140625,-0.019815567880868912,0.17743712663650513,0.005996314808726311
1769667557328114200,2.3191142578125,-0.026390645653009415,0.18960192799568176,-0.008455595001578331
1769667557338102300,2.329102294921875,-0.031861577183008194,0.183951273560524,-0.02944210171699524
1769667557348091400,2.33909130859375,-0.03623129054903984,0.1677001267671585,-0.03395642712712288
1769667557358079200,2.349079345703125,-0.032681431621313095,0.1476108729839325,-0.025949357077479362
1769667557368068000,2.359068115234375,-0.03506070002913475,0.1582733690738678,-0.0161859430372715
1769667557378056200,2.36905615234375,-0.04183278605341911,0.18469417095184326,-0.027513835579156876
1769667557388045300,2.37904541015625,-0.05137569084763527,0.2200596183538437,-0.041544701904058456
1769667557398033400,2.389033447265625,-0.05877029150724411,0.24956461787223816,-0.03847794234752655
1769667557408022300,2.399022216796875,-0.060544759035110474,0.280095636844635,-0.027749132364988327
1769667557418010000,2.409010009765625,-0.07021069526672363,0.29412642121315,-0.04509536176919937
1769667557427999200,2.418999267578125,-0.07526297867298126,0.32473626732826233,-0.02529902197420597
1769667557437987300,2.4289873046875,-0.07879852503538132,0.3585951030254364,-0.044664863497018814
1769667557447976400,2.4389765625,-0.08718828111886978,0.36716222763061523,-0.05378672108054161
1769667557457964300,2.44896435546875,-0.08945416659116745,0.3689385652542114,-0.05190107226371765
1769667557467953200,2.458953125,-0.08984911441802979,0.365194708108902,-0.05869825556874275
1769667557477942300,2.4689423828125,-0.09329471737146378,0.37171027064323425,-0.08077958971261978
1769667557487930400,2.478930419921875,-0.09596399962902069,0.3636994957923889,-0.08191462606191635
1769667557497919200,2.488919189453125,-0.09849420189857483,0.33784911036491394,-0.08483465760946274
1769667557507907300,2.4989072265625,-0.08270352333784103,0.2960846424102783,-0.06714940071105957
1769667557517896200,2.508896240234375,-0.07011336088180542,0.26225268840789795,-0.05261906236410141
1769667557527884300,2.51888427734375,-0.07515764981508255,0.270389199256897,-0.05371442064642906
1769667557537873200,2.528873046875,-0.06934230029582977,0.2467922419309616,-0.061049964278936386
1769667557547861200,2.538861328125,-0.0652061477303505,0.2346000224351883,-0.0732448399066925
1769667557557850400,2.548850341796875,-0.05908121541142464,0.22266675531864166,-0.07449399679899216
1769667557567838200,2.558838134765625,-0.058525945991277695,0.22089308500289917,-0.07826796174049377
1769667557577827300,2.568827392578125,-0.061482321470975876,0.22518548369407654,-0.08145017921924591
1769667557587815200,2.578815185546875,-0.06637401133775711,0.23727944493293762,-0.0972866639494896
1769667557597804300,2.58880419921875,-0.07043932378292084,0.22587639093399048,-0.11207839101552963
1769667557607792400,2.59879248046875,-0.06843689829111099,0.2361878901720047,-0.15079942345619202
1769667557617781200,2.60878125,-0.07060018181800842,0.24138028919696808,-0.18518562614917755
1769667557627769300,2.618769287109375,-0.0704028457403183,0.2377362847328186,-0.17277714610099792
1769667557637758200,2.62875830078125,-0.07255560904741287,0.2571941316127777,-0.17775008082389832
1769667557647746300,2.638746337890625,-0.07744543999433517,0.27336564660072327,-0.18879394233226776
1769667557657735400,2.6487353515625,-0.08350599557161331,0.29106903076171875,-0.19386112689971924
1769667557667723300,2.65872314453125,-0.09186752140522003,0.29271724820137024,-0.21468278765678406
1769667557677712100,2.668712158203125,-0.09268505126237869,0.28137779235839844,-0.2766272723674774
1769667557687701200,2.678701171875,-0.09119607508182526,0.2882647216320038,-0.261342316865921
1769667557697689300,2.688689453125,-0.0886644721031189,0.284389466047287,-0.2559643089771271
1769667557707678200,2.69867822265625,-0.1058674305677414,0.16895979642868042,-0.343312531709671
1769667557717666300,2.708666259765625,-0.09716302156448364,0.2647852897644043,-0.48661988973617554
1769667557727655200,2.7186552734375,-0.10236204415559769,0.27572765946388245,-0.5828465819358826
1769667557737643300,2.728643310546875,-0.08987114578485489,0.2602754533290863,-0.48970597982406616
1769667557747632400,2.73863232421875,-0.08892519026994705,0.2848567068576813,-0.43416255712509155
1769667557757620200,2.7486201171875,-0.10647828876972198,0.1821041703224182,-0.4720834195613861
1769667557767609300,2.758609375,-0.09074566513299942,0.2603771686553955,-0.46634751558303833
1769667557777597200,2.76859716796875,-0.08288820832967758,0.2033863365650177,-0.3846580982208252
1769667557787586300,2.77858642578125,-0.06980729103088379,0.13417424261569977,-0.3120715320110321
1769667557797574400,2.788574462890625,-0.06667455285787582,0.12909580767154694,-0.29918092489242554
1769667557807563300,2.798563232421875,-0.06273786723613739,0.11482206732034683,-0.2725927233695984
1769667557817551400,2.80855126953125,-0.05615466833114624,0.09400604665279388,-0.23663923144340515
1769667557827540500,2.81854052734375,-0.055701661854982376,0.10337398201227188,-0.22798368334770203
1769667557837528300,2.8285283203125,-0.051292531192302704,0.1062895730137825,-0.22073695063591003
1769667557847517200,2.83851708984375,-0.045215196907520294,0.10060878843069077,-0.21804769337177277
1769667557857505300,2.84850537109375,-0.043307311832904816,0.10348084568977356,-0.22849875688552856
1769667557867494400,2.858494384765625,-0.042891595512628555,0.09175121784210205,-0.22373569011688232
1769667557877482200,2.868482177734375,-0.03917428478598595,0.06604316085577011,-0.218588188290596
1769667557887471000,2.87847119140625,-0.036286354064941406,0.0407753512263298,-0.20947670936584473
1769667557897459200,2.888459228515625,-0.032845549285411835,0.030614633113145828,-0.1892247051000595
1769667557907448300,2.8984482421875,-0.03130491077899933,0.021632323041558266,-0.19059410691261292
1769667557917437400,2.9084375,-0.029590237885713577,0.0156465545296669,-0.18879912793636322
1769667557927425300,2.91842529296875,-0.024280428886413574,-0.0025228618178516626,-0.19038771092891693
1769667557937414100,2.9284140625,-0.02303006872534752,-0.013240286149084568,-0.1904233992099762
1769667557947402200,2.93840234375,-0.020049192011356354,-0.018672604113817215,-0.18799859285354614
1769667557957391400,2.948391357421875,-0.015935610979795456,-0.024943744763731956,-0.18105372786521912
1769667557967379500,2.95837939453125,-0.01327964011579752,-0.026736583560705185,-0.1664617359638214
1769667557977368300,2.968368408203125,-0.009104468859732151,-0.024119077250361443,-0.15093764662742615
1769667557987356200,2.978356201171875,-0.007727081421762705,-0.029966315254569054,-0.1415659785270691
1769667557997345300,2.98834521484375,-0.0036868657916784286,-0.03338037058711052,-0.132309228181839
1769667558007333400,2.99833349609375,-0.003916163928806782,-0.03961775824427605,-0.12682391703128815
1769667558017322200,3.008322265625,-0.0011016023345291615,-0.05025777220726013,-0.11526499688625336
1769667558027310300,3.018310302734375,0.0008712674025446177,-0.05933622270822525,-0.0934867337346077
1769667558037299500,3.028299560546875,0.005708967335522175,-0.07249535620212555,-0.07052189856767654
1769667558047287300,3.038287353515625,0.008761216886341572,-0.06815040856599808,-0.05066988989710808
1769667558057276200,3.048276123046875,0.0062279487028717995,-0.0750742107629776,-0.04279639199376106
1769667558067264300,3.05826416015625,0.007559529040008783,-0.07667690515518188,-0.032819658517837524
1769667558077254400,3.06825439453125,0.006203382275998592,-0.0714934766292572,-0.0293923020362854
1769667558087242200,3.0782421875,0.005034520756453276,-0.06290452182292938,-0.02693260833621025
1769667558097231400,3.0882314453125,0.003192146774381399,-0.05021477863192558,-0.028102265670895576
1769667558107220500,3.098220458984375,0.0014115574304014444,-0.036321334540843964,-0.029725464060902596
1769667558117208600,3.10820849609375,-0.0010345559567213058,-0.027386121451854706,-0.026893721893429756
1769667558127197400,3.118197509765625,-0.0012302983086556196,-0.018043488264083862,-0.02096099779009819
1769667558137185300,3.128185302734375,-0.0007976676570251584,-0.013725285418331623,-0.015528149902820587
1769667558147174400,3.13817431640625,-0.0016022085910663009,-0.00696644838899374,-0.013393092900514603
1769667558157162500,3.14816259765625,-0.002558355685323477,-0.002710348227992654,-0.011284271255135536
1769667558167151400,3.1581513671875,-0.0020363759249448776,0.0016939875204116106,-0.008346538990736008
1769667558177139500,3.168139404296875,-0.0004762269090861082,0.0025153104215860367,-0.0030267417896538973
1769667558187128300,3.17812841796875,0.00021326541900634766,0.002557920990511775,0.0024833381175994873
1769667558197116400,3.188116455078125,0.0012767332373186946,0.003715028055012226,0.005033714696764946
1769667558207105300,3.198105224609375,0.0033089914359152317,0.004158177878707647,0.004684573970735073
1769667558217093400,3.20809326171875,0.0018913879757747054,0.0029903012327849865,0.00860820896923542
1769667558227082500,3.21808251953125,0.0018479785649105906,0.001382817281410098,0.007414580788463354
1769667558237070300,3.2280703125,0.0015072979731485248,0.006419092416763306,0.0075678471475839615
1769667558247059500,3.2380595703125,0.0007195350481197238,0.009696644730865955,0.008739638142287731
1769667558257047300,3.24804736328125,0.002777093555778265,0.009173411875963211,0.011049401015043259
1769667558267036400,3.258036376953125,0.0012566947843879461,0.009777151048183441,0.016311805695295334
1769667558277025500,3.268025634765625,0.0006116008153185248,0.011200591921806335,0.01770024374127388
1769667558287013400,3.278013427734375,-0.00012849178165197372,0.008427442982792854,0.01933435909450054
1769667558297002200,3.288002197265625,-0.00022003089543431997,0.004684987477958202,0.018580814823508263
1769667558306990300,3.297990234375,0.0009195358725264668,0.005914303008466959,0.01886817067861557
1769667558316979500,3.3079794921875,-0.00018947222270071507,0.00587412528693676,0.01985260844230652
1769667558326967600,3.317967529296875,-0.00047549570444971323,0.006787856109440327,0.02094903215765953
1769667558336956400,3.327956298828125,-0.0006756976945325732,0.008665348403155804,0.01712646335363388
1769667558346944300,3.3379443359375,-0.002445368329063058,0.010039805434644222,0.013513884507119656
1769667558356933400,3.347933349609375,-0.0020507515873759985,0.007390689104795456,0.01188816037029028
1769667558366921500,3.35792138671875,-0.0017404933460056782,0.004046824760735035,0.01035577803850174
1769667558376910300,3.367910400390625,-0.003159891813993454,0.0006482882890850306,0.010032868944108486
1769667558386898400,3.3778984375,-0.0023894391488283873,-0.0017027503345161676,0.0144816804677248
1769667558396887300,3.38788720703125,-0.003258035983890295,-0.002554517239332199,0.009522340260446072
1769667558406875400,3.39787548828125,-0.003341393079608679,-0.0035287016071379185,0.005669811740517616
1769667558416864500,3.407864501953125,-0.004313374869525433,-0.0045544663444161415,0.00017983745783567429
1769667558426852400,3.417852294921875,-0.0035921905655413866,-0.004806134849786758,-0.0037914684507995844
1769667558436841500,3.427841552734375,-0.005070713814347982,-0.005717892199754715,-0.002626468427479267
1769667558446830600,3.43783056640625,-0.006845178082585335,-0.003772186813876033,0.0026468567084521055
1769667558456818400,3.447818359375,-0.004300725180655718,0.001117647043429315,0.0026158306282013655
1769667558466807300,3.457807373046875,-0.0041241575963795185,0.004070293623954058,-0.00015891692601144314
1769667558476795400,3.46779541015625,-0.004744078032672405,0.0059918733313679695,0.006278876215219498
1769667558486784500,3.477784423828125,-0.0038577779196202755,0.0027561327442526817,0.009623539634048939
1769667558496772400,3.4877724609375,-0.004133079666644335,0.0007989797741174698,0.015928972512483597
1769667558506761200,3.49776123046875,-0.004353323020040989,-0.0017664434853941202,0.027839427813887596
1769667558516749300,3.507749267578125,-0.004617113154381514,-0.012950089760124683,0.03431384265422821
1769667558526738400,3.517738525390625,-0.005180637817829847,-0.017305422574281693,0.04226630553603172
1769667558536726500,3.5277265625,-0.005035556852817535,-0.010889098048210144,0.0479365736246109
1769667558546715400,3.53771533203125,-0.005027034319937229,-0.017744606360793114,0.05123436823487282
1769667558556703200,3.547703125,-0.006682062055915594,-0.021796921268105507,0.05784699320793152
1769667558566692400,3.5576923828125,-0.0052530099637806416,-0.02890862710773945,0.059521324932575226
1769667558576680400,3.567680419921875,-0.0045115165412425995,-0.028035104274749756,0.06893067061901093
1769667558586669600,3.577669677734375,-0.0031796693801879883,-0.025920823216438293,0.06859404593706131
1769667558596657400,3.587657470703125,-0.0029636870604008436,-0.015737958252429962,0.0720020979642868
1769667558606646300,3.597646240234375,-0.0024046895559877157,-0.006862708367407322,0.07659950852394104
1769667558616635400,3.607635498046875,-0.0014790467685088515,-0.012974175624549389,0.0783514752984047
1769667558626623500,3.61762353515625,-0.0009821008425205946,-0.018592115491628647,0.08560273051261902
1769667558636612400,3.6276123046875,-0.00011051201727241278,-0.016954153776168823,0.10329636931419373
1769667558646600400,3.637600341796875,-0.0059433672577142715,-0.017038043588399887,0.10630307346582413
1769667558656589600,3.647589599609375,-0.010288776829838753,-0.026180896908044815,0.1169249638915062
1769667558666577400,3.657577392578125,-0.016549335792660713,-0.040927350521087646,0.13671010732650757
1769667558676566300,3.667566162109375,-0.018874939531087875,-0.050282616168260574,0.13584725558757782
1769667558686554400,3.677554443359375,-0.020842216908931732,-0.0566965714097023,0.13628613948822021
1769667558696543500,3.68754345703125,-0.024276500567793846,-0.044555455446243286,0.15315327048301697
1769667558706531300,3.69753125,-0.03224414587020874,-0.03116801008582115,0.14575155079364777
1769667558716520200,3.707520263671875,-0.053855035454034805,-0.02177097462117672,0.12922662496566772
1769667558726508300,3.71750830078125,-0.05365316942334175,-0.03254319727420807,0.1426585614681244
1769667558736497400,3.727497314453125,-0.06652974337339401,-0.01953045465052128,0.1427321881055832
1769667558746485500,3.737485595703125,-0.06915003061294556,-0.03614857792854309,0.12968909740447998
1769667558756474400,3.747474365234375,-0.07068774849176407,-0.051344700157642365,0.13202548027038574
1769667558766463500,3.75746337890625,-0.07466597855091095,-0.04359596595168114,0.13443803787231445
1769667558776451300,3.767451416015625,-0.08426747471094131,-0.05600127577781677,0.11039875447750092
1769667558786440400,3.7774404296875,-0.09244071692228317,-0.089850053191185,0.10132243484258652
1769667558796428500,3.787428466796875,-0.11474780738353729,-0.07583034783601761,0.08201411366462708
1769667558806417400,3.79741748046875,-0.1385684460401535,-0.16767773032188416,-0.006612686440348625
1769667558816405200,3.8074052734375,-0.17459923028945923,-0.27009856700897217,-0.09625375270843506
1769667558826394400,3.817394287109375,-0.18585188686847687,-0.39106494188308716,-0.16204342246055603
1769667558836382500,3.827382568359375,-0.2658126950263977,-0.4707278609275818,-0.2393769472837448
1769667558846371300,3.837371337890625,-0.2886703312397003,-0.602138340473175,-0.2931344509124756
1769667558856359400,3.847359375,-0.31737369298934937,-0.6927006840705872,-0.2883499562740326
1769667558866348500,3.8573486328125,-0.3350709080696106,-0.8067026734352112,-0.29749393463134766
1769667558876336400,3.86733642578125,-0.2946470081806183,-0.8679651021957397,-0.24759654700756073
1769667558886325200,3.8773251953125,-0.23227311670780182,-0.8307799100875854,-0.1856711208820343
1769667558896313300,3.887313232421875,-0.21879172325134277,-0.7491552233695984,-0.07729736715555191
1769667558906302500,3.897302490234375,-0.21903035044670105,-0.6245642900466919,0.03948250412940979
1769667558916291600,3.90729150390625,-0.2331928312778473,-0.6935003995895386,0.12805697321891785
1769667558926279400,3.917279541015625,-0.22820685803890228,-0.8084847927093506,0.13300485908985138
1769667558936268300,3.927268310546875,-0.22861348092556,-0.7296852469444275,0.11302490532398224
1769667558946256400,3.93725634765625,-0.24051007628440857,-0.579250156879425,0.13669534027576447
1769667558956245500,3.94724560546875,-0.25320783257484436,-0.4437448978424072,0.15331359207630157
1769667558966233600,3.957233642578125,-0.277182400226593,-0.3549622893333435,0.14004172384738922
1769667558976222500,3.967222412109375,-0.27337414026260376,-0.4036770761013031,0.11821459978818893
1769667558986210300,3.977210205078125,-0.22474296391010284,-0.5005711317062378,0.058591220527887344
1769667558996199400,3.987199462890625,-0.1840289682149887,-0.5302826762199402,0.012450361624360085
1769667559006187500,3.9971875,-0.12634702026844025,-0.4796501100063324,-0.018471866846084595
1769667559016176400,4.00717626953125,-0.07944733649492264,-0.40693458914756775,-0.044040754437446594
1769667559026164200,4.017164306640625,-0.02592659182846546,-0.25177001953125,-0.044471386820077896
1769667559036153300,4.0271533203125,0.038244735449552536,0.135539710521698,-0.05124793201684952
1769667559046142500,4.037142578125,0.12144801020622253,0.4424314498901367,-0.09721968322992325
1769667559056130300,4.04713037109375,0.18303827941417694,0.47533705830574036,-0.14002972841262817
1769667559066119400,4.057119384765625,0.24459990859031677,0.31846994161605835,-0.1425006091594696
1769667559076107300,4.067107177734375,0.2790275812149048,0.1515829712152481,-0.09551326185464859
1769667559086096400,4.077096435546875,0.30740034580230713,-0.020586401224136353,-0.046030398458242416
1769667559096084500,4.08708447265625,0.3309359848499298,-0.19488653540611267,0.0017308647511526942
1769667559106073300,4.0970732421875,0.3773556649684906,-0.15996955335140228,0.0481974296271801
1769667559116061200,4.107061279296875,0.3828924000263214,-0.16553537547588348,0.1278057098388672
1769667559126050300,4.11705029296875,0.3072924315929413,-0.05552765354514122,0.16968019306659698
1769667559136038400,4.127038330078125,0.212285116314888,-0.09103339910507202,0.142595574259758
1769667559146027300,4.13702734375,0.12322793900966644,-0.11018898338079453,0.10870658606290817
1769667559156015400,4.147015380859375,0.018798919394612312,-0.1441926211118698,0.029005499556660652
1769667559166004200,4.157004150390625,-0.03639882057905197,-0.17270521819591522,-0.04894788935780525
1769667559175992300,4.166992431640625,-0.10099000483751297,-0.1329832226037979,-0.16278457641601562
1769667559185981200,4.176981201171875,-0.14886032044887543,-0.057315096259117126,-0.2597537338733673
1769667559195970300,4.18697021484375,-0.20661474764347076,-0.03573776036500931,-0.31249991059303284
1769667559205958400,4.19695849609375,-0.2713695168495178,0.1272708624601364,-0.30924472212791443
1769667559215947300,4.206947265625,-0.31666937470436096,0.47847604751586914,-0.26027077436447144
1769667559225935000,4.21693505859375,-0.3588242828845978,0.5684323310852051,-0.26034533977508545
1769667559235924200,4.22692431640625,-0.3774586021900177,0.49988898634910583,-0.35457319021224976
1769667559245912300,4.236912353515625,-0.3978288471698761,0.5500898361206055,-0.4898492693901062
1769667559255901400,4.2469013671875,-0.4188072383403778,0.6782649159431458,-0.6164742708206177
1769667559265889300,4.25688916015625,-0.37054064869880676,0.9996914267539978,-0.5498995184898376
1769667559275878100,4.266878173828125,-0.2384176254272461,1.0589971542358398,-0.39960190653800964
1769667559285866200,4.2768662109375,-0.08038058876991272,0.6013750433921814,-0.28445374965667725
1769667559295855400,4.28685546875,0.04014768451452255,0.27214381098747253,-0.09110825508832932
1769667559305843500,4.296843505859375,0.1656952202320099,0.2414279729127884,0.038854535669088364
1769667559315832300,4.306832275390625,0.19275587797164917,0.306836873292923,-0.09078788012266159
1769667559325821200,4.3168212890625,0.14595215022563934,0.34624579548835754,-0.2609148919582367
1769667559335809300,4.326809326171875,0.12448754161596298,0.21557357907295227,-0.20656707882881165
1769667559345798100,4.336798095703125,0.10874319821596146,0.22949711978435516,-0.0776253417134285
1769667559355786200,4.3467861328125,0.09815293550491333,0.39065319299697876,-0.012004388496279716
1769667559365775400,4.356775390625,0.051496751606464386,0.3793552815914154,0.012000015005469322
1769667559375763200,4.36676318359375,0.006404305808246136,0.3494475185871124,0.043998029083013535
1769667559385752300,4.37675244140625,-0.027657525613904,0.3493998348712921,0.04589686542749405
1769667559395740200,4.386740234375,-0.034068748354911804,0.35119959712028503,0.0303390733897686
1769667559405729300,4.396729248046875,-0.05617644637823105,0.3075360059738159,0.06575378775596619
1769667559415717400,4.40671728515625,-0.06027798354625702,0.2912861406803131,0.09539157897233963
1769667559425706500,4.41670654296875,-0.06620671600103378,0.2855571508407593,0.07891300320625305
1769667559435694300,4.4266943359375,-0.05462794750928879,0.21316787600517273,0.07240982353687286
1769667559445683200,4.43668310546875,-0.05367347225546837,0.21406376361846924,0.0803029015660286
1769667559455672300,4.44667236328125,-0.04629672318696976,0.23064278066158295,0.0612419992685318
1769667559465660400,4.456660400390625,-0.04473558068275452,0.25918278098106384,0.07619937509298325
1769667559475649300,4.466649169921875,-0.03911317139863968,0.24368689954280853,0.08020170032978058
1769667559485637000,4.47663720703125,-0.028244011104106903,0.19643737375736237,0.0906950831413269
1769667559495626200,4.486626220703125,-0.021807832643389702,0.16705435514450073,0.11046241223812103
1769667559505614300,4.4966142578125,-0.01601412519812584,0.16305455565452576,0.1217331737279892
1769667559515603200,4.506603271484375,-0.01458040438592434,0.1646878570318222,0.13618160784244537
1769667559525591300,4.51659130859375,-0.015356715768575668,0.1660013198852539,0.14342860877513885
1769667559535580400,4.526580322265625,-0.017303748056292534,0.15277613699436188,0.1355951875448227
1769667559545568300,4.536568359375,-0.016948215663433075,0.12998375296592712,0.1144518181681633
1769667559555557400,4.546557373046875,-0.01524379849433899,0.07883791625499725,0.08295514434576035
1769667559565545200,4.556545166015625,-0.015697866678237915,0.012863961048424244,0.05969243869185448
1769667559575534300,4.566534423828125,-0.008926711045205593,-0.02271111309528351,0.042907461524009705
1769667559585523500,4.5765234375,-0.0062044281512498856,-0.032374925911426544,0.040616076439619064
1769667559595511300,4.58651123046875,-0.0034307455644011497,-0.029485661536455154,0.03883548825979233
1769667559605500200,4.596500244140625,-0.0032637654803693295,-0.024388371035456657,0.0344010591506958
1769667559615488300,4.60648828125,-0.0032845381647348404,-0.013146902434527874,0.03416483849287033
1769667559625477400,4.616477294921875,-0.0025226077996194363,-0.017588788643479347,0.033525411039590836
1769667559635465500,4.626465576171875,-0.0009397621033713222,-0.0213317908346653,0.04083126410841942
1769667559645454000,4.6364541015625,-0.0003160497872158885,-0.016274981200695038,0.05839401111006737
1769667559655442200,4.646442138671875,0.0014329168479889631,-0.010979586280882359,0.06042054668068886
1769667559665431300,4.656431396484375,0.0020702113397419453,-0.004197579808533192,0.06245999410748482
1769667559675419400,4.66641943359375,0.0011271677212789655,0.011568925343453884,0.060671694576740265
1769667559685408300,4.676408203125,0.0018057412235066295,0.026647210121154785,0.04848107323050499
1769667559695396000,4.68639599609375,0.004928513430058956,0.03317006677389145,0.04499857872724533
1769667559705385200,4.69638525390625,0.005742907989770174,0.019545070827007294,0.046582359820604324
1769667559715374300,4.706374267578125,0.006907241884618998,0.011123621836304665,0.0471554733812809
1769667559725362200,4.716362060546875,0.0037753647193312645,0.013482649810612202,0.04137721285223961
1769667559735351300,4.726351318359375,0.004627438262104988,0.01433812826871872,0.04337538778781891
1769667559745339400,4.73633935546875,0.004393080249428749,0.009389708749949932,0.03868848830461502
1769667559755328300,4.746328369140625,0.004990774672478437,0.006558670662343502,0.02755979634821415
1769667559765316400,4.75631640625,0.002680748701095581,0.006689698435366154,0.016658945009112358
1769667559775305200,4.76630517578125,0.0031102353241294622,0.009396633133292198,0.013268884271383286
1769667559785293300,4.776293212890625,0.003655650420114398,0.009530323557555676,0.013159161433577538
1769667559795282400,4.786282470703125,0.002991658868268132,0.009616420604288578,0.01813008263707161
1769667559805270300,4.796270263671875,0.0010898956097662449,0.013591454364359379,0.01843581534922123
1769667559815259100,4.806259033203125,-0.0006478863651864231,0.013966463506221771,0.01563457027077675
1769667559825247200,4.816247314453125,-0.00044388824608176947,0.023720823228359222,0.01697520539164543
1769667559835236400,4.826236328125,-0.0022807326167821884,0.030664868652820587,0.019172443076968193
1769667559845225200,4.83622509765625,-0.002588860457763076,0.029808396473526955,0.014589942991733551
1769667559855213000,4.846213134765625,-0.002779732458293438,0.012288877740502357,0.013169539161026478
1769667559865202200,4.8562021484375,-0.0012774431379511952,0.017309734597802162,0.011959132738411427
1769667559875190300,4.866190185546875,-0.0027327262796461582,0.01937197521328926,0.00908744614571333
1769667559885179400,4.876179443359375,-0.002316208090633154,0.018991941586136818,0.01167603861540556
1769667559895167200,4.886167236328125,-0.004826107528060675,0.02308608964085579,0.009943653829395771
1769667559905156400,4.89615625,-0.00409187376499176,0.0152052640914917,0.008578783832490444
1769667559915144200,4.906144287109375,-0.004023442976176739,0.021750615909695625,0.010119164362549782
1769667559925133300,4.91613330078125,-0.00583572406321764,0.027358168736100197,0.010151388123631477
1769667559935121400,4.926121337890625,-0.007547255139797926,0.03831271827220917,0.011270572431385517
1769667559945110300,4.9361103515625,-0.00691235763952136,0.04173834249377251,0.017105290666222572
1769667559955099400,4.946099365234375,-0.007140058092772961,0.03610069677233696,0.019758865237236023
1769667559965087200,4.956087158203125,-0.006521938368678093,0.026808395981788635,0.020473390817642212
1769667559975076000,4.966076171875,-0.005863741040229797,0.027715541422367096,0.021522678434848785
1769667559985064200,4.976064208984375,-0.006285851821303368,0.025049183517694473,0.022302985191345215
1769667559995053300,4.98605322265625,-0.007676161825656891,0.01432972401380539,0.010435942560434341
1769667560005041400,4.99604150390625,-0.006965364329516888,0.013543292880058289,0.012370462529361248
1769667560015030300,5.0060302734375,-0.006109493784606457,0.01786031201481819,0.010249922052025795
1769667560025018000,5.01601806640625,-0.008543089963495731,0.020992722362279892,0.010373493656516075
1769667560035007200,5.02600732421875,-0.00920241978019476,0.022232389077544212,0.018114369362592697
1769667560044995300,5.035995361328125,-0.007739013060927391,0.011609304696321487,0.0218526478856802
1769667560054984400,5.045984375,-0.005624125245958567,0.0051886956207454205,0.02290818840265274
1769667560064972300,5.05597216796875,-0.007131474558264017,0.0022645448334515095,0.01742260903120041
1769667560074961200,5.065961181640625,-0.00802936963737011,0.004759116098284721,0.014513912610709667
1769667560084950300,5.0759501953125,-0.009702634066343307,0.0012631849385797977,0.007600612938404083
1769667560094938400,5.0859384765625,-0.008046016097068787,-0.008282536640763283,0.0015347321750596166
1769667560104927200,5.09592724609375,-0.0076191117987036705,0.002311251126229763,0.004315871279686689
1769667560114915300,5.105915283203125,-0.0067428466863930225,0.008578944951295853,0.017707964405417442
1769667560124904400,5.115904541015625,-0.0065172770991921425,0.015813421458005905,0.023333359509706497
1769667560134892300,5.125892333984375,-0.009204831905663013,0.009625882841646671,0.02669881470501423
1769667560144881200,5.135881103515625,-0.006879359949380159,0.005683605559170246,0.028005627915263176
1769667560154869200,5.145869140625,-0.006575208622962236,-0.004504642449319363,0.0300929993391037
1769667560164858400,5.1558583984375,-0.007034603506326675,-0.0028295142110437155,0.03700949624180794
1769667560174846200,5.16584619140625,-0.007597991265356541,-0.0028977624606341124,0.03480040282011032
1769667560184835000,5.1758349609375,-0.007048848085105419,-0.008573492057621479,0.033785201609134674
1769667560194824200,5.18582421875,-0.005815283861011267,-0.012853089720010757,0.03215375915169716
1769667560204812300,5.195812255859375,-0.0050552175380289555,-0.023717988282442093,0.03059128299355507
1769667560214801400,5.205801513671875,-0.004470255691558123,-0.03251563012599945,0.026602666825056076
1769667560224789500,5.21578955078125,-0.003954934421926737,-0.034826453775167465,0.02499544806778431
1769667560234778000,5.225778076171875,-0.002682074438780546,-0.033771153539419174,0.026175227016210556
1769667560244766200,5.23576611328125,-0.0027427945751696825,-0.040514010936021805,0.02492726966738701
1769667560254755300,5.24575537109375,-0.0019824658520519733,-0.04534875601530075,0.02560318447649479
1769667560264743400,5.255743408203125,-0.0008290508994832635,-0.047603920102119446,0.026197068393230438
1769667560274732300,5.265732177734375,-0.0013239188119769096,-0.0411260724067688,0.026501059532165527
1769667560284720000,5.27572021484375,0.00004441326018422842,-0.039841897785663605,0.026497066020965576
1769667560294709200,5.285709228515625,-0.001067071920260787,-0.03584321215748787,0.025917304679751396
1769667560304697300,5.295697265625,0.00039447087328881025,-0.028410594910383224,0.027909083291888237
1769667560314686200,5.305686279296875,0.0019921776838600636,-0.020175522193312645,0.03065279871225357
1769667560324675300,5.31567529296875,0.0043828971683979034,-0.01846311055123806,0.03144428879022598
1769667560334663400,5.325663330078125,0.0016873700078576803,-0.023054370656609535,0.025164294987916946
1769667560344652300,5.33565234375,0.0018317133653908968,-0.02145381085574627,0.02199593186378479
1769667560354640100,5.34564013671875,0.0015901029109954834,-0.016332698985934258,0.01980321668088436
1769667560364629200,5.355629150390625,0.0016649377066642046,-0.008839096873998642,0.019585369154810905
1769667560374617300,5.365617431640625,0.001224256819114089,-0.003317292546853423,0.021479537710547447
1769667560384606500,5.3756064453125,0.004130031913518906,0.002448983723297715,0.02475762367248535
1769667560394594300,5.38559423828125,0.0017508188029751182,0.0021763411350548267,0.023743633180856705
1769667560404583200,5.395583251953125,0.0030174185521900654,0.0034900784958153963,0.022178227081894875
1769667560414571300,5.4055712890625,0.004491215571761131,0.008596731349825859,0.02076541632413864
1769667560424560400,5.415560302734375,0.0025191449094563723,0.01278215553611517,0.016878798604011536
1769667560434549200,5.42554931640625,0.000005531124770641327,0.01789756678044796,0.01760157383978367
1769667560444537000,5.435537109375,0.002210894599556923,0.025730721652507782,0.022710047662258148
1769667560454526200,5.445526123046875,0.0006516113644465804,0.03161999583244324,0.025898654013872147
1769667560464514300,5.455514404296875,0.0017317893216386437,0.029920898377895355,0.018976032733917236
1769667560474503200,5.465503173828125,0.0017734082648530602,0.0283115953207016,0.01721900887787342
1769667560484491300,5.4754912109375,0.0005470224423334002,0.026555508375167847,0.0165481586009264
1769667560494480400,5.48548046875,0.002355438657104969,0.01970912516117096,0.01704270951449871
1769667560504468200,5.49546826171875,0.0012520909076556563,0.021171467378735542,0.01824432797729969
1769667560514457300,5.505457275390625,0.00020378443878144026,0.026893628761172295,0.017564836889505386
1769667560524445200,5.515445068359375,0.0004416046431288123,0.03089476190507412,0.019139297306537628
1769667560534434300,5.525434326171875,-0.0020168102346360683,0.03748073801398277,0.022612713277339935
1769667560544422400,5.53542236328125,0.00003062805626541376,0.04391493648290634,0.027470584958791733
1769667560554411300,5.545411376953125,0.0016993616009131074,0.04193802922964096,0.0312967523932457
1769667560564400000,5.555400146484375,0.0006490108789876103,0.0440501794219017,0.03576020896434784
1769667560574388200,5.56538818359375,-0.0008213238907046616,0.047996681183576584,0.04473080486059189
1769667560584377300,5.57537744140625,0.001860745600424707,0.04833516851067543,0.04468926042318344
1769667560594365400,5.585365478515625,0.001125318929553032,0.04080261290073395,0.047105539590120316
1769667560604354300,5.595354248046875,0.0005013402551412582,0.040901947766542435,0.04882114753127098
1769667560614342100,5.605342041015625,0.0020407058764249086,0.03872332349419594,0.052508167922496796
1769667560624331300,5.615331298828125,0.0009141888003796339,0.03835447505116463,0.05656389892101288
1769667560634319400,5.6253193359375,0.0024453015066683292,0.03985824063420296,0.06515352427959442
1769667560644308200,5.63530810546875,0.0010567293502390385,0.03705766052007675,0.07024629414081573
1769667560654296000,5.645296142578125,0.004681365564465523,0.03291405737400055,0.06721467524766922
1769667560664285200,5.65528515625,0.003573490073904395,0.029928918927907944,0.07359854131937027
1769667560674274300,5.6652744140625,0.005673739593476057,0.03255731984972954,0.08653869479894638
1769667560684262400,5.675262451171875,0.00419967994093895,0.02812901698052883,0.08710940927267075
1769667560694251300,5.685251220703125,0.005080854054540396,0.017501749098300934,0.08699609339237213
1769667560704239400,5.6952392578125,0.007314713671803474,0.0085079874843359,0.08633402734994888
1769667560714228500,5.705228515625,0.00601381016895175,0.006610468961298466,0.08624549210071564
1769667560724216300,5.71521630859375,0.007502783555537462,0.006529242731630802,0.08631473779678345
1769667560734205200,5.725205078125,0.006670607253909111,0.0026542246341705322,0.08666428178548813
1769667560744193300,5.735193359375,0.007437597960233688,0.006867079064249992,0.0861087441444397
1769667560754182400,5.745182373046875,0.008711796253919601,0.01002902165055275,0.08633697032928467
1769667560764170200,5.755170166015625,0.008647880516946316,0.012121733278036118,0.08777587115764618
1769667560774159000,5.7651591796875,0.006825664080679417,0.017431454733014107,0.0948706790804863
1769667560784148200,5.775148193359375,0.008332747034728527,0.013758155517280102,0.09566643089056015
1769667560794136300,5.78513623046875,0.009017257951200008,0.0042400662787258625,0.08845444768667221
1769667560804125200,5.795125244140625,0.010182657279074192,0.0021601375192403793,0.08518701791763306
1769667560814113300,5.80511328125,0.009308140724897385,0.0014143753796815872,0.0788312554359436
1769667560824102100,5.81510205078125,0.0068843974731862545,0.002088953973725438,0.0724862739443779
1769667560834090200,5.82509033203125,0.006412616465240717,0.006284610368311405,0.06819645315408707
1769667560844079400,5.835079345703125,0.006400099489837885,0.012720937840640545,0.06951072067022324
1769667560854067200,5.845067138671875,0.0064168088138103485,0.012281285598874092,0.07181689143180847
1769667560864056300,5.855056396484375,0.0032127590384334326,0.01307677198201418,0.06905439496040344
1769667560874044200,5.865044189453125,0.0020184575114399195,0.00928263645619154,0.06388679891824722
1769667560884033300,5.875033203125,0.0009412090294063091,0.0061030881479382515,0.05243121087551117
1769667560894022100,5.885022216796875,-0.0006656513432972133,0.0019061601487919688,0.043969664722681046
1769667560904010200,5.89501025390625,-0.0015990892425179482,0.003690477926284075,0.03599722310900688
1769667560913999400,5.904999267578125,-0.0009630696149542928,0.010625680908560753,0.0373702235519886
1769667560923987500,5.914987548828125,-0.0018099548760801554,0.01992730423808098,0.03790445625782013
1769667560933976000,5.92497607421875,-0.0026615201495587826,0.02743390016257763,0.04304543882608414
1769667560943964200,5.934964111328125,-0.002250328194350004,0.0354931578040123,0.04362254589796066
1769667560953953300,5.944953369140625,-0.0014992334181442857,0.03983260318636894,0.042846620082855225
1769667560963941400,5.95494140625,-0.005981333553791046,0.04542896896600723,0.037915244698524475
1769667560973930200,5.96493017578125,-0.0044883182272315025,0.0483989492058754,0.041586294770240784
1769667560983918000,5.97491796875,-0.004424136132001877,0.05045251548290253,0.0379345677793026
1769667560993907200,5.9849072265625,-0.003575163660570979,0.053846731781959534,0.03017343021929264
1769667561003895300,5.994895263671875,-0.006583204492926598,0.0533473901450634,0.01874474249780178
1769667561013884400,6.004884521484375,-0.004584714770317078,0.05772675573825836,0.012909899465739727
1769667561023873300,6.014873291015625,-0.007709401659667492,0.060695648193359375,0.0015544468769803643
1769667561033861000,6.024861083984375,-0.007514376658946276,0.06331628561019897,-0.005533434916287661
1769667561043850200,6.034850341796875,-0.008589494973421097,0.06012049317359924,-0.008477026596665382
1769667561053838300,6.04483837890625,-0.009427526034414768,0.06404884904623032,-0.011422881856560707
1769667561063827200,6.0548271484375,-0.00943684671074152,0.07134990394115448,-0.01077893003821373
1769667561073815300,6.064815185546875,-0.011088941246271133,0.07407043129205704,-0.017295949161052704
1769667561083803400,6.074803466796875,-0.011581093072891235,0.08187749236822128,-0.022315476089715958
1769667561093791500,6.08479150390625,-0.013515613041818142,0.08984353393316269,-0.019000105559825897
1769667561103780600,6.094780517578125,-0.016632044687867165,0.09816884249448776,-0.02047043666243553
1769667561113768700,6.104768798828125,-0.01620340906083584,0.10379861295223236,-0.022659819573163986
1769667561123757600,6.114757568359375,-0.016354145482182503,0.1051991730928421,-0.027406640350818634
1769667561133746700,6.12474658203125,-0.020182112231850624,0.10717884451150894,-0.033197544515132904
1769667561143734500,6.134734619140625,-0.020193297415971756,0.09460926055908203,-0.041990503668785095
1769667561153723400,6.144723388671875,-0.019670309498906136,0.08012475073337555,-0.04728846997022629
1769667561163711500,6.15471142578125,-0.019504394382238388,0.07627781480550766,-0.05902795121073723
1769667561173700600,6.16470068359375,-0.021309087052941322,0.06523299962282181,-0.07043133676052094
1769667561183688700,6.174688720703125,-0.023731498047709465,0.06167874485254288,-0.0799928829073906
1769667561193677300,6.18467724609375,-0.02265523374080658,0.0577414333820343,-0.07829073071479797
1769667561203665400,6.19466552734375,-0.024742351844906807,0.040548864752054214,-0.09064619988203049
1769667561213654500,6.204654541015625,-0.02558991126716137,0.03852538391947746,-0.1022498607635498
1769667561223642600,6.214642578125,-0.024832243099808693,0.036615096032619476,-0.10882014781236649
1769667561233631500,6.224631591796875,-0.02396278828382492,0.02963259071111679,-0.1227981448173523
1769667561243620600,6.23462060546875,-0.026037391275167465,0.025454889982938766,-0.12288069725036621
1769667561253608400,6.2446083984375,-0.024996384978294373,0.02161196433007717,-0.12892739474773407
1769667561263597600,6.25459765625,-0.0254102423787117,0.018160507082939148,-0.12760406732559204
1769667561273585700,6.264585693359375,-0.024082960560917854,0.020785953849554062,-0.11759525537490845
1769667561283574500,6.274574462890625,-0.022477608174085617,0.0212637260556221,-0.11236827075481415
1769667561293562400,6.284562255859375,-0.02408571168780327,0.018268294632434845,-0.11684916168451309
1769667561303551500,6.294551513671875,-0.02367665059864521,0.01968349888920784,-0.1168651357293129
1769667561313539600,6.30453955078125,-0.022800859063863754,0.015112155117094517,-0.1267302930355072
1769667561323528400,6.314528564453125,-0.023414451628923416,0.021792694926261902,-0.12902754545211792
1769667561333516500,6.3245166015625,-0.026135597378015518,0.025721129029989243,-0.13434414565563202
1769667561343505700,6.334505615234375,-0.027607792988419533,0.025121917948126793,-0.14182603359222412
1769667561353494500,6.34449462890625,-0.025243449956178665,0.016179431229829788,-0.14056821167469025
1769667561363482400,6.354482421875,-0.024478590115904808,0.013153014704585075,-0.13256753981113434
1769667561373471500,6.364471435546875,-0.026145052164793015,0.016944795846939087,-0.13243944942951202
1769667561383459600,6.37445947265625,-0.022244585677981377,0.020058030262589455,-0.12056015431880951
1769667561393448700,6.38444873046875,-0.01977411098778248,0.017397070303559303,-0.10484883189201355
1769667561403436500,6.3944365234375,-0.019458793103694916,0.015006083995103836,-0.10204452276229858
1769667561413425400,6.40442529296875,-0.01918102242052555,0.013233525678515434,-0.09885618835687637
1769667561423413500,6.41441357421875,-0.02002497762441635,0.02018996886909008,-0.08950396627187729
1769667561433402600,6.424402587890625,-0.018303118646144867,0.022804690524935722,-0.0908760204911232
1769667561443390700,6.434390625,-0.018910586833953857,0.022740241140127182,-0.08897345513105392
1769667561453379600,6.444379638671875,-0.016978444531559944,0.019176913425326347,-0.08846880495548248
1769667561463368400,6.454368408203125,-0.01946956478059292,0.016229858621954918,-0.08474117517471313
1769667561473356500,6.4643564453125,-0.015959473326802254,0.016843393445014954,-0.0887802392244339
1769667561483345400,6.474345458984375,-0.01550993137061596,0.013778360560536385,-0.08504382520914078
1769667561493333500,6.48433349609375,-0.013863888569176197,0.012233088724315166,-0.07593462616205215
1769667561503322600,6.494322509765625,-0.010808710008859634,0.007115026004612446,-0.0718488022685051
1769667561513310500,6.504310546875,-0.010751988738775253,0.006628158036619425,-0.06567053496837616
1769667561523299300,6.51429931640625,-0.007384688127785921,0.00042938452679663897,-0.05508633330464363
1769667561533287400,6.524287353515625,-0.005765223875641823,-0.0006068930961191654,-0.04878369718790054
1769667561543276500,6.534276611328125,-0.0031593209132552147,0.00004744553007185459,-0.044577497988939285
1769667561553264600,6.5442646484375,-0.0032461974769830704,0.00028009992092847824,-0.04067317768931389
1769667561563253800,6.554253662109375,-0.0022360605653375387,-0.0007281729485839605,-0.04290490597486496
1769667561573242400,6.564242431640625,-0.0008428955334238708,0.0008954794611781836,-0.040380362421274185
1769667561583230500,6.57423046875,-0.0002761748619377613,-0.0012355821672827005,-0.03127128630876541
1769667561593219600,6.584219482421875,0.0008055419893935323,-0.0013265025336295366,-0.02498450130224228
1769667561603207700,6.594207763671875,0.0014729300746694207,0.0021095077972859144,-0.01661605015397072
1769667561613196500,6.604196533203125,0.003543542930856347,0.003131178207695484,-0.011864706873893738
1769667561623184400,6.614184326171875,0.002772291423752904,0.007251887582242489,-0.008559989742934704
1769667561633173500,6.624173583984375,0.00020301155745983124,0.007227886468172073,-0.008113378658890724
1769667561643161600,6.63416162109375,0.0015005037421360612,0.007130681537091732,-0.009007401764392853
1769667561653150500,6.644150390625,0.0005980096757411957,0.009183922782540321,-0.008935355581343174
1769667561663138600,6.654138671875,-0.00011465221177786589,0.011510460637509823,-0.010672802105545998
1769667561673127400,6.66412744140625,-0.001575465314090252,0.013902281410992146,-0.01272622961550951
1769667561683116500,6.674116455078125,-0.0014937062514945865,0.01284314226359129,-0.01279147807508707
1769667561693104400,6.6841044921875,-0.0025531118735671043,0.009234026074409485,-0.013891628943383694
1769667561703093500,6.694093505859375,-0.0024063715245574713,0.01113046333193779,-0.013790163211524487
1769667561713081600,6.70408154296875,-0.0008679947932250798,0.009375061839818954,-0.008576760068535805
1769667561723070700,6.71407080078125,0.0014119374100118876,0.005363275296986103,-0.002640840597450733
1769667561733058600,6.72405859375,0.0017780596390366554,0.001822720980271697,0.003747679991647601
1769667561743047400,6.73404736328125,0.0023770045954734087,-0.0002502836287021637,0.005068075377494097
1769667561753035500,6.744035400390625,0.0009120542090386152,-0.00010214699432253838,0.007362797390669584
1769667561763024600,6.754024658203125,0.0029914502520114183,0.00039719557389616966,0.007180637214332819
1769667561773012700,6.7640126953125,0.002060740953311324,-0.0013049077242612839,0.009144052863121033
1769667561783001300,6.77400146484375,0.003073275089263916,-0.005846928805112839,0.010524103417992592
1769667561792990500,6.783990478515625,0.0037982610519975424,-0.024041106924414635,0.012062473222613335
1769667561802978600,6.793978515625,0.0031761464197188616,-0.022916452959179878,0.01896032691001892
1769667561812967400,6.803967529296875,0.006044039037078619,-0.01887795887887478,0.030069034546613693
1769667561822955500,6.81395556640625,0.005019520875066519,-0.02165110968053341,0.0342685766518116
1769667561832944600,6.823944580078125,0.004717832896858454,-0.02401304431259632,0.033223964273929596
1769667561842932500,6.833932373046875,0.005788423586636782,-0.022785326465964317,0.041706934571266174
1769667561852921600,6.843921630859375,0.005523719359189272,-0.027501925826072693,0.04694961756467819
1769667561862909400,6.853909423828125,0.005441427696496248,-0.03073393739759922,0.04743458330631256
1769667561872898600,6.863898681640625,0.006460951175540686,-0.03123469091951847,0.057699866592884064
1769667561882887700,6.8738876953125,0.004518707748502493,-0.029642919078469276,0.06333751231431961
1769667561892875500,6.88387548828125,0.0048111965879797935,-0.031371038407087326,0.06951218098402023
1769667561902864400,6.893864501953125,0.00671482365578413,-0.032804884016513824,0.07863883674144745
1769667561912852500,6.9038525390625,0.006537263281643391,-0.03695568069815636,0.08676905930042267
1769667561922841600,6.913841552734375,0.00821745116263628,-0.04026545584201813,0.08964154869318008
1769667561932829700,6.92382958984375,0.008231029845774174,-0.040525421500205994,0.09246876090765
1769667561942818600,6.933818603515625,0.007729823235422373,-0.044206444174051285,0.09953226149082184
1769667561952806400,6.943806396484375,0.004336824640631676,-0.045570891350507736,0.10272512584924698
1769667561962795500,6.95379541015625,0.0009064069017767906,-0.05445706099271774,0.09942253679037094
1769667561972783600,6.96378369140625,0.0007087423000484705,-0.059319525957107544,0.09170349687337875
1769667561982772500,6.9737724609375,0.0016858561430126429,-0.06297897547483444,0.09230643510818481
1769667561992761600,6.98376171875,0.004585564136505127,-0.05920947343111038,0.08546464890241623
1769667562002749400,6.99374951171875,0.003341867821291089,-0.05035366117954254,0.07257894426584244
1769667562012738600,7.003738525390625,0.002477274276316166,-0.04453583434224129,0.06548801064491272
1769667562022726700,7.0137265625,0.002334528835490346,-0.04369693994522095,0.05393654853105545
1769667562032715500,7.023715576171875,0.0005832848837599158,-0.0448031909763813,0.045288875699043274
1769667562042703600,7.03370361328125,0.0029297959990799427,-0.03683794289827347,0.04546384513378143
1769667562052692500,7.0436923828125,0.0033699418418109417,-0.029014650732278824,0.0435853935778141
1769667562062680600,7.0536806640625,0.004681015852838755,-0.02224196493625641,0.03769687935709953
1769667562072669400,7.06366943359375,0.0010792461689561605,-0.008758017793297768,0.034530092030763626
1769667562082658300,7.073658203125,0.0011229219380766153,-0.008764409460127354,0.015985438600182533
1769667562092647400,7.0836474609375,-0.003233418334275484,0.00006807059980928898,-0.006056075915694237
1769667562102636000,7.093635986328125,-0.004770328290760517,0.0018412033095955849,-0.016978498548269272
1769667562112624000,7.1036240234375,-0.005851108580827713,0.0029943871777504683,-0.029891496524214745
1769667562122613200,7.11361328125,-0.020477456972002983,-0.006727216299623251,-0.04234524071216583
1769667562132601300,7.123601318359375,-0.060689907521009445,-0.053700871765613556,-0.011499851010739803
1769667562142590200,7.133590087890625,-0.040178507566452026,-0.0988188162446022,-0.038687530905008316
1769667562152578000,7.143578125,-0.045734141021966934,-0.1366361379623413,-0.08397430926561356
1769667562162567200,7.153567138671875,-0.05388820916414261,-0.17974978685379028,-0.08193645626306534
1769667562172555300,7.16355517578125,-0.09715186804533005,-0.2427058070898056,-0.030270995572209358
1769667562182544100,7.173544189453125,-0.12582345306873322,-0.3150196969509125,-0.03077753074467182
1769667562192532200,7.1835322265625,-0.1530729979276657,-0.4509059488773346,-0.05057505890727043
1769667562202521000,7.19352099609375,-0.1695297360420227,-0.5153602957725525,-0.0717887356877327
1769667562212510200,7.20351025390625,-0.18342337012290955,-0.5590035915374756,-0.11796835064888
1769667562222498300,7.213498291015625,-0.19623184204101562,-0.545375406742096,-0.16671112179756165
1769667562232487200,7.223487060546875,-0.19101835787296295,-0.5362324118614197,-0.1722429245710373
1769667562242475300,7.233475341796875,-0.15969212353229523,-0.5490206480026245,-0.1670156717300415
1769667562252464400,7.24346435546875,-0.12524421513080597,-0.5914424061775208,-0.11732254922389984
1769667562262452200,7.2534521484375,-0.11491753906011581,-0.5707880258560181,-0.06500714272260666
1769667562272441000,7.263441162109375,-0.11539044231176376,-0.5532716512680054,-0.018225394189357758
1769667562282429200,7.27342919921875,-0.08860863000154495,-0.554133951663971,0.011716791428625584
1769667562292418300,7.283418212890625,-0.07128643989562988,-0.5460267663002014,0.04966298118233681
1769667562302407200,7.2934072265625,-0.07035726308822632,-0.5432085990905762,0.11830169707536697
1769667562312395000,7.30339501953125,-0.08604708313941956,-0.6467320919036865,0.18622229993343353
1769667562322384100,7.313384033203125,-0.10315283387899399,-0.7503966689109802,0.2545209228992462
1769667562332372200,7.323372314453125,-0.11453711986541748,-0.7995184063911438,0.32571056485176086
1769667562342361000,7.333361083984375,-0.11056474596261978,-0.9057015776634216,0.4207600951194763
1769667562352349200,7.34334912109375,-0.20354440808296204,-0.956579327583313,0.5077207088470459
1769667562362338300,7.35333837890625,-0.253160685300827,-0.9923101663589478,0.5946731567382812
1769667562372326100,7.363326171875,-0.19254723191261292,-1.0600835084915161,0.6256969571113586
1769667562382315300,7.373315185546875,-0.13535425066947937,-1.0728331804275513,0.5999929308891296
1769667562392303000,7.38330322265625,-0.0935499370098114,-0.9353729486465454,0.5641273856163025
1769667562402292200,7.393292236328125,-0.0586920864880085,-0.7219847440719604,0.5219157338142395
1769667562412281300,7.40328125,-0.008932074531912804,-0.4520050585269928,0.4285430908203125
1769667562422269200,7.413269287109375,0.019216207787394524,-0.18491877615451813,0.2602909207344055
1769667562432258000,7.423258056640625,-0.012895902618765831,0.06493650376796722,0.09411953389644623
1769667562442246100,7.43324609375,-0.02962162159383297,0.10711565613746643,0.006883428432047367
1769667562452235300,7.4432353515625,0.030306626111268997,0.21733592450618744,0.042310528457164764
1769667562462223400,7.453223388671875,0.023010361939668655,0.4124622941017151,0.08065206557512283
1769667562472212000,7.4632119140625,-0.04502967372536659,0.5297971367835999,0.09872427582740784
1769667562482200000,7.473199951171875,-0.10569381713867188,0.5288911461830139,0.15906378626823425
1769667562492189200,7.483189208984375,-0.1610955446958542,0.3906692862510681,0.2289762645959854
1769667562502178300,7.49317822265625,-0.23540306091308594,0.12272277474403381,0.26555025577545166
1769667562512166100,7.503166259765625,-0.25071147084236145,-0.24499410390853882,0.27406758069992065
1769667562522155300,7.5131552734375,-0.2106282263994217,-0.5839029550552368,0.21653398871421814
1769667562532143000,7.52314306640625,-0.16977719962596893,-0.7910178303718567,0.11394024640321732
1769667562542132200,7.53313232421875,-0.1046578511595726,-0.6858913898468018,0.06054306402802467
1769667562552120300,7.543120361328125,-0.055348705500364304,-0.43394094705581665,0.0754380002617836
1769667562562109200,7.553109130859375,-0.04868627339601517,-0.25888046622276306,0.17835372686386108
1769667562572097300,7.56309716796875,-0.0876629576086998,-0.09219520539045334,0.20795102417469025
1769667562582086100,7.573086181640625,-0.11309801042079926,0.1252172738313675,0.18706545233726501
1769667562592074200,7.58307421875,-0.14888955652713776,0.18735365569591522,0.10139182209968567
1769667562602063000,7.59306298828125,-0.19642458856105804,-0.0346626341342926,-0.02267260104417801
1769667562612052200,7.60305224609375,-0.282877117395401,-0.2680078446865082,-0.0876980647444725
1769667562622040300,7.613040283203125,-0.31477195024490356,-0.4652263820171356,-0.10269086807966232
1769667562632029200,7.623029296875,-0.33612674474716187,-0.6161506772041321,-0.16688930988311768
1769667562642017000,7.63301708984375,-0.24664825201034546,-0.7975113987922668,-0.1983596235513687
1769667562652006100,7.643006103515625,-0.23038987815380096,-0.5344275832176208,-0.09807201474905014
1769667562661994200,7.652994140625,-0.2653481364250183,-0.09174098074436188,-0.410442978143692
1769667562671983400,7.6629833984375,-0.15232881903648376,0.1821696162223816,-0.6861785650253296
1769667562681971200,7.67297119140625,0.03901023790240288,0.4121498167514801,-0.7571552395820618
1769667562691960000,7.6829599609375,0.14354416728019714,0.6713769435882568,-0.7871218323707581
1769667562701949200,7.69294921875,0.13585428893566132,0.8591234087944031,-0.7051478624343872
1769667562711937300,7.702937255859375,0.06804698705673218,0.8093448281288147,-0.4849022626876831
1769667562721926100,7.712926025390625,-0.0030921706929802895,0.5092086791992188,-0.4197956919670105
1769667562731914200,7.722914306640625,0.008639482781291008,0.5454703569412231,-0.3617311120033264
1769667562741903400,7.7329033203125,-0.014435476623475552,0.7192602753639221,-0.12794123589992523
1769667562751891200,7.74289111328125,-0.03710862994194031,0.9807896614074707,-0.15674957633018494
1769667562761880000,7.752880126953125,0.04646322876214981,1.075024127960205,-0.35571834444999695
1769667562771868200,7.7628681640625,0.14090611040592194,1.329911231994629,-0.45018571615219116
1769667562781857300,7.772857177734375,0.1428840309381485,1.822576880455017,-0.31407102942466736
1769667562791846400,7.782846435546875,0.1911369115114212,1.8610358238220215,-0.40106770396232605
1769667562801834000,7.792833984375,0.20488840341567993,1.5396209955215454,-0.4585448205471039
1769667562811823000,7.802822998046875,0.20696473121643066,1.2407478094100952,-0.22889459133148193
1769667562821811200,7.812811279296875,0.16715766489505768,1.4768061637878418,0.25320732593536377
1769667562831800300,7.82280029296875,0.10567047446966171,1.1395431756973267,0.28234338760375977
1769667562841788400,7.832788330078125,0.0008372702868655324,0.9367542862892151,0.10048836469650269
1769667562851777000,7.842777099609375,-0.04126057028770447,0.6718311309814453,-0.16117055714130402
1769667562861765000,7.85276513671875,-0.05729333311319351,0.4910397231578827,-0.32332006096839905
1769667562871754200,7.862754150390625,-0.029288193210959435,0.30230218172073364,-0.27724310755729675
1769667562881743000,7.8727431640625,-0.03925853595137596,0.20662254095077515,-0.1256365329027176
1769667562891731200,7.882731201171875,-0.04292725399136543,0.15784387290477753,-0.0674859955906868
1769667562901720300,7.89272021484375,-0.019048819318413734,0.0337325781583786,-0.055731069296598434
1769667562911708200,7.902708251953125,-0.014313186518847942,-0.021432138979434967,-0.02097601816058159
1769667562921697000,7.912697021484375,-0.00792319793254137,0.004773364402353764,0.004413492977619171
1769667562931685000,7.92268505859375,-0.0021934579126536846,-0.0011682105250656605,0.017563503235578537
1769667562941674200,7.93267431640625,0.005891366861760616,0.016275495290756226,0.018043138086795807
1769667562951662300,7.942662353515625,0.007774094119668007,-0.004092432092875242,0.03686982020735741
1769667562961651200,7.952651123046875,0.010908900760114193,-0.045158907771110535,0.0521068274974823
1769667562971640000,7.96264013671875,0.012837287969887257,-0.09044604748487473,0.06397707760334015
1769667562981628200,7.972628173828125,0.008094198070466518,-0.1010930985212326,0.0683039128780365
1769667562991617300,7.9826171875,0.00832876842468977,-0.10106626152992249,0.06879246234893799
1769667563001605400,7.99260546875,0.005903427489101887,-0.09057500958442688,0.07019967585802078
1769667563011594200,8.00259423828125,0.006741512566804886,-0.08115632832050323,0.0746799185872078
1769667563021582000,8.01258203125,0.009368721395730972,-0.07296391576528549,0.07300559431314468
1769667563031571200,8.0225712890625,0.010729427449405193,-0.08544815331697464,0.07001649588346481
1769667563041559300,8.032559326171874,0.01206660084426403,-0.08890973031520844,0.0657397210597992
1769667563051548200,8.042548095703125,0.011427324265241623,-0.08879444003105164,0.062212616205215454
1769667563061537300,8.052537353515625,0.012389258481562138,-0.08457307517528534,0.05458345636725426
1769667563071525000,8.062525146484376,0.011511420831084251,-0.07725085318088531,0.04673684760928154
1769667563081514000,8.072513916015625,0.011005686596035957,-0.06690287590026855,0.0390179418027401
1769667563091501800,8.082501708984376,0.009621108882129192,-0.07296982407569885,0.030054805800318718
1769667563101490700,8.09249072265625,0.009349466301500797,-0.06753271818161011,0.022317789494991302
1769667563111478800,8.102478759765624,0.006190158426761627,-0.05981433764100075,0.022951355203986168
1769667563121468000,8.112468017578125,0.006871806923300028,-0.0652349665760994,0.02594367414712906
1769667563131455700,8.122455810546874,0.008490330539643764,-0.06362958252429962,0.025643013417720795
1769667563141444600,8.132444580078126,0.00810230802744627,-0.05777302384376526,0.02356494776904583
1769667563151433700,8.142433837890625,0.007184793706983328,-0.043021347373723984,0.01869255304336548
1769667563161421800,8.152421875,0.007003432605415583,-0.02019779197871685,0.016743650659918785
1769667563171410700,8.16241064453125,0.005257725715637207,-0.009875155985355377,0.013632550835609436
1769667563181398800,8.172398681640624,0.004511241801083088,-0.006902801804244518,0.006701141595840454
1769667563191388000,8.182387939453125,0.0025195181369781494,-0.00460971612483263,0.0030066820327192545
1769667563201375700,8.192375732421874,0.0009549112292006612,-0.0046009281650185585,0.00102342595346272
1769667563211364900,8.20236474609375,0.0004085066029801965,0.0016476548044010997,0.003935983870178461
1769667563221352700,8.212352783203125,0.0004828086821362376,0.010874442756175995,0.005361840128898621
1769667563231341800,8.222341796875,-0.002680374775081873,0.02396790124475956,0.007940857671201229
1769667563241331000,8.2323310546875,-0.006625315174460411,0.03118160553276539,0.0021511453669518232
1769667563251318800,8.24231884765625,-0.007388897240161896,0.03257380425930023,-0.00022879987955093384
1769667563261307600,8.2523076171875,-0.007883712649345398,0.03978590667247772,-0.0018480017315596342
1769667563271295700,8.262295654296874,-0.00991505291312933,0.05511189624667168,0.0003504503984004259
1769667563281284900,8.272284912109376,-0.01202161330729723,0.06822982430458069,0.0017004068940877914
1769667563291273000,8.28227294921875,-0.012887869030237198,0.08357998728752136,-0.002859328407794237
1769667563301261600,8.292261474609376,-0.014016516506671906,0.10061836242675781,-0.0025693103671073914
1769667563311249700,8.302249755859375,-0.013215722516179085,0.10282758623361588,0.004294206388294697
1769667563321238800,8.31223876953125,-0.015639465302228928,0.08564647287130356,0.0008803000673651695
1769667563331228000,8.322227783203125,-0.014031087048351765,0.07414521276950836,0.000631401315331459
1769667563341215700,8.3322158203125,-0.014250798150897026,0.068877212703228,0.006589691154658794
1769667563351204900,8.342204833984376,-0.013807643204927444,0.050078801810741425,0.008155892603099346
1769667563361192700,8.352192626953125,-0.015057198703289032,0.05228043720126152,0.006335621699690819
1769667563371181800,8.362181884765626,-0.009933735243976116,0.047878507524728775,0.009965636767446995
1769667563381170000,8.372169921875,-0.009584061801433563,0.04338468983769417,0.01755058579146862
1769667563391158800,8.38215869140625,-0.00905663426965475,0.04546704143285751,0.020123476162552834
1769667563401147000,8.39214697265625,-0.006572703830897808,0.04340256005525589,0.02997743710875511
1769667563411135700,8.4021357421875,-0.005102910567075014,0.0451548770070076,0.04124394804239273
1769667563421124600,8.41212451171875,-0.004156156908720732,0.06254984438419342,0.04395877197384834
1769667563431112700,8.42211279296875,-0.005328297149389982,0.06286031752824783,0.04738694056868553
1769667563441101800,8.432101806640626,-0.004659577272832394,0.06372744590044022,0.04766843840479851
1769667563451090000,8.44208984375,-0.004659811034798622,0.04685337841510773,0.04983515292406082
1769667563461078800,8.452078857421874,-0.006249185651540756,0.03495650365948677,0.04922156780958176
1769667563471066600,8.462066650390625,-0.004103366751223803,0.02390965446829796,0.05620865151286125
1769667563481055700,8.4720556640625,-0.0004220791161060333,0.01689142733812332,0.05842120572924614
1769667563491043800,8.4820439453125,-0.0012043742462992668,0.014461222104728222,0.05871974304318428
1769667563501032700,8.49203271484375,-0.0009774728678166866,0.009629183448851109,0.05606403574347496
1769667563511020500,8.5020205078125,0.0014663739129900932,0.0042896568775177,0.05366985872387886
1769667563521009700,8.512009765625,0.0016064562369138002,0.0025538087356835604,0.05125197395682335
1769667563530998800,8.521998779296876,0.0048107909969985485,-0.007369494065642357,0.05538038909435272
1769667563540987000,8.53198681640625,0.003640598151832819,-0.011579684913158417,0.053062908351421356
1769667563550975700,8.541975830078124,0.0048601203598082066,-0.016464838758111,0.051107216626405716
1769667563560963800,8.5519638671875,0.002347960602492094,-0.008523027412593365,0.047248829156160355
1769667563570953000,8.561952880859375,0.0013266884488984942,-0.00469839945435524,0.0486905463039875
1769667563580940800,8.57194091796875,0.0017426741542294621,-0.0017124630976468325,0.050863686949014664
1769667563590929700,8.5819296875,0.0029579554684460163,-0.002377670956775546,0.05818110704421997
1769667563600918800,8.591918701171876,0.0022415651474148035,0.003771834308281541,0.060673560947179794
1769667563610907000,8.601906982421875,0.0020932876504957676,0.00516454828903079,0.06249343976378441
1769667563620895700,8.611895751953124,0.0026339092291891575,0.0030145784839987755,0.06106278672814369
1769667563630883600,8.621883544921875,0.0018661795184016228,0.0047676172107458115,0.05989539623260498
1769667563640872700,8.631872802734375,0.0008163615129888058,0.007956752553582191,0.057992033660411835
1769667563650860800,8.64186083984375,0.0004135060589760542,0.010245523415505886,0.05254732072353363
1769667563660850000,8.651849853515625,0.00003933184780180454,0.01243623998016119,0.05164983868598938
1769667563670837800,8.661837646484376,-0.0022543284576386213,0.017819315195083618,0.05088286101818085
1769667563680826600,8.67182666015625,0.00006421958096325397,0.021120036020874977,0.04633604362607002
1769667563690815700,8.681815673828124,-0.0003250539302825928,0.023646892979741096,0.04542616009712219
1769667563700803800,8.691803955078125,-0.002304048975929618,0.029056040570139885,0.038046009838581085
1769667563710792700,8.701792724609374,-0.0036766757257282734,0.031542375683784485,0.03849398344755173
1769667563720780800,8.71178076171875,-0.0037488476373255253,0.028056032955646515,0.03574426844716072
1769667563730770000,8.72177001953125,-0.0021127189975231886,0.019913658499717712,0.03107919730246067
1769667563740757800,8.7317578125,-0.0021739716175943613,0.02947866916656494,0.025510527193546295
1769667563750746600,8.74174658203125,-0.0034871057141572237,0.03190610557794571,0.024321023374795914
1769667563760734700,8.751734619140626,-0.004238916095346212,0.03964977711439133,0.019257022067904472
1769667563770723800,8.761723876953125,-0.005308310966938734,0.04585745185613632,0.022176381200551987
1769667563780713000,8.771712890625,-0.005802860017865896,0.04499192535877228,0.02261766791343689
1769667563790700800,8.78170068359375,-0.0049841986037790775,0.04282442107796669,0.010288824327290058
1769667563800689700,8.791689697265625,-0.004443843383342028,0.04052771255373955,0.0021408831235021353
1769667563810677800,8.801677734375,-0.005268706940114498,0.04782711714506149,-0.0022238900419324636
1769667563820667000,8.8116669921875,-0.006276980042457581,0.04930517077445984,-0.002881690626963973
1769667563830655000,8.821655029296876,-0.0060301050543785095,0.0499160997569561,-0.003939498215913773
1769667563840643800,8.831643798828125,-0.005434089340269566,0.04691897705197334,-0.007516389712691307
1769667563850631700,8.841631591796874,-0.007742896676063538,0.04495012387633324,-0.010051204822957516
1769667563860620800,8.851620849609375,-0.007527979556471109,0.046494223177433014,-0.01137399673461914
1769667563870609700,8.861609619140625,-0.009884008206427097,0.04801645129919052,-0.013797609135508537
1769667563880597800,8.87159765625,-0.010903200134634972,0.04874269291758537,-0.01405993103981018
1769667563890587000,8.8815869140625,-0.011046604253351688,0.05751001462340355,-0.008634811267256737
1769667563900574700,8.89157470703125,-0.01301414705812931,0.06277535110712051,-0.012954458594322205
1769667563910563600,8.9015634765625,-0.014470669440925121,0.0677889883518219,-0.013076129369437695
1769667563920551700,8.9115517578125,-0.014764947816729546,0.06478440761566162,-0.018575824797153473
1769667563930540800,8.921540771484375,-0.0161213967949152,0.06069096550345421,-0.025285953655838966
1769667563940529000,8.93152880859375,-0.021627750247716904,0.06581701338291168,-0.026135768741369247
1769667563950518000,8.94151806640625,-0.022020574659109116,0.06846918165683746,-0.027309680357575417
1769667563960506600,8.951506591796875,-0.02115851268172264,0.059854380786418915,-0.03063436970114708
1769667563970494700,8.96149462890625,-0.022440621629357338,0.0598459392786026,-0.03747376799583435
1769667563980483800,8.97148388671875,-0.020560694858431816,0.05076775327324867,-0.037136614322662354
1769667563990472000,8.981471923828124,-0.01887616328895092,0.045777078717947006,-0.04194136708974838
1769667564000460800,8.991460693359375,-0.020219726487994194,0.041983142495155334,-0.0442868173122406
1769667564010448600,9.00144873046875,-0.01992698945105076,0.04325037822127342,-0.043052032589912415
1769667564020437800,9.011437744140625,-0.02372519113123417,0.04207272827625275,-0.055631473660469055
1769667564030425900,9.02142578125,-0.020849453285336494,0.03337495028972626,-0.05128638446331024
1769667564040414700,9.031414794921876,-0.021753063425421715,0.03886612132191658,-0.06047055870294571
1769667564050403800,9.04140380859375,-0.02398558519780636,0.04782397300004959,-0.0622924342751503
1769667564060391700,9.0513916015625,-0.022689690813422203,0.057843051850795746,-0.06670688837766647
1769667564070380800,9.061380859375,-0.025182677432894707,0.07243184745311737,-0.07188593596220016
1769667564080368600,9.07136865234375,-0.026311324909329414,0.07504867017269135,-0.06830904632806778
1769667564090357500,9.081357421875,-0.024889927357435226,0.07643507421016693,-0.07243148982524872
1769667564100345600,9.091345703125,-0.02654428221285343,0.0651126429438591,-0.0829368606209755
1769667564110334700,9.101334716796876,-0.025388993322849274,0.0707642212510109,-0.08138717710971832
1769667564120322600,9.111322509765625,-0.026496868580579758,0.06848828494548798,-0.08559577167034149
1769667564130311400,9.1213115234375,-0.02888314425945282,0.06821496039628983,-0.08977039158344269
1769667564140300500,9.131300537109375,-0.025851935148239136,0.06373312324285507,-0.08922205120325089
1769667564150288600,9.14128857421875,-0.025784699246287346,0.04517868161201477,-0.09033524245023727
1769667564160277500,9.151277587890625,-0.026741573587059975,0.04704875126481056,-0.09692630171775818
1769667564170265600,9.161265625,-0.027167774736881256,0.03682665899395943,-0.09925659745931625
1769667564180254500,9.17125439453125,-0.027903873473405838,0.038727886974811554,-0.08920981734991074
1769667564190242600,9.18124267578125,-0.02437947317957878,0.035585109144449234,-0.07597175985574722
1769667564200231700,9.191231689453126,-0.022972790524363518,0.038902875036001205,-0.06904913485050201
1769667564210219500,9.201219482421875,-0.02052254229784012,0.04043891653418541,-0.06629303842782974
1769667564220208600,9.211208740234374,-0.017387468367815018,0.0352497473359108,-0.055768754333257675
1769667564230197800,9.22119775390625,-0.01693831942975521,0.033446185290813446,-0.0481896698474884
1769667564240185600,9.231185546875,-0.018582290038466454,0.03579562157392502,-0.043818362057209015
1769667564250174500,9.241174560546876,-0.015551757998764515,0.04059093818068504,-0.038979917764663696
1769667564260162600,9.25116259765625,-0.015995971858501434,0.03784868121147156,-0.03270125016570091
1769667564270151700,9.261151611328126,-0.013737961649894714,0.0342634841799736,-0.0274373646825552
1769667564280139800,9.271139892578125,-0.010905955918133259,0.031149717047810555,-0.02106175757944584
1769667564290128400,9.28112841796875,-0.009851794689893723,0.0179575327783823,-0.024219349026679993
1769667564300116500,9.291116455078125,-0.008798779919743538,0.016109298914670944,-0.021023554727435112
1769667564310105600,9.301105712890624,-0.005795604549348354,0.006913971155881882,-0.01928490772843361
1769667564320094500,9.311094482421876,-0.005339405033737421,0.00020546838641166687,-0.016662493348121643
1769667564330082600,9.32108251953125,-0.004288566764444113,-0.0070753684267401695,-0.01148013211786747
1769667564340071700,9.33107177734375,-0.0008187341154552996,-0.01327440794557333,-0.00504407100379467
1769667564350059500,9.3410595703125,0.0005630828673020005,-0.01398511603474617,0.0007761609740555286
1769667564360048600,9.351048583984374,0.003954884596168995,-0.010717151686549187,0.008252453058958054
1769667564370036500,9.361036376953125,0.002878914587199688,-0.004189048893749714,0.01264865417033434
1769667564380025600,9.371025634765624,0.004789732396602631,0.0011154355015605688,0.01611395925283432
1769667564390013400,9.381013427734375,0.005971850361675024,-0.0021071359515190125,0.016627810895442963
1769667564400002600,9.39100244140625,0.005723110865801573,-0.0009545199573040009,0.015430985949933529
1769667564409991400,9.400991455078126,0.0024664667434990406,0.0038566349539905787,0.013463706709444523
1769667564419979500,9.4109794921875,0.002291230484843254,0.004011364653706551,0.014498344622552395
1769667564429968600,9.42096875,0.0012030524667352438,-0.005314311012625694,0.013041871599853039
1769667564439956700,9.430956787109375,0.0010334090329706669,-0.008250712417066097,0.00772380456328392
1769667564449945600,9.440945556640624,0.0017120219999924302,-0.010734892450273037,0.005758018232882023
1769667564459933400,9.450933349609375,0.0017117556417360902,-0.010626502335071564,-0.00010066991671919823
1769667564469922600,9.460922607421875,0.001796611351892352,-0.009948092512786388,-0.0031577444169670343
1769667564479911700,9.47091162109375,0.002480777446180582,-0.009183232672512531,-0.0030589408706873655
1769667564489899500,9.4808994140625,0.0028882240876555443,-0.009015846997499466,-0.0030349569860845804
1769667564499888600,9.490888671875,0.003542296588420868,-0.00951971672475338,-0.003977449610829353
1769667564509876500,9.50087646484375,0.002450738102197647,-0.012470534071326256,-0.004008479416370392
1769667564519865600,9.510865478515624,0.003486973699182272,-0.015355536714196205,-0.004863887093961239
1769667564529853700,9.520853759765625,0.0027993512339890003,-0.019586456939578056,-0.006971251219511032
1769667564539842600,9.530842529296875,0.0043317340314388275,-0.020654652267694473,-0.008568349294364452
1769667564549830700,9.54083056640625,0.0014754286967217922,-0.021975768730044365,-0.009835616685450077
1769667564559819500,9.550819580078125,0.0029952945187687874,-0.02236565575003624,-0.011078779585659504
1769667564569808400,9.560808349609376,0.0021651224233210087,-0.023460669443011284,-0.010766524821519852
1769667564579796500,9.57079638671875,0.0026716552674770355,-0.025348052382469177,-0.011641107499599457
1769667564589785600,9.58078564453125,0.002288486110046506,-0.02987634763121605,-0.008710425347089767
1769667564599773700,9.590773681640625,0.0032847747206687927,-0.03383113816380501,-0.004683725535869598
1769667564609762600,9.600762451171875,0.0030542155727744102,-0.0327182412147522,-0.003013528184965253
1769667564619750400,9.61075048828125,0.004111224319785833,-0.03436034545302391,-0.00029497314244508743
1769667564629739500,9.620739501953125,0.00443713553249836,-0.037344563752412796,0.001151250209659338
1769667564639727600,9.6307275390625,0.005736758466809988,-0.03913101181387901,0.0022655169013887644
1769667564649716700,9.640716796875,0.00508193438872695,-0.04316031560301781,0.00224436167627573
1769667564659705600,9.65070556640625,0.006029753480106592,-0.03462887927889824,0.00424306420609355
1769667564669693400,9.660693359375,0.004134138114750385,-0.02715667523443699,0.009940877556800842
1769667564679682600,9.6706826171875,0.0038635609671473503,-0.026664257049560547,0.010670317336916924
1769667564689670700,9.680670654296875,0.004242659546434879,-0.02701301872730255,0.009942477568984032
1769667564699659500,9.690659423828125,0.005180891137570143,-0.025185558944940567,0.012233328074216843
1769667564709647600,9.700647705078126,0.002394207753241062,-0.017084427177906036,0.016814647242426872
1769667564719636700,9.71063671875,0.00648482283577323,-0.019042648375034332,0.018763015046715736
1769667564729625300,9.720625244140624,0.0038435920141637325,-0.021262258291244507,0.022328566759824753
1769667564739613400,9.730613525390625,0.003968494012951851,-0.020703526213765144,0.024923551827669144
1769667564749602600,9.7406025390625,0.005631220992654562,-0.02060207538306713,0.02787807770073414
1769667564759590700,9.750590576171875,0.0049025798216462135,-0.01697911135852337,0.03352770954370499
1769667564769579800,9.760579833984375,0.008641935884952545,-0.016608312726020813,0.0363924615085125
1769667564779567400,9.7705673828125,0.008321024477481842,-0.01792445033788681,0.03558951988816261
1769667564789556500,9.780556396484375,0.008252324536442757,-0.017067091539502144,0.03655170649290085
1769667564799544600,9.790544677734376,0.005838967859745026,-0.02004317380487919,0.0384148545563221
1769667564809533700,9.80053369140625,0.005343468859791756,-0.01906927116215229,0.04172704368829727
1769667564819522600,9.8105224609375,0.005669706035405397,-0.01733528822660446,0.04832609370350838
1769667564829510700,9.8205107421875,0.007226318120956421,-0.020427526906132698,0.05278689041733742
1769667564839499500,9.83049951171875,0.0073506878688931465,-0.027073444798588753,0.05170884355902672
1769667564849487600,9.840487548828126,0.006042759865522385,-0.028581388294696808,0.05639345943927765
1769667564859476500,9.8504765625,0.00580680463463068,-0.029056228697299957,0.06608550995588303
1769667564869464600,9.860464599609376,0.007132444530725479,-0.027795273810625076,0.06979437172412872
1769667564879453700,9.87045361328125,0.00587383471429348,-0.028736434876918793,0.07367326319217682
1769667564889441500,9.880441650390624,0.007845252752304077,-0.03319565951824188,0.07635825127363205
1769667564899430400,9.890430419921875,0.007675876375287771,-0.035619400441646576,0.06995894014835358
1769667564909419500,9.90041943359375,0.005710648372769356,-0.032853495329618454,0.07054205238819122
1769667564919407600,9.91040771484375,0.0036983639001846313,-0.029847316443920135,0.07408832013607025
1769667564929396700,9.920396728515625,0.0047910697758197784,-0.032330628484487534,0.07086881250143051
1769667564939384600,9.930384521484376,0.00565766217187047,-0.02913350611925125,0.06499068439006805
1769667564949373400,9.94037353515625,0.005301106255501509,-0.022267591208219528,0.06844602525234222
1769667564959361500,9.950361572265624,0.004093895200639963,-0.014138557016849518,0.0656323954463005
1769667564969350700,9.9603505859375,0.004866783041507006,-0.014369688928127289,0.06019684672355652
1769667564979338800,9.9703388671875,0.003736537415534258,-0.00866546481847763,0.05081027001142502
1769667564989327600,9.98032763671875,0.005725567229092121,-0.005876161623746157,0.04916485399007797
1769667564999316500,9.99031640625,0.008267288096249104,-0.006666054483503103,0.04028107970952988
1769667565009304600,10.0003046875,0.0061022634617984295,-0.010831436142325401,0.035477276891469955
1769667565019293400,10.01029345703125,0.006564321927726269,-0.00808332022279501,0.03154618665575981
1769667565029281500,10.020281494140624,0.009054980240762234,-0.007014361210167408,0.024501189589500427
1769667565039270700,10.030270751953125,0.010492022149264812,-0.01250180508941412,0.012534009292721748
1769667565049258500,10.040258544921874,0.008635728619992733,-0.01666668802499771,0.001678302651271224
1769667565059247600,10.05024755859375,0.008872482925653458,-0.03073510155081749,-0.011218054220080376
1769667565069235500,10.0602353515625,0.001483400003053248,-0.039505887776613235,-0.03209376707673073
1769667565079224600,10.070224609375,-0.005149735137820244,-0.05109037458896637,-0.050069570541381836
1769667565089214000,10.0802138671875,-0.008638670668005943,-0.06499477475881577,-0.06184567138552666
1769667565099201800,10.090201904296874,-0.020127015188336372,-0.07283831387758255,-0.07300272583961487
1769667565109191000,10.10019091796875,-0.03321109712123871,-0.08884049952030182,-0.09174606949090958
1769667565119179000,10.110178955078124,-0.057080477476119995,-0.10265591740608215,-0.10094889253377914
1769667565129168000,10.12016796875,-0.1630014181137085,-0.18341800570487976,-0.012108612805604935
1769667565139156000,10.130156005859375,-0.28497496247291565,-0.24622945487499237,0.10257988423109055
1769667565149144800,10.140144775390626,-0.38850826025009155,-0.3213173747062683,0.1714089959859848
1769667565159133000,10.1501328125,-0.45079001784324646,-0.4428962767124176,0.17892684042453766
1769667565169122000,10.1601220703125,-0.5392416715621948,-0.6570331454277039,0.18429166078567505
1769667565179111000,10.17011083984375,-0.6188422441482544,-0.9057077169418335,0.19988206028938293
1769667565189098800,10.1800986328125,-0.6471681594848633,-1.102877140045166,0.06792856007814407
1769667565199087900,10.190087890625,-0.6401256918907166,-1.3707530498504639,0.04391271248459816
1769667565209076000,10.200075927734375,-0.6212375164031982,-1.5078847408294678,0.07013072073459625
1769667565219064800,10.21006494140625,-0.4401174783706665,-1.5677976608276367,0.023158153519034386
1769667565229053000,10.220052978515625,-0.197153240442276,-1.4255337715148926,0.022575320675969124
1769667565239041800,10.230041748046874,-0.0540807731449604,-1.2251183986663818,0.10923538357019424
1769667565249031000,10.240031005859375,0.06772461533546448,-1.0670384168624878,0.22375264763832092
1769667565259019000,10.25001904296875,0.07853838056325912,-0.9513933658599854,0.34267210960388184
1769667565269008000,10.2600078125,0.0325457789003849,-0.985053300857544,0.42303287982940674
1769667565278996000,10.269995849609375,-0.01777971163392067,-1.0452779531478882,0.4860219657421112
1769667565288985000,10.279985107421876,-0.07519052177667618,-0.9496744275093079,0.5264505743980408
1769667565298973000,10.289972900390625,-0.13282717764377594,-0.8008580207824707,0.5513431429862976
1769667565308961800,10.2999619140625,-0.16305866837501526,-0.5909397006034851,0.5339744091033936
1769667565318950000,10.309949951171875,-0.17341996729373932,-0.43261638283729553,0.5443993806838989
1769667565328939000,10.31993896484375,-0.18830867111682892,-0.334222674369812,0.544734001159668
1769667565338927900,10.329927978515625,-0.22398437559604645,-0.23668093979358673,0.6072911024093628
1769667565348915700,10.339915771484375,-0.25062096118927,-0.10542836785316467,0.7180704474449158
1769667565358904800,10.34990478515625,-0.2842588424682617,0.03563261032104492,0.7528864741325378
1769667565368893000,10.359892822265625,-0.2711350917816162,0.13860706984996796,0.7318432927131653
1769667565378882000,10.369882080078124,-0.24733467400074005,0.13724380731582642,0.6507843732833862
1769667565388870000,10.379869873046875,-0.19527797400951385,0.05891173705458641,0.4523138999938965
1769667565398858800,10.389858642578124,-0.16130642592906952,-0.010746970772743225,0.3136575222015381
1769667565408846800,10.399846923828125,-0.19325925409793854,-0.13044823706150055,0.29173794388771057
1769667565418836000,10.4098359375,-0.24158470332622528,-0.46304988861083984,0.2880137860774994
1769667565428824800,10.419824951171876,-0.25930532813072205,-0.7509323358535767,0.25533029437065125
1769667565438813000,10.42981298828125,-0.2623618245124817,-0.8335376977920532,0.18254289031028748
1769667565448802000,10.439802001953124,-0.2521432042121887,-0.5668389201164246,0.1189185082912445
1769667565458790000,10.449789794921875,-0.2297542691230774,-0.17918522655963898,0.033272579312324524
1769667565468778800,10.45977880859375,-0.15833397209644318,0.14680668711662292,-0.12459120899438858
1769667565478766800,10.469766845703125,-0.031006906181573868,0.1893424242734909,-0.3063002824783325
1769667565488756000,10.479755859375,0.09443118423223495,0.15377356112003326,-0.3120865225791931
1769667565498745000,10.4897451171875,0.08904866874217987,0.15817949175834656,-0.17170333862304688
1769667565508732700,10.499732666015625,-0.023157862946391106,0.048641957342624664,-0.08656209707260132
1769667565518721800,10.5097216796875,-0.08816348761320114,-0.22960883378982544,-0.021939430385828018
1769667565528710000,10.5197099609375,-0.13356207311153412,-0.2714736759662628,-0.04143735021352768
1769667565538699000,10.529698974609374,-0.1575920432806015,-0.20394070446491241,-0.11794650554656982
1769667565548687000,10.53968701171875,-0.09430649131536484,0.3316712975502014,-0.487334281206131
1769667565558676000,10.549676025390625,0.10956142097711563,0.9333555102348328,-0.8094561100006104
1769667565568663800,10.559663818359375,0.2101384848356247,1.0406303405761719,-0.857306182384491
1769667565578653000,10.56965283203125,0.1647728681564331,0.8522492051124573,-0.7180737257003784
1769667565588641800,10.579641845703126,0.11131002753973007,0.47571325302124023,-0.562230110168457
1769667565598630000,10.5896298828125,0.07344094663858414,0.26229044795036316,-0.4521946310997009
1769667565608619000,10.599618896484374,-0.026961550116539,0.4334140121936798,-0.3693980276584625
1769667565618606800,10.60960693359375,-0.11209908127784729,0.3100478947162628,-0.5124505758285522
1769667565628595700,10.619595703125,-0.12328606843948364,0.03442085534334183,-0.6859123110771179
1769667565638583800,10.629583740234375,-0.08944634348154068,0.3378840684890747,-0.6932346820831299
1769667565648573000,10.639572998046875,-0.10899810492992401,0.31028300523757935,-0.31491267681121826
1769667565658562000,10.64956201171875,-0.038558561354875565,0.8812248110771179,-0.7516764402389526
1769667565668550000,10.6595498046875,0.07581896334886551,1.748616337776184,-1.3373278379440308
1769667565678538800,10.669538818359374,0.04898202046751976,1.8064708709716797,-1.2032184600830078
1769667565688526800,10.67952685546875,-0.04721001163125038,1.5433270931243896,-0.8606371879577637
1769667565698516000,10.689515869140624,-0.13654521107673645,1.133103609085083,-0.6077370047569275
1769667565708504000,10.699504150390625,-0.21649052202701569,1.1115599870681763,-0.28267741203308105
1769667565718493000,10.709492919921875,-0.18408091366291046,1.0903198719024658,-0.07137661427259445
1769667565728480800,10.719480712890626,-0.09285502135753632,0.9967254400253296,-0.030885620042681694
1769667565738470000,10.729469970703125,-0.0640670508146286,0.8483312129974365,0.03819118067622185
1769667565748458800,10.739458740234374,-0.048338063061237335,0.5385292768478394,0.01976941153407097
1769667565758446800,10.74944677734375,-0.03698580712080002,0.382557213306427,-0.0629236027598381
1769667565768436000,10.75943603515625,0.005337278358638287,0.269444078207016,-0.1652262657880783
1769667565778423800,10.769423828125,0.00008659018203616142,0.09910858422517776,-0.0870923176407814
1769667565788413000,10.779412841796875,-0.01634366437792778,0.04520995169878006,0.011345849372446537
1769667565798400800,10.78940087890625,-0.01603287272155285,0.004056390840560198,0.01892041228711605
1769667565808390000,10.799389892578125,-0.007197102066129446,-0.05016842111945152,-0.011276506818830967
1769667565818378000,10.8093779296875,-0.006911344826221466,-0.07452516257762909,0.01882014237344265
1769667565828367000,10.8193671875,-0.0022162506356835365,-0.07351063936948776,0.05365707725286484
1769667565838356000,10.82935595703125,-0.0003344611031934619,-0.07766810059547424,0.05909152328968048
1769667565848343800,10.83934375,0.002483280608430505,-0.06448782980442047,0.06573399901390076
1769667565858333000,10.8493330078125,0.008937717415392399,-0.049513403326272964,0.08212681859731674
1769667565868321000,10.859321044921876,0.012981870211660862,-0.04713527113199234,0.09225880354642868
1769667565878310000,10.869309814453125,0.014633296057581902,-0.04026058688759804,0.10276390612125397
1769667565888297700,10.879297607421876,0.01362634263932705,-0.028075112029910088,0.10730461031198502
1769667565898286800,10.889286865234375,0.015372045338153839,-0.028772328048944473,0.10631152242422104
1769667565908276000,10.89927587890625,0.014586501754820347,-0.030299557372927666,0.10892526060342789
1769667565918263800,10.909263916015625,0.01638733223080635,-0.03563253581523895,0.11356927454471588
1769667565928253000,10.9192529296875,0.015017799101769924,-0.030209161341190338,0.11300575733184814
1769667565938241000,10.929240966796876,0.011902432888746262,-0.02010299824178219,0.1159280389547348
1769667565948230000,10.93922998046875,0.011998689733445644,-0.0266607403755188,0.11385425180196762
1769667565958218000,10.949218017578126,0.008250290527939796,-0.014846691861748695,0.11194583028554916
1769667565968206800,10.959206787109375,0.005203907378017902,0.022505782544612885,0.10348575562238693
1769667565978195000,10.96919482421875,0.00032313214614987373,0.04854217544198036,0.08700025826692581
1769667565988184000,10.97918408203125,-0.001711374963633716,0.06962186843156815,0.07553187757730484
1769667565998173000,10.9891728515625,-0.0017862097593024373,0.0672263577580452,0.0750221461057663
1769667566008160800,10.999160888671875,-0.0014469410525634885,0.07276053726673126,0.07538089901208878
1769667566018150000,11.00914990234375,-0.0013185767456889153,0.087592214345932,0.0810137465596199
1769667566028138000,11.019137939453126,-0.005237165838479996,0.10121526569128036,0.08643914759159088
1769667566038126800,11.029126953125,-0.005886444356292486,0.12633420526981354,0.09367202967405319
1769667566048115000,11.039114990234374,-0.005898065399378538,0.14035747945308685,0.09083639830350876
1769667566058103800,11.049103759765625,-0.007456014398485422,0.13873694837093353,0.08923983573913574
1769667566068093000,11.059093017578125,-0.011504954658448696,0.13864970207214355,0.08547146618366241
1769667566078080800,11.069080810546875,-0.01032623928040266,0.13484299182891846,0.0879516676068306
1769667566088070400,11.0790703125,-0.006254557985812426,0.1358122080564499,0.09589909762144089
1769667566098058200,11.089058349609376,-0.007005036808550358,0.1428927481174469,0.10512721538543701
1769667566108047400,11.09904736328125,-0.005620971787720919,0.14425721764564514,0.10724201053380966
1769667566118035200,11.10903515625,-0.0034992313012480736,0.1298505812883377,0.10288960486650467
1769667566128024300,11.1190244140625,-0.003648563986644149,0.12537777423858643,0.09555432945489883
1769667566138012200,11.12901220703125,-0.002658933401107788,0.11006298661231995,0.09371035546064377
1769667566148001300,11.139001220703125,-0.003666461445391178,0.10615923255681992,0.10097158700227737
1769667566157990100,11.148990234375,-0.003953550010919571,0.10190322995185852,0.0942324548959732
1769667566167978200,11.158978271484376,-0.0041592721827328205,0.10075613856315613,0.09908580034971237
1769667566177967400,11.16896728515625,-0.003347008256241679,0.10014014691114426,0.09377891570329666
1769667566187955500,11.17895556640625,0.0001772736432030797,0.10087466984987259,0.10289812088012695
1769667566197944000,11.188944091796875,0.0018955451669171453,0.08511568605899811,0.08747176080942154
1769667566207932200,11.19893212890625,0.0011364081874489784,0.08132638782262802,0.07766281068325043
1769667566217921300,11.20892138671875,0.005715713836252689,0.06329705566167831,0.0897277295589447
1769667566227909400,11.218909423828125,0.004690597765147686,0.06357356160879135,0.08790306001901627
1769667566237898200,11.228898193359376,0.006123911123722792,0.054529737681150436,0.09049511700868607
1769667566247887400,11.238887451171875,0.006707474589347839,0.05861867591738701,0.09286146610975266
1769667566257875200,11.248875244140624,0.007337844930589199,0.06273645907640457,0.09558934718370438
1769667566267864300,11.2588642578125,0.011449162848293781,0.06390988081693649,0.11044326424598694
1769667566277852400,11.268852294921874,0.01216661836951971,0.06295327097177505,0.10348682105541229
1769667566287841300,11.27884130859375,0.01294794026762247,0.058897215873003006,0.10258066654205322
1769667566297829400,11.288829345703125,0.013372448273003101,0.04934179037809372,0.09897367656230927
1769667566307818200,11.298818359375,0.014647363685071468,0.05415107682347298,0.09688430279493332
1769667566317807000,11.30880712890625,0.016339534893631935,0.04953741654753685,0.08732781559228897
1769667566327795200,11.318795166015626,0.017156310379505157,0.023391971364617348,0.07575798779726028
1769667566337784300,11.328784423828125,0.018724113702774048,-0.0006598355248570442,0.07534226775169373
1769667566347772400,11.3387724609375,0.014127313159406185,0.008556350134313107,0.0633818656206131
1769667566357761300,11.34876123046875,0.011766155250370502,0.008458878844976425,0.06123855710029602
1769667566367749000,11.3587490234375,0.012884938158094883,0.002960431156679988,0.057676851749420166
1769667566377738200,11.36873828125,0.01003668736666441,0.011233008466660976,0.05112947151064873
1769667566387726300,11.378726318359375,0.010118802078068256,0.010285589843988419,0.05660770833492279
1769667566397715500,11.388715576171874,0.00012369302567094564,0.0029805386438965797,0.04181651026010513
1769667566407704300,11.398704345703125,0.00558681134134531,0.0025159495417028666,0.04960028454661369
1769667566417692200,11.408692138671874,0.001643468625843525,-0.00003669038414955139,0.04234450310468674
1769667566427681300,11.418681396484375,0.0000964190112426877,0.005829324945807457,0.04590862989425659
1769667566437669400,11.42866943359375,-0.005267986562103033,0.01601485162973404,0.0442686565220356
1769667566447658200,11.438658203125,-0.003347425488755107,0.02707763947546482,0.050023194402456284
1769667566457646300,11.448646240234375,-0.0011497850064188242,0.037523623555898666,0.05516522377729416
1769667566467635500,11.458635498046876,-0.0013132503954693675,0.05072155222296715,0.0528353713452816
1769667566477623300,11.468623291015625,-0.005427301861345768,0.03387173265218735,0.04361443966627121
1769667566487612200,11.478612060546874,-0.002448413288220763,0.01136715430766344,0.04750318080186844
1769667566497601300,11.488601318359375,-0.01050181221216917,0.014430854469537735,0.03422252833843231
1769667566507589400,11.49858935546875,-0.005054169334471226,0.014739488251507282,0.0415363572537899
1769667566517578200,11.508578125,-0.007899224758148193,0.0355350486934185,0.03665584698319435
1769667566527566000,11.518566162109375,-0.006601015105843544,0.03887753188610077,0.0387529656291008
1769667566537555200,11.52855517578125,-0.009054851718246937,0.024303648620843887,0.02491704560816288
1769667566547543300,11.538543212890625,0.0008974258089438081,0.00857800804078579,0.025745442137122154
1769667566557532400,11.548532470703124,0.0007932960288599133,-0.0022890211548656225,0.020525647327303886
1769667566567520300,11.558520263671875,-0.004115298390388489,0.016087787225842476,0.025408810004591942
1769667566577509000,11.568509033203124,-0.009183027781546116,0.022325709462165833,0.009688436053693295
1769667566587498200,11.578498291015626,-0.004093578085303307,0.013358554802834988,-0.0054186261259019375
1769667566597486300,11.588486328125,-0.007540507707744837,0.023945419117808342,-0.013596661388874054
1769667566607475200,11.59847509765625,0.003943189512938261,0.013836032710969448,-0.02287352830171585
1769667566617463300,11.60846337890625,-0.0044641438871622086,0.029351606965065002,-0.02438141033053398
1769667566627452400,11.618452392578124,-0.009076619520783424,0.02597048692405224,-0.0310872383415699
1769667566637440300,11.628440185546875,-0.006602542009204626,0.009225062094628811,-0.03560688719153404
1769667566647429000,11.63842919921875,-0.005233280826359987,0.007163354195654392,-0.04593728855252266
1769667566657418200,11.648418212890626,-0.01071007177233696,0.003702842863276601,-0.051216740161180496
1769667566667406300,11.65840625,-0.020613273605704308,0.0073129963129758835,-0.0425567701458931
1769667566677395500,11.6683955078125,-0.015913592651486397,0.0070786383002996445,-0.04689985513687134
1769667566687383300,11.67838330078125,-0.012751503847539425,-0.0050440700724720955,-0.047985803335905075
1769667566697372200,11.6883720703125,-0.01073842030018568,0.0034676590003073215,-0.049660928547382355
1769667566707360300,11.6983603515625,-0.005686213728040457,0.0011048947926610708,-0.05266696587204933
1769667566717349400,11.708349365234374,-0.0073181986808776855,0.0014108920004218817,-0.06088308244943619
1769667566727337500,11.71833740234375,-0.004028928466141224,-0.00046290806494653225,-0.05919943377375603
1769667566737326300,11.728326416015625,-0.0007202171254903078,-0.014262610115110874,-0.059504635632038116
1769667566747315200,11.738315185546876,0.002081759739667177,-0.024429038166999817,-0.06936538219451904
1769667566757303300,11.74830322265625,0.006972122006118298,-0.04248873144388199,-0.08123136311769485
1769667566767292200,11.758292236328124,0.004791466519236565,-0.058954402804374695,-0.08618897944688797
1769667566777280300,11.7682802734375,0.006652483716607094,-0.0730004534125328,-0.09237443655729294
1769667566787269400,11.778269287109374,0.003922848496586084,-0.08245259523391724,-0.10777547210454941
1769667566797257200,11.78825732421875,0.003044538199901581,-0.08815868198871613,-0.11295665055513382
1769667566807246300,11.798246337890625,0.0019846782088279724,-0.0773284062743187,-0.11221510916948318
1769667566817235200,11.808235107421876,0.00368404109030962,-0.061974212527275085,-0.10718652606010437
1769667566827223300,11.818223388671875,0.0015661009820178151,-0.0465066060423851,-0.09675639122724533
1769667566837212400,11.82821240234375,0.004412487614899874,-0.04747599735856056,-0.09260266274213791
1769667566847200500,11.838200439453125,0.005574093200266361,-0.04981577768921852,-0.09185338020324707
1769667566857189000,11.848189208984374,0.0046699498780071735,-0.049107376486063004,-0.08981207013130188
1769667566867177200,11.85817724609375,0.005199527833610773,-0.045181144028902054,-0.08509881049394608
1769667566877166300,11.868166259765625,0.003098826389759779,-0.04571537673473358,-0.08311262726783752
1769667566887154400,11.878154541015626,0.006593029946088791,-0.055410195142030716,-0.09153860062360764
1769667566897143300,11.888143310546875,0.005957067012786865,-0.0700269490480423,-0.09745907783508301
1769667566907132400,11.89813232421875,0.009337622672319412,-0.07134749740362167,-0.1154179722070694
1769667566917120300,11.908120361328125,0.007726676762104034,-0.06950245797634125,-0.1288570910692215
1769667566927109000,11.918109130859374,0.008958698250353336,-0.06608720123767853,-0.13308283686637878
1769667566937097200,11.92809716796875,0.009052175097167492,-0.07021643221378326,-0.1383465826511383
1769667566947086300,11.93808642578125,0.009532277472317219,-0.08182799816131592,-0.13191092014312744
1769667566957074200,11.94807421875,0.007682180497795343,-0.09245907515287399,-0.12105933576822281
1769667566967063300,11.958063232421875,0.005875653587281704,-0.10284636914730072,-0.1221001148223877
1769667566977052200,11.96805224609375,0.0076123010367155075,-0.11130429804325104,-0.12499471008777618
1769667566987040300,11.978040283203125,0.004545113071799278,-0.12828004360198975,-0.12996362149715424
1769667566997029400,11.988029296875,0.0025248387828469276,-0.14054203033447266,-0.12154322862625122
1769667567007017500,11.998017578125,-0.0009847462642937899,-0.1392412930727005,-0.1147158145904541
1769667567017006300,12.00800634765625,-0.0013591867173090577,-0.14624141156673431,-0.1092616617679596
1769667567026994200,12.017994140625,0.0005804519169032574,-0.15227919816970825,-0.10608356446027756
1769667567036983300,12.0279833984375,0.004587709903717041,-0.15126079320907593,-0.1039557009935379
1769667567046971400,12.037971435546876,0.006969323381781578,-0.16257615387439728,-0.0970582664012909
1769667567056960300,12.047960205078125,0.03602094575762749,-0.1569502204656601,-0.10027509927749634
1769667567066949400,12.057949462890624,0.03408055752515793,-0.18493425846099854,-0.07221414893865585
1769667567076937200,12.067937255859375,0.045007240027189255,-0.18082793056964874,-0.06370721757411957
1769667567086925800,12.07792578125,0.06541033089160919,-0.17691570520401,-0.06197497993707657
1769667567096914000,12.087913818359375,0.08153390884399414,-0.17182134091854095,-0.051792651414871216
1769667567106902800,12.09790283203125,0.11340061575174332,-0.14525863528251648,-0.04991431534290314
1769667567116891000,12.107890869140626,0.13996724784374237,-0.15765032172203064,-0.040565021336078644
1769667567126880000,12.1178798828125,0.14972466230392456,-0.18349482119083405,-0.03351191058754921
