time,seconds_elapsed,z,y,x
1769668309187686700,0.062686767578125,-0.32666015625,0.687225341796875,-0.6271209716796875
1769668309197674800,0.0726748046875,-0.3374481201171875,0.6912841796875,-0.629638671875
1769668309207663900,0.082663818359375,-0.345916748046875,0.694793701171875,-0.6324615478515625
1769668309217652700,0.09265283203125,-0.35308837890625,0.7023162841796875,-0.63665771484375
1769668309227641900,0.102641845703125,-0.353057861328125,0.70733642578125,-0.63818359375
1769668309237630700,0.112630615234375,-0.346954345703125,0.7097625732421875,-0.6365814208984375
1769668309247618600,0.12261865234375,-0.3360595703125,0.70672607421875,-0.6332855224609375
1769668309257607700,0.132607666015625,-0.3359375,0.70379638671875,-0.627838134765625
1769668309267596800,0.1425966796875,-0.334014892578125,0.69580078125,-0.6259002685546875
1769668309277585700,0.152585693359375,-0.3350372314453125,0.694915771484375,-0.6255035400390625
1769668309287573800,0.16257373046875,-0.3424072265625,0.6959228515625,-0.6288299560546875
1769668309297563000,0.17256298828125,-0.3439178466796875,0.6928863525390625,-0.6356964111328125
1769668309307551700,0.1825517578125,-0.3402252197265625,0.691375732421875,-0.6349639892578125
1769668309317540600,0.19254052734375,-0.3391876220703125,0.69482421875,-0.6333465576171875
1769668309327529700,0.20252978515625,-0.346527099609375,0.69970703125,-0.636077880859375
1769668309337517800,0.212517822265625,-0.3526611328125,0.6985015869140625,-0.6366119384765625
1769668309347506700,0.222506591796875,-0.3494873046875,0.6985321044921875,-0.63714599609375
1769668309357495800,0.232495849609375,-0.3457489013671875,0.701507568359375,-0.6361236572265625
1769668309367485000,0.24248486328125,-0.3494415283203125,0.70452880859375,-0.633209228515625
1769668309377473800,0.252473876953125,-0.3480377197265625,0.7064666748046875,-0.630889892578125
1769668309387461600,0.262461669921875,-0.3413543701171875,0.7027740478515625,-0.6224822998046875
1769668309397450800,0.27245068359375,-0.3397064208984375,0.6988525390625,-0.615997314453125
1769668309407439600,0.282439697265625,-0.3442840576171875,0.6934967041015625,-0.6110687255859375
1769668309417428700,0.2924287109375,-0.3473663330078125,0.7016448974609375,-0.6215057373046875
1769668309427417900,0.30241796875,-0.3518829345703125,0.70147705078125,-0.6266937255859375
1769668309437406000,0.312406005859375,-0.35662841796875,0.7003173828125,-0.6402587890625
1769668309447394800,0.322394775390625,-0.3519439697265625,0.69732666015625,-0.6382904052734375
1769668309457383700,0.3323837890625,-0.3563232421875,0.7020721435546875,-0.6392059326171875
1769668309467372500,0.34237255859375,-0.3547515869140625,0.709259033203125,-0.628387451171875
1769668309477361700,0.352361572265625,-0.3540191650390625,0.7079315185546875,-0.621917724609375
1769668309487349800,0.362349853515625,-0.349212646484375,0.6992645263671875,-0.6260528564453125
1769668309497339000,0.3723388671875,-0.3500823974609375,0.718475341796875,-0.62115478515625
1769668309507327700,0.38232763671875,-0.35491943359375,0.73345947265625,-0.6227569580078125
1769668309517316900,0.39231689453125,-0.322296142578125,0.7084808349609375,-0.61541748046875
1769668309527304700,0.4023046875,-0.3191680908203125,0.6911468505859375,-0.6139373779296875
1769668309537293600,0.41229345703125,-0.33795166015625,0.7050018310546875,-0.61358642578125
1769668309547282700,0.42228271484375,-0.3573455810546875,0.730621337890625,-0.6125640869140625
1769668309557271800,0.432271728515625,-0.34661865234375,0.732513427734375,-0.616363525390625
1769668309567260700,0.4422607421875,-0.3299560546875,0.7312774658203125,-0.61260986328125
1769668309577248800,0.452248779296875,-0.3179779052734375,0.7310791015625,-0.61114501953125
1769668309587238000,0.46223779296875,-0.307281494140625,0.7130279541015625,-0.61920166015625
1769668309597226800,0.472226806640625,-0.3047027587890625,0.688018798828125,-0.6129608154296875
1769668309607215600,0.482215576171875,-0.3117523193359375,0.69287109375,-0.6080474853515625
1769668309617204700,0.492204833984375,-0.323516845703125,0.68243408203125,-0.6053466796875
1769668309627192800,0.50219287109375,-0.3330078125,0.6875457763671875,-0.59503173828125
1769668309637181700,0.512181640625,-0.32952880859375,0.7187347412109375,-0.58123779296875
1769668309647170800,0.5221708984375,-0.3123931884765625,0.7239532470703125,-0.5717620849609375
1769668309657159700,0.53215966796875,-0.2814483642578125,0.69818115234375,-0.58709716796875
1769668309667148800,0.542148681640625,-0.26385498046875,0.67755126953125,-0.5982666015625
1769668309677136600,0.55213671875,-0.2713775634765625,0.66790771484375,-0.625
1769668309687125800,0.562125732421875,-0.314361572265625,0.672882080078125,-0.6486053466796875
1769668309697114600,0.572114501953125,-0.3143463134765625,0.703948974609375,-0.6528778076171875
1769668309707103700,0.582103759765625,-0.2839202880859375,0.731597900390625,-0.674591064453125
1769668309717091800,0.592091796875,-0.3239898681640625,0.77423095703125,-0.666015625
1769668309727081200,0.602081298828125,-0.310577392578125,0.7915496826171875,-0.6478424072265625
1769668309737070300,0.6120703125,-0.2570953369140625,0.7905120849609375,-0.638031005859375
1769668309747059500,0.6220595703125,-0.216552734375,0.770172119140625,-0.616668701171875
1769668309757048300,0.63204833984375,-0.205291748046875,0.75250244140625,-0.6114501953125
1769668309767036400,0.642036376953125,-0.1854248046875,0.7369384765625,-0.6104888916015625
1769668309777025300,0.652025390625,-0.179656982421875,0.7342376708984375,-0.6082000732421875
1769668309787014100,0.66201416015625,-0.1799468994140625,0.7614593505859375,-0.602081298828125
1769668309797003300,0.672003173828125,-0.1877899169921875,0.8078155517578125,-0.613067626953125
1769668309806992400,0.681992431640625,-0.196197509765625,0.814453125,-0.6213226318359375
1769668309816980500,0.69198046875,-0.199249267578125,0.8061370849609375,-0.6264801025390625
1769668309826969300,0.70196923828125,-0.19427490234375,0.783782958984375,-0.6213836669921875
1769668309836958500,0.71195849609375,-0.1802825927734375,0.769195556640625,-0.6136627197265625
1769668309846947300,0.721947265625,-0.1669921875,0.7572174072265625,-0.6063079833984375
1769668309856935200,0.73193505859375,-0.1638031005859375,0.75030517578125,-0.6071929931640625
1769668309866924300,0.74192431640625,-0.1706695556640625,0.748138427734375,-0.6226654052734375
1769668309876913400,0.751913330078125,-0.1865081787109375,0.7540130615234375,-0.6372528076171875
1769668309886902300,0.76190234375,-0.19464111328125,0.7574920654296875,-0.6412811279296875
1769668309896891400,0.771891357421875,-0.1972503662109375,0.7496490478515625,-0.6528167724609375
1769668309906879500,0.78187939453125,-0.2035980224609375,0.743438720703125,-0.656463623046875
1769668309916868000,0.7918681640625,-0.2126922607421875,0.7414093017578125,-0.6547393798828125
1769668309926857200,0.801857177734375,-0.2154083251953125,0.74261474609375,-0.651214599609375
1769668309936846300,0.811846435546875,-0.2155609130859375,0.746856689453125,-0.6445465087890625
1769668309946835200,0.821835205078125,-0.2142791748046875,0.7476806640625,-0.6432952880859375
1769668309956823300,0.8318232421875,-0.2168426513671875,0.7484588623046875,-0.6434173583984375
1769668309966812400,0.8418125,-0.2165679931640625,0.7427825927734375,-0.6416778564453125
1769668309976801300,0.85180126953125,-0.216888427734375,0.7336578369140625,-0.6395416259765625
1769668309986790400,0.861790283203125,-0.216094970703125,0.72821044921875,-0.6361236572265625
1769668309996778200,0.8717783203125,-0.217376708984375,0.7270050048828125,-0.634002685546875
1769668310006767400,0.881767333984375,-0.2174224853515625,0.731170654296875,-0.6365814208984375
1769668310016756200,0.891756103515625,-0.2180633544921875,0.7375030517578125,-0.63775634765625
1769668310026745300,0.901745361328125,-0.216796875,0.7421722412109375,-0.6376800537109375
1769668310036734500,0.911734375,-0.21539306640625,0.74609375,-0.63775634765625
1769668310046722300,0.921722412109375,-0.215606689453125,0.747772216796875,-0.6414794921875
1769668310056711400,0.93171142578125,-0.213470458984375,0.745513916015625,-0.64068603515625
1769668310066700300,0.9417001953125,-0.2152252197265625,0.747589111328125,-0.6405029296875
1769668310076689200,0.951689208984375,-0.217529296875,0.7491607666015625,-0.639434814453125
1769668310086678300,0.96167822265625,-0.217864990234375,0.7497711181640625,-0.636077880859375
1769668310096666400,0.971666259765625,-0.2130889892578125,0.746490478515625,-0.632080078125
1769668310106655200,0.9816552734375,-0.2061767578125,0.743194580078125,-0.6318511962890625
1769668310116644400,0.991644287109375,-0.2053680419921875,0.743255615234375,-0.633056640625
1769668310126633500,1.001633544921875,-0.2052764892578125,0.7453155517578125,-0.6362762451171875
1769668310136621300,1.011621337890625,-0.204345703125,0.7441558837890625,-0.638641357421875
1769668310146610200,1.021610107421875,-0.2038116455078125,0.7440338134765625,-0.64007568359375
1769668310156599300,1.031599365234375,-0.2026214599609375,0.7445220947265625,-0.64263916015625
1769668310166588400,1.04158837890625,-0.2017974853515625,0.7470245361328125,-0.6436767578125
1769668310176577300,1.051577392578125,-0.201751708984375,0.749359130859375,-0.64508056640625
1769668310186565400,1.0615654296875,-0.203216552734375,0.7494659423828125,-0.6442108154296875
1769668310196554500,1.071554443359375,-0.2064361572265625,0.748199462890625,-0.6399383544921875
1769668310206543000,1.081543212890625,-0.2015228271484375,0.747802734375,-0.63543701171875
1769668310216532200,1.0915322265625,-0.1998291015625,0.7439727783203125,-0.63287353515625
1769668310226521300,1.101521240234375,-0.1981658935546875,0.7381744384765625,-0.633392333984375
1769668310236509400,1.111509521484375,-0.1946563720703125,0.73773193359375,-0.633087158203125
1769668310246498300,1.121498291015625,-0.1971282958984375,0.738006591796875,-0.6340789794921875
1769668310256487400,1.1314873046875,-0.19970703125,0.7362518310546875,-0.6348724365234375
1769668310266476300,1.141476318359375,-0.1977081298828125,0.7335052490234375,-0.631378173828125
1769668310276465400,1.15146533203125,-0.190338134765625,0.7313232421875,-0.6319732666015625
1769668310286453200,1.161453369140625,-0.188995361328125,0.731658935546875,-0.634246826171875
1769668310296442400,1.1714423828125,-0.1913604736328125,0.734100341796875,-0.6399078369140625
1769668310306431200,1.18143115234375,-0.197723388671875,0.733917236328125,-0.6495208740234375
1769668310316420400,1.19142041015625,-0.204437255859375,0.73553466796875,-0.659759521484375
1769668310326408400,1.201408447265625,-0.2120513916015625,0.7416534423828125,-0.6691741943359375
1769668310336397300,1.211397216796875,-0.212554931640625,0.7461090087890625,-0.6662750244140625
1769668310346386400,1.221386474609375,-0.1908111572265625,0.7500457763671875,-0.65869140625
1769668310356375300,1.231375244140625,-0.190155029296875,0.7433319091796875,-0.6656494140625
1769668310366364200,1.2413642578125,-0.1986236572265625,0.751129150390625,-0.676239013671875
1769668310376352300,1.251352294921875,-0.218597412109375,0.75274658203125,-0.68121337890625
1769668310386341400,1.26134130859375,-0.2238311767578125,0.744415283203125,-0.6702117919921875
1769668310396330200,1.271330322265625,-0.2327728271484375,0.7335968017578125,-0.6585235595703125
1769668310406319400,1.2813193359375,-0.2342376708984375,0.7298583984375,-0.6451568603515625
1769668310416307200,1.29130712890625,-0.22088623046875,0.732421875,-0.6314239501953125
1769668310426296300,1.30129638671875,-0.2178955078125,0.7354888916015625,-0.63037109375
1769668310436285200,1.31128515625,-0.2015533447265625,0.7435455322265625,-0.635345458984375
1769668310446274300,1.3212744140625,-0.203033447265625,0.7380828857421875,-0.6321868896484375
1769668310456263400,1.331263427734375,-0.1957244873046875,0.7242431640625,-0.63519287109375
1769668310466251300,1.341251220703125,-0.2059326171875,0.716583251953125,-0.6176910400390625
1769668310476240400,1.351240478515625,-0.205352783203125,0.70819091796875,-0.6046295166015625
1769668310486229500,1.3612294921875,-0.182891845703125,0.7055511474609375,-0.6064300537109375
1769668310496218000,1.371218017578125,-0.183502197265625,0.724334716796875,-0.6143951416015625
1769668310506207200,1.381207275390625,-0.1968231201171875,0.7263641357421875,-0.6397552490234375
1769668310516195300,1.3911953125,-0.19952392578125,0.728729248046875,-0.6392059326171875
1769668310526184400,1.401184326171875,-0.20623779296875,0.7101593017578125,-0.6579132080078125
1769668310536173300,1.41117333984375,-0.19451904296875,0.7057952880859375,-0.6649322509765625
1769668310546162400,1.421162353515625,-0.2128753662109375,0.7102203369140625,-0.6591339111328125
1769668310556150500,1.431150634765625,-0.2661895751953125,0.6810150146484375,-0.6909027099609375
1769668310566139100,1.44113916015625,-0.290191650390625,0.6406097412109375,-0.673370361328125
1769668310576128300,1.451128173828125,-0.3435821533203125,0.6785430908203125,-0.6936492919921875
1769668310586117400,1.461117431640625,-0.32171630859375,0.7222900390625,-0.7181549072265625
1769668310596106200,1.471106201171875,-0.2731475830078125,0.710357666015625,-0.6934814453125
1769668310606094300,1.48109423828125,-0.2610931396484375,0.6990203857421875,-0.676544189453125
1769668310616083500,1.49108349609375,-0.256378173828125,0.691864013671875,-0.6694183349609375
1769668310626072300,1.501072265625,-0.2513885498046875,0.697662353515625,-0.6652984619140625
1769668310636061400,1.5110615234375,-0.241180419921875,0.704437255859375,-0.6674957275390625
1769668310646050300,1.52105029296875,-0.2321624755859375,0.69482421875,-0.6691741943359375
1769668310656038400,1.531038330078125,-0.2214813232421875,0.6856842041015625,-0.668243408203125
1769668310666027300,1.54102734375,-0.2238616943359375,0.6830291748046875,-0.6748809814453125
1769668310676016400,1.551016357421875,-0.2339019775390625,0.6795806884765625,-0.6834869384765625
1769668310686005200,1.561005126953125,-0.2429962158203125,0.6753082275390625,-0.68896484375
1769668310695993300,1.570993408203125,-0.2554779052734375,0.67352294921875,-0.693450927734375
1769668310705982200,1.580982177734375,-0.266265869140625,0.6689300537109375,-0.69586181640625
1769668310715971300,1.590971435546875,-0.276153564453125,0.6702728271484375,-0.6806640625
1769668310725960200,1.600960205078125,-0.2675933837890625,0.6747589111328125,-0.683563232421875
1769668310735949300,1.61094921875,-0.2734375,0.6890869140625,-0.6774749755859375
1769668310745937200,1.620937255859375,-0.279083251953125,0.698455810546875,-0.6627197265625
1769668310755926000,1.630926025390625,-0.2756195068359375,0.7046966552734375,-0.660919189453125
1769668310765915100,1.6409150390625,-0.274993896484375,0.7108001708984375,-0.6549072265625
1769668310775904300,1.650904296875,-0.2813262939453125,0.708953857421875,-0.6317138671875
1769668310785893000,1.66089306640625,-0.2816162109375,0.699951171875,-0.6290435791015625
1769668310795881200,1.670881103515625,-0.2693634033203125,0.6915435791015625,-0.623199462890625
1769668310805870300,1.680870361328125,-0.2602691650390625,0.685089111328125,-0.63494873046875
1769668310815859200,1.690859130859375,-0.2706451416015625,0.6937103271484375,-0.6438751220703125
1769668310825848000,1.70084814453125,-0.272735595703125,0.70428466796875,-0.6516265869140625
1769668310835836200,1.710836181640625,-0.2718963623046875,0.70794677734375,-0.6520538330078125
1769668310845825300,1.7208251953125,-0.26043701171875,0.7141876220703125,-0.666473388671875
1769668310855814100,1.730814208984375,-0.262542724609375,0.720794677734375,-0.6742095947265625
1769668310865803300,1.74080322265625,-0.2663726806640625,0.71514892578125,-0.680908203125
1769668310875792400,1.75079248046875,-0.27178955078125,0.71038818359375,-0.683258056640625
1769668310885780200,1.7607802734375,-0.268646240234375,0.709869384765625,-0.681793212890625
1769668310895769000,1.77076904296875,-0.2636566162109375,0.703948974609375,-0.6849212646484375
1769668310905758200,1.78075830078125,-0.2713470458984375,0.7021942138671875,-0.69232177734375
1769668310915747000,1.7907470703125,-0.2767791748046875,0.697967529296875,-0.69158935546875
1769668310925736200,1.800736083984375,-0.28045654296875,0.69879150390625,-0.6842498779296875
1769668310935724300,1.810724365234375,-0.2856903076171875,0.6971282958984375,-0.670440673828125
1769668310945713400,1.82071337890625,-0.2823638916015625,0.6898193359375,-0.66937255859375
1769668310955702300,1.830702392578125,-0.2714996337890625,0.688507080078125,-0.669097900390625
1769668310965691100,1.840691162109375,-0.2708892822265625,0.6857147216796875,-0.6625213623046875
1769668310975679200,1.85067919921875,-0.2718048095703125,0.6861114501953125,-0.66619873046875
1769668310985668000,1.860668212890625,-0.281341552734375,0.68951416015625,-0.671051025390625
1769668310995657200,1.8706572265625,-0.2812347412109375,0.6935882568359375,-0.67218017578125
1769668311005646300,1.880646240234375,-0.27667236328125,0.6912841796875,-0.6734771728515625
1769668311015635200,1.89063525390625,-0.2790069580078125,0.6856842041015625,-0.6767578125
1769668311025623000,1.900623046875,-0.26983642578125,0.68359375,-0.6774749755859375
1769668311035612200,1.910612060546875,-0.265655517578125,0.678924560546875,-0.684600830078125
1769668311045601000,1.92060107421875,-0.2830657958984375,0.6851959228515625,-0.6896514892578125
1769668311055590100,1.930590087890625,-0.287078857421875,0.6874237060546875,-0.6995391845703125
1769668311065579300,1.940579345703125,-0.28204345703125,0.68621826171875,-0.7014617919921875
1769668311075567400,1.9505673828125,-0.27862548828125,0.68658447265625,-0.702911376953125
1769668311085556200,1.96055615234375,-0.2700653076171875,0.6854248046875,-0.702392578125
1769668311095545300,1.97054541015625,-0.2644195556640625,0.684844970703125,-0.7015838623046875
1769668311105534200,1.9805341796875,-0.262420654296875,0.68475341796875,-0.698394775390625
1769668311115522000,1.99052197265625,-0.261932373046875,0.68255615234375,-0.6904144287109375
1769668311125511200,2.00051123046875,-0.2649993896484375,0.6768951416015625,-0.68670654296875
1769668311135500300,2.010500244140625,-0.272216796875,0.6792449951171875,-0.685516357421875
1769668311145489200,2.0204892578125,-0.2702789306640625,0.68035888671875,-0.68145751953125
1769668311155478300,2.030478271484375,-0.2673797607421875,0.681121826171875,-0.676910400390625
1769668311165466400,2.04046630859375,-0.2689666748046875,0.683990478515625,-0.674285888671875
1769668311175455000,2.050455078125,-0.2707366943359375,0.6848907470703125,-0.67095947265625
1769668311185444000,2.060444091796875,-0.26953125,0.6830596923828125,-0.669952392578125
1769668311195433200,2.07043310546875,-0.266265869140625,0.6837310791015625,-0.6651763916015625
1769668311205422000,2.080422119140625,-0.2636871337890625,0.68572998046875,-0.6629791259765625
1769668311215410200,2.09041015625,-0.266204833984375,0.68975830078125,-0.6604461669921875
1769668311225399300,2.1003994140625,-0.272430419921875,0.69732666015625,-0.6646270751953125
1769668311235388200,2.11038818359375,-0.2709808349609375,0.703582763671875,-0.6708831787109375
1769668311245377300,2.120377197265625,-0.2686920166015625,0.699859619140625,-0.6807403564453125
1769668311255365000,2.130365234375,-0.26373291015625,0.697418212890625,-0.6798095703125
1769668311265354200,2.140354248046875,-0.259368896484375,0.692840576171875,-0.6852569580078125
1769668311275343000,2.150343017578125,-0.2589569091796875,0.69073486328125,-0.683868408203125
1769668311285332200,2.160332275390625,-0.2595062255859375,0.687713623046875,-0.6779632568359375
1769668311295321300,2.1703212890625,-0.2634124755859375,0.6796875,-0.66845703125
1769668311305309200,2.18030908203125,-0.2696380615234375,0.676055908203125,-0.6697845458984375
1769668311315298000,2.190298095703125,-0.279296875,0.677978515625,-0.6709136962890625
1769668311325287200,2.200287109375,-0.286224365234375,0.6858367919921875,-0.67730712890625
1769668311335276000,2.210276123046875,-0.290252685546875,0.6893157958984375,-0.6823577880859375
1769668311345265200,2.22026513671875,-0.289093017578125,0.6904296875,-0.6859588623046875
1769668311355253200,2.230253173828125,-0.288421630859375,0.6917572021484375,-0.6846771240234375
1769668311365242400,2.240242431640625,-0.2879486083984375,0.69244384765625,-0.6810455322265625
1769668311375231200,2.250231201171875,-0.289459228515625,0.69171142578125,-0.67767333984375
1769668311385220400,2.260220458984375,-0.2949066162109375,0.691802978515625,-0.674713134765625
1769668311395208200,2.270208251953125,-0.2951812744140625,0.6946563720703125,-0.670562744140625
1769668311405197000,2.280197021484375,-0.292022705078125,0.69500732421875,-0.664581298828125
1769668311415186200,2.290186279296875,-0.2920074462890625,0.6961822509765625,-0.66455078125
1769668311425175300,2.30017529296875,-0.2845611572265625,0.699310302734375,-0.6600341796875
1769668311435164200,2.3101640625,-0.28082275390625,0.6976165771484375,-0.6573486328125
1769668311445152300,2.32015234375,-0.279754638671875,0.6939544677734375,-0.6579132080078125
1769668311455141400,2.330141357421875,-0.2793121337890625,0.6920928955078125,-0.65606689453125
1769668311465130000,2.3401298828125,-0.2783050537109375,0.690277099609375,-0.6545867919921875
1769668311475119000,2.350119140625,-0.2784423828125,0.689239501953125,-0.654266357421875
1769668311485108200,2.360108154296875,-0.282623291015625,0.6929168701171875,-0.6558990478515625
1769668311495096300,2.370096435546875,-0.291229248046875,0.6973724365234375,-0.6562652587890625
1769668311505085200,2.380085205078125,-0.2926025390625,0.6987152099609375,-0.6594085693359375
1769668311515074300,2.39007421875,-0.2902984619140625,0.7012939453125,-0.661865234375
1769668311525063200,2.400063232421875,-0.286651611328125,0.6986846923828125,-0.6611328125
1769668311535051000,2.410051025390625,-0.285369873046875,0.695892333984375,-0.665435791015625
1769668311545040100,2.4200400390625,-0.2763824462890625,0.6910858154296875,-0.664947509765625
1769668311555029200,2.430029296875,-0.273284912109375,0.687347412109375,-0.6671295166015625
1769668311565018000,2.44001806640625,-0.275848388671875,0.6857757568359375,-0.67071533203125
1769668311575007200,2.45000732421875,-0.2789459228515625,0.6883544921875,-0.6753997802734375
1769668311584995300,2.459995361328125,-0.287078857421875,0.6910400390625,-0.6779022216796875
1769668311594984200,2.469984130859375,-0.2949371337890625,0.69683837890625,-0.67681884765625
1769668311604973300,2.479973388671875,-0.3010711669921875,0.6952362060546875,-0.6712799072265625
1769668311614962200,2.489962158203125,-0.30010986328125,0.696533203125,-0.6644134521484375
1769668311624951000,2.499950927734375,-0.2912445068359375,0.6927337646484375,-0.659912109375
1769668311634939100,2.509939208984375,-0.2860565185546875,0.6932220458984375,-0.6568603515625
1769668311644928300,2.51992822265625,-0.2841796875,0.6920166015625,-0.655120849609375
1769668311654917000,2.529917236328125,-0.28338623046875,0.6905517578125,-0.6552276611328125
1769668311664906200,2.53990625,-0.287078857421875,0.688568115234375,-0.6552581787109375
1769668311674894000,2.54989404296875,-0.2919464111328125,0.6897735595703125,-0.659332275390625
1769668311684883200,2.55988330078125,-0.292205810546875,0.6905670166015625,-0.664703369140625
1769668311694872000,2.5698720703125,-0.289306640625,0.6899261474609375,-0.667755126953125
1769668311704861200,2.579861083984375,-0.2875823974609375,0.689544677734375,-0.66595458984375
1769668311714850300,2.589850341796875,-0.291412353515625,0.692657470703125,-0.661376953125
1769668311724838000,2.599837890625,-0.2922515869140625,0.695159912109375,-0.659912109375
1769668311734826800,2.60982666015625,-0.2897186279296875,0.698333740234375,-0.6622772216796875
1769668311744815900,2.61981591796875,-0.2835845947265625,0.6972198486328125,-0.6656341552734375
1769668311754804700,2.6298046875,-0.2794189453125,0.6965179443359375,-0.6663818359375
1769668311764793900,2.6397939453125,-0.271484375,0.6927337646484375,-0.6665496826171875
1769668311774782000,2.649781982421875,-0.2738037109375,0.690185546875,-0.6658782958984375
1769668311784771000,2.65977099609375,-0.285614013671875,0.6870269775390625,-0.6632537841796875
1769668311794759700,2.669759765625,-0.2970428466796875,0.686676025390625,-0.662933349609375
1769668311804748800,2.679748779296875,-0.299407958984375,0.6846160888671875,-0.66485595703125
1769668311814737000,2.68973681640625,-0.298187255859375,0.6826629638671875,-0.669097900390625
1769668311824725800,2.699725830078125,-0.30224609375,0.6800994873046875,-0.6729278564453125
1769668311834715000,2.70971484375,-0.3043975830078125,0.682464599609375,-0.675201416015625
1769668311844704000,2.7197041015625,-0.3002471923828125,0.684234619140625,-0.677459716796875
1769668311854692900,2.72969287109375,-0.295166015625,0.6871337890625,-0.6788787841796875
1769668311864680700,2.7396806640625,-0.293487548828125,0.689117431640625,-0.6766815185546875
1769668311874669800,2.749669921875,-0.293182373046875,0.6889495849609375,-0.6739044189453125
1769668311884658700,2.75965869140625,-0.2908172607421875,0.68804931640625,-0.670623779296875
1769668311894647800,2.769647705078125,-0.2891998291015625,0.6852874755859375,-0.668731689453125
1769668311904637000,2.779636962890625,-0.2872161865234375,0.6848297119140625,-0.672393798828125
1769668311914625000,2.789625,-0.2796478271484375,0.68695068359375,-0.6767120361328125
1769668311924614000,2.79961376953125,-0.2773895263671875,0.688232421875,-0.6799774169921875
1769668311934603000,2.80960302734375,-0.2790069580078125,0.68841552734375,-0.681304931640625
1769668311944592000,2.819591796875,-0.284820556640625,0.688690185546875,-0.67718505859375
1769668311954579700,2.829579833984375,-0.292022705078125,0.691864013671875,-0.6731719970703125
1769668311964568800,2.83956884765625,-0.292144775390625,0.6933746337890625,-0.6719207763671875
1769668311974558000,2.849557861328125,-0.289794921875,0.6952667236328125,-0.66796875
1769668311984546800,2.859546875,-0.2903594970703125,0.6941680908203125,-0.66766357421875
1769668311994536000,2.869535888671875,-0.2893524169921875,0.68792724609375,-0.66796875
1769668312004523800,2.879523681640625,-0.286468505859375,0.68682861328125,-0.66949462890625
1769668312014513000,2.889512939453125,-0.282257080078125,0.6851806640625,-0.6685943603515625
1769668312024501800,2.899501708984375,-0.2794342041015625,0.68499755859375,-0.670135498046875
1769668312034491000,2.909490966796875,-0.2762603759765625,0.6845245361328125,-0.6690673828125
1769668312044479700,2.919479736328125,-0.2739715576171875,0.6813201904296875,-0.670196533203125
1769668312054467800,2.9294677734375,-0.27264404296875,0.677490234375,-0.6759185791015625
1769668312064457000,2.93945703125,-0.2699127197265625,0.6785430908203125,-0.679595947265625
1769668312074446000,2.949446044921875,-0.2699127197265625,0.67822265625,-0.6837921142578125
1769668312084434700,2.9594345703125,-0.2736968994140625,0.6844024658203125,-0.68475341796875
1769668312094422800,2.9694228515625,-0.2758331298828125,0.6885223388671875,-0.681060791015625
1769668312104412000,2.979411865234375,-0.2813720703125,0.6893310546875,-0.6756134033203125
1769668312114400800,2.98940087890625,-0.2920074462890625,0.6880340576171875,-0.6715850830078125
1769668312124390000,2.999389892578125,-0.2984771728515625,0.6830596923828125,-0.6707916259765625
1769668312134379000,3.00937890625,-0.299041748046875,0.67645263671875,-0.6717071533203125
1769668312144367000,3.0193671875,-0.30029296875,0.672698974609375,-0.6718902587890625
1769668312154355700,3.029355712890625,-0.3033599853515625,0.6764068603515625,-0.670806884765625
1769668312164344800,3.0393447265625,-0.3028717041015625,0.68768310546875,-0.669708251953125
1769668312174333700,3.049333740234375,-0.2990264892578125,0.6929931640625,-0.663604736328125
1769668312184322800,3.05932275390625,-0.2990875244140625,0.694488525390625,-0.659423828125
1769668312194311000,3.069310791015625,-0.2993621826171875,0.6958160400390625,-0.6587982177734375
1769668312204300000,3.079300048828125,-0.2960357666015625,0.6932373046875,-0.65777587890625
1769668312214289000,3.089288818359375,-0.2943115234375,0.69000244140625,-0.6580657958984375
1769668312224278000,3.099278076171875,-0.2979583740234375,0.6923370361328125,-0.659454345703125
1769668312234265900,3.109265869140625,-0.300201416015625,0.6946868896484375,-0.6605682373046875
1769668312244254700,3.119254638671875,-0.3028411865234375,0.6985015869140625,-0.6597747802734375
1769668312254243800,3.129243896484375,-0.3021697998046875,0.7019500732421875,-0.66302490234375
1769668312264233000,3.13923291015625,-0.2936859130859375,0.7003326416015625,-0.6689453125
1769668312274221800,3.149221923828125,-0.27996826171875,0.6953582763671875,-0.6710205078125
1769668312284210000,3.1592099609375,-0.2722625732421875,0.6889801025390625,-0.671783447265625
1769668312294198800,3.16919873046875,-0.273162841796875,0.68402099609375,-0.67236328125
1769668312304187600,3.179187744140625,-0.274566650390625,0.6849822998046875,-0.668609619140625
1769668312314176800,3.1891767578125,-0.274078369140625,0.684844970703125,-0.6646728515625
1769668312324166000,3.199165771484375,-0.2766571044921875,0.6836700439453125,-0.663604736328125
1769668312334154000,3.209154052734375,-0.277191162109375,0.6818695068359375,-0.6669158935546875
1769668312344142800,3.219142822265625,-0.2838592529296875,0.6840972900390625,-0.6709136962890625
1769668312354132000,3.229132080078125,-0.2891845703125,0.692169189453125,-0.6710052490234375
1769668312364121000,3.23912109375,-0.2927703857421875,0.697418212890625,-0.6748199462890625
1769668312374110000,3.24910986328125,-0.2902374267578125,0.6980133056640625,-0.673858642578125
1769668312384097800,3.259097900390625,-0.291778564453125,0.700714111328125,-0.6721649169921875
1769668312394087000,3.2690869140625,-0.2909393310546875,0.7043609619140625,-0.6671905517578125
1769668312404075800,3.27907568359375,-0.2848358154296875,0.701751708984375,-0.6632537841796875
1769668312414065000,3.28906494140625,-0.2777099609375,0.6967620849609375,-0.664398193359375
1769668312424053000,3.299052978515625,-0.2706756591796875,0.690460205078125,-0.663482666015625
1769668312434041900,3.309041748046875,-0.267608642578125,0.6865081787109375,-0.66522216796875
1769668312444030700,3.31903076171875,-0.26593017578125,0.686737060546875,-0.6684417724609375
1769668312454019800,3.329019775390625,-0.2729644775390625,0.68975830078125,-0.6727294921875
1769668312464008700,3.3390087890625,-0.2800750732421875,0.6924591064453125,-0.6746063232421875
1769668312473996800,3.348996826171875,-0.282073974609375,0.6938323974609375,-0.676300048828125
1769668312483986000,3.35898583984375,-0.279998779296875,0.69439697265625,-0.6761016845703125
1769668312493975000,3.36897509765625,-0.2784881591796875,0.6919403076171875,-0.6757965087890625
1769668312503964000,3.3789638671875,-0.273651123046875,0.6932220458984375,-0.6725921630859375
1769668312513953000,3.388953125,-0.273406982421875,0.6950225830078125,-0.670928955078125
1769668312523940900,3.39894091796875,-0.272796630859375,0.6949462890625,-0.6727142333984375
1769668312533929700,3.4089296875,-0.2765655517578125,0.6980133056640625,-0.675628662109375
1769668312543918800,3.4189189453125,-0.27752685546875,0.699249267578125,-0.6734466552734375
1769668312553908000,3.428907958984375,-0.2761383056640625,0.6956329345703125,-0.6741943359375
1769668312563896000,3.43889599609375,-0.273406982421875,0.690582275390625,-0.6719970703125
1769668312573885000,3.448885009765625,-0.2686004638671875,0.686553955078125,-0.67041015625
1769668312583873800,3.458873779296875,-0.268463134765625,0.6862335205078125,-0.6715545654296875
1769668312593862700,3.468862548828125,-0.26702880859375,0.6874847412109375,-0.6711273193359375
1769668312603851800,3.478851806640625,-0.274200439453125,0.686309814453125,-0.6656951904296875
1769668312613840000,3.48883984375,-0.2827301025390625,0.68475341796875,-0.659820556640625
1769668312623829000,3.4988291015625,-0.2918853759765625,0.6802215576171875,-0.660247802734375
1769668312633817900,3.50881787109375,-0.2930908203125,0.6808319091796875,-0.663604736328125
1769668312643807000,3.518806884765625,-0.2851409912109375,0.6768035888671875,-0.6536407470703125
1769668312653795800,3.5287958984375,-0.28424072265625,0.6687164306640625,-0.64959716796875
1769668312663783700,3.53878369140625,-0.2836761474609375,0.67694091796875,-0.6581878662109375
1769668312673772800,3.548772705078125,-0.2803192138671875,0.6901092529296875,-0.6656951904296875
1769668312683762000,3.558761962890625,-0.2811126708984375,0.692901611328125,-0.6656951904296875
1769668312693750800,3.568750732421875,-0.28350830078125,0.6919097900390625,-0.6667938232421875
1769668312703740000,3.578739990234375,-0.286041259765625,0.68994140625,-0.666473388671875
1769668312713728000,3.58872802734375,-0.28936767578125,0.686187744140625,-0.6633758544921875
1769668312723716600,3.598716552734375,-0.288726806640625,0.6845550537109375,-0.6566619873046875
1769668312733705700,3.608705810546875,-0.2823028564453125,0.68121337890625,-0.6522674560546875
1769668312743694800,3.61869482421875,-0.2785491943359375,0.6802825927734375,-0.6505889892578125
1769668312753682700,3.6286826171875,-0.2728729248046875,0.6837158203125,-0.6511077880859375
1769668312763671600,3.638671630859375,-0.2711334228515625,0.6875457763671875,-0.65240478515625
1769668312773660700,3.64866064453125,-0.273468017578125,0.688934326171875,-0.6535797119140625
1769668312783649800,3.65864990234375,-0.271484375,0.692474365234375,-0.659149169921875
1769668312793638700,3.668638671875,-0.2699737548828125,0.696258544921875,-0.66143798828125
1769668312803626800,3.678626708984375,-0.2746124267578125,0.704437255859375,-0.662078857421875
1769668312813615900,3.688615966796875,-0.282196044921875,0.7116546630859375,-0.6654205322265625
1769668312823604500,3.6986044921875,-0.2850189208984375,0.7171783447265625,-0.665496826171875
1769668312833593600,3.708593505859375,-0.286895751953125,0.715118408203125,-0.666412353515625
1769668312843582700,3.718582763671875,-0.289794921875,0.7119293212890625,-0.6692962646484375
1769668312853570800,3.72857080078125,-0.2882080078125,0.7075958251953125,-0.6688079833984375
1769668312863559700,3.7385595703125,-0.2855377197265625,0.70526123046875,-0.6679840087890625
1769668312873548800,3.748548828125,-0.27783203125,0.70355224609375,-0.6662445068359375
1769668312883537700,3.75853759765625,-0.2776031494140625,0.70050048828125,-0.664825439453125
1769668312893525500,3.768525390625,-0.2816162109375,0.698577880859375,-0.6624298095703125
1769668312903514600,3.7785146484375,-0.283172607421875,0.694671630859375,-0.6590118408203125
1769668312913503700,3.788503662109375,-0.2769927978515625,0.6868133544921875,-0.65936279296875
1769668312923492600,3.79849267578125,-0.2667236328125,0.6815948486328125,-0.6620025634765625
1769668312933481700,3.808481689453125,-0.261444091796875,0.683258056640625,-0.6611785888671875
1769668312943469800,3.8184697265625,-0.262451171875,0.688140869140625,-0.66033935546875
1769668312953458700,3.828458740234375,-0.264495849609375,0.6934661865234375,-0.663421630859375
1769668312963447800,3.83844775390625,-0.269195556640625,0.7008819580078125,-0.667144775390625
1769668312973436700,3.848436767578125,-0.27545166015625,0.70440673828125,-0.66845703125
1769668312983425500,3.858425537109375,-0.2760467529296875,0.7000885009765625,-0.6673431396484375
1769668312993413600,3.86841357421875,-0.2763519287109375,0.6954498291015625,-0.663421630859375
1769668313003402800,3.87840283203125,-0.277130126953125,0.6942291259765625,-0.6620330810546875
1769668313013391600,3.8883916015625,-0.2797698974609375,0.699005126953125,-0.660614013671875
1769668313023380700,3.898380615234375,-0.2814483642578125,0.703765869140625,-0.6608428955078125
1769668313033369900,3.908369873046875,-0.2777252197265625,0.70538330078125,-0.6592559814453125
1769668313043357700,3.918357666015625,-0.279541015625,0.7046051025390625,-0.6589813232421875
1769668313053346600,3.9283466796875,-0.2806854248046875,0.7017974853515625,-0.6576385498046875
1769668313063335700,3.938335693359375,-0.282073974609375,0.698638916015625,-0.6560516357421875
1769668313073324800,3.94832470703125,-0.2859039306640625,0.693206787109375,-0.6561431884765625
1769668313083313700,3.958313720703125,-0.2911224365234375,0.689544677734375,-0.6613311767578125
1769668313093301800,3.9683017578125,-0.2980194091796875,0.6912841796875,-0.6674957275390625
1769668313103291000,3.978290771484375,-0.300384521484375,0.6941680908203125,-0.672332763671875
1769668313113279500,3.988279541015625,-0.301971435546875,0.6954345703125,-0.674285888671875
1769668313123268600,3.9982685546875,-0.29998779296875,0.6964569091796875,-0.674072265625
1769668313133256700,4.008256591796875,-0.2960662841796875,0.6936492919921875,-0.6701812744140625
1769668313143245800,4.018245849609375,-0.291259765625,0.688262939453125,-0.6663818359375
1769668313153234700,4.028234619140625,-0.287811279296875,0.6837615966796875,-0.664642333984375
1769668313163223800,4.038223876953125,-0.284820556640625,0.6819305419921875,-0.6621856689453125
1769668313173212700,4.048212646484375,-0.2797698974609375,0.68145751953125,-0.6613616943359375
1769668313183200500,4.058200439453125,-0.2758636474609375,0.67974853515625,-0.6618194580078125
1769668313193189600,4.068189697265625,-0.2805023193359375,0.681640625,-0.6609039306640625
1769668313203178800,4.0781787109375,-0.2838287353515625,0.684783935546875,-0.6596527099609375
1769668313213167600,4.088167724609375,-0.2809295654296875,0.6855010986328125,-0.662506103515625
1769668313223156700,4.09815673828125,-0.2795257568359375,0.68878173828125,-0.6671295166015625
1769668313233144800,4.108144775390625,-0.2792205810546875,0.691314697265625,-0.670501708984375
1769668313243133700,4.1181337890625,-0.2823028564453125,0.698577880859375,-0.669158935546875
1769668313253122800,4.128122802734375,-0.2861480712890625,0.703460693359375,-0.669281005859375
1769668313263111700,4.138111572265625,-0.288970947265625,0.704559326171875,-0.6677398681640625
1769668313273100500,4.1481005859375,-0.2913665771484375,0.7002105712890625,-0.664581298828125
1769668313283088600,4.158088623046875,-0.294464111328125,0.6965789794921875,-0.6643524169921875
1769668313293077800,4.168077880859375,-0.29803466796875,0.697845458984375,-0.6615753173828125
1769668313303066600,4.178066650390625,-0.29779052734375,0.69793701171875,-0.6626434326171875
1769668313313055700,4.1880556640625,-0.2958984375,0.6981658935546875,-0.662933349609375
1769668313323043600,4.198043701171875,-0.2949066162109375,0.6976165771484375,-0.664764404296875
1769668313333032700,4.20803271484375,-0.290374755859375,0.695587158203125,-0.662017822265625
1769668313343021600,4.218021484375,-0.2856903076171875,0.6913299560546875,-0.65850830078125
1769668313353010700,4.2280107421875,-0.28265380859375,0.6902313232421875,-0.65802001953125
1769668313362999600,4.23799951171875,-0.2849578857421875,0.6895751953125,-0.66046142578125
1769668313372987600,4.247987548828125,-0.2877044677734375,0.68975830078125,-0.660736083984375
1769668313382976800,4.257976806640625,-0.2915191650390625,0.6935577392578125,-0.6628570556640625
1769668313392966000,4.2679658203125,-0.2965087890625,0.6943359375,-0.6630859375
1769668313402954800,4.277954833984375,-0.295654296875,0.691802978515625,-0.663604736328125
1769668313412943600,4.287943603515625,-0.2935638427734375,0.69219970703125,-0.6620635986328125
1769668313422931700,4.297931640625,-0.2940826416015625,0.6922607421875,-0.6636962890625
1769668313432920600,4.307920654296875,-0.294036865234375,0.6945648193359375,-0.6619415283203125
1769668313442909700,4.31790966796875,-0.2941741943359375,0.6941680908203125,-0.662322998046875
1769668313452898800,4.32789892578125,-0.2939300537109375,0.6911163330078125,-0.6612091064453125
1769668313462887700,4.3378876953125,-0.2914886474609375,0.689483642578125,-0.6622161865234375
1769668313472875500,4.34787548828125,-0.2922821044921875,0.6881256103515625,-0.65771484375
1769668313482864600,4.35786474609375,-0.2931365966796875,0.688079833984375,-0.655670166015625
1769668313492853800,4.367853759765625,-0.2939453125,0.688873291015625,-0.65496826171875
1769668313502842600,4.377842529296875,-0.294891357421875,0.6913909912109375,-0.654815673828125
1769668313512830700,4.387830810546875,-0.2967071533203125,0.6930084228515625,-0.655792236328125
1769668313522819800,4.39781982421875,-0.29754638671875,0.6936187744140625,-0.659423828125
1769668313532808700,4.40780859375,-0.2966461181640625,0.69403076171875,-0.660247802734375
1769668313542797800,4.4177978515625,-0.295989990234375,0.69500732421875,-0.6615447998046875
1769668313552786700,4.42778662109375,-0.2928009033203125,0.692657470703125,-0.6630706787109375
1769668313562774800,4.43777490234375,-0.2928009033203125,0.691680908203125,-0.662078857421875
1769668313572763600,4.447763671875,-0.2935333251953125,0.6922760009765625,-0.6613006591796875
1769668313582752800,4.457752685546875,-0.2976531982421875,0.6948394775390625,-0.6623382568359375
1769668313592741600,4.46774169921875,-0.2983856201171875,0.6952972412109375,-0.6616668701171875
1769668313602730800,4.477730712890625,-0.2970733642578125,0.69525146484375,-0.6620330810546875
1769668313612718600,4.487718505859375,-0.2926483154296875,0.6929168701171875,-0.6634674072265625
1769668313622707700,4.497707763671875,-0.28851318359375,0.6904296875,-0.662384033203125
1769668313632696600,4.507696533203125,-0.2907867431640625,0.6897735595703125,-0.66229248046875
1769668313642685700,4.517685791015625,-0.292877197265625,0.693328857421875,-0.6616058349609375
1769668313652674600,4.527674560546875,-0.2949676513671875,0.6920928955078125,-0.6605377197265625
1769668313662662700,4.53766259765625,-0.296539306640625,0.6930389404296875,-0.662261962890625
1769668313672651800,4.54765185546875,-0.2956085205078125,0.692047119140625,-0.663543701171875
1769668313682641000,4.557640869140625,-0.294403076171875,0.690155029296875,-0.6663055419921875
1769668313692629800,4.567629638671875,-0.2940673828125,0.6897735595703125,-0.6670074462890625
1769668313702618600,4.57761865234375,-0.2951812744140625,0.6896209716796875,-0.6636199951171875
1769668313712606700,4.587606689453125,-0.2947540283203125,0.6907501220703125,-0.6607818603515625
1769668313722595600,4.597595703125,-0.2920379638671875,0.6888275146484375,-0.6614990234375
1769668313732586500,4.60758642578125,-0.292633056640625,0.6881103515625,-0.6590576171875
1769668313742575400,4.617575439453125,-0.2953643798828125,0.69049072265625,-0.6585540771484375
1769668313752563200,4.627563232421875,-0.29693603515625,0.6926727294921875,-0.657928466796875
1769668313762552300,4.63755224609375,-0.2990264892578125,0.6905670166015625,-0.6578521728515625
1769668313772541200,4.647541259765625,-0.2986602783203125,0.6845550537109375,-0.659454345703125
1769668313782530300,4.6575302734375,-0.2961578369140625,0.6834716796875,-0.657196044921875
1769668313792519400,4.66751953125,-0.2965240478515625,0.688446044921875,-0.6561279296875
1769668313802507500,4.677507568359375,-0.2930450439453125,0.692962646484375,-0.658966064453125
1769668313812496400,4.687496337890625,-0.2887725830078125,0.6996307373046875,-0.6660614013671875
1769668313822485200,4.6974853515625,-0.2868194580078125,0.7019500732421875,-0.6734466552734375
1769668313832474000,4.70747412109375,-0.2847900390625,0.696990966796875,-0.67974853515625
1769668313842463200,4.717463134765625,-0.2840423583984375,0.6941986083984375,-0.685546875
1769668313852451300,4.727451416015625,-0.28900146484375,0.691925048828125,-0.685546875
1769668313862440400,4.7374404296875,-0.291961669921875,0.6853790283203125,-0.682037353515625
1769668313872429300,4.74742919921875,-0.3002166748046875,0.6793212890625,-0.676971435546875
1769668313882418400,4.75741845703125,-0.301544189453125,0.675811767578125,-0.6697998046875
1769668313892407300,4.7674072265625,-0.30340576171875,0.673858642578125,-0.6633148193359375
1769668313902395100,4.77739501953125,-0.299957275390625,0.6790924072265625,-0.6587371826171875
1769668313912384300,4.78738427734375,-0.28997802734375,0.6829376220703125,-0.6565093994140625
1769668313922373400,4.797373291015625,-0.284088134765625,0.6815948486328125,-0.6558074951171875
1769668313932362200,4.8073623046875,-0.2856292724609375,0.6824493408203125,-0.657928466796875
1769668313942350300,4.817350341796875,-0.2881622314453125,0.685638427734375,-0.66058349609375
1769668313952339500,4.82733935546875,-0.290771484375,0.685577392578125,-0.6633758544921875
1769668313962328300,4.837328369140625,-0.2893218994140625,0.6869354248046875,-0.66497802734375
1769668313972317200,4.847317138671875,-0.294097900390625,0.688323974609375,-0.6660614013671875
1769668313982306300,4.857306396484375,-0.2966156005859375,0.686767578125,-0.6716156005859375
1769668313992294400,4.86729443359375,-0.3002166748046875,0.6933135986328125,-0.6736297607421875
1769668314002283300,4.877283203125,-0.3046722412109375,0.69622802734375,-0.676849365234375
1769668314012272400,4.8872724609375,-0.3069610595703125,0.6990203857421875,-0.676361083984375
1769668314022261500,4.897261474609375,-0.303955078125,0.6980743408203125,-0.67816162109375
1769668314032250400,4.90725048828125,-0.2968292236328125,0.6918792724609375,-0.6735687255859375
1769668314042238200,4.91723828125,-0.29205322265625,0.685821533203125,-0.6654052734375
1769668314052227300,4.927227294921875,-0.288848876953125,0.6816864013671875,-0.662139892578125
1769668314062216200,4.93721630859375,-0.2877349853515625,0.6827850341796875,-0.66204833984375
1769668314072205300,4.947205322265625,-0.2889251708984375,0.684417724609375,-0.6614227294921875
1769668314082194400,4.9571943359375,-0.2895050048828125,0.6870574951171875,-0.6642303466796875
1769668314092182300,4.967182373046875,-0.2905426025390625,0.687103271484375,-0.66729736328125
1769668314102171400,4.97717138671875,-0.2913818359375,0.68621826171875,-0.6684722900390625
1769668314112160300,4.98716015625,-0.2942047119140625,0.684783935546875,-0.667510986328125
1769668314122149000,4.997149169921875,-0.29437255859375,0.6850128173828125,-0.6654052734375
1769668314132138200,5.00713818359375,-0.292572021484375,0.6866455078125,-0.6658782958984375
1769668314142126300,5.017126220703125,-0.294830322265625,0.6871795654296875,-0.6680908203125
1769668314152115500,5.027115478515625,-0.2967681884765625,0.687408447265625,-0.671478271484375
1769668314162104300,5.037104248046875,-0.29833984375,0.68798828125,-0.672515869140625
1769668314172093400,5.047093505859375,-0.2981719970703125,0.6871490478515625,-0.6697998046875
1769668314182081300,5.057081298828125,-0.2979736328125,0.6847381591796875,-0.666839599609375
1769668314192070100,5.067070068359375,-0.297760009765625,0.684295654296875,-0.6663665771484375
1769668314202059300,5.077059326171875,-0.296661376953125,0.68377685546875,-0.66400146484375
1769668314212048400,5.08704833984375,-0.2999420166015625,0.6873779296875,-0.6633148193359375
1769668314222037200,5.097037353515625,-0.299346923828125,0.689239501953125,-0.66619873046875
1769668314232025300,5.107025390625,-0.300262451171875,0.68914794921875,-0.6684112548828125
1769668314242014500,5.117014404296875,-0.302001953125,0.689910888671875,-0.6684417724609375
1769668314252003300,5.12700341796875,-0.303741455078125,0.6891937255859375,-0.6656951904296875
1769668314261992200,5.1369921875,-0.304168701171875,0.68609619140625,-0.6637420654296875
1769668314271981300,5.146981201171875,-0.301971435546875,0.6854705810546875,-0.662261962890625
1769668314281969400,5.156969482421875,-0.2979736328125,0.6824188232421875,-0.66217041015625
1769668314291958300,5.166958251953125,-0.29437255859375,0.68408203125,-0.6642303466796875
1769668314301947400,5.176947509765625,-0.2923583984375,0.685546875,-0.6657867431640625
1769668314311936300,5.186936279296875,-0.2953643798828125,0.6858673095703125,-0.6680755615234375
1769668314321925400,5.19692529296875,-0.3004608154296875,0.6858673095703125,-0.667938232421875
1769668314331913200,5.206913330078125,-0.3051605224609375,0.6859283447265625,-0.6651611328125
1769668314341902300,5.21690234375,-0.3055877685546875,0.6866455078125,-0.6612396240234375
1769668314351891200,5.22689111328125,-0.302001953125,0.68560791015625,-0.659820556640625
1769668314361880300,5.23688037109375,-0.2982177734375,0.68701171875,-0.6618194580078125
1769668314371869400,5.246869384765625,-0.2977142333984375,0.6911468505859375,-0.664703369140625
1769668314381857300,5.256857177734375,-0.3009796142578125,0.6978912353515625,-0.666473388671875
1769668314391846400,5.266846435546875,-0.30352783203125,0.6975555419921875,-0.668792724609375
1769668314401835500,5.27683544921875,-0.3030242919921875,0.6953125,-0.6689300537109375
1769668314411824000,5.28682421875,-0.3030548095703125,0.69378662109375,-0.666717529296875
1769668314421812200,5.296812255859375,-0.300872802734375,0.691558837890625,-0.6660919189453125
1769668314431801300,5.30680126953125,-0.2971954345703125,0.6852569580078125,-0.6640167236328125
1769668314441790500,5.31679052734375,-0.296600341796875,0.6857757568359375,-0.662811279296875
1769668314451779300,5.326779296875,-0.2952423095703125,0.686920166015625,-0.66143798828125
1769668314461768400,5.3367685546875,-0.294769287109375,0.6872100830078125,-0.6616668701171875
1769668314471756300,5.34675634765625,-0.2952728271484375,0.6896514892578125,-0.663238525390625
1769668314481745200,5.3567451171875,-0.2972564697265625,0.69134521484375,-0.66497802734375
1769668314491734300,5.366734375,-0.297515869140625,0.691741943359375,-0.664825439453125
1769668314501723400,5.376723388671875,-0.3017578125,0.689727783203125,-0.6655731201171875
1769668314511712300,5.386712158203125,-0.302032470703125,0.68817138671875,-0.6665496826171875
1769668314521700400,5.396700439453125,-0.2971649169921875,0.6856536865234375,-0.663177490234375
1769668314531689500,5.406689453125,-0.2949676513671875,0.6837310791015625,-0.6620941162109375
1769668314541678300,5.41667822265625,-0.295806884765625,0.6853790283203125,-0.662078857421875
1769668314551667200,5.426667236328125,-0.2972869873046875,0.6871490478515625,-0.6622772216796875
1769668314561656300,5.43665625,-0.30029296875,0.688140869140625,-0.6635894775390625
1769668314571644400,5.44664453125,-0.302001953125,0.687347412109375,-0.6644134521484375
1769668314581633300,5.45663330078125,-0.3012542724609375,0.688568115234375,-0.66497802734375
1769668314591622400,5.466622314453125,-0.301849365234375,0.6905975341796875,-0.668304443359375
1769668314601611300,5.476611328125,-0.3021697998046875,0.6917266845703125,-0.6652679443359375
1769668314611599000,5.48659912109375,-0.3033905029296875,0.691680908203125,-0.661041259765625
1769668314621588200,5.496588134765625,-0.304840087890625,0.68890380859375,-0.660369873046875
1769668314631577300,5.506577392578125,-0.2999725341796875,0.685699462890625,-0.6616058349609375
1769668314641566200,5.516566162109375,-0.294952392578125,0.682830810546875,-0.66168212890625
1769668314651555300,5.526555419921875,-0.29571533203125,0.6818084716796875,-0.662445068359375
1769668314661543400,5.53654345703125,-0.2962493896484375,0.683380126953125,-0.6632080078125
1769668314671532300,5.5465322265625,-0.3006591796875,0.6853790283203125,-0.6612091064453125
1769668314681521400,5.556521484375,-0.3048858642578125,0.6865997314453125,-0.6630859375
1769668314691510500,5.566510498046875,-0.3018341064453125,0.6888427734375,-0.6636199951171875
1769668314701499100,5.5764990234375,-0.30072021484375,0.6907501220703125,-0.6627197265625
1769668314711487200,5.5864873046875,-0.29779052734375,0.69097900390625,-0.6645965576171875
1769668314721476400,5.596476318359375,-0.29400634765625,0.6882781982421875,-0.6657867431640625
1769668314731464000,5.6064638671875,-0.29180908203125,0.6857757568359375,-0.66717529296875
1769668314741453000,5.616453125,-0.287261962890625,0.6845703125,-0.667236328125
1769668314751441700,5.626441650390625,-0.28466796875,0.68548583984375,-0.665679931640625
1769668314761429800,5.6364296875,-0.2897491455078125,0.686798095703125,-0.665802001953125
1769668314771419000,5.6464189453125,-0.2896728515625,0.6904449462890625,-0.6667938232421875
1769668314781407700,5.65640771484375,-0.2912750244140625,0.69256591796875,-0.66729736328125
1769668314791396900,5.66639697265625,-0.294647216796875,0.6936187744140625,-0.6690216064453125
1769668314801386000,5.676385986328125,-0.2960968017578125,0.695281982421875,-0.6660308837890625
1769668314811373800,5.686373779296875,-0.2987823486328125,0.69219970703125,-0.66583251953125
1769668314821362700,5.69636279296875,-0.2968292236328125,0.688232421875,-0.6637725830078125
1769668314831351800,5.706351806640625,-0.293792724609375,0.685333251953125,-0.6623687744140625
1769668314841340700,5.716340576171875,-0.2968597412109375,0.6845703125,-0.661285400390625
1769668314851329800,5.726329833984375,-0.29986572265625,0.686187744140625,-0.6623992919921875
1769668314861318000,5.73631787109375,-0.2991790771484375,0.689056396484375,-0.6634979248046875
1769668314871307000,5.74630712890625,-0.2963409423828125,0.69036865234375,-0.6648712158203125
1769668314881296000,5.7562958984375,-0.2911834716796875,0.690521240234375,-0.6638336181640625
1769668314891285000,5.766284912109375,-0.291015625,0.68994140625,-0.6623077392578125
1769668314901272800,5.77627294921875,-0.2915802001953125,0.6885528564453125,-0.6589813232421875
1769668314911261700,5.78626171875,-0.291839599609375,0.685821533203125,-0.6583404541015625
1769668314921250800,5.796250732421875,-0.2929229736328125,0.686737060546875,-0.660003662109375
1769668314931240000,5.806239990234375,-0.293701171875,0.690704345703125,-0.6622467041015625
1769668314941228800,5.816228759765625,-0.295257568359375,0.6918792724609375,-0.6667633056640625
1769668314951217000,5.826216796875,-0.29779052734375,0.694305419921875,-0.670074462890625
1769668314961205800,5.836205810546875,-0.301025390625,0.6952362060546875,-0.6716461181640625
1769668314971194600,5.846194580078125,-0.30523681640625,0.6931304931640625,-0.670196533203125
1769668314981183700,5.856183837890625,-0.304931640625,0.6924591064453125,-0.6670684814453125
1769668314991172900,5.8661728515625,-0.3044586181640625,0.6906890869140625,-0.6660308837890625
1769668315001161000,5.876160888671875,-0.299102783203125,0.688873291015625,-0.6652984619140625
1769668315011149800,5.88614990234375,-0.2948455810546875,0.6877593994140625,-0.6663665771484375
1769668315021139000,5.896138916015625,-0.28338623046875,0.6871185302734375,-0.666748046875
1769668315031127800,5.9061279296875,-0.28253173828125,0.688140869140625,-0.665924072265625
1769668315041116700,5.91611669921875,-0.2846832275390625,0.686737060546875,-0.664581298828125
1769668315051104800,5.926104736328125,-0.2872161865234375,0.6877593994140625,-0.6622314453125
1769668315061094000,5.936093994140625,-0.2861328125,0.68804931640625,-0.662109375
1769668315071082800,5.946082763671875,-0.289642333984375,0.6885833740234375,-0.661407470703125
1769668315081071900,5.95607177734375,-0.290557861328125,0.6884613037109375,-0.6610870361328125
1769668315091061000,5.96606103515625,-0.2907867431640625,0.6922454833984375,-0.6629791259765625
1769668315101048800,5.976048828125,-0.289703369140625,0.6936798095703125,-0.665924072265625
1769668315111037700,5.98603759765625,-0.28759765625,0.6921844482421875,-0.664306640625
1769668315121026800,5.99602685546875,-0.2876434326171875,0.6920166015625,-0.664031982421875
1769668315131015700,6.006015625,-0.28955078125,0.6894989013671875,-0.666778564453125
1769668315141004800,6.0160048828125,-0.2926177978515625,0.6878662109375,-0.667205810546875
1769668315150993000,6.025992919921875,-0.2938232421875,0.6881103515625,-0.666748046875
1769668315160982000,6.03598193359375,-0.291290283203125,0.687164306640625,-0.665435791015625
1769668315170971000,6.045970947265625,-0.288177490234375,0.6871185302734375,-0.665802001953125
1769668315180960000,6.0559599609375,-0.2883148193359375,0.691192626953125,-0.6649017333984375
1769668315190948600,6.065948486328125,-0.2896575927734375,0.69189453125,-0.665283203125
1769668315200936700,6.075936767578125,-0.2876434326171875,0.6915130615234375,-0.6663970947265625
1769668315210925800,6.08592578125,-0.2881317138671875,0.69097900390625,-0.6659088134765625
1769668315220915000,6.0959150390625,-0.2878875732421875,0.6876373291015625,-0.66546630859375
1769668315230903800,6.10590380859375,-0.287628173828125,0.6850128173828125,-0.6648406982421875
1769668315240892000,6.115891845703125,-0.2866668701171875,0.68328857421875,-0.6643218994140625
1769668315250880800,6.125880859375,-0.286376953125,0.685546875,-0.662445068359375
1769668315260869600,6.13586962890625,-0.2863922119140625,0.6872406005859375,-0.66253662109375
1769668315270858800,6.145858642578125,-0.2854156494140625,0.688873291015625,-0.66192626953125
1769668315280848000,6.155847900390625,-0.2841033935546875,0.6881256103515625,-0.663116455078125
1769668315290836000,6.1658359375,-0.283203125,0.6861572265625,-0.6648101806640625
1769668315300824800,6.175824951171875,-0.2833251953125,0.684112548828125,-0.66412353515625
1769668315310814000,6.18581396484375,-0.2831878662109375,0.6829833984375,-0.6644287109375
1769668315320802800,6.195802734375,-0.281890869140625,0.6819305419921875,-0.6638336181640625
1769668315330791700,6.205791748046875,-0.2830352783203125,0.6839447021484375,-0.663299560546875
1769668315340779800,6.21577978515625,-0.284027099609375,0.6880340576171875,-0.6636810302734375
1769668315350769000,6.225768798828125,-0.2861480712890625,0.6898651123046875,-0.6647796630859375
1769668315360757800,6.2357578125,-0.2876434326171875,0.691864013671875,-0.6653900146484375
1769668315370747000,6.245746826171875,-0.2895660400390625,0.6933441162109375,-0.667938232421875
1769668315380736000,6.255736083984375,-0.29266357421875,0.69171142578125,-0.6668548583984375
1769668315390723600,6.2657236328125,-0.293701171875,0.6923980712890625,-0.66705322265625
1769668315400712700,6.275712646484375,-0.2908935546875,0.6932830810546875,-0.6671142578125
1769668315410701800,6.285701904296875,-0.2849884033203125,0.69012451171875,-0.663330078125
1769668315420690700,6.295690673828125,-0.281494140625,0.68780517578125,-0.66290283203125
1769668315430679800,6.3056796875,-0.2809906005859375,0.6852569580078125,-0.66162109375
1769668315440668000,6.31566796875,-0.2818756103515625,0.6830291748046875,-0.6602783203125
1769668315450656800,6.32565673828125,-0.28436279296875,0.682098388671875,-0.662506103515625
1769668315460646000,6.33564599609375,-0.2883758544921875,0.683441162109375,-0.6656951904296875
1769668315470635000,6.345635009765625,-0.292144775390625,0.688751220703125,-0.6690826416015625
1769668315480623600,6.35562353515625,-0.295989990234375,0.694580078125,-0.6726226806640625
1769668315490611700,6.36561181640625,-0.2978363037109375,0.698944091796875,-0.675079345703125
1769668315500600800,6.375600830078125,-0.2985687255859375,0.7010498046875,-0.671142578125
1769668315510590000,6.38558984375,-0.295013427734375,0.696502685546875,-0.6680755615234375
1769668315520578800,6.395578857421875,-0.28887939453125,0.691741943359375,-0.663665771484375
1769668315530567000,6.40556689453125,-0.285736083984375,0.6839141845703125,-0.6585845947265625
1769668315540555800,6.4155556640625,-0.279815673828125,0.6798553466796875,-0.6571197509765625
1769668315550544600,6.425544677734375,-0.277587890625,0.6799468994140625,-0.6581878662109375
1769668315560533800,6.43553369140625,-0.2812957763671875,0.6832275390625,-0.66021728515625
1769668315570523000,6.44552294921875,-0.286163330078125,0.6876678466796875,-0.6626739501953125
1769668315580511000,6.455510986328125,-0.287017822265625,0.688751220703125,-0.6669464111328125
1769668315590499800,6.465499755859375,-0.29248046875,0.6914215087890625,-0.669921875
1769668315600489000,6.475489013671875,-0.296142578125,0.693267822265625,-0.66943359375
1769668315610477800,6.485477783203125,-0.2996063232421875,0.6953125,-0.66693115234375
1769668315620466700,6.495466796875,-0.29638671875,0.6963043212890625,-0.6670074462890625
1769668315630454800,6.505454833984375,-0.2949676513671875,0.693939208984375,-0.6647796630859375
1769668315640444000,6.51544384765625,-0.2922821044921875,0.6927490234375,-0.662872314453125
1769668315650432800,6.525432861328125,-0.29345703125,0.6926422119140625,-0.663055419921875
1769668315660422000,6.535421875,-0.2946319580078125,0.692169189453125,-0.6644134521484375
1769668315670410800,6.54541064453125,-0.295013427734375,0.692596435546875,-0.6646575927734375
1769668315680398800,6.55539892578125,-0.2935333251953125,0.692047119140625,-0.6655120849609375
1769668315690387700,6.5653876953125,-0.29205322265625,0.690643310546875,-0.6649322509765625
1769668315700376800,6.575376953125,-0.2917938232421875,0.6898651123046875,-0.66265869140625
1769668315710365700,6.58536572265625,-0.2921142578125,0.687408447265625,-0.6615142822265625
1769668315720354800,6.595354736328125,-0.29156494140625,0.6876373291015625,-0.660797119140625
1769668315730343200,6.60534326171875,-0.2926177978515625,0.6887969970703125,-0.6612548828125
1769668315740331800,6.615331787109375,-0.29473876953125,0.6921844482421875,-0.6634063720703125
1769668315750321000,6.62532080078125,-0.2966766357421875,0.6937408447265625,-0.6632537841796875
1769668315760310000,6.63531005859375,-0.2954864501953125,0.692657470703125,-0.66400146484375
1769668315770299000,6.645298828125,-0.29156494140625,0.690093994140625,-0.6628570556640625
1769668315780287000,6.655286865234375,-0.2914276123046875,0.6869354248046875,-0.6609954833984375
1769668315790276000,6.665276123046875,-0.291778564453125,0.6864776611328125,-0.660125732421875
1769668315800265000,6.675264892578125,-0.2918243408203125,0.689666748046875,-0.661102294921875
1769668315810254000,6.685254150390625,-0.2960357666015625,0.694976806640625,-0.6629486083984375
1769668315820243000,6.695242919921875,-0.2958831787109375,0.69598388671875,-0.6646881103515625
1769668315830231000,6.70523095703125,-0.2960357666015625,0.6963348388671875,-0.665008544921875
1769668315840220000,6.715219970703125,-0.2975921630859375,0.695709228515625,-0.664764404296875
1769668315850209000,6.725208984375,-0.2998046875,0.691802978515625,-0.6630706787109375
1769668315860198100,6.7351982421875,-0.29803466796875,0.68939208984375,-0.6611328125
1769668315870187000,6.74518701171875,-0.295135498046875,0.6860198974609375,-0.6602630615234375
1769668315880174800,6.7551748046875,-0.293426513671875,0.6853485107421875,-0.6621551513671875
1769668315890164000,6.7651640625,-0.29302978515625,0.687347412109375,-0.6631622314453125
1769668315900152800,6.77515283203125,-0.2920379638671875,0.69012451171875,-0.6641693115234375
1769668315910142000,6.785141845703125,-0.2957305908203125,0.692291259765625,-0.663787841796875
1769668315920131000,6.795131103515625,-0.298126220703125,0.69342041015625,-0.6621856689453125
1769668315930119000,6.805118896484375,-0.29644775390625,0.69012451171875,-0.6605072021484375
1769668315940108000,6.81510791015625,-0.2958221435546875,0.6886444091796875,-0.658203125
1769668315950097200,6.82509716796875,-0.29364013671875,0.687469482421875,-0.6600341796875
1769668315960086000,6.8350859375,-0.2933349609375,0.6876983642578125,-0.6629486083984375
1769668315970073900,6.845073974609375,-0.29290771484375,0.6880645751953125,-0.6657867431640625
1769668315980063000,6.85506298828125,-0.29522705078125,0.69146728515625,-0.6663818359375
1769668315990052000,6.865052001953125,-0.297393798828125,0.694549560546875,-0.6667327880859375
1769668316000041000,6.875041015625,-0.2990570068359375,0.6945953369140625,-0.664520263671875
1769668316010030000,6.885030029296875,-0.299560546875,0.692779541015625,-0.6634063720703125
1769668316020018200,6.89501806640625,-0.2998809814453125,0.6896514892578125,-0.6619720458984375
1769668316030006800,6.9050068359375,-0.2952423095703125,0.6874237060546875,-0.6601409912109375
1769668316039996000,6.914995849609375,-0.294281005859375,0.6851959228515625,-0.66119384765625
1769668316049985000,6.924985107421875,-0.2956390380859375,0.6851806640625,-0.660614013671875
1769668316059974000,6.934973876953125,-0.2941436767578125,0.6863861083984375,-0.6609649658203125
1769668316069962000,6.9449619140625,-0.2921905517578125,0.6872100830078125,-0.6622467041015625
1769668316079951000,6.954951171875,-0.294647216796875,0.6884613037109375,-0.66082763671875
1769668316089940000,6.96493994140625,-0.2962646484375,0.6912841796875,-0.6617889404296875
1769668316099929000,6.97492919921875,-0.2972412109375,0.6926116943359375,-0.6619873046875
1769668316109918000,6.98491796875,-0.2957611083984375,0.6913909912109375,-0.662750244140625
1769668316119906000,6.994906005859375,-0.2954559326171875,0.6902008056640625,-0.66510009765625
1769668316129895000,7.00489501953125,-0.2960205078125,0.6890716552734375,-0.664886474609375
1769668316139884000,7.014884033203125,-0.2949066162109375,0.6902923583984375,-0.665374755859375
1769668316149873000,7.024872802734375,-0.29705810546875,0.6896514892578125,-0.66748046875
1769668316159862000,7.034862060546875,-0.2978363037109375,0.6917724609375,-0.6696929931640625
1769668316169849900,7.044849853515625,-0.3002777099609375,0.6920166015625,-0.66766357421875
1769668316179839000,7.0548388671875,-0.299774169921875,0.6927337646484375,-0.6672515869140625
1769668316189827800,7.064827880859375,-0.3002777099609375,0.6896209716796875,-0.6659698486328125
1769668316199817000,7.07481689453125,-0.2973785400390625,0.6866455078125,-0.664398193359375
1769668316209806000,7.08480615234375,-0.2975921630859375,0.6851959228515625,-0.6628570556640625
1769668316219794000,7.0947939453125,-0.29656982421875,0.6852874755859375,-0.6618499755859375
1769668316229783000,7.104782958984375,-0.296173095703125,0.6880645751953125,-0.6633453369140625
1769668316239772200,7.114772216796875,-0.2956695556640625,0.692535400390625,-0.6609649658203125
1769668316249761000,7.124760986328125,-0.297882080078125,0.6924285888671875,-0.660858154296875
1769668316259750000,7.13475,-0.2974395751953125,0.6895904541015625,-0.66461181640625
1769668316269738000,7.144738037109375,-0.2959136962890625,0.6869964599609375,-0.66461181640625
1769668316279727000,7.15472705078125,-0.2935943603515625,0.6832122802734375,-0.666351318359375
1769668316289716000,7.164716064453125,-0.2945404052734375,0.68359375,-0.667266845703125
1769668316299705000,7.174705078125,-0.3018341064453125,0.68572998046875,-0.6701507568359375
1769668316309694000,7.18469384765625,-0.3054351806640625,0.6885986328125,-0.6688995361328125
1769668316319681800,7.194681884765625,-0.3039093017578125,0.6907958984375,-0.66827392578125
1769668316329671000,7.2046708984375,-0.30523681640625,0.6910400390625,-0.666717529296875
1769668316339660000,7.214659912109375,-0.3007965087890625,0.6926116943359375,-0.6649017333984375
1769668316349649000,7.22464892578125,-0.2966156005859375,0.69085693359375,-0.6640167236328125
1769668316359638000,7.234637939453125,-0.294342041015625,0.68994140625,-0.66265869140625
1769668316369626000,7.244626220703125,-0.2895965576171875,0.687286376953125,-0.6634979248046875
1769668316379615000,7.254614990234375,-0.28887939453125,0.6872406005859375,-0.66064453125
1769668316389604000,7.26460400390625,-0.291839599609375,0.6863250732421875,-0.6580047607421875
1769668316399593000,7.274593017578125,-0.29156494140625,0.6855621337890625,-0.65966796875
1769668316409581800,7.284581787109375,-0.2937469482421875,0.68585205078125,-0.6642608642578125
1769668316419570000,7.29456982421875,-0.296600341796875,0.6884307861328125,-0.6678466796875
1769668316429559000,7.30455908203125,-0.3002471923828125,0.6913299560546875,-0.6708221435546875
1769668316439548000,7.3145478515625,-0.30108642578125,0.6911468505859375,-0.672332763671875
1769668316449537000,7.324537109375,-0.304718017578125,0.6941070556640625,-0.6717376708984375
1769668316459525000,7.334525146484375,-0.3025360107421875,0.69073486328125,-0.6714630126953125
1769668316469514000,7.344513916015625,-0.300384521484375,0.6873779296875,-0.6694488525390625
1769668316479502800,7.3545029296875,-0.29974365234375,0.6856231689453125,-0.6656036376953125
1769668316489492000,7.364491943359375,-0.2968597412109375,0.6840667724609375,-0.66363525390625
1769668316499481000,7.374481201171875,-0.2955169677734375,0.6824188232421875,-0.6613922119140625
1769668316509470000,7.384469970703125,-0.2992401123046875,0.686309814453125,-0.66064453125
1769668316519458000,7.3944580078125,-0.3004150390625,0.6892547607421875,-0.661407470703125
1769668316529447200,7.404447265625,-0.300018310546875,0.6906890869140625,-0.6618804931640625
1769668316539436000,7.41443603515625,-0.2996978759765625,0.6895751953125,-0.6629486083984375
1769668316549425000,7.4244248046875,-0.29351806640625,0.687225341796875,-0.6629180908203125
1769668316559414000,7.4344140625,-0.2917327880859375,0.685638427734375,-0.661041259765625
1769668316569401900,7.44440185546875,-0.29437255859375,0.686279296875,-0.65899658203125
1769668316579391000,7.454390869140625,-0.3017120361328125,0.688568115234375,-0.661529541015625
1769668316589380000,7.464380126953125,-0.3060302734375,0.69378662109375,-0.66265869140625
1769668316599369000,7.474368896484375,-0.3066864013671875,0.6942596435546875,-0.666534423828125
1769668316609356800,7.484356689453125,-0.30517578125,0.6932525634765625,-0.66534423828125
1769668316619346000,7.494345947265625,-0.2989959716796875,0.69012451171875,-0.6641845703125
1769668316629335000,7.5043349609375,-0.29486083984375,0.6880645751953125,-0.662628173828125
1769668316639324000,7.514323974609375,-0.293975830078125,0.688934326171875,-0.66259765625
1769668316649313000,7.52431298828125,-0.2970733642578125,0.6906890869140625,-0.66302490234375
1769668316659301000,7.534301025390625,-0.299560546875,0.6902008056640625,-0.6632843017578125
1769668316669290000,7.5442900390625,-0.300140380859375,0.6882781982421875,-0.6625823974609375
1769668316679279000,7.554279052734375,-0.29986572265625,0.68695068359375,-0.6624298095703125
1769668316689268000,7.56426806640625,-0.3008270263671875,0.6867523193359375,-0.663726806640625
1769668316699256800,7.5742568359375,-0.3022613525390625,0.68585205078125,-0.66473388671875
1769668316709245000,7.584244873046875,-0.304046630859375,0.6854248046875,-0.666900634765625
1769668316719234000,7.594234130859375,-0.3053131103515625,0.6880035400390625,-0.6677703857421875
1769668316729222400,7.604222412109375,-0.305145263671875,0.6891632080078125,-0.6678924560546875
1769668316739211300,7.614211181640625,-0.3021697998046875,0.68658447265625,-0.6647491455078125
1769668316749200400,7.624200439453125,-0.302947998046875,0.686553955078125,-0.6643524169921875
1769668316759188500,7.6341884765625,-0.305633544921875,0.691436767578125,-0.664093017578125
1769668316769177300,7.64417724609375,-0.3031005859375,0.691558837890625,-0.6602935791015625
1769668316779166200,7.654166259765625,-0.29925537109375,0.6898956298828125,-0.6611175537109375
1769668316789155300,7.6641552734375,-0.297821044921875,0.68695068359375,-0.6611328125
1769668316799144200,7.674144287109375,-0.2986907958984375,0.6858978271484375,-0.6595458984375
1769668316809132300,7.68413232421875,-0.2998199462890625,0.6857147216796875,-0.6607666015625
1769668316819121400,7.694121337890625,-0.3001708984375,0.6871490478515625,-0.6595458984375
1769668316829110300,7.7041103515625,-0.3030242919921875,0.688507080078125,-0.661651611328125
1769668316839099400,7.714099365234375,-0.2995147705078125,0.6902618408203125,-0.6649627685546875
1769668316849088500,7.724088623046875,-0.297210693359375,0.687896728515625,-0.6646881103515625
1769668316859076400,7.734076416015625,-0.298919677734375,0.6855316162109375,-0.6646728515625
1769668316869065200,7.744065185546875,-0.2971343994140625,0.686065673828125,-0.6643829345703125
1769668316879054300,7.754054443359375,-0.299224853515625,0.684967041015625,-0.6648101806640625
1769668316889043500,7.76404345703125,-0.2984619140625,0.6888885498046875,-0.6633758544921875
1769668316899032300,7.7740322265625,-0.2956085205078125,0.6912384033203125,-0.6623687744140625
1769668316909020400,7.7840205078125,-0.295196533203125,0.690338134765625,-0.662872314453125
1769668316919009300,7.79400927734375,-0.2949981689453125,0.689849853515625,-0.66412353515625
1769668316928998100,7.803998046875,-0.295745849609375,0.689666748046875,-0.663909912109375
1769668316938987300,7.8139873046875,-0.2951202392578125,0.6904449462890625,-0.664520263671875
1769668316948976400,7.823976318359375,-0.2951202392578125,0.6892852783203125,-0.6670074462890625
1769668316958964200,7.833964111328125,-0.2958831787109375,0.6876373291015625,-0.667327880859375
1769668316968953300,7.843953369140625,-0.29595947265625,0.68560791015625,-0.6662139892578125
1769668316978942500,7.8539423828125,-0.2953338623046875,0.68426513671875,-0.6686859130859375
1769668316988931300,7.863931396484375,-0.2951812744140625,0.6857147216796875,-0.668121337890625
1769668316998920400,7.87392041015625,-0.295684814453125,0.68731689453125,-0.66912841796875
1769668317008908300,7.883908203125,-0.296417236328125,0.6880035400390625,-0.6679840087890625
1769668317018897400,7.8938974609375,-0.29595947265625,0.68707275390625,-0.666748046875
1769668317028886300,7.90388623046875,-0.29595947265625,0.68603515625,-0.6663055419921875
1769668317038875400,7.91387548828125,-0.2950439453125,0.6859283447265625,-0.6648712158203125
1769668317048864300,7.9238642578125,-0.2969818115234375,0.6870880126953125,-0.664459228515625
1769668317058852400,7.933852294921875,-0.2975921630859375,0.6887969970703125,-0.6651611328125
1769668317068841200,7.94384130859375,-0.3000030517578125,0.691864013671875,-0.6674957275390625
1769668317078830300,7.953830322265625,-0.3000640869140625,0.6910247802734375,-0.6686859130859375
1769668317088819200,7.963819091796875,-0.300537109375,0.6915435791015625,-0.6672821044921875
1769668317098808300,7.973808349609375,-0.2982635498046875,0.6884613037109375,-0.6689453125
1769668317108796400,7.98379638671875,-0.296630859375,0.6880035400390625,-0.6664276123046875
1769668317118785300,7.993785400390625,-0.2960662841796875,0.6875762939453125,-0.664215087890625
1769668317128774400,8.0037744140625,-0.2974853515625,0.6892852783203125,-0.6644744873046875
1769668317138763500,8.013763427734375,-0.298370361328125,0.690582275390625,-0.663848876953125
1769668317148752100,8.023752197265624,-0.2932586669921875,0.6879425048828125,-0.66668701171875
1769668317158740200,8.033740234375,-0.288787841796875,0.686309814453125,-0.665435791015625
1769668317168729300,8.043729248046875,-0.2880706787109375,0.6828460693359375,-0.6626434326171875
1769668317178718200,8.05371826171875,-0.2866058349609375,0.6822509765625,-0.6630859375
1769668317188707300,8.063707275390625,-0.288665771484375,0.6822967529296875,-0.6640472412109375
1769668317198696400,8.073696533203124,-0.2915802001953125,0.6869659423828125,-0.6677093505859375
1769668317208684300,8.083684326171875,-0.2938385009765625,0.692779541015625,-0.669769287109375
1769668317218673200,8.093673095703124,-0.2944183349609375,0.6945037841796875,-0.671142578125
1769668317228662300,8.103662353515626,-0.2985992431640625,0.693695068359375,-0.673736572265625
1769668317238651400,8.1136513671875,-0.2968902587890625,0.6916656494140625,-0.674224853515625
1769668317248640300,8.12364013671875,-0.2945404052734375,0.685821533203125,-0.67138671875
1769668317258628400,8.13362841796875,-0.2908477783203125,0.679962158203125,-0.6697540283203125
1769668317268617500,8.143617431640624,-0.2918548583984375,0.677947998046875,-0.6662139892578125
1769668317278606300,8.1536064453125,-0.29437255859375,0.6821441650390625,-0.665130615234375
1769668317288595500,8.163595458984375,-0.295318603515625,0.6874847412109375,-0.664337158203125
1769668317298584300,8.173584228515624,-0.291717529296875,0.6919403076171875,-0.665374755859375
1769668317308572400,8.183572509765625,-0.2961578369140625,0.6898040771484375,-0.66632080078125
1769668317318561300,8.193561279296874,-0.2831268310546875,0.690673828125,-0.6608734130859375
1769668317328550400,8.20355029296875,-0.2707366943359375,0.694183349609375,-0.662689208984375
1769668317338539300,8.213539306640625,-0.282745361328125,0.6920166015625,-0.6665496826171875
1769668317348528400,8.2235283203125,-0.2900390625,0.6923828125,-0.66815185546875
1769668317358516200,8.23351611328125,-0.2877197265625,0.6866607666015625,-0.6726837158203125
1769668317368505300,8.24350537109375,-0.2917022705078125,0.6838531494140625,-0.672149658203125
1769668317378494200,8.253494140625,-0.2996978759765625,0.6869659423828125,-0.6744537353515625
1769668317388483300,8.2634833984375,-0.3029937744140625,0.689422607421875,-0.673583984375
1769668317398472200,8.27347216796875,-0.2985992431640625,0.6884613037109375,-0.6706390380859375
1769668317408460300,8.283460205078125,-0.2939453125,0.684600830078125,-0.6681365966796875
1769668317418449400,8.293449462890624,-0.287261962890625,0.6815185546875,-0.6663818359375
1769668317428438500,8.3034384765625,-0.2826385498046875,0.6820068359375,-0.6652374267578125
1769668317438427100,8.31342724609375,-0.28582763671875,0.685089111328125,-0.6664886474609375
1769668317448416300,8.323416259765626,-0.28741455078125,0.68670654296875,-0.66748046875
1769668317458404400,8.333404296875,-0.29217529296875,0.6885833740234375,-0.6685028076171875
1769668317468393200,8.343393310546874,-0.2924957275390625,0.6903533935546875,-0.6689453125
1769668317478382300,8.35338232421875,-0.2919158935546875,0.6900787353515625,-0.668365478515625
1769668317488371500,8.363371337890625,-0.29241943359375,0.693511962890625,-0.6686248779296875
1769668317498360300,8.3733603515625,-0.2942352294921875,0.694915771484375,-0.6659393310546875
1769668317508348200,8.38334814453125,-0.2951507568359375,0.6926116943359375,-0.6664886474609375
1769668317518337300,8.393337158203124,-0.296173095703125,0.6902923583984375,-0.6660919189453125
1769668317528326400,8.403326416015625,-0.2943115234375,0.6856231689453125,-0.66455078125
1769668317538315300,8.413315185546875,-0.2899627685546875,0.683929443359375,-0.662353515625
1769668317548304400,8.423304443359376,-0.2894744873046875,0.68310546875,-0.664337158203125
1769668317558292500,8.43329248046875,-0.288299560546875,0.6827239990234375,-0.66741943359375
1769668317568281300,8.44328125,-0.290740966796875,0.683074951171875,-0.67095947265625
1769668317578270500,8.4532705078125,-0.291473388671875,0.6848907470703125,-0.673614501953125
1769668317588259300,8.46325927734375,-0.2910003662109375,0.6846160888671875,-0.6728973388671875
1769668317598248200,8.473248291015626,-0.2893829345703125,0.6845703125,-0.67095947265625
1769668317608236300,8.483236328125,-0.285614013671875,0.6815185546875,-0.6673431396484375
1769668317618225400,8.493225341796874,-0.2830352783203125,0.679351806640625,-0.666351318359375
1769668317628214300,8.50321435546875,-0.2826080322265625,0.6793060302734375,-0.6660003662109375
1769668317638203400,8.513203369140625,-0.283843994140625,0.679779052734375,-0.6673126220703125
1769668317648192500,8.523192626953126,-0.28485107421875,0.6822052001953125,-0.6696014404296875
1769668317658180400,8.533180419921875,-0.28497314453125,0.6825103759765625,-0.672332763671875
1769668317668169200,8.543169189453126,-0.2869110107421875,0.684600830078125,-0.67462158203125
1769668317678158300,8.553158447265625,-0.2864837646484375,0.6871795654296875,-0.6742095947265625
1769668317688147200,8.563147216796875,-0.28521728515625,0.685394287109375,-0.6728363037109375
1769668317698136300,8.57313623046875,-0.285430908203125,0.6862640380859375,-0.671417236328125
1769668317708124400,8.58312451171875,-0.2821044921875,0.6842041015625,-0.666290283203125
1769668317718113500,8.593113525390624,-0.281402587890625,0.681304931640625,-0.6641845703125
1769668317728103400,8.603103515625,-0.279144287109375,0.68157958984375,-0.66534423828125
1769668317738092500,8.613092529296875,-0.2812042236328125,0.6834716796875,-0.66357421875
1769668317748081400,8.623081298828126,-0.2851715087890625,0.6863250732421875,-0.665008544921875
1769668317758069500,8.633069580078125,-0.288299560546875,0.6885223388671875,-0.6675262451171875
1769668317768058600,8.64305859375,-0.2918853759765625,0.689453125,-0.668212890625
1769668317778047500,8.653047607421875,-0.2915496826171875,0.689056396484375,-0.67132568359375
1769668317788036600,8.66303662109375,-0.2908935546875,0.6881103515625,-0.672454833984375
1769668317798025700,8.673025634765626,-0.2907257080078125,0.6853179931640625,-0.672393798828125
1769668317808013300,8.683013427734375,-0.29058837890625,0.683197021484375,-0.6721649169921875
1769668317818002400,8.69300244140625,-0.2897186279296875,0.680938720703125,-0.6683807373046875
1769668317827991600,8.702991455078125,-0.28887939453125,0.6804656982421875,-0.6658782958984375
1769668317837980400,8.71298046875,-0.2864227294921875,0.68096923828125,-0.663482666015625
1769668317847968500,8.722968505859376,-0.2841949462890625,0.6823272705078125,-0.6659698486328125
1769668317857957600,8.73295751953125,-0.2842254638671875,0.684722900390625,-0.66790771484375
1769668317867946500,8.742946533203124,-0.285125732421875,0.6861724853515625,-0.6699981689453125
1769668317877935400,8.752935302734375,-0.288421630859375,0.6880035400390625,-0.6735992431640625
1769668317887924500,8.762924560546875,-0.291900634765625,0.687835693359375,-0.6747894287109375
1769668317897913300,8.772913330078126,-0.293243408203125,0.685791015625,-0.6741180419921875
1769668317907901400,8.7829013671875,-0.2911834716796875,0.6854248046875,-0.6724853515625
1769668317917890600,8.792890625,-0.2885894775390625,0.6846466064453125,-0.6715545654296875
1769668317927879700,8.802879638671875,-0.28802490234375,0.68475341796875,-0.671112060546875
1769668317937868500,8.81286865234375,-0.2900390625,0.686248779296875,-0.6708526611328125
1769668317947856400,8.8228564453125,-0.29046630859375,0.6868133544921875,-0.668975830078125
1769668317957845500,8.832845458984375,-0.288970947265625,0.68768310546875,-0.668426513671875
1769668317967834400,8.84283447265625,-0.2883453369140625,0.6878509521484375,-0.6683502197265625
1769668317977823500,8.852823486328125,-0.2891082763671875,0.6877288818359375,-0.66717529296875
1769668317987812600,8.8628125,-0.288970947265625,0.6868438720703125,-0.6658782958984375
1769668317997801500,8.872801513671876,-0.2876129150390625,0.687835693359375,-0.664764404296875
1769668318007789300,8.882789306640625,-0.2873687744140625,0.6870574951171875,-0.66680908203125
1769668318017778400,8.8927783203125,-0.285003662109375,0.6878509521484375,-0.669677734375
1769668318027767300,8.902767333984375,-0.2858123779296875,0.6882781982421875,-0.6698455810546875
1769668318037756400,8.91275634765625,-0.28436279296875,0.6873321533203125,-0.6696929931640625
1769668318047745500,8.92274560546875,-0.2852630615234375,0.6854705810546875,-0.669158935546875
1769668318057733600,8.932733642578125,-0.2853240966796875,0.683013916015625,-0.6688232421875
1769668318067722500,8.942722412109376,-0.28643798828125,0.6841888427734375,-0.66900634765625
1769668318077711600,8.952711669921875,-0.2861328125,0.688751220703125,-0.6686553955078125
1769668318087700500,8.962700439453124,-0.288665771484375,0.689971923828125,-0.667999267578125
1769668318097689300,8.972689453125,-0.29052734375,0.691192626953125,-0.6681365966796875
1769668318107677400,8.982677490234375,-0.289276123046875,0.6912994384765625,-0.6671600341796875
1769668318117666600,8.99266650390625,-0.2898101806640625,0.6899566650390625,-0.6663818359375
1769668318127655400,9.002655517578125,-0.2888031005859375,0.6904296875,-0.6655426025390625
1769668318137644500,9.01264453125,-0.292449951171875,0.689849853515625,-0.665679931640625
1769668318147633700,9.022633544921876,-0.2911834716796875,0.6911163330078125,-0.668243408203125
1769668318157621500,9.03262158203125,-0.28759765625,0.6917724609375,-0.667938232421875
1769668318167610400,9.0426103515625,-0.286834716796875,0.6921539306640625,-0.6644439697265625
1769668318177599500,9.052599609375,-0.2867279052734375,0.689208984375,-0.66546630859375
1769668318187588400,9.06258837890625,-0.2888946533203125,0.685791015625,-0.6646270751953125
1769668318197576400,9.072576416015625,-0.2882080078125,0.682159423828125,-0.6636810302734375
1769668318207565600,9.082565673828125,-0.29132080078125,0.6803131103515625,-0.66375732421875
1769668318217554700,9.0925546875,-0.2940521240234375,0.681610107421875,-0.66680908203125
1769668318227543600,9.10254345703125,-0.29669189453125,0.68646240234375,-0.6704559326171875
1769668318237532400,9.112532470703124,-0.29901123046875,0.6884002685546875,-0.672088623046875
1769668318247521300,9.122521240234375,-0.2996673583984375,0.6907501220703125,-0.6741790771484375
1769668318257509400,9.13250927734375,-0.3020172119140625,0.69122314453125,-0.6733856201171875
1769668318267498500,9.14249853515625,-0.300506591796875,0.69122314453125,-0.6704559326171875
1769668318277487600,9.152487548828125,-0.2945098876953125,0.689849853515625,-0.668182373046875
1769668318287476500,9.1624765625,-0.2908782958984375,0.685577392578125,-0.6669464111328125
1769668318297465600,9.172465576171875,-0.28741455078125,0.6827239990234375,-0.6646881103515625
1769668318307453400,9.182453369140624,-0.2850189208984375,0.6808624267578125,-0.6629791259765625
1769668318317442300,9.1924423828125,-0.2890625,0.6832275390625,-0.663330078125
1769668318327431400,9.202431396484375,-0.2926788330078125,0.6865234375,-0.664520263671875
1769668318337420500,9.212420654296874,-0.2915802001953125,0.6891326904296875,-0.664703369140625
1769668318347409400,9.222409423828125,-0.2942962646484375,0.688873291015625,-0.6657257080078125
1769668318357397500,9.2323974609375,-0.296112060546875,0.6887664794921875,-0.66790771484375
1769668318367386600,9.24238671875,-0.2956695556640625,0.692138671875,-0.668487548828125
1769668318377375500,9.25237548828125,-0.296478271484375,0.6928863525390625,-0.6688232421875
1769668318387364400,9.2623642578125,-0.297882080078125,0.69464111328125,-0.6682281494140625
1769668318397353500,9.272353515625,-0.296173095703125,0.6949310302734375,-0.6672210693359375
1769668318407341600,9.282341552734374,-0.2943115234375,0.692291259765625,-0.6654205322265625
1769668318417330400,9.292330322265625,-0.2923736572265625,0.69171142578125,-0.6649627685546875
1769668318427319600,9.302319580078125,-0.2903289794921875,0.68951416015625,-0.6638641357421875
1769668318437308700,9.31230859375,-0.2928466796875,0.6866455078125,-0.660308837890625
1769668318447297500,9.322297607421875,-0.28717041015625,0.6777801513671875,-0.6655426025390625
1769668318457285400,9.332285400390624,-0.2855987548828125,0.6805877685546875,-0.6667633056640625
1769668318467274500,9.3422744140625,-0.2920379638671875,0.6912689208984375,-0.66448974609375
1769668318477263400,9.352263427734375,-0.297271728515625,0.697418212890625,-0.666168212890625
1769668318487252500,9.36225244140625,-0.289215087890625,0.693634033203125,-0.6683349609375
1769668318497241600,9.37224169921875,-0.2897186279296875,0.691925048828125,-0.6656646728515625
1769668318507229400,9.3822294921875,-0.2929534912109375,0.692657470703125,-0.6651153564453125
1769668318517218600,9.392218505859375,-0.315216064453125,0.6772613525390625,-0.6692657470703125
1769668318527207400,9.40220751953125,-0.3181304931640625,0.65960693359375,-0.6623992919921875
1769668318537196300,9.4121962890625,-0.2815093994140625,0.6575164794921875,-0.6563720703125
1769668318547185400,9.422185302734375,-0.25274658203125,0.6832122802734375,-0.6592559814453125
1769668318557173500,9.432173583984374,-0.27899169921875,0.7137603759765625,-0.6703948974609375
1769668318567162600,9.44216259765625,-0.314208984375,0.7195281982421875,-0.677886962890625
1769668318577151500,9.4521513671875,-0.3036041259765625,0.704345703125,-0.67303466796875
1769668318587140600,9.462140625,-0.293548583984375,0.685211181640625,-0.6712799072265625
1769668318597129500,9.47212939453125,-0.2976226806640625,0.6853179931640625,-0.6693572998046875
1769668318607117300,9.482117431640624,-0.302154541015625,0.6950836181640625,-0.6650848388671875
1769668318617106400,9.4921064453125,-0.3025054931640625,0.6983489990234375,-0.6605377197265625
1769668318627095600,9.502095458984375,-0.2956695556640625,0.6958160400390625,-0.65606689453125
1769668318637084400,9.51208447265625,-0.291748046875,0.6900177001953125,-0.6517791748046875
1769668318647073500,9.522073486328125,-0.2919921875,0.68621826171875,-0.6500701904296875
1769668318657061600,9.5320615234375,-0.2933807373046875,0.68975830078125,-0.6546478271484375
1769668318667050500,9.542050537109375,-0.29400634765625,0.69268798828125,-0.66021728515625
1769668318677039400,9.552039306640625,-0.294921875,0.6949462890625,-0.6640472412109375
1769668318687028500,9.562028564453126,-0.2955322265625,0.69488525390625,-0.6665191650390625
1769668318697017300,9.572017333984375,-0.295440673828125,0.69366455078125,-0.6671600341796875
1769668318707005400,9.58200537109375,-0.2960968017578125,0.6914215087890625,-0.6640472412109375
1769668318716994600,9.59199462890625,-0.2990875244140625,0.688751220703125,-0.6631927490234375
1769668318726983400,9.6019833984375,-0.3003692626953125,0.6889801025390625,-0.6624908447265625
1769668318736971300,9.61197119140625,-0.2996978759765625,0.6886138916015625,-0.662384033203125
1769668318746960400,9.62196044921875,-0.296478271484375,0.687591552734375,-0.6645965576171875
1769668318756948500,9.631948486328126,-0.293670654296875,0.68463134765625,-0.6646575927734375
1769668318766937600,9.6419375,-0.2948760986328125,0.6837158203125,-0.664306640625
1769668318776926500,9.651926513671874,-0.29547119140625,0.684844970703125,-0.6678619384765625
1769668318786915600,9.66191552734375,-0.29693603515625,0.6855621337890625,-0.6670989990234375
1769668318796904400,9.671904541015625,-0.2991485595703125,0.69061279296875,-0.6661376953125
1769668318806892300,9.681892333984376,-0.30023193359375,0.692596435546875,-0.6651763916015625
1769668318816881400,9.69188134765625,-0.298736572265625,0.6917724609375,-0.6641845703125
1769668318826870500,9.70187060546875,-0.297393798828125,0.6903228759765625,-0.663818359375
1769668318836859400,9.711859375,-0.2971649169921875,0.6870880126953125,-0.663055419921875
1769668318846848500,9.7218486328125,-0.2980499267578125,0.6878814697265625,-0.6609954833984375
1769668318856836600,9.731836669921876,-0.2990570068359375,0.688385009765625,-0.6604156494140625
1769668318866825200,9.7418251953125,-0.2976531982421875,0.69000244140625,-0.658905029296875
1769668318876814300,9.751814453125,-0.29693603515625,0.6898651123046875,-0.660369873046875
1769668318886803500,9.761803466796875,-0.295318603515625,0.6895294189453125,-0.6637115478515625
1769668318896792300,9.771792236328125,-0.296875,0.692138671875,-0.6650390625
1769668318906780400,9.781780517578126,-0.2991485595703125,0.6948394775390625,-0.6656494140625
1769668318916769500,9.79176953125,-0.29754638671875,0.6942901611328125,-0.6646881103515625
1769668318926758400,9.80175830078125,-0.2978057861328125,0.69287109375,-0.661376953125
1769668318936747500,9.81174755859375,-0.2945709228515625,0.6905670166015625,-0.6612548828125
1769668318946736400,9.821736328125,-0.2921905517578125,0.68798828125,-0.6601715087890625
1769668318956724500,9.831724365234376,-0.29132080078125,0.6872100830078125,-0.6598052978515625
1769668318966713300,9.84171337890625,-0.292633056640625,0.688568115234375,-0.6615753173828125
1769668318976702500,9.851702392578124,-0.29241943359375,0.6911163330078125,-0.663604736328125
1769668318986691600,9.861691650390625,-0.2951507568359375,0.69085693359375,-0.66265869140625
1769668318996680400,9.871680419921875,-0.2939453125,0.6909027099609375,-0.663360595703125
1769668319006668500,9.88166845703125,-0.293670654296875,0.690093994140625,-0.66259765625
1769668319016657400,9.891657470703125,-0.2938079833984375,0.68963623046875,-0.659881591796875
1769668319026646300,9.901646240234374,-0.2935791015625,0.6886138916015625,-0.660888671875
1769668319036635400,9.911635498046875,-0.2959747314453125,0.687469482421875,-0.6612091064453125
1769668319046624500,9.92162451171875,-0.2976837158203125,0.6903839111328125,-0.6622161865234375
1769668319056612600,9.931612548828125,-0.2969207763671875,0.6923828125,-0.6632843017578125
1769668319066601500,9.9416015625,-0.296234130859375,0.6918487548828125,-0.6654815673828125
1769668319076590600,9.951590576171874,-0.2943267822265625,0.6914215087890625,-0.66558837890625
1769668319086579500,9.961579345703125,-0.295562744140625,0.6914520263671875,-0.6665191650390625
1769668319096568300,9.971568359375,-0.296966552734375,0.6922760009765625,-0.666748046875
1769668319106556400,9.981556396484375,-0.2984161376953125,0.6918792724609375,-0.6667938232421875
1769668319116545500,9.991545654296875,-0.298126220703125,0.692138671875,-0.6646575927734375
1769668319126534400,10.001534423828126,-0.29754638671875,0.691131591796875,-0.6644134521484375
1769668319136523500,10.0115234375,-0.29742431640625,0.6897125244140625,-0.6636962890625
1769668319146512400,10.021512451171875,-0.294036865234375,0.68927001953125,-0.66387939453125
1769668319156500200,10.031500244140625,-0.2930908203125,0.6890411376953125,-0.6648101806640625
1769668319166489300,10.0414892578125,-0.2919158935546875,0.6904296875,-0.6645355224609375
1769668319176478500,10.051478515625,-0.291290283203125,0.689727783203125,-0.663665771484375
1769668319186467300,10.06146728515625,-0.29620361328125,0.689788818359375,-0.6661529541015625
1769668319196456400,10.07145654296875,-0.2966156005859375,0.688201904296875,-0.6648101806640625
1769668319206444500,10.081444580078125,-0.2952117919921875,0.6862335205078125,-0.6625518798828125
1769668319216433400,10.091433349609375,-0.29302978515625,0.6847991943359375,-0.6643829345703125
1769668319226422500,10.101422607421876,-0.2952423095703125,0.6877288818359375,-0.6676177978515625
1769668319236411400,10.111411376953125,-0.2969512939453125,0.69219970703125,-0.6667327880859375
1769668319246400300,10.121400146484374,-0.3001251220703125,0.6936187744140625,-0.6667022705078125
1769668319256388400,10.131388427734375,-0.3025054931640625,0.693634033203125,-0.6694793701171875
1769668319266377500,10.14137744140625,-0.300689697265625,0.695281982421875,-0.6675872802734375
1769668319276366600,10.15136669921875,-0.2968902587890625,0.694610595703125,-0.664642333984375
1769668319286355500,10.16135546875,-0.2891998291015625,0.6907196044921875,-0.6639404296875
1769668319296344600,10.171344482421874,-0.2877349853515625,0.68743896484375,-0.6624603271484375
1769668319306332400,10.18133251953125,-0.2882843017578125,0.6865692138671875,-0.663055419921875
1769668319316321300,10.1913212890625,-0.2893524169921875,0.6887054443359375,-0.6640625
1769668319326310400,10.201310302734376,-0.29583740234375,0.69281005859375,-0.6633453369140625
1769668319336299500,10.211299560546875,-0.29815673828125,0.6941986083984375,-0.6665802001953125
1769668319346288400,10.221288330078124,-0.29852294921875,0.6920623779296875,-0.66815185546875
1769668319356276500,10.2312763671875,-0.2969818115234375,0.6887054443359375,-0.6681060791015625
1769668319366265600,10.241265625,-0.29486083984375,0.68548583984375,-0.669036865234375
1769668319376254500,10.25125439453125,-0.2957305908203125,0.6860504150390625,-0.667572021484375
1769668319386243300,10.261243408203125,-0.2962493896484375,0.6875457763671875,-0.6665496826171875
1769668319396232400,10.271232421875,-0.296142578125,0.6888885498046875,-0.6656646728515625
1769668319406220500,10.281220458984375,-0.2953948974609375,0.6881561279296875,-0.66400146484375
1769668319416209400,10.29120947265625,-0.29791259765625,0.686920166015625,-0.66314697265625
1769668319426198500,10.301198486328126,-0.295318603515625,0.6877288818359375,-0.66265869140625
1769668319436187400,10.3111875,-0.2941741943359375,0.6901092529296875,-0.6633453369140625
1769668319446176500,10.321176513671874,-0.2930908203125,0.690826416015625,-0.6644744873046875
1769668319456164400,10.331164306640625,-0.296417236328125,0.69189453125,-0.6630706787109375
1769668319466153500,10.341153564453125,-0.29937744140625,0.69305419921875,-0.6632232666015625
1769668319476142300,10.351142333984376,-0.29937744140625,0.69219970703125,-0.660980224609375
1769668319486131500,10.36113134765625,-0.2953643798828125,0.6899261474609375,-0.6601104736328125
1769668319496120600,10.37112060546875,-0.291595458984375,0.6887359619140625,-0.66058349609375
1769668319506108400,10.3811083984375,-0.2903289794921875,0.688446044921875,-0.6605072021484375
1769668319516097500,10.39109765625,-0.291748046875,0.6900482177734375,-0.6627197265625
1769668319526086400,10.40108642578125,-0.2952117919921875,0.69219970703125,-0.6641693115234375
1769668319536075300,10.4110751953125,-0.2956085205078125,0.6946258544921875,-0.6655731201171875
1769668319546064400,10.421064453125,-0.2959136962890625,0.6957855224609375,-0.6661529541015625
1769668319556052500,10.431052490234375,-0.295318603515625,0.6930694580078125,-0.6623077392578125
1769668319566041300,10.441041259765624,-0.2926788330078125,0.69110107421875,-0.6608123779296875
1769668319576030500,10.451030517578126,-0.293853759765625,0.6887054443359375,-0.6593017578125
1769668319586019600,10.46101953125,-0.29388427734375,0.688629150390625,-0.66058349609375
1769668319596008400,10.471008544921874,-0.2922515869140625,0.6910858154296875,-0.6629638671875
1769668319605996300,10.480996337890625,-0.2942962646484375,0.6919097900390625,-0.6625823974609375
1769668319615985400,10.4909853515625,-0.2954254150390625,0.6910400390625,-0.6643829345703125
1769668319625974500,10.500974609375,-0.2930145263671875,0.692047119140625,-0.6663818359375
1769668319635963400,10.51096337890625,-0.293701171875,0.691558837890625,-0.6657562255859375
1769668319645952500,10.520952392578126,-0.2946624755859375,0.69024658203125,-0.6667327880859375
1769668319655940600,10.530940673828125,-0.29510498046875,0.6880645751953125,-0.6654205322265625
1769668319665929500,10.540929443359374,-0.2931976318359375,0.688140869140625,-0.6639556884765625
1769668319675918300,10.55091845703125,-0.2935028076171875,0.6876220703125,-0.6649169921875
1769668319685907500,10.560907470703125,-0.2917327880859375,0.6893463134765625,-0.6658935546875
1769668319695896300,10.570896240234376,-0.292236328125,0.688812255859375,-0.668121337890625
1769668319705884400,10.580884521484375,-0.294464111328125,0.692047119140625,-0.669464111328125
1769668319715873500,10.59087353515625,-0.292938232421875,0.69189453125,-0.668121337890625
1769668319725862400,10.6008623046875,-0.2893524169921875,0.688751220703125,-0.667633056640625
1769668319735851800,10.610851806640625,-0.286895751953125,0.6865234375,-0.666259765625
1769668319745841000,10.6208408203125,-0.2849273681640625,0.6868438720703125,-0.665496826171875
1769668319755828700,10.630828857421875,-0.2860565185546875,0.6874847412109375,-0.663726806640625
1769668319765817900,10.64081787109375,-0.2872161865234375,0.686676025390625,-0.6630401611328125
1769668319775807000,10.650806884765625,-0.286895751953125,0.690032958984375,-0.6623992919921875
1769668319785795800,10.6607958984375,-0.285614013671875,0.6922454833984375,-0.66424560546875
1769668319795785000,10.670784912109376,-0.2849578857421875,0.6901702880859375,-0.66632080078125
1769668319805772800,10.680772705078125,-0.2855224609375,0.6909942626953125,-0.6670074462890625
1769668319815762000,10.690761962890624,-0.2861480712890625,0.69140625,-0.666351318359375
1769668319825750800,10.700750732421875,-0.28704833984375,0.6892547607421875,-0.667633056640625
1769668319835740000,10.710739990234375,-0.2864532470703125,0.68963623046875,-0.66766357421875
1769668319845728800,10.720728759765626,-0.286529541015625,0.689453125,-0.667572021484375
1769668319855716900,10.730716796875,-0.286712646484375,0.6901397705078125,-0.667999267578125
1769668319865706000,10.7407060546875,-0.2862548828125,0.6876678466796875,-0.6672821044921875
1769668319875694800,10.75069482421875,-0.2847747802734375,0.68658447265625,-0.668212890625
1769668319885683700,10.76068359375,-0.2823944091796875,0.6875762939453125,-0.6682891845703125
1769668319895672800,10.7706728515625,-0.2831573486328125,0.68743896484375,-0.6683807373046875
1769668319905661000,10.780660888671875,-0.2848968505859375,0.691802978515625,-0.6685028076171875
1769668319915649800,10.79064990234375,-0.2844085693359375,0.6922149658203125,-0.6689910888671875
1769668319925639000,10.800638916015625,-0.2840576171875,0.6903533935546875,-0.6689300537109375
1769668319935628000,10.8106279296875,-0.285400390625,0.688751220703125,-0.6675262451171875
1769668319945617000,10.820616943359376,-0.28448486328125,0.689056396484375,-0.6674346923828125
1769668319955604700,10.830604736328125,-0.2847900390625,0.685943603515625,-0.6686553955078125
1769668319965593900,10.84059375,-0.2849884033203125,0.686676025390625,-0.66937255859375
1769668319975582700,10.850582763671875,-0.286834716796875,0.6867523193359375,-0.6689605712890625
1769668319985571800,10.86057177734375,-0.2858428955078125,0.687255859375,-0.6699676513671875
1769668319995561000,10.87056103515625,-0.2845458984375,0.6852569580078125,-0.6685638427734375
1769668320005549000,10.880549072265625,-0.284393310546875,0.6851348876953125,-0.66876220703125
1769668320015538000,10.890537841796874,-0.2855682373046875,0.68548583984375,-0.669342041015625
1769668320025526800,10.90052685546875,-0.285858154296875,0.68707275390625,-0.6686553955078125
1769668320035516000,10.910515869140625,-0.2816619873046875,0.688690185546875,-0.66973876953125
1769668320045504800,10.9205048828125,-0.2808074951171875,0.69097900390625,-0.6703033447265625
1769668320055492900,10.930492919921875,-0.2816162109375,0.6899566650390625,-0.6698150634765625
1769668320065482000,10.94048193359375,-0.2814178466796875,0.6865081787109375,-0.6685638427734375
1769668320075470800,10.950470947265625,-0.27752685546875,0.6816864013671875,-0.6670379638671875
1769668320085460000,10.9604599609375,-0.27435302734375,0.67913818359375,-0.667694091796875
1769668320095449000,10.970448974609376,-0.2767181396484375,0.679168701171875,-0.66656494140625
1769668320105437700,10.980437744140625,-0.2821502685546875,0.6816253662109375,-0.66644287109375
1769668320115425800,10.99042578125,-0.2850799560546875,0.686126708984375,-0.66876220703125
1769668320125415000,11.000414794921875,-0.2840423583984375,0.689697265625,-0.6705780029296875
1769668320135403800,11.01040380859375,-0.2855682373046875,0.692535400390625,-0.6705322265625
1769668320145393000,11.020392822265626,-0.285125732421875,0.69671630859375,-0.6687774658203125
1769668320155382000,11.030382080078125,-0.283355712890625,0.6937103271484375,-0.6643524169921875
1769668320165369900,11.040369873046876,-0.27886962890625,0.6898345947265625,-0.66265869140625
1769668320175358700,11.050358642578125,-0.2778472900390625,0.6865692138671875,-0.6616668701171875
1769668320185347800,11.060347900390624,-0.27593994140625,0.687225341796875,-0.6634521484375
1769668320195336700,11.070336669921875,-0.274658203125,0.6880950927734375,-0.6671905517578125
1769668320205325800,11.080325927734375,-0.2787322998046875,0.6878662109375,-0.67156982421875
1769668320215314000,11.09031396484375,-0.2856292724609375,0.6856689453125,-0.6731719970703125
1769668320225303000,11.100302978515625,-0.287506103515625,0.6872406005859375,-0.674285888671875
1769668320235292000,11.1102919921875,-0.2875823974609375,0.6875762939453125,-0.674346923828125
1769668320245281000,11.120281005859376,-0.2874603271484375,0.6875152587890625,-0.6730499267578125
1769668320255270000,11.130269775390625,-0.2869415283203125,0.688934326171875,-0.670806884765625
1769668320265257700,11.1402578125,-0.285369873046875,0.6891021728515625,-0.6693115234375
1769668320275246800,11.150246826171875,-0.2837677001953125,0.688323974609375,-0.6678924560546875
1769668320285236000,11.160236083984374,-0.2832794189453125,0.6883544921875,-0.66693115234375
1769668320295224800,11.170224853515625,-0.28326416015625,0.6884765625,-0.6671600341796875
1769668320305214000,11.1802138671875,-0.281951904296875,0.691314697265625,-0.6651153564453125
1769668320315201800,11.190201904296876,-0.2834014892578125,0.6913299560546875,-0.6663818359375
1769668320325190700,11.200190673828125,-0.2840728759765625,0.6902008056640625,-0.6665496826171875
1769668320335179800,11.2101796875,-0.2842254638671875,0.6898345947265625,-0.665740966796875
1769668320345169000,11.2201689453125,-0.2856597900390625,0.6890716552734375,-0.66595458984375
1769668320355157800,11.23015771484375,-0.2838287353515625,0.6876983642578125,-0.664215087890625
1769668320365145900,11.240145751953126,-0.282684326171875,0.6873016357421875,-0.6652984619140625
1769668320375135000,11.250135009765625,-0.2813568115234375,0.690765380859375,-0.6676025390625
1769668320385124000,11.2601240234375,-0.281524658203125,0.6915435791015625,-0.66729736328125
1769668320395112700,11.27011279296875,-0.28387451171875,0.6923370361328125,-0.6692047119140625
1769668320405101800,11.280101806640625,-0.28778076171875,0.69500732421875,-0.66827392578125
1769668320415090000,11.29008984375,-0.2886962890625,0.6944427490234375,-0.6688232421875
1769668320425078800,11.300078857421875,-0.2885894775390625,0.6922454833984375,-0.667999267578125
1769668320435068000,11.31006787109375,-0.2857513427734375,0.6891937255859375,-0.6677093505859375
1769668320445057000,11.32005712890625,-0.2848052978515625,0.6885986328125,-0.665863037109375
1769668320455046000,11.3300458984375,-0.284698486328125,0.690155029296875,-0.6670379638671875
1769668320465033700,11.34003369140625,-0.2840423583984375,0.690948486328125,-0.6671905517578125
1769668320475022800,11.35002294921875,-0.2848358154296875,0.692169189453125,-0.6684417724609375
1769668320485011700,11.36001171875,-0.287017822265625,0.69219970703125,-0.6703338623046875
1769668320495000800,11.370000732421875,-0.2852630615234375,0.6898345947265625,-0.6691741943359375
1769668320504990000,11.379989990234375,-0.2844085693359375,0.6886749267578125,-0.6663665771484375
1769668320514978000,11.38997802734375,-0.2849884033203125,0.6907196044921875,-0.667327880859375
1769668320524967000,11.399966796875,-0.2858428955078125,0.6913299560546875,-0.6683502197265625
1769668320534956000,11.4099560546875,-0.2858734130859375,0.692230224609375,-0.6688079833984375
1769668320544944600,11.419944580078125,-0.283294677734375,0.692138671875,-0.66876220703125
1769668320554933800,11.429933837890625,-0.281402587890625,0.6905975341796875,-0.6680908203125
1769668320564921900,11.439921875,-0.28265380859375,0.6902923583984375,-0.6670074462890625
1769668320574911000,11.449910888671875,-0.2838287353515625,0.692230224609375,-0.664154052734375
1769668320584899800,11.45989990234375,-0.2863616943359375,0.6920318603515625,-0.6616058349609375
1769668320594889000,11.469888916015625,-0.28729248046875,0.6930389404296875,-0.659423828125
1769668320604877800,11.4798779296875,-0.2883453369140625,0.6933441162109375,-0.6619873046875
1769668320614865700,11.48986572265625,-0.2891387939453125,0.6929168701171875,-0.6641998291015625
1769668320624854800,11.499854736328125,-0.2894134521484375,0.6930389404296875,-0.665985107421875
1769668320634844000,11.509843994140626,-0.290863037109375,0.6949310302734375,-0.667266845703125
1769668320644832800,11.519832763671875,-0.2910919189453125,0.694549560546875,-0.665496826171875
1769668320654822000,11.52982177734375,-0.2876129150390625,0.6932525634765625,-0.663482666015625
1769668320664810000,11.53981005859375,-0.2886962890625,0.69244384765625,-0.6640167236328125
1769668320674798800,11.549798828125,-0.28765869140625,0.6922149658203125,-0.6623992919921875
1769668320684787700,11.55978759765625,-0.288543701171875,0.6916656494140625,-0.6614990234375
1769668320694776800,11.56977685546875,-0.2901611328125,0.6921539306640625,-0.6621246337890625
1769668320704765700,11.579765625,-0.289276123046875,0.690826416015625,-0.6624908447265625
1769668320714753800,11.58975390625,-0.2885894775390625,0.689178466796875,-0.665557861328125
1769668320724743000,11.599742919921875,-0.285003662109375,0.689056396484375,-0.6646270751953125
1769668320734732300,11.609732177734376,-0.2845458984375,0.6900482177734375,-0.6641693115234375
1769668320744721400,11.619721435546875,-0.286865234375,0.689727783203125,-0.6649322509765625
1769668320754710500,11.62971044921875,-0.2864532470703125,0.6900634765625,-0.66510009765625
1769668320764698400,11.639698486328125,-0.286712646484375,0.6923065185546875,-0.6667327880859375
1769668320774687200,11.649687255859375,-0.28753662109375,0.691650390625,-0.6676025390625
1769668320784676400,11.65967626953125,-0.2872161865234375,0.6912994384765625,-0.6686248779296875
1769668320794665200,11.669665283203125,-0.28533935546875,0.6906890869140625,-0.6689300537109375
1769668320804654300,11.679654296875,-0.2841949462890625,0.690460205078125,-0.666839599609375
1769668320814642400,11.689642333984375,-0.2811737060546875,0.6915740966796875,-0.6660614013671875
1769668320824631300,11.69963134765625,-0.2845611572265625,0.69219970703125,-0.664276123046875
1769668320834620200,11.7096201171875,-0.288330078125,0.6926116943359375,-0.6639862060546875
1769668320844609300,11.719609375,-0.2873687744140625,0.694305419921875,-0.66241455078125
1769668320854598400,11.729598388671874,-0.28790283203125,0.6927642822265625,-0.6615447998046875
1769668320864586200,11.739586181640625,-0.290191650390625,0.69488525390625,-0.66473388671875
1769668320874575400,11.749575439453125,-0.2915802001953125,0.6957244873046875,-0.6668243408203125
1769668320884564500,11.759564453125,-0.292449951171875,0.695709228515625,-0.66766357421875
1769668320894553300,11.76955322265625,-0.2887115478515625,0.6953277587890625,-0.6668548583984375
1769668320904542200,11.779542236328124,-0.28594970703125,0.6920013427734375,-0.664276123046875
1769668320914530300,11.7895302734375,-0.284515380859375,0.6881256103515625,-0.662994384765625
1769668320924519400,11.79951953125,-0.2845611572265625,0.6864471435546875,-0.663299560546875
1769668320934508300,11.80950830078125,-0.2852630615234375,0.6870269775390625,-0.6624755859375
1769668320944497400,11.819497314453125,-0.2873992919921875,0.6873931884765625,-0.6628265380859375
1769668320954486300,11.829486328125,-0.288543701171875,0.68780517578125,-0.6639556884765625
1769668320964475400,11.839475341796875,-0.291473388671875,0.69012451171875,-0.665252685546875
1769668320974463200,11.849463134765625,-0.29046630859375,0.6925201416015625,-0.666046142578125
1769668320984452400,11.859452392578126,-0.29058837890625,0.691864013671875,-0.6672515869140625
1769668320994441200,11.869441162109375,-0.2936859130859375,0.691802978515625,-0.666961669921875
1769668321004430300,11.879430419921874,-0.29461669921875,0.6933441162109375,-0.6665191650390625
1769668321014419200,11.889419189453125,-0.290740966796875,0.693115234375,-0.6664276123046875
1769668321024407300,11.8994072265625,-0.2910308837890625,0.6907196044921875,-0.6676025390625
1769668321034396400,11.909396484375,-0.289764404296875,0.6895751953125,-0.666351318359375
1769668321044385500,11.919385498046875,-0.2891693115234375,0.68731689453125,-0.6641998291015625
1769668321054374100,11.9293740234375,-0.288543701171875,0.687713623046875,-0.6635894775390625
1769668321064363300,11.93936328125,-0.287200927734375,0.68853759765625,-0.6647796630859375
1769668321074351400,11.949351318359374,-0.2888031005859375,0.690826416015625,-0.6645050048828125
1769668321084340200,11.95934033203125,-0.288726806640625,0.6919403076171875,-0.66644287109375
1769668321094329300,11.969329345703125,-0.289642333984375,0.69110107421875,-0.665557861328125
1769668321104318500,11.979318359375,-0.2873077392578125,0.6916961669921875,-0.66534423828125
1769668321114307300,11.989307373046875,-0.2909088134765625,0.692413330078125,-0.6659698486328125
1769668321124295200,11.999295166015624,-0.291259765625,0.693939208984375,-0.6646575927734375
1769668321134284300,12.0092841796875,-0.29083251953125,0.6941375732421875,-0.66455078125
1769668321144273400,12.0192734375,-0.2919464111328125,0.69586181640625,-0.6650390625
1769668321154262300,12.02926220703125,-0.2913665771484375,0.6965789794921875,-0.666015625
1769668321164251400,12.03925146484375,-0.29144287109375,0.6961669921875,-0.66571044921875
1769668321174239500,12.049239501953124,-0.2913055419921875,0.6939849853515625,-0.663818359375
1769668321184228400,12.059228271484375,-0.2891387939453125,0.6923980712890625,-0.6637115478515625
1769668321194217200,12.06921728515625,-0.2903900146484375,0.6909332275390625,-0.66265869140625
1769668321204206300,12.079206298828124,-0.2918548583984375,0.6917877197265625,-0.660797119140625
1769668321214195200,12.0891953125,-0.291717529296875,0.6910400390625,-0.660186767578125
1769668321224183300,12.099183349609374,-0.29168701171875,0.69097900390625,-0.6618804931640625
1769668321234172400,12.10917236328125,-0.292572021484375,0.691070556640625,-0.6620025634765625
1769668321244161300,12.119161376953125,-0.2896270751953125,0.68951416015625,-0.6626434326171875
1769668321254150400,12.129150390625,-0.2898712158203125,0.6907196044921875,-0.66436767578125
1769668321264139500,12.139139404296875,-0.290802001953125,0.6921844482421875,-0.663177490234375
1769668321274127400,12.14912744140625,-0.2923736572265625,0.6922760009765625,-0.6629180908203125
1769668321284116200,12.1591162109375,-0.294097900390625,0.6919403076171875,-0.66204833984375
1769668321294105300,12.169105224609375,-0.2949676513671875,0.692413330078125,-0.65985107421875
1769668321304094200,12.17909423828125,-0.293182373046875,0.6941375732421875,-0.6621551513671875
1769668321314083300,12.189083251953125,-0.2899627685546875,0.693206787109375,-0.66265869140625
1769668321324071400,12.199071533203124,-0.291351318359375,0.6945953369140625,-0.6626434326171875
1769668321334060500,12.209060546875,-0.2933807373046875,0.6946868896484375,-0.6629486083984375
1769668321344049200,12.219049072265625,-0.2943878173828125,0.69342041015625,-0.6626739501953125
1769668321354038300,12.229038330078126,-0.2965240478515625,0.6915130615234375,-0.661346435546875
1769668321364027100,12.239027099609375,-0.294830322265625,0.688079833984375,-0.6609039306640625
1769668321374015200,12.24901513671875,-0.2913055419921875,0.688720703125,-0.66326904296875
1769668321384004400,12.25900439453125,-0.2917327880859375,0.6889190673828125,-0.662261962890625
1769668321393993500,12.268993408203125,-0.2936859130859375,0.6909942626953125,-0.661346435546875
1769668321403982300,12.278982421875,-0.2961883544921875,0.6920013427734375,-0.6605987548828125
1769668321413971500,12.288971435546875,-0.2962188720703125,0.6939697265625,-0.6624603271484375
1769668321423959300,12.298959228515624,-0.296234130859375,0.693389892578125,-0.6643524169921875
1769668321433948200,12.3089482421875,-0.2930908203125,0.692962646484375,-0.662689208984375
1769668321443937300,12.318937255859375,-0.29168701171875,0.6905364990234375,-0.6617279052734375
1769668321453926400,12.328926513671876,-0.291229248046875,0.6880950927734375,-0.6605987548828125
1769668321463915300,12.338915283203125,-0.2925567626953125,0.6888427734375,-0.662261962890625
1769668321473903400,12.3489033203125,-0.295135498046875,0.691802978515625,-0.662933349609375
1769668321483892500,12.358892578125,-0.2960662841796875,0.69512939453125,-0.6630401611328125
1769668321493881300,12.36888134765625,-0.29425048828125,0.69580078125,-0.663543701171875
1769668321503870200,12.3788701171875,-0.293182373046875,0.694976806640625,-0.66339111328125
1769668321513859300,12.388859375,-0.291259765625,0.69183349609375,-0.66058349609375
1769668321523848200,12.39884814453125,-0.293243408203125,0.68927001953125,-0.6591339111328125
1769668321533836300,12.408836181640625,-0.2927093505859375,0.6903228759765625,-0.659942626953125
1769668321543825400,12.418825439453125,-0.293975830078125,0.692962646484375,-0.662200927734375
1769668321553814500,12.428814453125,-0.294921875,0.695068359375,-0.6631927490234375
1769668321563803400,12.438803466796875,-0.292572021484375,0.695648193359375,-0.6642303466796875
1769668321573792300,12.448792236328124,-0.290069580078125,0.693695068359375,-0.664093017578125
1769668321583780400,12.4587802734375,-0.291229248046875,0.6916046142578125,-0.66375732421875
1769668321593769200,12.468769287109374,-0.2906951904296875,0.6916046142578125,-0.6618804931640625
1769668321603758300,12.47875830078125,-0.291168212890625,0.68798828125,-0.6613311767578125
1769668321613747500,12.48874755859375,-0.2907257080078125,0.6867828369140625,-0.6627655029296875
1769668321623736300,12.498736328125,-0.291778564453125,0.6899566650390625,-0.66302490234375
1769668321633724200,12.50872412109375,-0.2946929931640625,0.6919708251953125,-0.66217041015625
1769668321643713300,12.51871337890625,-0.29486083984375,0.694488525390625,-0.6645050048828125
1769668321653702100,12.5287021484375,-0.2923431396484375,0.693084716796875,-0.6614837646484375
1769668321663691300,12.538691162109375,-0.292938232421875,0.69244384765625,-0.662811279296875
1769668321673680400,12.548680419921874,-0.290985107421875,0.691131591796875,-0.6639404296875
1769668321683668500,12.55866845703125,-0.2923126220703125,0.6908721923828125,-0.6636199951171875
1769668321693657300,12.5686572265625,-0.295562744140625,0.692779541015625,-0.6666717529296875
1769668321703646500,12.578646484375,-0.29522705078125,0.694915771484375,-0.6668701171875
1769668321713635300,12.58863525390625,-0.295166015625,0.693634033203125,-0.6655120849609375
1769668321723624200,12.598624267578124,-0.296051025390625,0.6923370361328125,-0.6632537841796875
1769668321733611800,12.60861181640625,-0.2950286865234375,0.68939208984375,-0.6616973876953125
1769668321743601000,12.618600830078124,-0.2936553955078125,0.6873931884765625,-0.65985107421875
1769668321753589800,12.62858984375,-0.2911376953125,0.688507080078125,-0.6616668701171875
1769668321763579000,12.638578857421875,-0.2923126220703125,0.688446044921875,-0.6620635986328125
1769668321773568000,12.648568115234376,-0.29522705078125,0.6928558349609375,-0.6606292724609375
1769668321783555800,12.658555908203125,-0.2936553955078125,0.6953887939453125,-0.6625213623046875
1769668321793544700,12.668544677734374,-0.290008544921875,0.6957550048828125,-0.661102294921875
1769668321803533800,12.678533935546875,-0.288543701171875,0.6931610107421875,-0.659820556640625
1769668321813522700,12.688522705078125,-0.2921905517578125,0.689208984375,-0.6623992919921875
1769668321823511800,12.69851171875,-0.2962799072265625,0.69049072265625,-0.6616668701171875
1769668321833500000,12.7085,-0.2942962646484375,0.6907806396484375,-0.6606292724609375
1769668321843489000,12.718489013671874,-0.29388427734375,0.69000244140625,-0.6633148193359375
1769668321853478000,12.728477783203125,-0.29345703125,0.69171142578125,-0.66302490234375
1769668321863467000,12.738467041015625,-0.2959747314453125,0.6940460205078125,-0.662933349609375
1769668321873455900,12.748455810546876,-0.2991790771484375,0.6963958740234375,-0.665557861328125
1769668321883443700,12.758443603515625,-0.3012542724609375,0.6973114013671875,-0.666412353515625
1769668321893432800,12.768432861328124,-0.3017730712890625,0.6972198486328125,-0.6668853759765625
1769668321903422000,12.778421875,-0.2956085205078125,0.6975860595703125,-0.6623077392578125
1769668321913410800,12.788410888671875,-0.291259765625,0.69366455078125,-0.660430908203125
1769668321923400000,12.79839990234375,-0.287811279296875,0.6896820068359375,-0.659454345703125
1769668321933387800,12.8083876953125,-0.2868804931640625,0.6874847412109375,-0.6593170166015625
1769668321943377000,12.818376953125,-0.29217529296875,0.68914794921875,-0.6591339111328125
1769668321953365800,12.82836572265625,-0.2968902587890625,0.6909027099609375,-0.660614013671875
1769668321963355000,12.83835498046875,-0.29876708984375,0.6916656494140625,-0.6605987548828125
1769668321973343700,12.84834375,-0.2989501953125,0.6902618408203125,-0.6623382568359375
1769668321983332900,12.858332763671875,-0.2974090576171875,0.69195556640625,-0.66473388671875
1769668321993321000,12.868321044921874,-0.2965240478515625,0.691253662109375,-0.6652984619140625
1769668322003310000,12.87831005859375,-0.2955780029296875,0.69287109375,-0.6661529541015625
1769668322013298700,12.888298583984374,-0.2938079833984375,0.6937255859375,-0.66778564453125
1769668322023287800,12.898287841796876,-0.2925262451171875,0.6934814453125,-0.6653900146484375
1769668322033276700,12.908276611328125,-0.291290283203125,0.6944122314453125,-0.6624298095703125
1769668322043264800,12.9182646484375,-0.293212890625,0.692047119140625,-0.659454345703125
