time,seconds_elapsed,z,y,x
1769668309197674800,0.0726748046875,0.09110241268277168,-0.06835515882372856,0.008576105165481566
1769668309207663900,0.082663818359375,0.01087912141084671,-0.05759060370326042,-0.012149871999025345
1769668309217652700,0.09265283203125,-0.08322305760979652,0.012589432460069655,-0.05761807623207569
1769668309227641900,0.102641845703125,-0.1199713642925024,0.07492576938569545,-0.08628595231175422
1769668309237630700,0.112630615234375,-0.08769172745645046,0.10955518421828746,-0.08657295255959034
1769668309247618600,0.12261865234375,0.009708616326749324,0.09891630130410194,-0.060848144194483755
1769668309257607700,0.132607666015625,0.06927928793132304,0.08501169459223747,-0.008529927936196327
1769668309267596800,0.1425966796875,0.056256724750995635,0.01954348938167095,0.022643208962678907
1769668309277585700,0.152585693359375,0.07922083623111248,-0.04431085089147091,0.027604630762338638
1769668309287573800,0.16257373046875,0.020081541781127452,-0.022895722419023514,0.028895255094766616
1769668309297563000,0.17256298828125,-0.03194938196837902,-0.046328620454669,-0.03353285176753998
1769668309307551700,0.1825517578125,-0.015010229866206645,-0.06097264735698699,-0.06635200230777263
1769668309317540600,0.19254052734375,0.028011165736615655,-0.05812602575421333,-0.04385433929562568
1769668309327529700,0.20252978515625,-0.016681962470710278,0.002152209597826004,-0.04948503865897655
1769668309337517800,0.212517822265625,-0.07988923701196908,0.012769465202093124,-0.07008066744208336
1769668309347506700,0.222506591796875,-0.10846212828457355,0.0013578443497419357,-0.08135492565035819
1769668309357495800,0.232495849609375,-0.062462885914742944,0.01343932728767395,-0.08271686165332794
1769668309367485000,0.24248486328125,-0.057448272623121736,0.04250760086178779,-0.05110299524962902
1769668309377473800,0.252473876953125,-0.08255144195854663,0.06323240898251534,-0.039057168146967886
1769668309387461600,0.262461669921875,-0.05036211375445127,0.05616320124864578,0.015798457634449006
1769668309397450800,0.27245068359375,0.01945464205443859,0.019696634116768835,0.09931669879853725
1769668309407439600,0.282439697265625,-0.03271832051426172,-0.05099544322192669,0.15513152500092983
1769668309417428700,0.2924287109375,-0.06281447583138942,-0.017138766327500343,0.13332768947184084
1769668309427417900,0.30241796875,-0.11277326948195696,0.025928221982717513,0.04239887979030609
1769668309437406000,0.312406005859375,-0.1708399662643671,0.0022018939584493636,-0.0419844537705183
1769668309447394800,0.322394775390625,-0.18257336641699073,-0.014042553877830504,-0.13021335684359073
1769668309457383700,0.3323837890625,-0.12029694298505782,-0.06406009197831153,-0.11013970610797405
1769668309467372500,0.34237255859375,-0.24845482860356569,0.06350596522688866,-0.09008885172605514
1769668309477361700,0.352361572265625,-0.1630333841666579,0.03224339647889137,0.03669043901562691
1769668309487349800,0.362349853515625,-0.20171265891194343,-0.006021744507551193,0.008116086438298226
1769668309497339000,0.3723388671875,-0.13027239355444908,-0.033607086047530176,-0.0070101710230112075
1769668309507327700,0.38232763671875,-0.21917583488821982,0.22426292889416216,-0.004196282646059989
1769668309517316900,0.39231689453125,-0.09837094238102435,0.13513912280797957,0.02147416518330574
1769668309527304700,0.4023046875,0.18612492141872644,-0.16215923168063162,0.059408466780185694
1769668309537293600,0.41229345703125,-0.01817979981303215,-0.18126900582015512,0.04077157084941864
1769668309547282700,0.42228271484375,-0.19520751480162143,0.02873860322833061,0.03425824343264103
1769668309557271800,0.432271728515625,-0.2910153286963701,0.16430968771278856,0.014821137034893034
1769668309567260700,0.4422607421875,-0.11192542048096656,0.11500468179583549,-0.021041618984937668
1769668309577248800,0.452248779296875,0.011511574095487594,0.10726093580126762,0.011770517292618752
1769668309587238000,0.46223779296875,0.1200233867406845,0.025710779839754103,-0.04237257630527019
1769668309597226800,0.472226806640625,0.17969225802272557,-0.23685177683234213,-0.0874327842593193
1769668309607215600,0.482215576171875,0.16995792273283003,-0.3613818273425102,-0.0024181670576334
1769668309617204700,0.492204833984375,0.005040332254767418,-0.3519757010936737,-0.007714519900083541
1769668309627192800,0.50219287109375,-0.09688128834515809,-0.47312136986255643,0.07807984950244426
1769668309637181700,0.512181640625,-0.1947024878889322,-0.27764497499167917,0.16851181557774542
1769668309647170800,0.5221708984375,-0.16702625319510697,0.0023421792119741438,0.38921208355426784
1769668309657159700,0.53215966796875,0.08374328209161758,-0.20465689567029474,0.3291390153855085
1769668309667148800,0.542148681640625,0.190167182546854,-0.3782219029843807,0.21015900021791456
1769668309677136600,0.55213671875,0.3286021320298314,-0.6453530827462672,0.10148293692171573
1769668309687125800,0.562125732421875,-0.15625526833385228,-0.6157061325013637,-0.20802549532055853
1769668309697114600,0.572114501953125,-0.549626517394185,-0.5245277319729328,-0.3053472209095955
1769668309707103700,0.582103759765625,-0.2543283968120813,-0.18170564367175102,-0.422584191802144
1769668309717091800,0.592091796875,-0.4978156661361456,0.06061024378538132,-0.5590571935623884
1769668309727081200,0.602081298828125,-0.7989017224699259,0.4395242206871509,-0.3541062833815813
1769668309737070300,0.6120703125,-0.46238691761940715,0.3886170402705669,-0.2661620424687862
1769668309747059500,0.6220595703125,-0.013152034778892993,0.30494214724004265,-0.10570844566226005
1769668309757048300,0.63204833984375,0.13346680568158625,0.0502718051224947,0.07235445759296417
1769668309767036400,0.642036376953125,0.21740721778050065,-0.09467910212576389,0.0559358222335577
1769668309777025300,0.652025390625,0.3135259973205626,-0.23964403789937494,0.07643149777352809
1769668309787014100,0.66201416015625,0.292925253970921,-0.1514811857998371,0.12921207084655761
1769668309797003300,0.672003173828125,0.22642229888513682,0.2973690816372633,0.1390203481554985
1769668309806992400,0.681992431640625,0.10522869932129979,0.5522422528505325,0.008072247296571732
1769668309816980500,0.69198046875,0.03852481483593583,0.5447480977028608,-0.024507833790779112
1769668309826969300,0.70196923828125,0.039524931789189574,0.37584523698091504,-0.042973464807868005
1769668309836958500,0.71195849609375,0.13697101441025733,0.19888123487830162,0.05987666881382465
1769668309846947300,0.721947265625,0.2905373359210789,0.08502923024892807,0.14821838461160658
1769668309856935200,0.73193505859375,0.3787795368671417,0.011362521013617516,0.21743103704750535
1769668309866924300,0.74192431640625,0.3628057226657867,-0.02348141335248947,0.15587094519138336
1769668309876913400,0.751913330078125,0.2427943186238408,0.011475918260216713,-0.017938976794481275
1769668309886902300,0.76190234375,0.1432154617577791,0.10081249031424522,-0.06367021587789058
1769668309896891400,0.771891357421875,0.10586641270294785,0.0820955148845911,-0.13569383408129215
1769668309906879500,0.78187939453125,0.07570142993330956,0.010730068328976631,-0.21274960123300551
1769668309916868000,0.7918681640625,-0.0025220658235251903,-0.010857494100928306,-0.20564999836087225
1769668309926857200,0.801857177734375,-0.04860387191027402,-0.017635609933733937,-0.18362462903559207
1769668309936846300,0.811846435546875,-0.06148351948857307,0.02225099477469921,-0.1151303540021181
1769668309946835200,0.821835205078125,-0.047965574006736275,0.054036710613965984,-0.05812602575421333
1769668309956823300,0.8318232421875,-0.0494327239498496,0.05837269399166107,-0.07539163333177566
1769668309966812400,0.8418125,-0.07335808167755603,0.048292029482126235,-0.052960605815052984
1769668309976801300,0.85180126953125,-0.06941080535650253,-0.03602466858327388,-0.038247605329751966
1769668309986790400,0.861790283203125,-0.06189531515985727,-0.12119827573895453,-0.018298457756638527
1769668309996778200,0.8717783203125,-0.06629296559691429,-0.14944354249238967,0.020931728869676588
1769668310006767400,0.881767333984375,-0.08422901978194713,-0.13780746523439882,0.019224340429902075
1769668310016756200,0.891756103515625,-0.08849310696721076,-0.07475333542823791,-0.005785013142228126
1769668310026745300,0.901745361328125,-0.09525719427466392,-0.019339491242170333,-0.01096270804107189
1769668310036734500,0.911734375,-0.0673934741847217,0.020743512821197508,-0.012172668352723121
1769668310046722300,0.921722412109375,-0.056339434598386286,0.05743102922737598,-0.023709376889467237
1769668310056711400,0.93171142578125,-0.06712094085365533,0.04374386465847492,-0.04665887532234192
1769668310066700300,0.9417001953125,-0.05813040966838598,0.0516962849676609,-0.026414544194936752
1769668310076689200,0.951689208984375,-0.07005421782657503,0.05440086775124073,-0.03183598472177982
1769668310086678300,0.96167822265625,-0.10093976995572447,0.07401859141290187,-0.011882160973548888
1769668310096666400,0.971666259765625,-0.08393895079419017,0.058387307038903234,0.03475508703887462
1769668310106655200,0.9816552734375,-0.0035163375578820704,0.022265023300051687,0.0538052399456501
1769668310116644400,0.991644287109375,0.019853432113677263,0.004237783700227737,0.054200376743078225
1769668310126633500,1.001633544921875,0.01717939059883356,0.020890227815508842,0.022187281888723372
1769668310136621300,1.011621337890625,0.02360021742656827,0.020057868644595144,0.003806406545639038
1769668310146610200,1.021610107421875,0.031226474521309135,0.021288287222385405,-0.02337035419344902
1769668310156599300,1.031599365234375,0.043723114131391044,0.025915362501144408,-0.0428512997329235
1769668310166588400,1.04158837890625,0.04884615623354911,0.034085809475183484,-0.07095803479850292
1769668310176577300,1.051577392578125,0.04401639798954129,0.05327741667926311,-0.06745908676683902
1769668310186565400,1.0615654296875,0.036544016282260415,0.08362403962612151,-0.07381751588284968
1769668310196554500,1.071554443359375,0.0049193362236022945,0.06821721165776252,-0.03996551516354084
1769668310206543000,1.081543212890625,0.008557984986901282,0.061973933354020114,0.004085808008909226
1769668310216532200,1.0915322265625,0.05812865610271692,0.04949497553110122,0.05205225879848003
1769668310226521300,1.101521240234375,0.049665655922889705,-0.0037953006297349926,0.05505377870202064
1769668310236509400,1.111509521484375,0.07565028426796197,-0.037544425496459005,0.0593558598101139
1769668310246498300,1.121498291015625,0.09026245472729205,-0.03209609696269035,0.06742284640967845
1769668310256487400,1.1314873046875,0.04058803097605705,-0.029274025279283522,0.05470774174332618
1769668310266476300,1.141476318359375,0.024128040692955256,-0.04998071322143077,0.07465045957565307
1769668310276465400,1.15146533203125,0.07962912477105856,-0.07139642621576786,0.11483984662294387
1769668310286453200,1.161453369140625,0.12179288063123822,-0.06951835738420487,0.10349076961278915
1769668310296442400,1.1714423828125,0.10762480067759751,-0.04795417582988739,0.08643091374039649
1769668310306431200,1.18143115234375,0.06941489700973033,-0.0267827929854393,0.010647650742530821
1769668310316420400,1.19142041015625,-0.012043781276047228,-0.01597381420135498,-0.07671615993380546
1769668310326408400,1.201408447265625,-0.06322013402283191,0.02473404376208782,-0.16543956852555275
1769668310336397300,1.211397216796875,-0.13368950852155684,0.09037351388633251,-0.2158779623866081
1769668310346386400,1.221386474609375,0.005989011281728744,0.15733049634993077,-0.10918576638400554
1769668310356375300,1.231375244140625,0.12992299559488893,0.12515022823512553,-0.1200011749088764
1769668310366364200,1.2413642578125,0.122777069362998,0.12725041538476944,-0.2232072823613882
1769668310376352300,1.251352294921875,-0.02141220586299896,0.18895839127898215,-0.32770459866821766
1769668310386341400,1.26134130859375,-0.15511632743179798,0.16501754372119903,-0.29175533340871335
1769668310396330200,1.271330322265625,-0.18293065542206166,0.014808862075209617,-0.1848223143875599
1769668310406319400,1.2813193359375,-0.2506065998099744,-0.03755962306559086,-0.08985036679506302
1769668310416307200,1.29130712890625,-0.1859565791144967,-0.056716158956289286,0.08066811242997646
1769668310426296300,1.30129638671875,-0.0663132777325809,-0.015675123515725135,0.1339443600654602
1769668310436285200,1.31128515625,0.034462533833086485,0.054043724876642225,0.11998480829596518
1769668310446274300,1.3212744140625,0.087399758772552,0.04214344372451305,0.08467734807133674
1769668310456263400,1.331263427734375,0.21552841829657554,0.004818213936686516,0.10341653533279895
1769668310466251300,1.341251220703125,0.15946838516145945,-0.1432727449029684,0.16225100161731243
1769668310476240400,1.351240478515625,0.07693126398921013,-0.1954220343351364,0.3545902675062418
1769668310486229500,1.3612294921875,0.2753846288442611,-0.20560148304402828,0.4453419670552015
1769668310496218000,1.371218017578125,0.41442865013629193,-0.13124386893510817,0.4106459167271852
1769668310506207200,1.381207275390625,0.3314981457322836,0.06852233208417892,0.27670506379306314
1769668310516195300,1.3911953125,0.2722308409884572,0.10311492203772067,0.1626870549470186
1769668310526184400,1.401184326171875,0.3008668606251478,0.11027356162071228,0.1898228991538286
1769668310536173300,1.41117333984375,0.3318663945227861,-0.07652151414453982,-0.06864683524668216
1769668310546162400,1.421162353515625,0.46479836267530916,0.06719137574136257,0.12590250790715216
1769668310556150500,1.431150634765625,0.040837037301063535,0.016098317363858222,-0.07587152580320834
1769668310566139100,1.44113916015625,-0.2829096175216138,-0.4189128098130226,-0.1538730493724346
1769668310576128300,1.451128173828125,-0.6235241127759218,-0.44292263095378875,-0.028013796085119246
1769668310586117400,1.461117431640625,-0.9393012500241398,0.14428922846913336,-0.37746728522479533
1769668310596106200,1.471106201171875,-0.34393443345725533,0.23832243390679358,-0.35006431451439857
1769668310606094300,1.48109423828125,-0.11662380743026733,0.09850713598132133,-0.09202361918091774
1769668310616083500,1.49108349609375,-0.04300912064313888,-0.005514379507303237,0.012326397609710693
1769668310626072300,1.501072265625,-0.015340192472934722,-0.011485855132341384,0.06269640240967274
1769668310636061400,1.5110615234375,0.06448065547794103,0.07375731012821198,0.07204641455709934
1769668310646050300,1.52105029296875,0.15818302152603864,0.058986441975831985,0.03484861054122448
1769668310656038400,1.531038330078125,0.275780350163579,-0.06592413228452206,0.03982172277867794
1769668310666027300,1.54102734375,0.3333031493276358,-0.11914368129670619,0.007142272970080375
1769668310676016400,1.551016357421875,0.2708662746369839,-0.14789806661605834,-0.09912322205305099
1769668310686005200,1.561005126953125,0.17918723111003637,-0.19297990188002584,-0.16040566601157188
1769668310695993300,1.570993408203125,0.10293255120813846,-0.21729192083775997,-0.21121756936013697
1769668310705982200,1.580982177734375,-0.009352642495930194,-0.23957798692584037,-0.2687602422684431
1769668310715971300,1.590971435546875,-0.09795300922989844,-0.2760287719666958,-0.20796061339080332
1769668310725960200,1.600960205078125,-0.10544804116040468,-0.248273334556818,-0.13634382242262363
1769668310735949300,1.61094921875,-0.04058744645416736,-0.1640986753106117,-0.16246727471649647
1769668310745937200,1.620937255859375,-0.1241103637933731,-0.027103695502877233,-0.04188157791793346
1769668310755926000,1.630926025390625,-0.15873510245084763,0.028141806378960608,0.059334817022085186
1769668310765915100,1.6409150390625,-0.08283025889992714,0.0965647697418928,0.04084522060751915
1769668310775904300,1.650904296875,-0.14232055874466895,0.12567629793584345,0.2296685873299837
1769668310785893000,1.66089306640625,-0.1564937532648444,0.0502718051224947,0.35228549769520756
1769668310795881200,1.670881103515625,-0.10836334408521651,-0.018260463833808898,0.3857546365767717
1769668310805870300,1.680870361328125,0.057335459898412225,-0.1193786590963602,0.3585995031476021
1769668310815859200,1.690859130859375,0.019528876334428787,-0.10006430229544638,0.24309037896096705
1769668310825848000,1.70084814453125,-0.027505846562981603,0.027238135537505148,0.1507137085586786
1769668310835836200,1.710836181640625,-0.046533495377004144,0.08017185334563255,0.12294891879856586
1769668310845825300,1.7208251953125,0.05713789149969816,0.1404413208693266,0.06883622033894062
1769668310855814100,1.730814208984375,0.09594137714654206,0.21934534623622892,-0.07451368145346642
1769668310865803300,1.74080322265625,0.06811024415194988,0.23672552010416983,-0.11223404803872108
1769668310875792400,1.75079248046875,0.03065700407028198,0.1654945135831833,-0.17180618094801903
1769668310885780200,1.7607802734375,0.012876140446960926,0.1717109038800001,-0.16334873372614384
1769668310895769000,1.77076904296875,0.0864087019085884,0.12851122910082338,-0.15705051036477088
1769668310905758200,1.78075830078125,0.06733662943094969,0.10691197623312472,-0.20665362244546412
1769668310915747000,1.7907470703125,-0.012535364185273647,0.08342822479307652,-0.23241525568962096
1769668310925736200,1.800736083984375,-0.04507306743562221,0.073542790594697,-0.20419979955255985
1769668310935724300,1.810724365234375,-0.0970244962081313,0.09874269830286503,-0.06692191115021705
1769668310945713400,1.82071337890625,-0.1260769876912236,0.04560205974578857,0.03889934723675251
1769668310955702300,1.830702392578125,-0.038757308417558665,0.002412321838736534,-0.005718962168693542
1769668310965691100,1.840691162109375,0.01715454841852188,-0.01028524717092514,0.08340309035181999
1769668310975679200,1.85067919921875,0.022678280276060104,-0.020531915897130965,0.0845095902889967
1769668310985668000,1.860668212890625,-0.03879764042794704,-0.00495090040564537,0.04599778106510639
1769668310995657200,1.8706572265625,-0.09446341354846954,0.0526245057284832,0.007874678897857666
1769668311005646300,1.880646240234375,-0.06484218226671218,0.07685001544654368,0.026800328642129896
1769668311015635200,1.89063525390625,-0.04203969108909368,0.024413725766539572,-0.01293430037498474
1769668311025623000,1.900623046875,-0.0264101602807641,-0.0052589434415102,-0.01029226143360138
1769668311035612200,1.910612060546875,0.08777005338966846,-0.05519757108688354,-0.060521396458148954
1769668311045601000,1.92060107421875,-0.005511164636909961,-0.03386544472277164,-0.09605915830731392
1769668311055590100,1.930590087890625,-0.14351590600907801,0.01718026738166809,-0.19117197567522526
1769668311065579300,1.940579345703125,-0.09958499434590339,0.03660860595107078,-0.2559463534027338
1769668311075567400,1.9505673828125,-0.06936404360532761,0.019324878194928168,-0.25259353584349153
1769668311085556200,1.96055615234375,-0.00509469279050827,0.02440904959142208,-0.2673445302516222
1769668311095545300,1.97054541015625,0.07214929040968418,0.005442483314871788,-0.24112989254295825
1769668311105534200,1.9805341796875,0.10125643468946217,0.015377017351984977,-0.24098960728943347
1769668311115522000,1.99052197265625,0.11984130817204713,-0.0014162965387105942,-0.18168109375238417
1769668311125511200,2.00051123046875,0.10969196234047413,-0.05073533098101616,-0.11062661284208297
1769668311135500300,2.010500244140625,0.02675532045662403,-0.07267302202284336,-0.11650807209610939
1769668311145489200,2.0204892578125,0.017220599392056463,-0.0643710576236248,-0.0857598826110363
1769668311155478300,2.030478271484375,0.03804068458080292,-0.057471945759654045,-0.03950491191446781
1769668311165466400,2.04046630859375,0.056096273492276666,-0.03925649011135101,-0.026321605214476584
1769668311175455000,2.050455078125,0.032733810344338414,-0.0207394211679697,0.01121288340985775
1769668311185444000,2.060444091796875,0.034517186629772184,-0.034622985091805454,0.01826514000892639
1769668311195433200,2.07043310546875,0.058171618461608884,-0.04300736707746982,0.05056640415489674
1769668311205422000,2.080422119140625,0.09169161074757576,-0.024673838007450103,0.08263912024199963
1769668311215410200,2.09041015625,0.10741261923164129,-0.010164251139760017,0.10498539208471774
1769668311225399300,2.1003994140625,0.04263122724145651,0.04873918872773647,0.10360124424993991
1769668311235388200,2.11038818359375,0.02413724691271782,0.14363631751835346,0.044749242308735844
1769668311245377300,2.120377197265625,0.048040685069561,0.14052023132443428,-0.04895429278314113
1769668311255365000,2.130365234375,0.08515548697710036,0.11979366963803767,-0.08294833232164382
1769668311265354200,2.140354248046875,0.14242051198780536,0.07971008105278014,-0.09652736034095287
1769668311275343000,2.150343017578125,0.16538286990225315,0.037052842587232585,-0.13682663750350474
1769668311285332200,2.160332275390625,0.17820961824953555,0.02679506794512272,-0.10153262128233909
1769668311295321300,2.1703212890625,0.15564531974196433,-0.027871757265925407,-0.011629062995314597
1769668311305309200,2.18030908203125,0.12081307581365108,-0.1141413429647684,0.0274058933198452
1769668311315298000,2.190298095703125,0.031625849102437494,-0.10925649353265762,0.008330021449923515
1769668311325287200,2.200287109375,-0.03386193759143352,-0.05770400094985961,-0.03666530457437038
1769668311335276000,2.210276123046875,-0.10082534979581832,0.0080126260638237,-0.0936719709098339
1769668311345265200,2.22026513671875,-0.1037935519516468,0.017518705555796623,-0.14624211610257626
1769668311355253200,2.230253173828125,-0.07898059773445129,0.024899463456869123,-0.1625040995955467
1769668311365242400,2.240242431640625,-0.0763525873184204,0.02971124765276909,-0.14753624756634234
1769668311375231200,2.250231201171875,-0.06838847657144069,0.026739538365602493,-0.11573884128928184
1769668311385220400,2.260220458984375,-0.10570026235580443,0.0068967737764120095,-0.09261983150839805
1769668311395208200,2.270208251953125,-0.12737404176443815,0.03667407240271568,-0.06393266620635986
1769668311405197000,2.280197021484375,-0.10785305647552013,0.04382569772303104,-0.007147533667087555
1769668311415186200,2.290186279296875,-0.09254472044557333,0.043544542694091797,0.012926117068529128
1769668311425175300,2.30017529296875,-0.061141574183106416,0.06254033506512642,0.015659341424703595
1769668311435164200,2.3101640625,0.011110592079162597,0.06959902140498161,0.06455927367210387
1769668311445152300,2.32015234375,0.028422961407899856,0.043731005176901816,0.05272738158106804
1769668311455141400,2.330141357421875,0.04002016796022653,0.0036561844199895855,0.0649158320248127
1769668311465130000,2.3401298828125,0.052176761960983274,-0.0020206921726465222,0.08218377768993378
1769668311475119000,2.350119140625,0.05840308912992477,-0.036574703681468965,0.09592764088213443
1769668311485108200,2.360108154296875,0.051389703236520284,-0.0045329672545194625,0.07732114008963108
1769668311495096300,2.370096435546875,-0.03271627468764782,0.032057518517971034,0.07965747408270836
1769668311505085200,2.380085205078125,-0.07214666006118059,0.0630114597082138,0.05274550175964832
1769668311515074300,2.39007421875,-0.06316898835748434,0.07826397389769554,0.012392448583245277
1769668311525063200,2.400063232421875,-0.022721242634952066,0.078043024623394,0.015375263786315917
1769668311535051000,2.410051025390625,-0.019153028759360313,0.053181555089354515,0.004586158746480941
1769668311545040100,2.4200400390625,0.04471358647346496,0.017516367468237877,-0.025457097339630124
1769668311555029200,2.430029296875,0.12252426364570855,-0.019991233149170874,-0.016941197928786275
1769668311565018000,2.44001806640625,0.11047405262887477,-0.05530570763647556,-0.0540361260920763
1769668311575007200,2.45000732421875,0.07810556846559047,-0.028318331989645958,-0.08516133219599724
1769668311584995300,2.459995361328125,0.033925358216464516,-0.021838906842470168,-0.12202654325664043
1769668311594984200,2.469984130859375,-0.06717004069238901,0.03602700667083263,-0.13599603189826012
1769668311604973300,2.479973388671875,-0.10628010807037352,0.0623451047539711,-0.10488894597291946
1769668311614962200,2.489962158203125,-0.17171119614094496,0.05195113651156425,-0.03269172476828098
1769668311624951000,2.499950927734375,-0.0996674119323492,0.037975218129158016,0.023612346255779265
1769668311634939100,2.509939208984375,-0.025337270352244375,0.025335516786575314,0.06386486166715621
1769668311644928300,2.51992822265625,0.00426554848998785,0.021104747349023817,0.06948328607082367
1769668311654917000,2.529917236328125,0.02829728920161724,0.00405599739253521,0.08254150508642197
1769668311664906200,2.53990625,0.017300678890943527,-0.016028759258985517,0.0953062941133976
1769668311674894000,2.54989404296875,-0.034549043072760105,-0.021332710886001586,0.07023673478662967
1769668311684883200,2.55988330078125,-0.05690028335154056,-0.0007867664635181426,0.02510053898692131
1769668311694872000,2.5698720703125,-0.04469312820732593,0.0005628945797681808,-0.030253683966398236
1769668311704861200,2.579861083984375,-0.008262801432609558,-0.0046533787637948985,-0.02996726824045181
1769668311714850300,2.589850341796875,-0.023989655135571955,0.012660159608721732,0.0018967735320329665
1769668311724838000,2.599837890625,-0.043891748696565626,0.034335984843969346,0.04274725483655929
1769668311734826800,2.60982666015625,-0.042731472745537756,0.07099953585267066,0.04528524888157844
1769668311744815900,2.61981591796875,0.007855389675498009,0.07773030541241169,-0.0007429273217916488
1769668311754804700,2.6298046875,0.056342064946889876,0.08165303181409836,-0.0033761984348297117
1769668311764793900,2.6397939453125,0.12891747181415558,0.05752922890484333,-0.011858195576071739
1769668311774782000,2.649781982421875,0.16689795064032076,0.025630700340867042,-0.013252280282974243
1769668311784771000,2.65977099609375,0.08799187944680452,-0.0018903437912464142,0.011129296779632567
1769668311794759700,2.669759765625,-0.04633884958773851,-0.019836919370293617,0.03385258524119854
1769668311804748800,2.679748779296875,-0.11217501132786273,-0.0230009363591671,0.03107493722140789
1769668311814737000,2.68973681640625,-0.10460749868303537,-0.0339981311917305,-0.004780220013856888
1769668311824725800,2.699725830078125,-0.11374766747206448,-0.0627589462518692,-0.04204582856893539
1769668311834715000,2.70971484375,-0.15571750819534064,-0.07042085918188094,-0.07549509370625018
1769668311844704000,2.7197041015625,-0.13435790930241345,-0.039972529426217075,-0.09376958606541157
1769668311854692900,2.72969287109375,-0.08261340127885342,-0.007965279790759085,-0.11671207023561
1769668311864680700,2.7396806640625,-0.048933249995112414,0.007928454911708831,-0.11530629509091377
1769668311874669800,2.749669921875,-0.048074295078217984,0.016341478469967842,-0.08853402349948883
1769668311884658700,2.75965869140625,-0.03676730364412069,0.006853519156575202,-0.05987666881382465
1769668311894647800,2.769647705078125,-0.004629121105372906,-0.011226911935210228,-0.031409283742308614
1769668311904637000,2.779636962890625,-0.006367196944355964,-0.02873334253132343,-0.03701601770818233
1769668311914625000,2.789625,0.04864946461766958,-0.018510639202594756,-0.08212766358852386
1769668311924614000,2.79961376953125,0.09487053304463625,0.00022737901508808136,-0.10723229422867298
1769668311934603000,2.80960302734375,0.10174889438152313,0.005493921241164207,-0.13990648334026337
1769668311944592000,2.819591796875,0.05988017594516277,0.014980126988887786,-0.13157996902167796
1769668311954579700,2.829579833984375,-0.014151859471201896,0.030885552129149434,-0.07273965751826762
1769668311964568800,2.83956884765625,-0.05824702178537845,0.052469022905826564,-0.03933364700078964
1769668311974558000,2.849557861328125,-0.03348316740691662,0.07664835539460181,-0.020287001225352284
1769668311984546800,2.859546875,-0.036138065829873084,0.0894675049573183,0.004109188884496688
1769668311994536000,2.869535888671875,-0.027232582579553126,0.03456277933716774,0.0066617959767580025
1769668312004523800,2.879523681640625,-0.03666296648681164,0.004561024305224418,0.0007967033356428146
1769668312014513000,2.889512939453125,0.01901771194189787,-0.0026578210324048994,-0.007328150931000709
1769668312024501800,2.899501708984375,0.03256955969333648,-0.0157943659812212,-0.0081955814152956
1769668312034491000,2.909490966796875,0.07282324414849281,-0.014558102184534072,-0.0013046528577804564
1769668312044479700,2.919479736328125,0.0885088890582323,-0.027474866902828216,0.00027530981004238127
1769668312054467800,2.9294677734375,0.11674071180820464,-0.07334054602086544,-0.03187982386350632
1769668312064457000,2.93945703125,0.13202069852650164,-0.07517477571070194,-0.08369301320910454
1769668312074446000,2.949446044921875,0.14992285044193268,-0.07159165652692318,-0.11598960117995738
1769668312084434700,2.9594345703125,0.12530103488266467,-0.05414367811977863,-0.1543003348737955
1769668312094422800,2.9694228515625,0.09154781836271285,0.0110842885941267,-0.13940554808080197
1769668312104412000,2.979411865234375,0.06519640253186225,0.0235889653801918,-0.08389350421726703
1769668312114400800,2.98940087890625,-0.01056406411230564,0.03173310886919498,-0.026599837633967397
1769668312124390000,2.999389892578125,-0.11987024200558662,0.005574585261940956,-0.008539864808320998
1769668312134379000,3.00937890625,-0.13988544055223465,-0.06448036321699618,-0.008266893085837364
1769668312144367000,3.0193671875,-0.14787234765291213,-0.1221978081703186,-0.02040624369084835
1769668312154355700,3.029355712890625,-0.17842706039249895,-0.12392857748568058,-0.023802315869927405
1769668312164344800,3.0393447265625,-0.18320260423123835,-0.04368015177249908,-0.014441782328486441
1769668312174333700,3.049333740234375,-0.1752051757365465,0.04706219542622566,0.023308394873142242
1769668312184322800,3.05932275390625,-0.14013152426779268,0.06699556090831756,0.0818120217680931
1769668312194311000,3.069310791015625,-0.15228373435437678,0.08682195888459682,0.10068974071741103
1769668312204300000,3.079300048828125,-0.14001578893363475,0.0770803170710802,0.09811258370578288
1769668312214289000,3.089288818359375,-0.09563099602311849,0.0371785147935152,0.0965437269538641
1769668312224278000,3.099278076171875,-0.12825579303503035,0.033495442366600035,0.0899596723884344
1769668312234265900,3.109265869140625,-0.14325813185572622,0.05032850374579429,0.07508651290535927
1769668312244254700,3.119254638671875,-0.16459902604818344,0.07153904955685138,0.06632336073517799
1769668312254243800,3.129243896484375,-0.19419892228096722,0.11308920356333255,0.05770809260308742
1769668312264233000,3.13923291015625,-0.15738105749338865,0.12296528541147708,0.012407646152377128
1769668312274221800,3.149221923828125,-0.02581248664855957,0.08169161025881767,-0.037231121763587
1769668312284210000,3.1592099609375,0.08508008365333079,0.03294482274651527,-0.05346621724963188
1769668312294198800,3.16919873046875,0.1147603516459465,-0.030381109738349912,-0.05980886427462101
1769668312304187600,3.179187744140625,0.08862871604561805,-0.04774842412471771,-0.04794657704532146
1769668312314176800,3.1891767578125,0.08828735526204108,-0.05000818575024604,-0.001219312661886215
1769668312324166000,3.199165771484375,0.07545680752247572,-0.05365443329811096,0.024404373416304588
1769668312334154000,3.209154052734375,0.05753945803791284,-0.07525543973147869,0.014949731850624084
1769668312344142800,3.219142822265625,0.029241584314405916,-0.07105389638841152,-0.037619828820228574
1769668312354132000,3.229132080078125,-0.04481383197754621,-0.01874094082713127,-0.038922143590450285
1769668312364121000,3.23912109375,-0.08466390406787395,0.056062663483619685,-0.05575462044775486
1769668312374110000,3.24910986328125,-0.09396890802979468,0.08136193991303443,-0.08125614145100116
1769668312384097800,3.259097900390625,-0.08389555004388094,0.08675590791106223,-0.0690285280406475
1769668312394087000,3.2690869140625,-0.10639292079508304,0.13159165945947168,-0.023503040662407874
1769668312404075800,3.27907568359375,-0.06971767934858798,0.1370470022559166,0.02473579732775688
1769668312414065000,3.28906494140625,-0.004743395134806633,0.0940244376093149,0.03597089256942272
1769668312424053000,3.299052978515625,0.06687573392093181,0.03171966486573219,0.021745383340120314
1769668312434041900,3.309041748046875,0.11082651932835579,-0.028815760117769238,0.028855507606267927
1769668312444030700,3.31903076171875,0.13032412374168634,-0.044130233627557754,0.00978372738957405
1769668312454019800,3.329019775390625,0.10111965656727552,-0.03335048093795776,-0.041864626783132554
1769668312464008700,3.3390087890625,0.02381722117811441,0.003475567156076431,-0.0663753831833601
1769668312473996800,3.348996826171875,-0.02547258716970682,0.01554419061243534,-0.08148702759742736
1769668312483986000,3.35898583984375,-0.013084814761579036,0.03687923958599567,-0.09445347667634486
1769668312493975000,3.36897509765625,-0.01896831984221935,0.017030045256018637,-0.0861953514188528
1769668312503964000,3.3789638671875,0.03163520145267248,0.011384148323535919,-0.07318623224198818
1769668312513953000,3.388953125,0.05876958435475826,0.027087913411855697,-0.04091010253727436
1769668312523940900,3.39894091796875,0.05281476760357618,0.028951953718066213,-0.0437228218704462
1769668312533929700,3.4089296875,0.04503098185956478,0.04867430679798126,-0.08269114269018173
1769668312543918800,3.4189189453125,0.005410334610939025,0.08277297575473785,-0.07866027973890304
1769668312553908000,3.428907958984375,0.010143792873620987,0.05799509285092354,-0.06284370192587375
1769668312563896000,3.43889599609375,0.030183249078691004,0.015426701712608336,-0.06929974619746208
1769668312573885000,3.448885009765625,0.06654518679231405,-0.028054712617397306,-0.04192833966910839
1769668312583873800,3.458873779296875,0.09530804767906666,-0.06247545313537121,-0.032466683840751645
1769668312593862700,3.468862548828125,0.10060556956529616,-0.04683481641113758,-0.04948445413708687
1769668312603851800,3.478851806640625,0.08076923471689224,-0.04563011679649353,-0.02873860322833061
1769668312613840000,3.48883984375,-0.004894786304235458,-0.05781389106512069,0.03129004127681255
1769668312623829000,3.4988291015625,-0.0900838832899928,-0.09680559276044368,0.06478431459963321
1769668312633817900,3.50881787109375,-0.15836480783373116,-0.11725099941790103,0.027243396234512326
1769668312643807000,3.518806884765625,-0.09212883312106132,-0.12180734754800795,0.04913607909083366
1769668312653795800,3.5287958984375,-0.040350715088844295,-0.2129465851098299,0.1522650296539068
1769668312663783700,3.53878369140625,-0.052742286889255044,-0.21173253314495086,0.11871347318589687
1769668312673772800,3.548772705078125,-0.025851065093278884,-0.08748246861994266,0.008214286115765572
1769668312683762000,3.558761962890625,-0.005552957952022552,-0.013760814327001571,-0.019684359157085416
1769668312693750800,3.568750732421875,-0.016621464455127716,-0.007498831322789192,-0.021182488760352135
1769668312703740000,3.578739990234375,-0.051802083429694175,-0.026435586982965466,-0.03297287979722023
1769668312713728000,3.58872802734375,-0.0655254883557558,-0.05902385137677192,-0.0270703777551651
1769668312723716600,3.598716552734375,-0.10097148026823997,-0.09006313276290893,0.027047581401467322
1769668312733705700,3.608705810546875,-0.04271715195924043,-0.11870119822621344,0.0846224030137062
1769668312743694800,3.61869482421875,0.002587678405642509,-0.15507248829007148,0.0934714799016714
1769668312753682700,3.6286826171875,0.04944119951725006,-0.1348632284760475,0.0970750573515892
1769668312763671600,3.638671630859375,0.07960574389547109,-0.10283376700878143,0.08932546613812446
1769668312773660700,3.64866064453125,0.08378156827539206,-0.07750351091921329,0.07560439929962158
1769668312783649800,3.65864990234375,0.06083411566913127,-0.06457330219745636,0.039972529426217075
1769668312793638700,3.668638671875,0.09980009840130806,-0.022507015362381935,-0.004231353959441185
1769668312803626800,3.678626708984375,0.07733575313687324,0.02746376098692417,-0.02369184123277664
1769668312813615900,3.688615966796875,0.02601502348333597,0.1103203233718872,-0.0390478157967329
1769668312823604500,3.6986044921875,-0.04546528162360191,0.17857260634303093,-0.0514957939594984
1769668312833593600,3.708593505859375,-0.03883212721943855,0.20303952360153196,-0.05609656575322151
1769668312843582700,3.718582763671875,-0.09023615124225616,0.16976619955301284,-0.07695464486479758
1769668312853570800,3.72857080078125,-0.07934767748117447,0.13420681039392948,-0.08725333603918552
1769668312863559700,3.7385595703125,-0.06482523113191127,0.09423252740204334,-0.07098959898054599
1769668312873548800,3.748548828125,-0.007413491126894951,0.08284662551283836,-0.06977613153755664
1769668312883537700,3.75853759765625,0.03677431790679693,0.05940262156128883,-0.035114568001031875
1769668312893525500,3.768525390625,0.01275572893768549,0.041399931880831714,-0.024043723410367965
1769668312903514600,3.7785146484375,-0.021872516851127146,0.018644494715332985,0.009693711018562316
1769668312913503700,3.788503662109375,-0.010319441701471805,-0.03918050226569175,0.016197101563215254
1769668312923492600,3.79849267578125,0.09052578183859586,-0.12068915717303752,-0.0020475801795721052
1769668312933481700,3.808481689453125,0.1662798187419772,-0.12986615084111688,-0.009288637349009513
1769668312943469800,3.8184697265625,0.1906599344998598,-0.10549860230386257,0.003141805157065391
1769668312953458700,3.828458740234375,0.16466215441226958,-0.050399815416336056,-0.009210895937681197
1769668312963447800,3.83844775390625,0.15282237127572298,0.004636427628993987,-0.04471241742968559
1769668312973436700,3.848436767578125,0.088367727021873,0.0680003540366888,-0.07745324203670025
1769668312983425500,3.858425537109375,0.06081044253259897,0.06710837363302707,-0.08308686400949955
1769668312993413600,3.86841357421875,0.06954729121774435,0.02063362270593643,-0.05223404510617256
1769668313003402800,3.87840283203125,0.05959522152394056,-0.02166705740690231,-0.03197276284396648
1769668313013391600,3.8883916015625,0.050428749249875546,-0.00265256033539772,-0.012447393640875815
1769668313023380700,3.898380615234375,0.02732727512568235,0.05815057567358017,-0.018586627048254013
1769668313033369900,3.908369873046875,0.044865562164783476,0.08237666991353035,-0.003429389926791191
1769668313043357700,3.918357666015625,0.05582856246680021,0.09578326397538185,0.0014887772530317305
1769668313053346600,3.9283466796875,0.0333224238872528,0.0785311004012823,0.013567337581515312
1769668313063335700,3.938335693359375,0.02857435257732868,0.058907531520724296,0.03947510129809379
1769668313073324800,3.94832470703125,0.01172609362900257,0.005658171892166137,0.05090075067579746
1769668313083313700,3.958313720703125,-0.04122925148904323,-0.03175882783234119,0.035333179187774656
1769668313093301800,3.9683017578125,-0.0961252092808485,-0.042373745349049564,-0.027424013498425482
1769668313103291000,3.978290771484375,-0.1471478327706456,-0.0012292495340108871,-0.07702069583833217
1769668313113279500,3.988279541015625,-0.15139146168977022,0.021117022308707236,-0.11218787080943583
1769668313123268600,3.9982685546875,-0.1617541580110788,0.030832945159077644,-0.11006138017475604
1769668313133256700,4.008256591796875,-0.12351005981266498,0.03584814297258854,-0.0951665933817625
1769668313143245800,4.018245849609375,-0.07624152815937996,-0.014049568140506744,-0.05267419008910656
1769668313153234700,4.028234619140625,-0.04025397671610117,-0.06958440835773945,-0.02974164279103279
1769668313163223800,4.038223876953125,-0.006197977857291698,-0.0963344681173563,-0.009986556485295296
1769668313173212700,4.048212646484375,0.0432826768875122,-0.11401800884604453,0.00004325461983680725
1769668313183200500,4.058200439453125,0.0882186739400029,-0.12444237222671509,0.0033709377378225323
1769668313193189600,4.068189697265625,0.08424246378540992,-0.12743980047702788,0.006409867042303085
1769668313203178800,4.0781787109375,0.032819150540232656,-0.09932546662688255,0.017504092508554458
1769668313213167600,4.088167724609375,0.034601065520942206,-0.07006663891673087,0.013263386198878287
1769668313223156700,4.09815673828125,0.07647650595903396,-0.05888999586403369,-0.03599485796689987
1769668313233144800,4.108144775390625,0.07363046887814999,-0.032761282873153684,-0.07839782941043376
1769668313243133700,4.1181337890625,0.07994652015715838,0.01675415092408657,-0.07589139954745769
1769668313253122800,4.128122802734375,0.02632218973636627,0.0888747997611761,-0.0769148973762989
1769668313263111700,4.138111572265625,0.008891746985912323,0.11830313881933688,-0.07036006890535354
1769668313273100500,4.1481005859375,-0.024344752183556556,0.10727028815150261,-0.0392874697715044
1769668313283088600,4.158088623046875,-0.043460079281032085,0.05615267985463142,-0.030055531045794486
1769668313293077800,4.168077880859375,-0.08051525995582341,0.05267302104532719,-0.013899930536746978
1769668313303066600,4.178066650390625,-0.09203589414060115,0.06089432142376899,0.004803016367554664
1769668313313055700,4.1880556640625,-0.07076134318262338,0.0615127455830574,-0.019487959802150723
1769668313323043600,4.198043701171875,-0.07461947991549968,0.05788812534511089,-0.0254974293500185
1769668313333032700,4.20803271484375,-0.030282033278048036,0.05009235690236091,-0.02335632566809654
1769668313343021600,4.218021484375,0.015548866787552833,0.01720072564780712,0.012896890974044799
1769668313353010700,4.2280107421875,0.05498363607525825,-0.011933014377951622,0.04010170876383781
1769668313362999600,4.23799951171875,0.05767798972576856,-0.020528993287682533,0.023367431584000585
1769668313372987600,4.247987548828125,0.03221826203763485,-0.019528876334428787,0.010343699359893798
1769668313382976800,4.257976806640625,0.00066314008384943,-0.005811316627264022,0.0026326865911483763
1769668313392966000,4.2679658203125,-0.04328150784373283,0.0280506209641695,-0.017654899156093598
1769668313402954800,4.277954833984375,-0.05826221935451031,0.02123743381798267,-0.016946458625793456
1769668313412943600,4.287943603515625,-0.04308978466391563,0.00014963760375976562,-0.013963643422722816
1769668313422931700,4.297931640625,-0.02616524560898542,-0.00013619360029697419,-0.01778407849371433
1769668313432920600,4.307920654296875,-0.030664895115792748,0.010208674803376198,-0.023185060754418372
1769668313442909700,4.31790966796875,-0.02797083372622728,0.02848550525009632,-0.01340484049618244
1769668313452898800,4.32789892578125,-0.024833412483334538,0.00426467170715332,-0.007720365118980407
1769668313462887700,4.3378876953125,-0.01769581568837166,-0.025262451550364492,-0.014331307691335678
1769668313472875500,4.34787548828125,-0.00928659152239561,-0.034867315241694445,-0.00277238732278347
1769668313482864600,4.35786474609375,-0.016845044077932834,-0.03497428274750709,0.041001872473955155
1769668313492853800,4.367853759765625,-0.015523147824406622,-0.040742929276824,0.053500704041123386
1769668313502842600,4.377842529296875,-0.03157411891520023,-0.01045475851893425,0.05598141494095325
1769668313512830700,4.387830810546875,-0.04489654182493687,-0.0005213935256004333,0.05788637177944183
1769668313522819800,4.39781982421875,-0.05795476084053516,0.024196283623576162,0.03460544943511486
1769668313532808700,4.40780859375,-0.05208996046036481,0.02104980229139328,0.010212181934714317
1769668313542797800,4.4177978515625,-0.04327332453727722,0.02863748094141483,-0.001786298894882202
1769668313552786700,4.42778662109375,-0.020051731164753436,0.020406828212738037,-0.020730068817734718
1769668313562774800,4.43777490234375,0.006591945610940456,0.013958967247605323,-0.023004443490505216
1769668313572763600,4.447763671875,-0.008712298765778542,-0.0029869068562984463,-0.006113514444231987
1769668313582752800,4.457752685546875,-0.027347733391821383,0.026345570611953733,-0.015666355687379837
1769668313592741600,4.46774169921875,-0.062147828616201876,0.0391524452149868,-0.011388239976763725
1769668313602730800,4.477730712890625,-0.04886544545590877,0.04620587085783481,-0.005081248787045478
1769668313612718600,4.487718505859375,-0.02235679323673248,0.035277065086364745,-0.022061609682440756
1769668313622707700,4.497707763671875,0.031848844203352926,0.0007926116824150085,-0.022072131076455115
1769668313632696600,4.507696533203125,0.034237785166502,-0.010861001232266425,-0.0071603931486606594
1769668313642685700,4.517685791015625,0.012049041973054408,0.005465864190459251,-0.01315349608361721
1769668313652674600,4.527674560546875,-0.0018351064726710318,0.01907996352314949,0.006053308689594268
1769668313662662700,4.53766259765625,-0.02679506794512272,0.011788637471199036,0.007374328160285949
1769668313672651800,4.54765185546875,-0.02324614329189062,0.024725275933742522,-0.017721534651517868
1769668313682641000,4.557640869140625,-0.020539806942641733,0.005744096609950065,-0.026148586735129355
1769668313692629800,4.567629638671875,-0.011439970164000987,-0.008491349491477012,-0.06607435441017151
1769668313702618600,4.57761865234375,-0.023305180002748966,-0.007312368839979171,-0.03706453302502632
1769668313712606700,4.587606689453125,-0.02787935605049133,0.0023719898283481597,-0.007697568765282631
1769668313722595600,4.597595703125,-0.004893324999511241,0.003544540739059448,0.0012830255478620527
1769668313732586500,4.60758642578125,0.005809270800650119,-0.020676877325773238,0.011470657563209533
1769668313742575400,4.617575439453125,-0.013771920242905616,-0.014398527708649635,0.031436171749234194
1769668313752563200,4.627563232421875,-0.040324119342863556,0.017141688936948774,0.03266834389269352
1769668313762552300,4.63755224609375,-0.0418406613856554,0.03458148403763771,0.04590250399708748
1769668313772541200,4.647541259765625,-0.056850598990917205,-0.014187515306472777,0.033254619348049165
1769668313782530300,4.6575302734375,-0.029017712430655953,-0.06129004274308681,0.035464112091064454
1769668313792519400,4.66751953125,-0.0311965177744627,-0.03556698794364929,0.07131050149798393
1769668313802507500,4.677507568359375,-0.02772738035917282,0.012218261060118675,0.05494914928376674
1769668313812496400,4.687496337890625,0.022957097217440603,0.07934358582794666,0.01573240666091442
1769668313822485200,4.6974853515625,0.05905804590731859,0.14185527932047842,-0.05653904882371425
1769668313832474000,4.70747412109375,0.06715367407947778,0.11957272036373615,-0.11379822861552238
1769668313842463200,4.717463134765625,0.09209843798279761,0.06983283016085624,-0.18435878852903842
1769668313852451300,4.727451416015625,0.06655600044727325,0.06403904919028282,-0.20737024628221987
1769668313862440400,4.7374404296875,0.0357756622582674,0.019979542711377144,-0.19402853415012358
1769668313872429300,4.74742919921875,-0.024638474433124065,-0.0459539419233799,-0.13709668661653995
1769668313882418400,4.75741845703125,-0.07562164269536734,-0.09906769247353077,-0.08966331979036331
1769668313892407300,4.7674072265625,-0.081398180270195,-0.12076982119381427,-0.016960487151145932
1769668313902395100,4.77739501953125,-0.09541676875054836,-0.11495733552277088,0.03781739721894264
1769668313912384300,4.78738427734375,-0.014743980145454406,-0.05644727888703346,0.06824760679602622
1769668313922373400,4.797373291015625,0.07394435713291168,-0.04677110352516174,0.09063187256157397
1769668313932362200,4.8073623046875,0.0861021201774478,-0.06439443849921227,0.07638941219747065
1769668313942350300,4.817350341796875,0.06710252841413021,-0.029853870993852612,0.055440147671103474
1769668313952339500,4.82733935546875,0.02835252652019262,-0.015348375779390334,0.01906593499779701
1769668313962328300,4.837328369140625,0.03168576259613037,-0.010138532176613807,0.011598667857050896
1769668313972317200,4.847317138671875,0.026804128034412858,0.019796587359905242,-0.009881927067041397
1769668313982306300,4.857306396484375,-0.019040216034650802,-0.008623451438546181,-0.03348901262581348
1769668313992294400,4.86729443359375,-0.040510289564728734,0.020883213552832604,-0.07641980733573436
1769668314002283300,4.877283203125,-0.08185469186604022,0.09240355840921402,-0.10090075311958789
1769668314012272400,4.8872724609375,-0.11313012009561062,0.10965221485197543,-0.11152443846464156
1769668314022261500,4.897261474609375,-0.11453881784975528,0.11665595613420009,-0.11821195340454578
1769668314032250400,4.90725048828125,-0.06209639068990946,0.08798632648885249,-0.11840952180325984
1769668314042238200,4.91723828125,-0.0005152560457587241,0.023632220000028608,-0.048648003312945366
1769668314052227300,4.927227294921875,0.035687107191979886,-0.03816986391842365,0.013380290576815605
1769668314062216200,4.93721630859375,0.06823299374878405,-0.04018763348162174,0.02299333757460117
1769668314072205300,4.947205322265625,0.06318272462189198,-0.022875848674774168,0.03175006000399589
1769668314082194400,4.9571943359375,0.052750177934765816,-0.004729366609454154,0.023189736929535864
1769668314092182300,4.967182373046875,0.04523614904284477,0.0070674541682004925,-0.005786182186007499
1769668314102171400,4.97717138671875,0.04128741141706705,-0.0025724808365106583,-0.03591653203368187
1769668314112160300,4.98716015625,0.018801731103658674,-0.009413140511512756,-0.040083588585257526
1769668314122149000,4.997149169921875,0.0035147301226854323,-0.010877367845177649,-0.009887187764048577
1769668314132138200,5.00713818359375,0.023895547111332415,-0.004272270491719246,-0.007941314393281936
1769668314142126300,5.017126220703125,0.02396715104281902,0.003351648515462875,-0.018401333609223365
1769668314152115500,5.027115478515625,0.00041647184640169143,0.013020225092768668,-0.060728317207098
1769668314162104300,5.037104248046875,-0.013132161034643649,0.008351064237952233,-0.08013152133524418
1769668314172093400,5.047093505859375,-0.02505436175763607,0.022032968109846115,-0.06972761622071266
1769668314182081300,5.057081298828125,-0.009493220010399818,-0.004732289218902588,-0.03456920907795429
1769668314192070100,5.067070068359375,-0.013324176475405692,-0.015508534777164459,-0.023930326163768768
1769668314202059300,5.077059326171875,-0.004156535157561302,-0.018231237739324568,-0.010994272223114967
1769668314212048400,5.08704833984375,-0.025782091510295868,-0.013536357921361923,0.011343231791257858
1769668314222037200,5.097037353515625,-0.03833119195997715,0.030786183407902717,-0.003665536770224571
1769668314232025300,5.107025390625,-0.03131692928373814,0.03201075676679611,-0.029783143845200536
1769668314242014500,5.117014404296875,-0.04987462249845266,0.03865969326198101,-0.044186347728967665
1769668314252003300,5.12700341796875,-0.06002718320041894,0.029797172370553016,-0.033115503138303755
1769668314261992200,5.1369921875,-0.07431114461869001,0.014683189868927,-0.01002513493001461
1769668314271981300,5.146981201171875,-0.08083762377798556,-0.003317746245861053,0.005074819046258926
1769668314281969400,5.156969482421875,-0.023565584504604338,-0.02925356701314449,0.01669920586645603
1769668314291958300,5.166958251953125,0.0062467854350805275,-0.03324585151970386,0.0017705168038606642
1769668314301947400,5.176947509765625,0.03906125980019569,-0.020053192469477652,-0.0065665189087390895
1769668314311936300,5.186936279296875,0.03769757023155689,-0.014058335968852042,-0.03057867813706398
1769668314321925400,5.19692529296875,-0.006380933208763599,-0.005640051713585853,-0.05459142188727855
1769668314331913200,5.206913330078125,-0.05926935057044029,-0.004661562070250511,-0.036005963882803915
1769668314341902300,5.21690234375,-0.08305968374162911,-0.0017547347128391265,0.001432078629732132
1769668314351891200,5.22689111328125,-0.07055851408690214,-0.0040618426114320755,0.025370003578066826
1769668314361880300,5.23688037109375,-0.02822977692335844,-0.010713701716065406,0.019309680625796317
1769668314371869400,5.246869384765625,0.0016270166799426079,0.016232757398486137,-0.0020715455770492553
1769668314381857300,5.256857177734375,-0.01756634408980608,0.07441723534166812,-0.03642974225282669
1769668314391846400,5.266846435546875,-0.050070437331497665,0.10853051734566688,-0.04794190087020397
1769668314401835500,5.27683544921875,-0.060334057192504405,0.09331775064468384,-0.07321896546781062
1769668314411824000,5.28682421875,-0.055285541631281375,0.07452011119425296,-0.053692427220940586
1769668314421812200,5.296812255859375,-0.039858839918673034,0.052906245279312134,-0.04644435578882694
1769668314431801300,5.30680126953125,-0.011378303104639052,0.01142681842148304,-0.020872692158818245
1769668314441790500,5.31679052734375,0.009043722677230834,-0.024227847805619238,-0.010005845707654953
1769668314451779300,5.326779296875,0.017597323749959468,-0.012988076388835906,0.011874562188982963
1769668314461768400,5.3367685546875,0.02645867559760809,-0.013089783197641373,0.009047229808568953
1769668314471756300,5.34675634765625,0.03073153061121702,0.011127543213963509,0.001367196699976921
1769668314481745200,5.3567451171875,0.008681903627514838,0.03272036634087563,-0.01206862345635891
1769668314491734300,5.366734375,0.007899521078169346,0.03853928175270557,-0.028111411240696906
1769668314501723400,5.376723388671875,-0.017060148133337498,0.0439887793302536,-0.02594458859562874
1769668314511712300,5.386712158203125,-0.047995384623110295,0.016434417450428007,-0.03945113590061664
1769668314521700400,5.396700439453125,-0.021008885759115217,0.00046878655552864073,-0.014547580790519713
1769668314531689500,5.406689453125,0.01801233429163694,-0.03191781778633594,-0.0014724106401205062
1769668314541678300,5.41667822265625,0.01931435680091381,-0.029622400325536726,0.0011702128231525421
1769668314551667200,5.426667236328125,0.008995207360386849,-0.016669395250082014,-0.0009592004209756851
1769668314561656300,5.43665625,-0.006930091524124145,0.0019628245055675507,0.0009212064981460571
1769668314571644400,5.44664453125,-0.047187867632508276,0.0025000001221895216,-0.006941197440028191
1769668314581633300,5.45663330078125,-0.038385844756662846,0.005277063620090484,-0.02415419804751873
1769668314591622400,5.466622314453125,-0.04417085789889097,0.015336685341596603,-0.04066577238738536
1769668314601611300,5.476611328125,-0.04128828819990158,0.04215571868419647,-0.04830196635425091
1769668314611599000,5.48659912109375,-0.05699351459294557,0.04435702812075615,-0.007082651737332343
1769668314621588200,5.496588134765625,-0.08147416811585426,0.02768997095823288,0.027859482306241988
1769668314631577300,5.506577392578125,-0.061333589623868465,-0.005578676915168762,0.014391513445973395
1769668314641566200,5.516566162109375,-0.004300619803369045,-0.0340980844348669,0.007291326051950454
1769668314651555300,5.526555419921875,0.007162438975274563,-0.0462152232080698,0.01651975764632225
1769668314661543400,5.53654345703125,-0.0028711715221405028,-0.05740063408911228,-0.008851414975523948
1769668314671532300,5.5465322265625,-0.025248423025012016,-0.026904958060383795,0.017839608073234557
1769668314681521400,5.556521484375,-0.0729825263634324,-0.015894319224357602,0.015940496453642844
1769668314691510500,5.566510498046875,-0.07493278364837169,0.010285831692814827,-0.009185176974534987
1769668314701499100,5.5764990234375,-0.052579205282032485,0.020520225459337234,0.0014028525352478027
1769668314711487200,5.5864873046875,-0.03948270008265972,0.034712416940927505,-0.008450432959198952
1769668314721476400,5.596476318359375,-0.0021940029129385945,0.01417524034678936,-0.027734394621849057
1769668314731464000,5.6064638671875,0.028680735561251638,-0.011367781710624695,-0.03867079917788505
1769668314741453000,5.616453125,0.05746668506264686,-0.028532267001271247,-0.052474868124723434
1769668314751441700,5.626441650390625,0.09262918385863303,-0.045263621571660036,-0.04167641073465347
1769668314761429800,5.6364296875,0.08071341287642717,-0.02305997307002544,-0.018447510838508607
1769668314771419000,5.6464189453125,0.04082242425382137,0.003168693163990974,-0.050376434540748596
1769668314781407700,5.65640771484375,0.05224865815341472,0.023656769919395446,-0.047129999965429305
1769668314791396900,5.66639697265625,0.01556990957558155,0.04701601819694042,-0.057571899002790444
1769668314801386000,5.676385986328125,-0.006608604484796524,0.05140051689147949,-0.05452011021673679
1769668314811373800,5.686373779296875,-0.02915945898890495,0.062328153619170185,-0.02313070021867752
1769668314821362700,5.69636279296875,-0.04079904337823391,0.016278934627771375,-0.02103109759092331
1769668314831351800,5.706351806640625,-0.004357610687613487,-0.021240356427431106,-0.005949848315119743
1769668314841340700,5.716340576171875,-0.0013575520887970924,-0.039679099437594414,0.007346271109580993
1769668314851329800,5.726329833984375,-0.04465513428449631,-0.026572365105152127,0.019479776495695114
1769668314861318000,5.73631787109375,-0.05810936688035726,-0.01362578977048397,-0.004329553636908531
1769668314871307000,5.74630712890625,-0.04020458461642265,0.021685762107372282,-0.010386953979730605
1769668314881296000,5.7562958984375,0.008141805401444435,0.009424830949306488,-0.02184533658325672
1769668314891285000,5.766284912109375,0.02478372812271118,0.014018588480353355,-0.007374328160285949
1769668314901272800,5.77627294921875,0.016101824495196343,0.00798515353500843,0.015887304961681364
1769668314911261700,5.78626171875,0.017697276993095874,-0.013806991556286811,0.04519815512001514
1769668314921250800,5.796250732421875,0.012416706241667269,-0.031253216397762296,0.029859131690859794
1769668314931240000,5.806239990234375,-0.0067936056628823275,-0.010994272223114967,0.02107552125453949
1769668314941228800,5.816228759765625,-0.014937749151885508,0.026250878065824507,-0.014535890352725981
1769668314951217000,5.826216796875,-0.03389028690308332,0.04162380376458168,-0.04702303245961666
1769668314961205800,5.836205810546875,-0.0608592501103878,0.05376549245715141,-0.07824000850021838
1769668314971194600,5.846194580078125,-0.10076835891157387,0.053827451777458186,-0.07916881378293036
1769668314981183700,5.856183837890625,-0.12793226016908885,0.034523616370558736,-0.050425534379482266
1769668314991172900,5.8661728515625,-0.12670301063507794,0.03194061414003372,-0.027345103043317793
1769668315001161000,5.876160888671875,-0.10130319644063711,0.00963993500471115,-0.025900749453902243
1769668315011149800,5.88614990234375,-0.06372603771835565,-0.010748188507556915,-0.025203999361395835
1769668315021139000,5.896138916015625,0.034279286220669745,-0.016966916891932485,-0.031412790873646734
1769668315031127800,5.9061279296875,0.09306582171022891,-0.01757598870098591,-0.02643675602674484
1769668315041116700,5.91611669921875,0.07553717928230762,-0.022053426375985143,-0.021564181554317472
1769668315051104800,5.926104736328125,0.033924481433629985,-0.021165537625551224,0.004130816194415092
1769668315061094000,5.936093994140625,0.04589373616874218,-0.013037760749459266,0.018322423154115676
1769668315071082800,5.946082763671875,0.0178898769557476,-0.007087912434339523,0.013976502904295921
1769668315081071900,5.95607177734375,0.00360240840613842,-0.010378770673274994,0.028830957686901092
1769668315091061000,5.96606103515625,-0.011472411128878594,0.009757423904538154,0.024556933629512785
1769668315101048800,5.976048828125,-0.00716126993149519,0.04377425979673862,-0.007413491126894951
1769668315111037700,5.98603759765625,0.009074702337384223,0.036088381469249725,-0.010430208599567413
1769668315121026800,5.99602685546875,0.025364742881059645,0.0335012875854969,0.0065402154237031935
1769668315131015700,6.006015625,0.011826631394028663,0.01320844114124775,-0.011883330017328261
1769668315141004800,6.0160048828125,-0.017586217834055423,-0.015324410381913183,-0.031662966242432596
1769668315150993000,6.025992919921875,-0.04330138158798218,-0.010938742643594741,-0.02934650599360466
1769668315160982000,6.03598193359375,-0.02783843951821327,-0.016259060883522032,-0.026211715099215507
1769668315170971000,6.045970947265625,-0.00044482115805149076,-0.026125790381431577,-0.017967033845186234
1769668315180960000,6.0559599609375,0.016666180379688738,0.000689151307940483,-0.01163724630177021
1769668315190948600,6.065948486328125,-0.0014864391654729843,0.021042203506827353,-0.00709025052189827
1769668315200936700,6.075936767578125,0.0028489596903324126,0.026790391770005223,-0.01862111383974552
1769668315210925800,6.08592578125,0.00600011719763279,0.016385317611694334,-0.02382686578929424
1769668315220915000,6.0959150390625,0.01482347512245178,-0.004626490756869316,-0.016803250762820243
1769668315230903800,6.10590380859375,0.008539864808320998,-0.029822891333699225,-0.00725099404156208
1769668315240892000,6.115891845703125,0.01792611731290817,-0.06075812782347202,-0.005837035590410232
1769668315250880800,6.125880859375,0.019107143791019916,-0.05402560469806194,0.004658639460802078
1769668315260869600,6.13586962890625,0.020604104350507257,-0.036141572961211205,0.007595861956477165
1769668315270858800,6.145858642578125,0.0264580910757184,-0.01988777277469635,0.014302081596851347
1769668315280848000,6.155847900390625,0.03381225323081016,-0.012470774516463279,0.018175123637914656
1769668315290836000,6.1658359375,0.04087678478956222,-0.019299159231781958,0.0021966332614421842
1769668315300824800,6.175824951171875,0.059868485507369035,-0.043974166283011436,-0.0006236848562955855
1769668315310814000,6.18581396484375,0.04221884704828262,-0.06606734014749527,-0.006769932526350021
1769668315320802800,6.195802734375,0.06319353827685117,-0.06980944928526878,-0.0009328969359397888
1769668315330791700,6.205791748046875,0.06692337245494127,-0.06672434275150299,-0.0018657938718795776
1769668315340779800,6.21577978515625,0.05005144037008285,-0.03853577462136745,0.006126958447694778
1769668315350769000,6.225768798828125,0.038600072029232976,-0.009181669843196868,-0.011749474504590034
1769668315360757800,6.2357578125,0.020790274572372435,0.004049567651748657,-0.009126140263676643
1769668315370747000,6.245746826171875,0.009215864373743533,0.032492987325787544,-0.038540450796484944
1769668315380736000,6.255736083984375,-0.024725568194687363,0.024010990184545517,-0.046563013732433316
1769668315390723600,6.2657236328125,-0.0400151995241642,0.014949147328734397,-0.028615269109606743
1769668315400712700,6.275712646484375,-0.03809212250709534,0.029517186385393142,-0.04077800059020519
1769668315410701800,6.285701904296875,0.0035989012748003004,0.01831833150088787,-0.013427636849880218
1769668315420690700,6.295690673828125,0.07256313190758228,-0.010053191980719566,0.0040320319950580595
1769668315430679800,6.3056796875,0.07510989378094672,-0.03313829949200153,0.011975684475898743
1769668315440668000,6.31566796875,0.0839884890243411,-0.049506081447005267,0.024538813450932503
1769668315450656800,6.32565673828125,0.06080927348881959,-0.06935001507997512,0.027808628901839254
1769668315460646000,6.33564599609375,0.031355215467512604,-0.07133680498301982,-0.003361585387587547
1769668315470635000,6.345635009765625,-0.015163959123194216,-0.034870237851142884,-0.031850597769021986
1769668315480623600,6.35562353515625,-0.041890053485333915,0.02069207489490509,-0.07133446689546108
1769668315490611700,6.36561181640625,-0.07765519434958695,0.07011223162412643,-0.10519465092122554
1769668315500600800,6.375600830078125,-0.0837035346031189,0.11101707346439361,-0.1012532198190689
1769668315510590000,6.38558984375,-0.06703004769980907,0.09517945286333561,-0.06202946293354034
1769668315520578800,6.395578857421875,-0.017573066091537474,0.0390653514534235,-0.016032266390323638
1769668315530567000,6.40556689453125,0.023688334101438523,-0.02823065370619297,0.019200375032424926
1769668315540555800,6.4155556640625,0.06309972251355647,-0.0820908387094736,0.05426642771661281
1769668315550544600,6.425544677734375,0.11907646127939224,-0.10555179379582405,0.053605333459377284
1769668315560533800,6.43553369140625,0.11002309399098158,-0.08892857577502727,0.03923427827954292
1769668315570523000,6.44552294921875,0.055522857518494124,-0.04297521837353706,0.013200842356681824
1769668315580511000,6.455510986328125,0.0478489618897438,-0.02098959653675556,-0.01990472390949726
1769668315590499800,6.465499755859375,0.017237550526857374,-0.005441898792982101,-0.05246200864315033
1769668315600489000,6.475489013671875,-0.0330307474642992,0.02193418391048908,-0.08436872051358223
1769668315610477800,6.485477783203125,-0.07098579958826302,0.04476151726841926,-0.05094225172996521
1769668315620466700,6.495466796875,-0.06360328812152147,0.06096154144108295,-0.0467032989859581
1769668315630454800,6.505454833984375,-0.04795622165650129,0.06101473293304443,-0.030285832670331
1769668315640444000,6.51544384765625,-0.009178747233748435,0.02343815873265266,-0.016414543706178664
1769668315650432800,6.525432861328125,-0.00971446154564619,0.030173604467511175,-0.0003577273964881897
1769668315660422000,6.535421875,-0.026624387553334235,0.015858078867197034,-0.011383563801646231
1769668315670410800,6.54541064453125,-0.025939327898621557,0.028607670325040815,-0.01701075603365898
1769668315680398800,6.55539892578125,-0.030082126791775226,0.021703882285952568,-0.027527473872900006
1769668315690387700,6.5653876953125,-0.011259645161032675,0.0164390936255455,-0.02490355511009693
1769668315700376800,6.575376953125,0.0019046645775437354,-0.0070662851244211195,-0.011573533415794372
1769668315710365700,6.58536572265625,0.005064005391299724,-0.010458265650272369,0.0027677111476659775
1769668315720354800,6.595354736328125,0.0026861703440546987,-0.03315466610491276,0.006675824502110481
1769668315730343200,6.60534326171875,0.004794540800154208,-0.022713351589441298,0.01348024381995201
1769668315740331800,6.615331787109375,-0.01238572658151388,-0.0021259061127901074,-0.0021966332614421842
1769668315750321000,6.62532080078125,-0.02967588407844305,0.02875613888502121,-0.006851181069016456
1769668315760310000,6.63531005859375,-0.04159048601686954,0.03608721242547035,-0.017893384087085722
1769668315770299000,6.645298828125,-0.006565642125904559,0.009475099831819534,-0.015572832185029983
1769668315780287000,6.655286865234375,0.023995792615413663,-0.013460370075702666,0.00021510405540466307
1769668315790276000,6.665276123046875,0.006903788039088248,-0.03653086453974247,0.017552023303508756
1769668315800265000,6.675264892578125,0.018204934254288672,-0.02640636088848114,0.017694646644592284
1769668315810254000,6.685254150390625,-0.005054360780119896,0.018194997382164,-0.003357493734359741
1769668315820243000,6.695242919921875,-0.02572743871361017,0.06542787320017815,-0.026670564782619473
1769668315830231000,6.70523095703125,-0.02582593065202236,0.059929275783896445,-0.03520575341582298
1769668315840220000,6.715219970703125,-0.02495674660205841,0.06738894414007664,-0.03650222296714783
1769668315850209000,6.725208984375,-0.04606733916997909,0.03261164526939392,-0.02178045465350151
1769668315860198100,6.7351982421875,-0.05999591127932071,0.007072130343317985,-0.0023375030368566513
1769668315870187000,6.74518701171875,-0.022043489503860474,-0.02783376334309578,0.009323124140501023
1769668315880174800,6.7551748046875,-0.008657938230037689,-0.0510819524616003,0.0048871875196695325
1769668315890164000,6.7651640625,0.010502104791998862,-0.04327507810294628,-0.015433131453394889
1769668315900152800,6.77515283203125,0.01622691217958927,-0.009819383224844932,-0.022818565529584882
1769668315910142000,6.785141845703125,-0.0008645078748464583,0.010960369953513144,-0.025465865167975422
1769668315920131000,6.795131103515625,-0.037278760297596455,0.031956396231055256,-0.015814824247360228
1769668315930119000,6.805118896484375,-0.03181201932430267,0.01724164218008518,0.0031336218506097793
1769668315940108000,6.81510791015625,-0.015871230609714983,-0.009399111986160278,0.02450666474699974
1769668315950097200,6.82509716796875,-0.005223287606239318,-0.016658873856067655,0.021337971583008764
1769668315960086000,6.8350859375,0.0064931614115834235,-0.016802666240930558,0.00013502455651760102
1769668315970073900,6.845073974609375,0.012303601256012917,-0.01751929007768631,-0.02279693821966648
1769668315980063000,6.85506298828125,0.012001403439044952,-0.0034328970581293103,-0.04544014718234539
1769668315990052000,6.865052001953125,-0.01778407849371433,0.03992576767504215,-0.05414192455410957
1769668316000041000,6.875041015625,-0.03432341762334108,0.05724339770078659,-0.03812719382047653
1769668316010030000,6.885030029296875,-0.03777589616477489,0.03788286367058754,-0.02966448590159416
1769668316020018200,6.89501806640625,-0.0481716179728508,0.018754969352483747,-0.017786416581273078
1769668316030006800,6.9050068359375,-0.023253742076456547,-0.017422843965888023,0.0033715222597122192
1769668316039996000,6.914995849609375,0.007917348995804787,-0.027764789760112762,0.005036825123429298
1769668316049985000,6.924985107421875,0.004423077139258384,-0.048584290426969524,0.004587912312150002
1769668316059974000,6.934973876953125,-0.008400164076685906,-0.04528174175024032,-0.0003723404437303543
1769668316069962000,6.9449619140625,0.02399023965746164,-0.02464519643485546,-0.01277004972398281
1769668316079951000,6.954951171875,0.023754969596862793,-0.011490531307458876,-0.006081950262188911
1769668316089940000,6.96493994140625,-0.0003182721689343452,0.011061492240428924,0.001600420933961868
1769668316099929000,6.97492919921875,-0.013097674243152141,0.03037994069457054,-0.0036947628647089003
1769668316109918000,6.98491796875,0.0018128946408629417,0.02772562679350376,-0.008446925827860831
1769668316119906000,6.994906005859375,0.0006584639087319373,0.024231939458847045,-0.024259411987662315
1769668316129895000,7.00489501953125,0.0066261401414871215,0.0049824645876884455,-0.04014437886178493
1769668316139884000,7.014884033203125,-0.0027659575819969176,0.01226677637696266,-0.02990530892014503
1769668316149873000,7.024872802734375,0.01109130285680294,0.017770049968361852,-0.0439624758452177
1769668316159862000,7.034862060546875,-0.014947101502120494,0.019780220746994016,-0.0688981796592474
1769668316169849900,7.044849853515625,-0.029677345383167266,0.045136195799708366,-0.06260930864810943
1769668316179839000,7.0548388671875,-0.037218554542958734,0.0373223071783781,-0.05284136334955692
1769668316189827800,7.064827880859375,-0.027191958308219907,0.032039398339390755,-0.04844108256399631
1769668316199817000,7.07481689453125,-0.022902152159810066,-0.002720364874601364,-0.02885492308437824
1769668316209806000,7.08480615234375,-0.005428162528574467,-0.023092121773958203,-0.01720072564780712
1769668316219794000,7.0947939453125,-0.0005301613539457321,-0.025392215409874914,0.00004676175117492675
1769668316229783000,7.104782958984375,0.002793137849867344,-0.019514847809076308,-0.0030699089646339414
1769668316239772200,7.114772216796875,0.000810147339105606,0.02607785958647728,0.009939210212230681
1769668316249761000,7.124760986328125,-0.005208674558997154,0.04988952780663967,0.02558101598024368
1769668316259750000,7.13475,-0.010152852962911128,0.03753390410244465,-0.010512041664123534
1769668316269738000,7.144738037109375,0.0004395604610443115,0.006166705936193466,-0.01525485227704048
1769668316279727000,7.15472705078125,0.024417232897877693,-0.023390227937698363,-0.02253507241308689
1769668316289716000,7.164716064453125,0.03517623506039381,-0.042322307422757145,-0.03979775738120079
1769668316299705000,7.174705078125,-0.012731179018318653,-0.029956162324547765,-0.05492109223306179
1769668316309694000,7.18469384765625,-0.07334726802259683,-0.008279168045520782,-0.07112579258084296
1769668316319681800,7.194681884765625,-0.07441109786182641,0.028511808735132215,-0.0513695372313261
1769668316329671000,7.2046708984375,-0.0732046446815133,0.02973112139701843,-0.04316694155335426
1769668316339660000,7.214659912109375,-0.066714990401268,0.05559270788431167,-0.030460604715347287
1769668316349649000,7.22464892578125,-0.01992518217563629,0.047619244787096976,-0.02395896773636341
1769668316359638000,7.234637939453125,0.010332885704934597,0.03340834860503673,-0.01256312897503376
1769668316369626000,7.244626220703125,0.04905366150438785,0.007467267140746116,-0.004912321960926056
1769668316379615000,7.254614990234375,0.09124357471913098,-0.002329319730401039,0.0009340659797191619
1769668316389604000,7.26460400390625,0.0580731265231967,-0.010592121163010596,0.03785480661988258
1769668316399593000,7.274593017578125,0.05678484027832746,-0.014961422288417816,0.04276829762458801
1769668316409581800,7.284581787109375,0.0503217817440629,-0.02222001511454582,0.013138298514485358
1769668316419570000,7.29456982421875,0.02653963187932968,-0.0025847557961940766,-0.03754734810590744
1769668316429559000,7.30455908203125,-0.011849427747726439,0.035359482672810555,-0.06550152295827866
1769668316439548000,7.3145478515625,-0.024029694885015485,0.03402034302353859,-0.0875765766441822
1769668316449537000,7.324537109375,-0.05041384394168853,0.05448971507847309,-0.09462532611191272
1769668316459525000,7.334525146484375,-0.0636520956993103,0.04667933358848095,-0.09271627762019634
1769668316469514000,7.344513916015625,-0.03428396239578724,0.019992986714839935,-0.07676292168498039
1769668316479502800,7.3545029296875,-0.01930383540689945,-0.009494973576068877,-0.049774961516261096
1769668316489492000,7.364491943359375,-0.005299567712843418,-0.016107669714093206,-0.015668109253048897
1769668316499481000,7.374481201171875,0.027758944541215896,-0.05051029005348682,0.005949848315119743
1769668316509470000,7.384469970703125,0.006559212385118007,-0.026536709269881248,0.01198795943558216
1769668316519458000,7.3944580078125,-0.025348376268148422,0.0028729250878095627,0.014677929171919821
1769668316529447200,7.404447265625,-0.018125439277291298,0.02179915935397148,0.005740589478611946
1769668316539436000,7.41443603515625,-0.023860183537006377,0.02692074015140533,0.007840192106366157
1769668316549425000,7.4244248046875,0.014632336464524269,0.00556523291170597,-0.008124269744753837
1769668316559414000,7.4344140625,0.05594195971339941,-0.025239655196666717,-0.004203881430625916
1769668316569401900,7.44440185546875,0.05525953040719032,-0.014208558094501495,0.024306758260726927
1769668316579391000,7.454390869140625,0.004610708665847778,-0.009128478351235389,0.017906243568658827
1769668316589380000,7.464380126953125,-0.0638046559125185,0.0382066887974739,0.006294131708145141
1769668316599369000,7.474368896484375,-0.07715542813390493,0.0697603494465351,-0.02550269004702568
1769668316609356800,7.484356689453125,-0.08726385743319988,0.06002630641758441,-0.030546529433131218
1769668316619346000,7.494345947265625,-0.032093466614186765,0.03898176482319832,-0.02888064204752445
1769668316629335000,7.5043349609375,0.01822597704231739,0.008617021697759629,-0.004410802179574966
1769668316639324000,7.514323974609375,0.04735387184917927,0.010450666865706443,-0.006663549542427063
1769668316649313000,7.52431298828125,0.03857289176136255,0.02159866834580898,-0.0006985036581754684
1769668316659301000,7.534301025390625,-0.0005672784939408302,0.02601940739750862,-0.008854922106862067
1769668316669290000,7.5442900390625,-0.017969956454634665,0.012315291693806648,-0.005733575215935707
1769668316679279000,7.554279052734375,-0.01530716698616743,0.003933247795701027,-0.01622340504825115
1769668316689268000,7.56426806640625,-0.005254267266392707,-0.008527005326747893,-0.008382628419995307
1769668316699256800,7.5742568359375,-0.02764467051178217,-0.011752981635928153,-0.022990999487042425
1769668316709245000,7.584244873046875,-0.03851064018011093,-0.01518295608460903,-0.033488428103923794
1769668316719234000,7.594234130859375,-0.05608136818408966,-0.01730360150039196,-0.054306759727001185
1769668316729222400,7.604222412109375,-0.06671265231370925,0.011429156509041785,-0.06428630194962025
1769668316739211300,7.614211181640625,-0.0442284333050251,0.003220131090283394,-0.05012158299684524
1769668316749200400,7.624200439453125,-0.031361645208299156,-0.02702770765721798,-0.023726328024268148
1769668316759188500,7.6341884765625,-0.06168050336539745,0.016101239973306654,-0.0295364756077528
1769668316769177300,7.64417724609375,-0.05442337184399366,0.03779167825579643,0.00563712910413742
1769668316779166200,7.654166259765625,-0.035112814435362814,0.03416004375517368,0.021755904734134673
1769668316789155300,7.6641552734375,0.0022927871122956273,0.003987608331441879,0.006630231794714927
1769668316799144200,7.674144287109375,0.009034954848885536,-0.014650456643104553,0.01671148082613945
1769668316809132300,7.68413232421875,-0.007635609444975853,-0.01678279249668121,0.021403438034653662
1769668316819121400,7.694121337890625,-0.020713994465768337,-0.004400280785560607,0.01342705232799053
1769668316829110300,7.7041103515625,-0.040024551874399183,0.004631751453876495,0.023024317234754562
1769668316839099400,7.714099365234375,-0.040464112335443496,0.017427520141005515,-0.015687398475408555
1769668316849088500,7.724088623046875,-0.004524491687119007,0.025073650979995726,-0.02357727494239807
1769668316859076400,7.734076416015625,-0.0013549217402935027,-0.007782324439287185,-0.019982465320825576
1769668316869065200,7.744065185546875,-0.007519874110817909,-0.014828151297569274,-0.020580431213974952
1769668316879054300,7.754054443359375,0.0011216975063085555,-0.013719313272833824,-0.01437865396440029
1769668316889043500,7.76404345703125,-0.0184434191852808,-0.00864917040169239,-0.01824643530845642
1769668316899032300,7.7740322265625,0.00001432078629732132,0.0287041164368391,-0.004948562318086624
1769668316909020400,7.7840205078125,0.0215063138872385,0.04064063794612884,0.007388941207528114
1769668316919009300,7.79400927734375,0.006786883661150932,0.030848142728209495,-0.006399345648288726
1769668316928998100,7.803998046875,0.012742577195167542,0.02834872712790966,-0.015143208596110343
1769668316938987300,7.8139873046875,0.012333996394276618,0.02633797182738781,-0.004102759143710136
1769668316948976400,7.823976318359375,0.01587912165522575,0.02361176173388958,-0.022072131076455115
1769668316958964200,7.833964111328125,0.011242694026231764,0.014423662149906157,-0.04136018439233303
1769668316968953300,7.843953369140625,-0.0019216157123446464,-0.003846738556027412,-0.0295668707460165
1769668316978942500,7.8539423828125,0.0035562311768531796,-0.021392916640639303,-0.03530921379029751
1769668316988931300,7.863931396484375,0.011696283012628554,-0.023884733456373212,-0.0471779307603836
1769668316998920400,7.87392041015625,0.017219430348277092,-0.0026379472881555557,-0.056747723138332366
1769668317008908300,7.883908203125,-0.0009837503403425216,0.004828150808811187,-0.051181905704736706
1769668317018897400,7.8938974609375,0.0006418050348758697,0.0024690204620361326,-0.03819909001290798
1769668317028886300,7.90388623046875,-0.008151450012624264,-0.010196984365582466,-0.03188859169185161
1769668317038875400,7.91387548828125,0.0009635843351483344,-0.013632804033160209,-0.02667641000151634
1769668317048864300,7.9238642578125,-0.006360474942624568,-0.009312018224596976,-0.007739069819450378
1769668317058852400,7.933852294921875,-0.02693126154541969,0.0026437925070524216,-0.01575987918972969
1769668317068841200,7.94384130859375,-0.03150865246355533,0.035441315737366676,-0.020565818166732787
1769668317078830300,7.953830322265625,-0.06420271531939506,0.049073535248637196,-0.046422728478908534
1769668317088819200,7.963819091796875,-0.06137129128575325,0.04601297863423824,-0.038726913279294964
1769668317098808300,7.973808349609375,-0.05604395878314972,0.027353286349773406,-0.04316869511902332
1769668317108796400,7.98379638671875,-0.034866146197915074,0.012315876215696334,-0.029085809230804442
1769668317118785300,7.993785400390625,-0.02509089437574148,0.0014618892461061477,-0.0051209962755441665
1769668317128774400,8.0037744140625,-0.02816226464509964,0.0192103119045496,0.0030552959173917767
1769668317138763500,8.013763427734375,-0.05322656327486038,0.028006781822443007,0.008473813834786414
1769668317148752100,8.023752197265624,-0.02122486659735441,0.029084055665135382,-0.006266074657440186
1769668317158740200,8.033740234375,0.030890812826156615,0.0035831191837787627,-0.011667641440033912
1769668317168729300,8.043729248046875,0.05051379718482494,-0.021721417942643165,0.013687749090790747
1769668317178718200,8.05371826171875,0.0487900421321392,-0.04491816913485527,0.018902853390574455
1769668317188707300,8.063707275390625,0.055715749742090696,-0.05688683934807777,0.018521160596609115
1769668317198696400,8.073696533203124,0.023703823931515215,-0.0287999780267477,-0.0030786767929792402
1769668317208684300,8.083684326171875,-0.004484744198620319,0.027221768924593923,-0.04675649047791958
1769668317218673200,8.093673095703124,-0.012470774516463279,0.06815466781556606,-0.05481938542425632
1769668317228662300,8.103662353515626,-0.04203355360925198,0.07684300118386744,-0.07075579022467136
1769668317238651400,8.1136513671875,-0.05993541326373815,0.0560053803384304,-0.0936199484616518
1769668317248640300,8.12364013671875,-0.030803719064593314,0.02732172216773033,-0.06797580411732196
1769668317258628400,8.13362841796875,0.0032391280516982078,-0.0412871191561222,-0.04331365654766559
1769668317268617500,8.143617431640624,0.008359247544407844,-0.07777472907602787,-0.02489478728175163
1769668317278606300,8.1536064453125,-0.018843524418771265,-0.07059212409555912,0.0091933602809906
1769668317288595500,8.163595458984375,-0.031436171749234194,-0.011942951250076293,0.009710662153363227
1769668317298584300,8.173584228515624,-0.02224573407769203,0.024098668467998505,0.007783493483066559
1769668317308572400,8.183572509765625,-0.028640403550863263,0.059222588819265364,-0.0035930560559034345
1769668317318561300,8.193561279296874,-0.015850772343575955,0.020800211444497108,0.019048399341106415
1769668317328550400,8.20355029296875,0.1601546138599515,0.06115268009901046,0.05025017781257629
1769668317338539300,8.213539306640625,0.14983166502714157,0.05622282248139381,0.015991934379935263
1769668317348528400,8.2235283203125,0.019170272155106065,0.05804068555831909,-0.001457213070988655
1769668317358516200,8.23351611328125,0.009816752876341343,0.03006312983036041,-0.03779986156225204
1769668317368505300,8.24350537109375,0.025995734260976313,-0.020729484295845032,-0.06417115113735199
1769668317378494200,8.253494140625,-0.05324731380194425,-0.02319032145142555,-0.05608955149054527
1769668317388483300,8.2634833984375,-0.10924714118242262,0.026100655940175056,-0.07612754639089107
1769668317398472200,8.27347216796875,-0.10970131469070911,0.029544074392318723,-0.047483635708689687
1769668317408460300,8.283460205078125,-0.051153264132142065,0.00206219322681427,-0.024475100564956664
1769668317418449400,8.293449462890624,-0.012767419375479221,-0.03147767280340195,-0.002453238371014595
1769668317428438500,8.3034384765625,0.06802022778093815,-0.05740764835178852,0.012770634245872497
1769668317438427100,8.31342724609375,0.056719373826682566,-0.022784078738093374,0.011109423035383224
1769668317448416300,8.323416259765626,0.03790595228523016,-0.014509002345800399,-0.009077624946832657
1769668317458404400,8.333404296875,-0.005900163954496383,0.012990414476394653,-0.015190554869174956
1769668317468393200,8.343393310546874,-0.030236732831597328,0.03086041768789291,-0.017941314882040024
1769668317478382300,8.35338232421875,-0.02261339834630489,0.03686754914820194,-0.023352234014868734
1769668317488371500,8.363371337890625,-0.01723784278780222,0.05432487990558147,-0.013025485789775847
1769668317498360300,8.3733603515625,-0.0360416197180748,0.08794950160980224,-0.0042108956933021545
1769668317508348200,8.38334814453125,-0.05130523982346057,0.07649170352816581,0.007381342422962189
1769668317518337300,8.393337158203124,-0.05968669919967651,0.05972820025384426,0.011589900028705595
1769668317528326400,8.403326416015625,-0.062120356087386606,0.023115502649545667,0.020810732838511467
1769668317538315300,8.413315185546875,-0.03126139970421791,-0.005973813712596893,0.03592997603714466
1769668317548304400,8.423304443359376,-0.0042442134410142895,-0.03103577425479889,0.050120998474955554
1769668317558292500,8.43329248046875,-0.004067103308439255,-0.023572598767280576,0.022512276059389113
1769668317568281300,8.44328125,-0.011692775881290435,-0.03151099055111408,-0.006643091276288032
1769668317578270500,8.4532705078125,-0.024520401011407372,-0.017635025411844252,-0.03927577933371067
1769668317588259300,8.46325927734375,-0.030547990737855434,-0.0055669864773750305,-0.05639993261396885
1769668317598248200,8.473248291015626,-0.023254911120235918,-0.0025116905599832534,-0.03331131797134876
1769668317608236300,8.483236328125,0.011796820777654647,-0.020223872861266135,-0.003582534661889076
1769668317618225400,8.493225341796874,0.05293897850513458,-0.06032207449376583,0.019720599514245984
1769668317628214300,8.50321435546875,0.053394321057200426,-0.0543278025150299,0.029126725763082503
1769668317638203400,8.513203369140625,0.05920680672824383,-0.06765548612177372,0.019395605343580244
1769668317648192500,8.523192626953126,0.03725830203145742,-0.03866729204654693,0.0016711480826139449
1769668317658180400,8.533180419921875,0.032488895672559734,-0.020285832181572913,-0.030610242319107053
1769668317668169200,8.543169189453126,0.02677314837425947,-0.026642507731914518,-0.058117842447757716
1769668317678158300,8.553158447265625,0.022826748836040495,0.011627309429645538,-0.06926058323085307
1769668317688147200,8.563147216796875,0.02680588160008192,0.0018166940331459044,-0.05651157629489898
1769668317698136300,8.57313623046875,0.031579087351262566,-0.0012590601503849029,-0.03909808467924595
1769668317708124400,8.58312451171875,0.051474458910524844,-0.0053664954692125314,-0.016068506747484206
1769668317718113500,8.593113525390624,0.06850158155709504,-0.030147885504364966,0.03425824343264103
1769668317728103400,8.603103515625,0.08856851029098034,-0.05434475364983082,0.02778875515758991
1769668317738092500,8.613092529296875,0.08353431551605463,-0.03908873232901096,0.0211795661509037
1769668317748081400,8.623081298828126,0.05208499202430248,-0.009635258829593658,0.04099719629883766
1769668317758069500,8.633069580078125,0.0211316353559494,0.01168166996538639,0.011730769804120062
1769668317768058600,8.64305859375,-0.015386369702219961,0.03374912486672401,0.0052174423873424525
1769668317778047500,8.653047607421875,-0.03809036894142628,0.03393091117441654,-0.014590835410356521
1769668317788036600,8.66303662109375,-0.021212883898615836,0.0243254629611969,-0.03516308331787586
1769668317798025700,8.673025634765626,-0.01796761836707592,0.0072141691625118255,-0.04992693720757961
1769668317808013300,8.683013427734375,-0.022270868518948553,-0.010691489884257315,-0.038974750560522076
1769668317818002400,8.69300244140625,-0.010449205560982227,-0.04139291761815548,-0.026165537869930266
1769668317827991600,8.702991455078125,-0.014544950442016124,-0.06459960568249225,0.011795651733875274
1769668317837980400,8.71298046875,0.008324176231026648,-0.055741760966181754,0.030464696368575093
1769668317847968500,8.722968505859376,0.031231589087843892,-0.045260698962211604,0.030775662013888358
1769668317857957600,8.73295751953125,0.041406653882563114,-0.025198738664388654,0.0032931963264942166
1769668317867946500,8.742946533203124,0.03243132026642561,-0.0001309329032897949,-0.014519523739814758
1769668317877935400,8.752935302734375,0.021217852334678173,0.006626724663376808,-0.04089958114326
1769668317887924500,8.762924560546875,-0.021691899587213993,0.01981879919171333,-0.0642179128885269
1769668317897913300,8.772913330078126,-0.04772007481306791,0.009432429733872413,-0.06223872177004814
1769668317907901400,8.7829013671875,-0.03747194478213787,-0.006471241840720177,-0.055037412089109415
1769668317917890600,8.792890625,-0.01633972490429878,-0.01598082846403122,-0.05094751242697239
1769668317927879700,8.802879638671875,-0.0008963643178343773,-0.019516601374745368,-0.03372457494735718
1769668317937868500,8.81286865234375,-0.0057297758236527436,-0.007829670712351798,-0.03544657643437386
1769668317947856400,8.8228564453125,-0.01559036784172058,-0.005143792629241943,-0.022998013749718663
1769668317957845500,8.832845458984375,-0.012352408833801745,0.006606266397237777,-0.018367431339621543
1769668317967834400,8.84283447265625,-0.007462590965628624,0.008405424773693083,-0.013131284251809119
1769668317977823500,8.852823486328125,0.003944353711605072,0.006934183177351951,-0.009685527712106705
1769668317987812600,8.8628125,-0.015123334851860999,0.009581482815742491,0.005724807387590408
1769668317997801500,8.872801513671876,0.00500058476626873,-0.003257540491223335,0.016215806263685226
1769668318007789300,8.882789306640625,0.005704056860506534,0.0009749825119972228,0.01009703112244606
1769668318017778400,8.8927783203125,0.023040683847665784,-0.004224339696764946,-0.021396423771977424
1769668318027767300,8.902767333984375,0.035734161204099654,0.0076554831892251965,-0.03076981679499149
1769668318037756400,8.91275634765625,0.03376666052341461,-0.0009036708414554595,-0.03213584445118904
1769668318047745500,8.92274560546875,0.05218582205027342,-0.01177753155529499,-0.027452070549130438
1769668318057733600,8.932733642578125,0.025969138514995573,-0.0426075541049242,-0.036347909188270563
1769668318067722500,8.942722412109376,0.03748129713237285,-0.04084989678263664,-0.031989713978767396
1769668318077711600,8.952711669921875,0.031468028192222115,-0.018245850786566733,-0.027127076378464697
1769668318087700500,8.962700439453124,0.028023440696299074,0.01772971795797348,-0.03186696438193321
1769668318097689300,8.972689453125,0.0028840310037136076,0.01986146928966045,-0.03131283763051033
1769668318107677400,8.982677490234375,-0.0013034838140010834,0.04033551751971245,-0.020796119791269302
1769668318117666600,8.99266650390625,0.00744008687287569,0.016022329518198965,-0.018508885636925695
1769668318127655400,9.002655517578125,0.008455693656206131,0.015889058527350425,-0.005843465331196784
1769668318137644500,9.01264453125,-0.0021688684716820715,0.017450316494703293,-0.014229016360640525
1769668318147633700,9.022633544921876,-0.013144728255271911,0.018464461973309514,-0.0176852942943573
1769668318157621500,9.03262158203125,0.008359247544407844,0.03706453302502632,-0.03865735517442226
1769668318167610400,9.0426103515625,0.0319479206636548,0.03720949445366859,-0.014550503399968146
1769668318177599500,9.052599609375,0.04197627046406269,0.019856208592653274,0.0017237550526857375
1769668318187588400,9.06258837890625,0.03236819190233946,-0.007360884156823158,0.00009819967746734619
1769668318197576400,9.072576416015625,0.02712386150807142,-0.032408231651782984,0.0019715923339128495
1769668318207565600,9.082565673828125,0.01812660832107067,-0.06629530368447303,0.01190612637102604
1769668318217554700,9.0925546875,-0.0188201435431838,-0.07100304298400878,0.003892331263422966
1769668318227543600,9.10254345703125,-0.035544191589951514,-0.029412556967139243,-0.04084872773885727
1769668318237532400,9.112532470703124,-0.06823913122862577,0.006502806022763252,-0.06690729810297488
1769668318247521300,9.122521240234375,-0.06993132209926843,0.028167525342106817,-0.0776595782637596
1769668318257509400,9.13250927734375,-0.08641308582276105,0.03528524839282036,-0.08598550806045532
1769668318267498500,9.14249853515625,-0.0980856956988573,0.04556640391051769,-0.0680441931784153
1769668318277487600,9.152487548828125,-0.05792378118038177,0.0316495222389698,-0.045400984215736385
1769668318287476500,9.1624765625,-0.0040320319950580595,0.00203998139500618,-0.03504442537426948
1769668318297465600,9.172465576171875,0.02489274145513773,-0.034299159964919085,-0.01158756194114685
1769668318307453400,9.182453369140624,0.06464081447571515,-0.06513210512399673,-0.0011456629037857055
1769668318317442300,9.1924423828125,0.050014615491032595,-0.06706862614452838,0.012174421918392181
1769668318327431400,9.202431396484375,0.010876783323287963,-0.037222353935241696,0.00791501090824604
1769668318337420500,9.212420654296874,-0.013194997137784957,0.001875146222114563,-0.008534019589424133
1769668318347409400,9.222409423828125,0.0019961422532796856,0.0034586160212755203,-0.014097498935461044
1769668318357397500,9.2323974609375,-0.0306038125783205,0.007031798332929611,-0.034572131687402724
1769668318367386600,9.24238671875,-0.0313119608476758,0.02130640740096569,-0.04879238021969795
1769668318377375500,9.25237548828125,-0.037866497057676314,0.053263388153910636,-0.04929916069805622
1769668318387364400,9.2623642578125,-0.05168576357364654,0.05076689516305923,-0.04613806631863117
1769668318397353500,9.272353515625,-0.04317220225036144,0.059112114182114595,-0.04120294800400734
1769668318407341600,9.282341552734374,-0.028369185394048688,0.050232642155885694,-0.0253536369651556
1769668318417330400,9.292330322265625,-0.011572948893904686,0.034795419049263,-0.008904606467485428
1769668318427319600,9.302319580078125,0.020689736807346343,0.024888357540965078,-0.018009119421243665
1769668318437308700,9.31230859375,0.01030219830572605,0.0018809914410114288,0.023823358657956123
1769668318447297500,9.322297607421875,0.01783288607150316,-0.06396832204163073,0.005232055434584618
1769668318457285400,9.332285400390624,0.06765548612177372,-0.11272972260117531,-0.02537058809995651
1769668318467274500,9.3422744140625,0.05672171191424131,-0.027171500042080878,-0.023677812707424164
1769668318477263400,9.352263427734375,-0.037578035505115986,0.07094342175126075,-0.018574352088570594
1769668318487252500,9.36225244140625,-0.004779050970077514,0.06534779370129108,-0.050313890698552126
1769668318497241600,9.37224169921875,0.05051379718482494,0.035713702937960626,-0.0351829570621252
1769668318507229400,9.3822294921875,0.021265490868687627,0.03785422209799289,-0.024144845697283743
1769668318517218600,9.392218505859375,-0.09145107998996972,-0.012813888865709304,-0.03511924417614937
1769668318527207400,9.40220751953125,-0.22549831590801475,-0.1951297733902931,-0.039644028124213214
1769668318537196300,9.4121962890625,-0.10470306801199912,-0.33939503646194935,0.02179039152562618
1769668318547185400,9.422185302734375,0.32213644314706325,-0.18352175318300723,0.08442600365877151
1769668318557173500,9.432173583984374,0.3460094861656427,0.11206629025638103,-0.009421323817968367
1769668318567162600,9.44216259765625,-0.07146306171119213,0.31672903114557266,-0.13440087166130543
1769668318577151500,9.4521513671875,-0.18237024506032465,0.2505348497480154,-0.1201192483305931
1769668318587140600,9.462140625,-0.010995733527839183,0.037921442115306854,-0.09287117592096328
1769668318597129500,9.47212939453125,-0.005989303542673587,-0.052235214149951935,-0.07750117283165454
1769668318607117300,9.482117431640624,-0.05205021297186613,0.017671850290894506,-0.049506665968894956
1769668318617106400,9.4921064453125,-0.08662585179060697,0.08553542620539664,-0.005962123274803161
1769668318627095600,9.502095458984375,-0.0413917485743761,0.0825011730760336,0.04718845215439796
1769668318637084400,9.51208447265625,0.010083294858038425,0.03945230494439601,0.07691255928874015
1769668318647073500,9.522073486328125,0.02888590274453163,-0.012223521757125854,0.12138356917798518
1769668318657061600,9.5320615234375,0.026997312518954274,-0.021689269238710403,0.10070669185221194
1769668318667050500,9.542050537109375,0.016548691479861734,0.025860417443513868,0.04967267018556595
1769668318677039400,9.552039306640625,0.007894552642107009,0.050045010629296297,0.008731003466248511
1769668318687028500,9.562028564453126,0.0056014732688665385,0.06503273640275001,-0.033553894555568696
1769668318697017300,9.572017333984375,-0.01511982772052288,0.056925417792797084,-0.052938393983244895
1769668318707005400,9.58200537109375,0.01715542520135641,0.04088730618357658,-0.03968552917838097
1769668318716994600,9.59199462890625,-0.03218231394141912,0.015900748965144155,-0.015443652847409247
1769668318726983400,9.6019833984375,-0.0459296842649579,-0.0024865561187267303,-0.00400631303191185
1769668318736971300,9.61197119140625,-0.04414776928424835,0.01331248603761196,0.006142740538716316
1769668318746960400,9.62196044921875,-0.023849077621102333,0.0008335282146930694,-0.007253332129120826
1769668318756948500,9.631948486328126,0.003745908530056476,-0.03435176693499088,-0.02933949173092842
1769668318766937600,9.6419375,0.012901567149162291,-0.03634557110071182,-0.01685994938611984
1769668318776926500,9.651926513671874,0.004489712634682655,-0.04551496598422527,-0.042327568119764326
1769668318786915600,9.66191552734375,-0.0023936171382665634,-0.04397299723923206,-0.049335401055216783
1769668318796904400,9.671904541015625,-0.028293489809334275,-0.009552256721258163,-0.049780806735157966
1769668318806892300,9.681892333984376,-0.04830225861519575,0.026138065341114996,-0.04103694378733635
1769668318816881400,9.69188134765625,-0.045914778956770895,0.03715981009304523,-0.03082651541829109
1769668318826870500,9.70187060546875,-0.026462182728946206,0.019445289704203606,-0.01523614757657051
1769668318836859400,9.711859375,-0.021123159788548944,-0.004256488400697708,-0.02065934166908264
1769668318846848500,9.7218486328125,-0.01890051530301571,-0.016615034714341163,-0.0014519523739814758
1769668318856836600,9.731836669921876,-0.03013239567428827,-0.017191373297572136,0.017035890474915504
1769668318866825200,9.7418251953125,-0.026168752740323542,-0.004926350486278533,0.020500351715087888
1769668318876814300,9.751814453125,-0.018735095608234404,0.006814940711855888,0.02222702937722206
1769668318886803500,9.761803466796875,-0.005427870267629623,0.009279869520664214,0.001793313157558441
1769668318896792300,9.771792236328125,-0.000566109450161457,0.015747604230046272,-0.029425416448712348
1769668318906780400,9.781780517578126,-0.03186141142398119,0.05413900194466114,-0.036822540962696076
1769668318916769500,9.79176953125,-0.025782968293130395,0.05046060569286346,-0.0445247859030962
1769668318926758400,9.80175830078125,-0.02418020927160978,0.047393034815788264,-0.012933715853095053
1769668318936747500,9.81174755859375,-0.0019736381605267523,0.019488544324040413,0.01045125138759613
1769668318946736400,9.821736328125,0.01880377693027258,-0.006391746863722801,0.010977321088314056
1769668318956724500,9.831724365234376,0.0433177482008934,-0.019752748218178746,0.019008651852607725
1769668318966713300,9.84171337890625,0.03801613466143608,-0.013322422909736632,0.016098317363858222
1769668318976702500,9.851702392578124,0.017629764714837074,0.009291559958457946,-0.01687865408658981
1769668318986691600,9.861691650390625,0.014841595301032065,0.011527356186509132,-0.025092940202355384
1769668318996680400,9.871680419921875,0.0035842882275581357,0.009848024797439575,-0.015856325301527977
1769668319006668500,9.88166845703125,0.019873451988399026,0.01778057136237621,-0.01775192978978157
1769668319016657400,9.891657470703125,0.008252280038595199,0.0013338789522647856,0.0028442835152149197
1769668319026646300,9.901646240234374,0.01979278796762228,-0.0016319851160049438,0.014354688566923141
1769668319036635400,9.911635498046875,0.006499591152369976,-0.018752631264925,0.008063479468226432
1769668319046624500,9.92162451171875,-0.027587971888482568,-0.0016273089408874511,0.0009299743264913558
1769668319056612600,9.931612548828125,-0.02250496953576803,0.025437808117270467,-0.003706453302502632
1769668319066601500,9.9416015625,-0.0199421333104372,0.025339023917913435,-0.024656886872649192
1769668319076590600,9.951590576171874,0.0006967500925064087,0.023786533778905865,-0.02713525968492031
1769668319086579500,9.961579345703125,0.00986000749617815,0.01956219408214092,-0.04166121316552162
1769668319096568300,9.971568359375,-0.01247340486496687,0.03455810316205025,-0.03874503345787525
1769668319106556400,9.981556396484375,-0.027687048348784445,0.02968377512395382,-0.05622048439383506
1769668319116545500,9.991545654296875,-0.024100714294612406,0.025346038180589673,-0.038217210191488264
1769668319126534400,10.001534423828126,-0.026657120779156683,0.027339842346310615,-0.02869242599904537
1769668319136523500,10.0115234375,-0.02511485977321863,0.015244915404915809,-0.02495674660205841
1769668319146512400,10.021512451171875,-0.008579612296819687,0.007848959934711457,-0.017935469663143157
1769668319156500200,10.031500244140625,0.01395516785532236,0.0012765958070755003,-0.02206277872622013
1769668319166489300,10.0414892578125,0.027534195874631403,0.001838321343064308,-0.03015899142026901
1769668319176478500,10.051478515625,0.03949643634706736,0.015538345393538475,-0.024150106394290924
1769668319186467300,10.06146728515625,0.017698446036875246,0.0006260229438543319,-0.02372983515560627
1769668319196456400,10.07145654296875,-0.02285480588674545,0.002675356689095497,-0.04344342040717602
1769668319206444500,10.081444580078125,-0.0069023267343640326,-0.018218962779641152,-0.003942600145936012
1769668319216433400,10.091433349609375,0.018567337825894356,-0.03318973741829395,-0.016254969230294226
1769668319226422500,10.101422607421876,0.00877338130325079,-0.033684242936968804,-0.043802901369333264
1769668319236411400,10.111411376953125,-0.00814940418601036,0.011639584389328956,-0.05257482136785984
1769668319246400300,10.121400146484374,-0.03628478082418442,0.04206511779129505,-0.04611410092115402
1769668319256388400,10.131388427734375,-0.06712532476782798,0.045536008772253986,-0.058252867004275316
1769668319266377500,10.14137744140625,-0.0775271840557456,0.0507376690685749,-0.06047872636020183
1769668319276366600,10.15136669921875,-0.03901215996146202,0.06172025085389614,-0.03429623735547065
1769668319286355500,10.16135546875,0.018138006497919558,0.03622983576655388,-0.021635493224859238
1769668319296344600,10.171344482421874,0.07333645436763762,0.0012900398105382919,-0.012062778237462043
1769668319306332400,10.18133251953125,0.06259732594937086,-0.023427052816748617,-0.00317278481721878
1769668319316321300,10.1913212890625,0.05688888517469167,-0.021845921105146406,-0.019374562555551526
1769668319326310400,10.201310302734376,0.025621055729687214,0.012315876215696334,-0.015028057783842086
1769668319336299500,10.211299560546875,-0.028439035759866237,0.042539749565720555,-0.02382745031118393
1769668319346288400,10.221288330078124,-0.03906418240964413,0.03970832553207874,-0.06350070452988148
1769668319356276500,10.2312763671875,-0.030785598886013028,0.018480244064331054,-0.054343000084161756
1769668319366265600,10.241265625,-0.015628069503605364,-0.02289922955036163,-0.059226680472493166
1769668319376254500,10.25125439453125,-0.0070341364204883575,-0.03477554530501365,-0.055121583241224285
1769668319386243300,10.261243408203125,-0.014651625686883926,-0.010515548795461654,-0.04844634326100349
1769668319396232400,10.271232421875,-0.017554653652012347,-0.012605214551091194,-0.03652034314572811
1769668319406220500,10.281220458984375,-0.015429916583001612,0.008397241467237472,-0.017447393885254858
1769668319416209400,10.29120947265625,-0.01826309418231249,-0.017606968361139296,-0.005747019219398498
1769668319426198500,10.301198486328126,-0.03572071720063686,-0.01210953998863697,-0.003872457519173622
1769668319436187400,10.3111875,-0.002420505145192146,0.008029577198624611,0.003131283763051033
1769668319446176500,10.321176513671874,0.0023123685956001282,0.013491349735856055,-0.011966916647553442
1769668319456164400,10.331164306640625,-0.006032558162510394,0.026367782443761825,-0.008569675424695014
1769668319466153500,10.341153564453125,-0.046704760290682316,0.03606733868122101,-0.002063362270593643
1769668319476142300,10.351142333984376,-0.06620236470401286,0.038864275923371314,0.0011789806514978407
1769668319486131500,10.36113134765625,-0.04603986664116382,0.020116320833563805,0.022617489999532697
1769668319496120600,10.37112060546875,-0.0029731705918908118,-0.006371288597583771,0.02698269947171211
1769668319506108400,10.3811083984375,0.02846767733246088,-0.009925181686878204,0.022699907585978507
1769668319516097500,10.39109765625,0.027001988694071766,-0.0046270752787590025,0.012356208226084709
1769668319526086400,10.40108642578125,0.0012198971837759018,0.008451602002978325,-0.009710662153363227
1769668319536075300,10.4110751953125,-0.022338088536262513,0.03575169686079025,-0.02383212648630142
1769668319546064400,10.421064453125,-0.033840894803404804,0.06229308230578899,-0.03588847498297691
1769668319556052500,10.431052490234375,-0.03709785077273845,0.04910802204012871,-0.01412730955183506
1769668319566041300,10.441041259765624,-0.012701076140999794,0.02156242798864841,0.01421791044473648
1769668319576030500,10.451030517578126,0.0022650223225355146,0.006354921984672546,0.024411387678980826
1769668319586019600,10.46101953125,-0.023711714977025983,-0.0125134446144104,0.026646599385142324
1769668319596008400,10.471008544921874,0.001391162097454071,0.005870353338122368,0.008499532797932625
1769668319605996300,10.480996337890625,-0.02038666220754385,0.0179641112357378,0.006931845089793205
1769668319615985400,10.4909853515625,-0.03478314408957958,0.021772855868935584,-0.0002215337961912155
1769668319625974500,10.500974609375,-0.03345890974849462,0.022565467551350592,-0.02684942848086357
1769668319635963400,10.51096337890625,-0.01434299812912941,0.02783376334309578,-0.024605448946356773
1769668319645952500,10.520952392578126,-0.03469634258896112,0.014015081349015236,-0.03383621862828731
1769668319655940600,10.530940673828125,-0.02840396444648504,-0.00701660076379776,-0.023954291561245917
1769668319665929500,10.540929443359374,-0.02729687998741865,-0.014677344650030136,-0.008314239358901977
1769668319675918300,10.55091845703125,-0.02755231605321169,-0.01393207924067974,-0.0037748423635959624
1769668319685907500,10.560907470703125,-0.02355593989342451,-0.004670914420485496,-0.01622398957014084
1769668319695896300,10.570896240234376,-0.018014087857306002,-0.006101239484548568,-0.0233972422003746
1769668319705884400,10.580884521484375,-0.04095394167900085,0.017540332865715026,-0.04954056823849678
1769668319715873500,10.59087353515625,-0.037814182348549365,0.033760230782628055,-0.045102293530106544
1769668319725862400,10.6008623046875,-0.01733399663865566,0.009728782331943511,-0.03777355807721615
1769668319735851800,10.610851806640625,0.00995499230325222,-0.015834697991609574,-0.0183954883903265
1769668319745841000,10.6208408203125,0.022603169213235377,-0.027339842346310615,-0.009466332003474236
1769668319755828700,10.630828857421875,0.03148702515363693,-0.019321955585479736,0.0073918638169765466
1769668319765817900,10.64081787109375,0.013801438598334789,-0.015740005445480345,0.01078676695227623
1769668319775807000,10.650806884765625,0.0065080667197704315,-0.010294014999270438,0.032712767556309696
1769668319785795800,10.6607958984375,0.018987609064579008,0.024168811094760892,0.022696400454640386
1769668319795785000,10.670784912109376,0.027208617182075977,0.017733809611201284,-0.0006949965268373489
1769668319805772800,10.680772705078125,0.018993454283475875,0.018366846817731857,-0.00853811124265194
1769668319815762000,10.690761962890624,0.01913257049322128,0.02539455349743366,-0.008006196323037148
1769668319825750800,10.700750732421875,0.011329203265905379,0.014063596665859221,-0.010798457390069962
1769668319835740000,10.710739990234375,0.0027718028008937834,0.01109130285680294,-0.01854921764731407
1769668319845728800,10.720728759765626,0.01096972230374813,0.007331658062338829,-0.013988777863979339
1769668319855716900,10.730716796875,-0.002111293065547943,0.015197569131851196,-0.019857377636432645
1769668319865706000,10.7407060546875,-0.003134498633444309,0.009136661657691001,-0.013680150306224822
1769668319875694800,10.75069482421875,-0.0002902151182293892,-0.025285832425951955,-0.015378770917654036
1769668319885683700,10.76068359375,0.02724544206112623,-0.0067465516507625575,-0.028330606949329373
1769668319895672800,10.7706728515625,0.029356442865729332,-0.012162146958708762,-0.014683774390816688
1769668319905661000,10.780660888671875,0.01321574766486883,0.015167173993587493,-0.022737316986918447
1769668319915649800,10.79064990234375,0.0005342530071735382,0.0352180283755064,-0.016865794605016707
1769668319925639000,10.800638916015625,0.019620354010164737,0.03447627009749412,-0.030966216149926184
1769668319935628000,10.8106279296875,0.010098200166225433,0.001600420933961868,-0.02096212400794029
1769668319945617000,10.820616943359376,0.0004658639460802078,0.008523498195409774,-0.008352233281731606
1769668319955604700,10.830604736328125,0.007827917146682739,-0.0016588731229305266,-0.011024667361378668
1769668319965593900,10.84059375,0.006527940464019775,-0.01892740330994129,-0.020585107389092444
1769668319975582700,10.850582763671875,-0.006352876158058643,-0.013608254113793372,-0.024360534274578093
1769668319985571800,10.86057177734375,-0.01636193673610687,-0.010634206739068031,-0.02175824282169342
1769668319995561000,10.87056103515625,-0.002027998696267605,-0.024534137275815007,-0.017314707416296003
1769668320005549000,10.880549072265625,0.005132394452393055,-0.0364729968726635,-0.016688099950551986
1769668320015538000,10.890537841796874,-0.0038791795209050174,-0.031523850032687185,-0.017961773148179053
1769668320025526800,10.90052685546875,-0.012991583520174026,-0.024723522368073462,-0.01732230620086193
1769668320035516000,10.910515869140625,0.00876724382340908,-0.004185761252045631,-0.025561726757884023
1769668320045504800,10.9205048828125,0.035143794095516205,0.018662614893913267,-0.031008886247873305
1769668320055492900,10.930492919921875,0.035767186690866946,0.024711247408390043,-0.035329672056436535
1769668320065482000,10.94048193359375,0.029845979948341844,0.0008814590096473693,-0.030014614513516426
1769668320075470800,10.950470947265625,0.04658464104235172,-0.04952069449424743,-0.007473696881532668
1769668320085460000,10.9604599609375,0.09100830465853214,-0.08531447693109512,-0.007156301495432853
1769668320095449000,10.970448974609376,0.09508914423137903,-0.10176526099443435,-0.0030137948632240293
1769668320105437700,10.980437744140625,0.04745967031121254,-0.0906570070028305,-0.0026759412109851836
1769668320115425800,10.99042578125,-0.000786181941628456,-0.044781975534558295,-0.002732639834284782
1769668320125415000,11.000414794921875,0.002641454419493675,-0.0024485621958971024,-0.03242342922091484
1769668320135403800,11.01040380859375,-0.010086801989376544,0.024790157863497732,-0.03690905020236969
1769668320145393000,11.020392822265626,-0.010836743573844431,0.05926116726398468,-0.030495676028728484
1769668320155382000,11.030382080078125,-0.010366203452646732,0.060571665340662,0.008065233033895492
1769668320165369900,11.040369873046876,0.023713176281750202,0.024637597650289535,0.034039632245898246
1769668320175358700,11.050358642578125,0.06331073491573333,-0.013939678025245665,0.048048283854126926
1769668320185347800,11.060347900390624,0.06738076083362102,-0.02242342873215675,0.04597673827707767
1769668320195336700,11.070336669921875,0.08967968640327453,-0.017761866661906243,0.014217325922846793
1769668320205325800,11.080325927734375,0.08183043420761824,-0.009838087925314903,-0.02935293573439121
1769668320215314000,11.09031396484375,0.015076573100686072,-0.026956395986676214,-0.06260813960433007
1769668320225303000,11.100302978515625,-0.034947687001526354,-0.018868366599082944,-0.06592062515318393
1769668320235292000,11.1102919921875,-0.02787818700671196,-0.01904723029732704,-0.07530804670155047
1769668320245281000,11.120281005859376,-0.038864860445261,-0.009500234273076056,-0.06835866595506668
1769668320255270000,11.130269775390625,-0.03166968824416399,-0.007667758148908615,-0.057065118524432176
1769668320265257700,11.1402578125,-0.02280512152612209,0.0016980360895395277,-0.028315409380197522
1769668320275246800,11.150246826171875,-0.006336801806092262,-0.006316343539953232,-0.01852349868416786
1769668320285236000,11.160236083984374,0.010431085382401943,-0.015219780963659285,-0.005127426016330719
1769668320295224800,11.170224853515625,0.002881400655210018,-0.01871872899532318,-0.0078080434024333945
1769668320305214000,11.1802138671875,0.02149462344944477,0.007150456276535987,-0.003143558722734451
1769668320315201800,11.190201904296876,0.007597031000256538,0.009555179330706596,0.0006295300751924514
1769668320325190700,11.200190673828125,0.009113865303993225,0.011580547678470611,-0.007924363258481025
1769668320335179800,11.2101796875,-0.0024757424637675282,0.00044482115805149076,0.003472644546627998
1769668320345169000,11.2201689453125,-0.014433306761085986,0.0019715923339128495,-0.0023749124377965927
1769668320355157800,11.23015771484375,-0.010515841056406497,-0.0164303257972002,0.008777180695533751
1769668320365145900,11.240145751953126,0.018212240777909755,-0.029870237606763838,0.010067220506072044
1769668320375135000,11.250135009765625,0.016064707355201244,-0.01708966648876667,-0.0026449615508317946
1769668320385124000,11.2601240234375,0.026611235810816286,0.00922609350681305,-0.01690145044028759
1769668320395112700,11.27011279296875,0.013954875594377516,0.018652678021788598,-0.026601006677746772
1769668320405101800,11.280101806640625,-0.01733750376999378,0.03617898236215114,-0.03201309485435486
1769668320415090000,11.29008984375,-0.04540975204408169,0.04961889417171478,-0.037677696487307545
1769668320425078800,11.300078857421875,-0.0364858563542366,0.02970072625875473,-0.03372691303491592
1769668320435068000,11.31006787109375,-0.0229354699075222,0.007791676789522171,-0.018147651109099387
1769668320445057000,11.32005712890625,0.0015077742144465446,-0.022784078738093374,-0.01803951455950737
1769668320455046000,11.3300458984375,-0.004130231672525406,-0.006948796224594116,-0.010344868403673171
1769668320465033700,11.34003369140625,0.015540098959207533,0.0008744447469711303,-0.022643793484568596
1769668320475022800,11.35002294921875,0.008877133938670158,0.006086626437306404,-0.030082419052720067
1769668320485011700,11.36001171875,-0.001982113727927208,0.015433131453394889,-0.046320437148213385
1769668320495000800,11.370000732421875,-0.012027999185025692,0.003893500307202339,-0.05166062913239002
1769668320504990000,11.379989990234375,0.010784721125662327,-0.015693828216195107,-0.02694996624588966
1769668320514978000,11.38997802734375,0.0009469254612922668,-0.010077741900086402,-0.023279168778657912
1769668320524967000,11.399966796875,0.007059270861744881,0.0054763855844736095,-0.034466917747259136
1769668320534956000,11.4099560546875,-0.006404314084351062,0.0033709377378225323,-0.04556991104185581
1769668320544944600,11.419944580078125,0.011357260316610336,0.013772504764795303,-0.05041209037601947
1769668320554933800,11.429933837890625,0.04659545469731092,0.003261632144451141,-0.04241816901266575
1769668320564921900,11.439921875,0.04050795147716999,-0.008785948523879051,-0.041889761224389074
1769668320574911000,11.449910888671875,0.03002572042942047,0.0023094459861516953,-0.025087094983458517
1769668320584899800,11.45989990234375,0.00658522360920906,0.010920622465014457,0.008808744877576827
1769668320594889000,11.469888916015625,-0.0019289222359657287,0.020021628287434576,0.036254385685920716
1769668320604877800,11.4798779296875,-0.014748364059627055,0.024345336705446242,0.03453063063323498
1769668320614865700,11.48986572265625,-0.022210662764310836,0.022051088288426397,0.00901858823597431
1769668320624854800,11.499854736328125,-0.0308893515214324,0.025996026521921158,-0.012881693404912948
1769668320634844000,11.509843994140626,-0.03594371230155229,0.03585866436660289,-0.027327567386627196
1769668320644832800,11.519832763671875,-0.05235737922489643,0.043380292043089866,-0.032068039911985396
1769668320654822000,11.52982177734375,-0.021391747596859932,0.029877251869440076,-0.0016126958936452864
1769668320664810000,11.53981005859375,-0.015061375531554221,0.02296644956767559,-0.004334229812026024
1769668320674798800,11.549798828125,-0.0174935711145401,0.017265023055672644,0.007208908465504646
1769668320684787700,11.55978759765625,-0.009061258333921431,0.008712298765778542,0.02744856341779232
1769668320694776800,11.56977685546875,-0.03726677759885788,0.012750760501623153,0.017109540233016012
1769668320704765700,11.579765625,-0.034815000532567496,-0.0006985036581754684,0.018164017722010612
1769668320714753800,11.58975390625,-0.027739363057911394,-0.005997779110074043,-0.0019359364986419676
1769668320724743000,11.599742919921875,-0.003307224851846695,-0.014819967991113661,-0.014382745617628097
1769668320734732300,11.609732177734376,0.029808570547401905,-0.020922376519441604,-0.009831073662638664
1769668320744721400,11.619721435546875,0.006637246057391166,-0.0077829089611768714,-0.0175327340811491
1769668320754710500,11.62971044921875,0.003087152360379696,-0.014722937357425688,-0.007549100205302238
1769668320764698400,11.639698486328125,0.00604103372991085,-0.0040951603591442105,-0.020448329266905783
1769668320774687200,11.649687255859375,-0.003918927009403705,0.011426233899593352,-0.03888473418951034
1769668320784676400,11.65967626953125,-0.0064554597496986384,0.004411971223354339,-0.05280979916751385
1769668320794665200,11.669665283203125,0.012332242828607558,0.001852349868416786,-0.052288405641913414
1769668320804654300,11.679654296875,0.03223375186771154,-0.011150339567661285,-0.052960605815052984
1769668320814642400,11.689642333984375,0.049586160945892334,-0.000796118813753128,-0.027428689673542974
1769668320824631300,11.69963134765625,0.056332712596654885,0.001191255611181259,-0.023738602983951567
1769668320834620200,11.7096201171875,0.008618775263428687,0.011344985356926917,-0.006879822641611099
1769668320844609300,11.719609375,-0.005054360780119896,0.030548282998800275,-0.009516600885987282
1769668320854598400,11.729598388671874,-0.0031102409750223157,0.02235679323673248,0.011817863565683364
1769668320864586200,11.739586181640625,-0.004627952061593533,0.022242226946353912,0.005195815077424049
1769668320874575400,11.749575439453125,-0.027293665117025374,0.039275194811820985,-0.029581483793258666
1769668320884564500,11.759564453125,-0.04471124838590622,0.04750526301860809,-0.04354220460653305
1769668320894553300,11.76955322265625,-0.03420388289690018,0.05354045152962208,-0.03860591724812984
1769668320904542200,11.779542236328124,0.010248714552819728,0.03177987062036991,-0.02622983527779579
1769668320914530300,11.7895302734375,0.035498014360666276,-0.004897124391794205,-0.008135375660657883
1769668320924519400,11.79951953125,0.033915129083395,-0.03177402540147305,-0.002209492743015289
1769668320934508300,11.80950830078125,0.0350634223356843,-0.05076864872872829,0.00365033920109272
1769668320944497400,11.819497314453125,0.017897183479368684,-0.03372691303491592,0.002124152547121048
1769668320954486300,11.829486328125,0.016907295659184456,-0.030083588096499442,-0.00784136115014553
1769668320964475400,11.839475341796875,-0.017868834167718887,-0.024374562799930572,-0.019772621962428093
1769668320974463200,11.849463134765625,-0.018885902255773544,0.011337386572360992,-0.024084639942646025
1769668320984452400,11.859452392578126,-0.012923778980970382,0.015054361268877983,-0.02753916431069374
1769668320994441200,11.869441162109375,-0.023428806382417677,0.012094342419505119,-0.04663490992486476
1769668321004430300,11.879430419921874,-0.05057955589741468,0.020227379992604256,-0.03229775701463222
1769668321014419200,11.889419189453125,-0.032142274191975594,0.034196868634223936,-0.02849602664411068
1769668321024407300,11.8994072265625,-0.010804302608966827,0.006522679767012596,-0.04527765009701252
1769668321034396400,11.909396484375,-0.010045008674263953,-0.00438099156320095,-0.03936111952960491
1769668321044385500,11.919385498046875,0.01215045652091503,-0.026669395738840102,-0.022653730356693266
1769668321054374100,11.9293740234375,0.0012426935374736784,-0.03495090187191963,-0.0044493806242942805
1769668321064363300,11.93936328125,0.017219722609221933,-0.03307984730303287,-0.02010112326443195
1769668321074351400,11.949351318359374,0.02216770040541887,-0.015115151545405388,-0.024494974309206007
1769668321084340200,11.95934033203125,0.006299976927042007,0.0001765256106853485,-0.0354793096601963
1769668321094329300,11.969329345703125,0.005706394948065281,0.006820785930752754,-0.03420563646256924
1769668321104318500,11.979318359375,0.01518120251893997,0.002732639834284782,-0.0311310513228178
1769668321114307300,11.989307373046875,0.019856500853598115,0.011307575955986976,-0.02946808654665947
1769668321124295200,11.999295166015624,-0.02371931376159191,0.025804887863993643,-0.0437882883220911
1769668321134284300,12.0092841796875,-0.007207447160780429,0.037215339672565455,-0.016931261056661605
1769668321144273400,12.0192734375,-0.017186112600564955,0.036598669078946114,-0.029556933873891827
