time,seconds_elapsed,z,y,x
1769668309187686700,0.062686767578125,-0.0049103363417088985,0.023127157241106033,-0.02815414033830166
1769668309197674800,0.0726748046875,-0.006665625609457493,0.011596468277275562,-0.03008812665939331
1769668309207663900,0.082663818359375,-0.0033566481433808804,0.015142467804253101,-0.02540229633450508
1769668309217652700,0.09265283203125,0.004553472623229027,0.01750442571938038,-0.02256602980196476
1769668309227641900,0.102641845703125,0.006982542108744383,0.015508651733398438,-0.021468007937073708
1769668309237630700,0.112630615234375,0.00675324397161603,0.008534898981451988,-0.015083345584571362
1769668309247618600,0.12261865234375,0.006097041070461273,0.012536830268800259,-0.02041020058095455
1769668309257607700,0.132607666015625,0.004804076161235571,0.015043663792312145,-0.028006333857774734
1769668309267596800,0.1425966796875,-0.0012341088149696589,0.00287461606785655,-0.02514822967350483
1769668309277585700,0.152585693359375,0.0000476705827168189,0.004002997186034918,-0.022003568708896637
1769668309287573800,0.16257373046875,0.0007302387384697795,0.0032029838766902685,-0.019093267619609833
1769668309297563000,0.17256298828125,-0.0017835189355537295,-0.0014719291357323527,-0.013695838861167431
1769668309307551700,0.1825517578125,-0.0037060549948364496,-0.0030514500103890896,-0.01483220886439085
1769668309317540600,0.19254052734375,-0.0021377194207161665,0.0014274542918428779,-0.01731906831264496
1769668309327529700,0.20252978515625,0.0049247173592448235,0.01344843115657568,-0.01810816302895546
1769668309337517800,0.212517822265625,0.008711200207471848,0.024056866765022278,-0.026010295376181602
1769668309347506700,0.222506591796875,0.01158661488443613,0.026008963584899902,-0.029698507860302925
1769668309357495800,0.232495849609375,0.013775466941297054,0.02725505642592907,-0.03446769714355469
1769668309367485000,0.24248486328125,0.01230327133089304,0.02167200669646263,-0.039322104305028915
1769668309377473800,0.252473876953125,0.008173507638275623,0.012287026271224022,-0.05053135007619858
1769668309387461600,0.262461669921875,0.0029784792568534613,0.010554373264312744,-0.0699511244893074
1769668309397450800,0.27245068359375,-0.025110412389039993,0.0014455638593062758,-0.07912757247686386
1769668309407439600,0.282439697265625,-0.03231959044933319,-0.0059598879888653755,-0.08495856821537018
1769668309417428700,0.2924287109375,-0.03388446196913719,0.016287093982100487,-0.11178591847419739
1769668309427417900,0.30241796875,-0.0051508196629583836,0.05579535663127899,-0.1439899355173111
1769668309437406000,0.312406005859375,0.01004837267100811,0.08812373131513596,-0.1693783700466156
1769668309447394800,0.322394775390625,0.04068191722035408,0.10392932593822479,-0.21004937589168549
1769668309457383700,0.3323837890625,0.04011918976902962,0.11244425177574158,-0.22509117424488068
1769668309467372500,0.34237255859375,0.04345320165157318,0.14384745061397552,-0.2535582482814789
1769668309477361700,0.352361572265625,0.07320524007081985,0.20196667313575745,-0.28629299998283386
1769668309487349800,0.362349853515625,0.08497241139411926,0.22190017998218536,-0.3096827566623688
1769668309497339000,0.3723388671875,0.07150454074144363,0.22531674802303314,-0.3019462823867798
1769668309507327700,0.38232763671875,0.04374082386493683,0.2090970277786255,-0.29324331879615784
1769668309517316900,0.39231689453125,0.0663079172372818,0.21209867298603058,-0.3526557981967926
1769668309527304700,0.4023046875,0.09065905958414078,0.2722272574901581,-0.44721105694770813
1769668309537293600,0.41229345703125,0.09883949160575867,0.28900837898254395,-0.4856865406036377
1769668309547282700,0.42228271484375,0.10010529309511185,0.27846118807792664,-0.44211962819099426
1769668309557271800,0.432271728515625,0.08929712325334549,0.2722504138946533,-0.3795510530471802
1769668309567260700,0.4422607421875,0.08165811002254486,0.26447373628616333,-0.32544466853141785
1769668309577248800,0.452248779296875,0.07207418978214264,0.23518508672714233,-0.2909223735332489
1769668309587238000,0.46223779296875,0.04735606536269188,0.22790028154850006,-0.29947325587272644
1769668309597226800,0.472226806640625,0.0384959951043129,0.24714960157871246,-0.37261778116226196
1769668309607215600,0.482215576171875,0.020792096853256226,0.2608065605163574,-0.447369784116745
1769668309617204700,0.492204833984375,-0.012676380574703217,0.23789511620998383,-0.5482918620109558
1769668309627192800,0.50219287109375,-0.09251368790864944,0.11491939425468445,-0.5913754105567932
1769668309637181700,0.512181640625,-0.18546733260154724,-0.015211976133286953,-0.5882110595703125
1769668309647170800,0.5221708984375,-0.2717399001121521,-0.08856022357940674,-0.6214004158973694
1769668309657159700,0.53215966796875,-0.2962005138397217,-0.11184424161911011,-0.6823370456695557
1769668309667148800,0.542148681640625,-0.25467169284820557,-0.18830253183841705,-0.8873029351234436
1769668309677136600,0.55213671875,-0.2208021581172943,-0.11143171787261963,-1.1042530536651611
1769668309687125800,0.562125732421875,-0.1472320556640625,0.055269647389650345,-1.2028627395629883
1769668309697114600,0.572114501953125,-0.05245122313499451,0.12156850844621658,-1.2916706800460815
1769668309707103700,0.582103759765625,0.004436826333403587,0.12795983254909515,-1.3207931518554688
1769668309717091800,0.592091796875,0.03533855080604553,0.15607962012290955,-1.2534884214401245
1769668309727081200,0.602081298828125,0.0385146364569664,0.14613351225852966,-1.151541829109192
1769668309737070300,0.6120703125,0.011808189563453197,0.08349861949682236,-1.052464246749878
1769668309747059500,0.6220595703125,-0.011839615181088448,0.04320313036441803,-0.9749379754066467
1769668309757048300,0.63204833984375,-0.026574352756142616,0.024383369833230972,-0.8776060938835144
1769668309767036400,0.642036376953125,-0.02678474225103855,0.04451500251889229,-0.8086917400360107
1769668309777025300,0.652025390625,-0.05218810215592384,0.03614442050457001,-0.6781126856803894
1769668309787014100,0.66201416015625,-0.056595101952552795,0.01714702881872654,-0.5012804269790649
1769668309797003300,0.672003173828125,-0.07573284208774567,-0.0011432950850576162,-0.32517382502555847
1769668309806992400,0.681992431640625,-0.08739349246025085,-0.038066692650318146,-0.1781225949525833
1769668309816980500,0.69198046875,-0.1102447509765625,-0.06281518191099167,-0.058999668806791306
1769668309826969300,0.70196923828125,-0.14966991543769836,-0.09309984743595123,0.03937110677361488
1769668309836958500,0.71195849609375,-0.19004318118095398,-0.12233736366033554,0.11709333211183548
1769668309846947300,0.721947265625,-0.2248765230178833,-0.1476142257452011,0.17063592374324799
1769668309856935200,0.73193505859375,-0.23063640296459198,-0.15317463874816895,0.19995519518852234
1769668309866924300,0.74192431640625,-0.22294387221336365,-0.13294446468353271,0.21546544134616852
1769668309876913400,0.751913330078125,-0.19317318499088287,-0.09529536217451096,0.2218991070985794
1769668309886902300,0.76190234375,-0.15672516822814941,-0.06416034698486328,0.20844827592372894
1769668309896891400,0.771891357421875,-0.123601034283638,-0.04225637763738632,0.17684108018875122
1769668309906879500,0.78187939453125,-0.09779979288578033,-0.03224688395857811,0.14024898409843445
1769668309916868000,0.7918681640625,-0.08052227646112442,-0.0222720168530941,0.10595359653234482
1769668309926857200,0.801857177734375,-0.0698576420545578,-0.01528627797961235,0.08065170049667358
1769668309936846300,0.811846435546875,-0.058520834892988205,-0.017784057185053825,0.0645907074213028
1769668309946835200,0.821835205078125,-0.042992740869522095,-0.0065324679017066956,0.04536934569478035
1769668309956823300,0.8318232421875,-0.02353248931467533,0.004589159041643143,0.029285451397299767
1769668309966812400,0.8418125,-0.009031844325363636,0.017176058143377304,0.007010505069047213
1769668309976801300,0.85180126953125,-0.0031944618094712496,0.01630653440952301,-0.018858110532164574
1769668309986790400,0.861790283203125,-0.004264253657311201,0.009682455100119114,-0.0389319509267807
1769668309996778200,0.8717783203125,-0.005310343112796545,0.008197209797799587,-0.052793972194194794
1769668310006767400,0.881767333984375,-0.003805124433711171,0.014370150864124298,-0.054252054542303085
1769668310016756200,0.891756103515625,-0.010158894583582878,0.009827863425016403,-0.03969867527484894
1769668310026745300,0.901745361328125,-0.012764531187713146,0.0029755497816950083,-0.019661318510770798
1769668310036734500,0.911734375,-0.010869159363210201,-0.007482950109988451,-0.006857639644294977
1769668310046722300,0.921722412109375,-0.005388906225562096,-0.007407316006720066,0.0001579254458192736
1769668310056711400,0.93171142578125,0.003067695302888751,-0.008077367208898067,-0.004546815063804388
1769668310066700300,0.9417001953125,0.008640360087156296,-0.009133577346801758,-0.01798752322793007
1769668310076689200,0.951689208984375,0.010457434691488743,-0.008682171814143658,-0.029761623591184616
1769668310086678300,0.96167822265625,0.0068901302292943,-0.012517656199634075,-0.030530745163559914
1769668310096666400,0.971666259765625,0.0032623722217977047,-0.01587563566863537,-0.026698721572756767
1769668310106655200,0.9816552734375,0.0067780110985040665,-0.006667223758995533,-0.03193023428320885
1769668310116644400,0.991644287109375,0.008935172110795975,0.00019228023302275687,-0.031922247260808945
1769668310126633500,1.001633544921875,0.009286709129810333,-0.0010258496040478349,-0.02287468872964382
1769668310136621300,1.011621337890625,0.003546265186741948,-0.0065284729935228825,-0.01709642820060253
1769668310146610200,1.021610107421875,-0.005360410548746586,-0.011569304391741753,-0.015110243111848831
1769668310156599300,1.031599365234375,-0.015837818384170532,-0.0225034449249506,-0.01613129861652851
1769668310166588400,1.04158837890625,-0.02359960228204727,-0.03266233950853348,-0.016704412177205086
1769668310176577300,1.051577392578125,-0.0279805026948452,-0.03572257608175278,-0.020013654604554176
1769668310186565400,1.0615654296875,-0.033371273428201675,-0.03273371234536171,-0.022657642140984535
1769668310196554500,1.071554443359375,-0.03728611767292023,-0.03513055667281151,-0.02154763601720333
1769668310206543000,1.081543212890625,-0.040587373077869415,-0.03331880643963814,-0.029405292123556137
1769668310216532200,1.0915322265625,-0.0402667298913002,-0.02676849626004696,-0.0426662378013134
1769668310226521300,1.101521240234375,-0.04061214253306389,-0.021856030449271202,-0.056288041174411774
1769668310236509400,1.111509521484375,-0.04536455124616623,-0.020112192258238792,-0.061897456645965576
1769668310246498300,1.121498291015625,-0.05752161517739296,-0.027839619666337967,-0.05883455276489258
1769668310256487400,1.1314873046875,-0.07940800487995148,-0.0344860702753067,-0.046246323734521866
1769668310266476300,1.141476318359375,-0.10393732041120529,-0.04296637699007988,-0.03206392750144005
1769668310276465400,1.15146533203125,-0.12443061172962189,-0.04731212183833122,-0.017009876668453217
1769668310286453200,1.161453369140625,-0.14464187622070312,-0.05162990465760231,-0.006207029335200787
1769668310296442400,1.1714423828125,-0.14532390236854553,-0.04940882697701454,-0.0072986590676009655
1769668310306431200,1.18143115234375,-0.13745026290416718,-0.029223132878541946,-0.011302455328404903
1769668310316420400,1.19142041015625,-0.11834502220153809,-0.017971010878682137,-0.01642211712896824
1769668310326408400,1.201408447265625,-0.11309006810188293,-0.00007909588020993397,0.012308863922953606
1769668310336397300,1.211397216796875,-0.11746937036514282,-0.010809504427015781,0.08679535239934921
1769668310346386400,1.221386474609375,-0.07656215131282806,0.027823641896247864,0.11041146516799927
1769668310356375300,1.231375244140625,-0.0013701963471248746,0.08415482193231583,0.10685694217681885
1769668310366364200,1.2413642578125,0.06493612378835678,0.12070591002702713,0.09309106320142746
1769668310376352300,1.251352294921875,0.10128507763147354,0.15319567918777466,0.07844660431146622
1769668310386341400,1.26134130859375,0.11945289373397827,0.15363270044326782,0.04211629554629326
1769668310396330200,1.271330322265625,0.11957433074712753,0.14835111796855927,0.012565593235194683
1769668310406319400,1.2813193359375,0.08107807487249374,0.09276509284973145,0.013814615085721016
1769668310416307200,1.29130712890625,0.045518215745687485,0.017831727862358093,0.05197345092892647
1769668310426296300,1.30129638671875,0.02869582735002041,0.061142448335886,0.1139042004942894
1769668310436285200,1.31128515625,0.01398825366050005,0.10151490569114685,0.1797785460948944
1769668310446274300,1.3212744140625,-0.011480887420475483,0.1263965517282486,0.16981805860996246
1769668310456263400,1.331263427734375,-0.06797345727682114,0.05149035528302193,0.1923273652791977
1769668310466251300,1.341251220703125,-0.17148014903068542,-0.049313753843307495,0.21846230328083038
1769668310476240400,1.351240478515625,-0.2751122713088989,-0.15014822781085968,0.2909375727176666
1769668310486229500,1.3612294921875,-0.34977343678474426,-0.18584389984607697,0.3830541670322418
1769668310496218000,1.371218017578125,-0.3895094096660614,-0.18502071499824524,0.46110183000564575
1769668310506207200,1.381207275390625,-0.40475520491600037,-0.20171980559825897,0.5769165754318237
1769668310516195300,1.3911953125,-0.3848060071468353,-0.19045382738113403,0.6465835571289062
1769668310526184400,1.401184326171875,-0.3672805428504944,-0.2108677625656128,0.8398987054824829
1769668310536173300,1.41117333984375,-0.3480572998523712,-0.1241200864315033,0.84369957447052
1769668310546162400,1.421162353515625,-0.3038664162158966,-0.06928186863660812,0.7520420551300049
1769668310556150500,1.431150634765625,-0.31343355774879456,-0.10220546275377274,0.6167625188827515
1769668310566139100,1.44113916015625,-0.23910552263259888,-0.027121100574731827,0.3202299475669861
1769668310576128300,1.451128173828125,-0.1379389613866806,0.012122709304094315,0.252581924200058
1769668310586117400,1.461117431640625,-0.06924910843372345,0.06082819774746895,0.13879570364952087
1769668310596106200,1.471106201171875,-0.03686587139964104,0.06047585979104042,0.011411112733185291
1769668310606094300,1.48109423828125,-0.028480110689997673,0.051649611443281174,-0.11849575489759445
1769668310616083500,1.49108349609375,-0.015106248669326305,0.058338671922683716,-0.18116019666194916
1769668310626072300,1.501072265625,0.001278849900700152,0.09658006578683853,-0.1732226461172104
1769668310636061400,1.5110615234375,0.01937769167125225,0.14056457579135895,-0.12156371772289276
1769668310646050300,1.52105029296875,0.03856150805950165,0.17659048736095428,-0.07768520712852478
1769668310656038400,1.531038330078125,0.04673474654555321,0.18522125482559204,-0.04135090112686157
1769668310666027300,1.54102734375,0.04042518883943558,0.16774879395961761,-0.012321913614869118
1769668310676016400,1.551016357421875,0.03153156116604805,0.1624608188867569,0.012081963010132313
1769668310686005200,1.561005126953125,0.03123408555984497,0.17025882005691528,0.023730097338557243
1769668310695993300,1.570993408203125,0.03573189675807953,0.19788990914821625,0.02412211336195469
1769668310705982200,1.580982177734375,0.04861094430088997,0.20898836851119995,0.009586847387254238
1769668310715971300,1.590971435546875,0.050340402871370316,0.20347481966018677,-0.020559336990118027
1769668310725960200,1.600960205078125,0.03833566978573799,0.16701509058475494,-0.051469314843416214
1769668310735949300,1.61094921875,0.030437801033258438,0.15137514472007751,-0.06538939476013184
1769668310745937200,1.620937255859375,0.020485300570726395,0.15287929773330688,-0.06186949089169502
1769668310755926000,1.630926025390625,0.005724730901420116,0.12047261744737625,-0.05373060703277588
1769668310765915100,1.6409150390625,-0.0005502090789377689,0.11115341633558273,-0.038477618247270584
1769668310775904300,1.650904296875,0.000005858954409632133,0.13442544639110565,-0.029111811891198158
1769668310785893000,1.66089306640625,-0.006405435036867857,0.17990584671497345,-0.024706944823265076
1769668310795881200,1.670881103515625,-0.016872722655534744,0.15936888754367828,-0.03248390555381775
1769668310805870300,1.680870361328125,-0.027404991909861565,0.1098008006811142,-0.019459452480077744
1769668310815859200,1.690859130859375,-0.040353283286094666,0.08764542639255524,0.00037230990710668266
1769668310825848000,1.70084814453125,-0.05059606581926346,0.08676072955131531,0.02166747860610485
1769668310835836200,1.710836181640625,-0.06372971087694168,0.07317860424518585,0.03704776614904404
1769668310845825300,1.7208251953125,-0.077454574406147,0.05859353765845299,0.047150202095508575
1769668310855814100,1.730814208984375,-0.08768884092569351,0.03045537695288658,0.05321022495627403
1769668310865803300,1.74080322265625,-0.09458429366350174,0.01152589451521635,0.053098373115062714
1769668310875792400,1.75079248046875,-0.09770392626523972,0.012707805261015892,0.046065229922533035
1769668310885780200,1.7607802734375,-0.08922841399908066,0.01071123406291008,0.032341428101062775
1769668310895769000,1.77076904296875,-0.09664931148290634,0.004839762579649687,0.026996463537216187
1769668310905758200,1.78075830078125,-0.10739117115736008,-0.013980530202388763,0.034153442829847336
1769668310915747000,1.7907470703125,-0.11930455267429352,-0.041186850517988205,0.03464612737298012
1769668310925736200,1.800736083984375,-0.11430393904447556,-0.03791356086730957,0.02431918866932392
1769668310935724300,1.810724365234375,-0.09812230616807938,-0.03239629045128822,0.015935290604829788
1769668310945713400,1.82071337890625,-0.0923464447259903,-0.025309883058071136,0.0028008464723825455
1769668310955702300,1.830702392578125,-0.08849684149026871,-0.003293264890089631,-0.01025636587291956
1769668310965691100,1.840691162109375,-0.08455749601125717,-0.005511678289622068,-0.013658554293215275
1769668310975679200,1.85067919921875,-0.08153001219034195,-0.01356481108814478,-0.005958556663244963
1769668310985668000,1.860668212890625,-0.07574562728404999,-0.011606588959693909,0.005117530468851328
1769668310995657200,1.8706572265625,-0.06711804866790771,-0.00029401297797448933,0.013492372818291187
1769668311005646300,1.880646240234375,-0.061763763427734375,-0.003019491909071803,0.025114674121141434
1769668311015635200,1.89063525390625,-0.05614423006772995,0.011609251610934734,0.02292449027299881
1769668311025623000,1.900623046875,-0.05379505455493927,0.006102367304265499,0.004947886802256107
1769668311035612200,1.910612060546875,-0.04313815012574196,0.015185344032943249,-0.0011283813510090113
1769668311045601000,1.92060107421875,-0.03447355329990387,0.010033193044364452,0.009288839064538479
1769668311055590100,1.930590087890625,-0.030157901346683502,0.009618006646633148,0.007249390706419945
1769668311065579300,1.940579345703125,-0.026824157685041428,0.010522682219743729,0.003008306724950671
1769668311075567400,1.9505673828125,-0.021512215957045555,0.011757589876651764,-0.007486678194254637
1769668311085556200,1.96055615234375,-0.014816762879490852,0.011510714888572693,-0.023079220205545425
1769668311095545300,1.97054541015625,-0.0020607539918273687,0.009474994614720345,-0.03411136567592621
1769668311105534200,1.9805341796875,0.012918728403747082,0.008423312567174435,-0.04652782157063484
1769668311115522000,1.99052197265625,0.035775043070316315,0.027901671826839447,-0.06650925427675247
1769668311125511200,2.00051123046875,0.04409635439515114,0.04162387549877167,-0.06917721033096313
1769668311135500300,2.010500244140625,0.04863544553518295,0.05503981560468674,-0.06985924392938614
1769668311145489200,2.0204892578125,0.05319664254784584,0.06782565265893936,-0.06366020441055298
1769668311155478300,2.030478271484375,0.05294311046600342,0.06991729885339737,-0.055937834084033966
1769668311165466400,2.04046630859375,0.05254869535565376,0.07051624357700348,-0.04898538440465927
1769668311175455000,2.050455078125,0.044555217027664185,0.06733589619398117,-0.03777747228741646
1769668311185444000,2.060444091796875,0.03929281234741211,0.0666075199842453,-0.02743854932487011
1769668311195433200,2.07043310546875,0.029891852289438248,0.06203487515449524,-0.026012692600488663
1769668311205422000,2.080422119140625,0.017720673233270645,0.0525502935051918,-0.024536501616239548
1769668311215410200,2.09041015625,0.005387841258198023,0.03796069696545601,-0.015850868076086044
1769668311225399300,2.1003994140625,-0.008216917514801025,0.034322019666433334,-0.007210774812847376
1769668311235388200,2.11038818359375,-0.016521718353033066,0.016264190897345543,0.005197425372898579
1769668311245377300,2.120377197265625,-0.010330934077501297,0.022160962224006653,0.018326276913285255
1769668311255365000,2.130365234375,-0.00024714134633541107,0.037449635565280914,0.024347949773073196
1769668311265354200,2.140354248046875,0.0035113778430968523,0.04643993824720383,0.02610776759684086
1769668311275343000,2.150343017578125,0.000022370553779182956,0.0530853234231472,0.021441642194986343
1769668311285332200,2.160332275390625,0.004059989005327225,0.05056597292423248,0.013827931135892868
1769668311295321300,2.1703212890625,0.011620436795055866,0.04747990146279335,0.009180182591080666
1769668311305309200,2.18030908203125,0.016459932550787926,0.06808770447969437,0.010388192720711231
1769668311315298000,2.190298095703125,0.023239808157086372,0.08060003817081451,0.003941478207707405
1769668311325287200,2.200287109375,0.030109167098999023,0.09091605991125107,0.0006415555253624916
1769668311335276000,2.210276123046875,0.03226259723305702,0.08731786161661148,-0.004378236830234528
1769668311345265200,2.22026513671875,0.03633137419819832,0.08687178045511246,-0.008473645895719528
1769668311355253200,2.230253173828125,0.04583992436528206,0.09169423580169678,-0.013793842867016792
1769668311365242400,2.240242431640625,0.057789262384176254,0.09908477216959,-0.02111647091805935
1769668311375231200,2.250231201171875,0.061537131667137146,0.10246965289115906,-0.025372734293341637
1769668311385220400,2.260220458984375,0.06082926318049431,0.09764240682125092,-0.02732083760201931
1769668311395208200,2.270208251953125,0.05453461408615112,0.08999434113502502,-0.031154990196228027
1769668311405197000,2.280197021484375,0.05278784781694412,0.0797552838921547,-0.03238270804286003
1769668311415186200,2.290186279296875,0.0495249405503273,0.06755587458610535,-0.031184284016489983
1769668311425175300,2.30017529296875,0.047815993428230286,0.06107880175113678,-0.03473800793290138
1769668311435164200,2.3101640625,0.045155227184295654,0.053220875561237335,-0.02881433814764023
1769668311445152300,2.32015234375,0.034443993121385574,0.045048169791698456,-0.018878350034356117
1769668311455141400,2.330141357421875,0.027534954249858856,0.035533759742975235,-0.003920971881598234
1769668311465130000,2.3401298828125,0.0181766077876091,0.02388988621532917,0.004346278961747885
1769668311475119000,2.350119140625,0.012517922557890415,0.014456969685852528,0.011037470772862434
1769668311485108200,2.360108154296875,0.007905327714979649,0.004718855023384094,0.018127871677279472
1769668311495096300,2.370096435546875,0.007697068154811859,0.0014554174849763513,0.019843479618430138
1769668311505085200,2.380085205078125,0.005533515941351652,0.003478354774415493,0.021853633224964142
1769668311515074300,2.39007421875,0.0019465044606477022,0.00926327332854271,0.030708378180861473
1769668311525063200,2.400063232421875,-0.003168629016727209,0.0018189389957115054,0.03823127597570419
1769668311535051000,2.410051025390625,-0.009069927968084812,-0.01673397235572338,0.03592151403427124
1769668311545040100,2.4200400390625,-0.015279353596270084,-0.02580896019935608,0.030596790835261345
1769668311555029200,2.430029296875,-0.022468291223049164,-0.03524294123053551,0.025257952511310577
1769668311565018000,2.44001806640625,-0.02153751626610756,-0.034270357340574265,0.024883246049284935
1769668311575007200,2.45000732421875,-0.016230102628469467,-0.02780553139746189,0.02231755666434765
1769668311584995300,2.459995361328125,-0.007545268163084984,-0.011744806542992592,0.024173779413104057
1769668311594984200,2.469984130859375,-0.0022362563759088516,-0.004623247776180506,0.023868581280112267
1769668311604973300,2.479973388671875,0.0013757890556007624,0.0006380933918990195,0.012029765173792839
1769668311614962200,2.489962158203125,0.004174771253019571,0.001686579897068441,-0.003034938359633088
1769668311624951000,2.499950927734375,0.01022627204656601,0.011844675056636333,-0.010369816794991493
1769668311634939100,2.509939208984375,0.011067830957472324,0.011628426611423492,-0.003288471372798085
1769668311644928300,2.51992822265625,0.008568720892071724,0.006733004003763199,0.007682420779019594
1769668311654917000,2.529917236328125,0.0021792647894471884,0.0037523938808590174,0.01284495834261179
1769668311664906200,2.53990625,-0.0006652576266787946,0.00070493872044608,0.016625314950942993
1769668311674894000,2.54989404296875,-0.004421113524585962,0.0002790992730297148,0.024280305951833725
1769668311684883200,2.55988330078125,-0.00570023013278842,-0.004886367823928595,0.027298998087644577
1769668311694872000,2.5698720703125,-0.006261890754103661,-0.006788397673517466,0.023454193025827408
1769668311704861200,2.579861083984375,-0.0059420447796583176,-0.0060150157660245895,0.01780775934457779
1769668311714850300,2.589850341796875,-0.008291485719382763,-0.008800149895250797,0.014390124939382076
1769668311724838000,2.599837890625,-0.012271047569811344,-0.012234029360115528,0.021320201456546783
1769668311734826800,2.60982666015625,-0.016381103545427322,-0.02383289486169815,0.03099307045340538
1769668311744815900,2.61981591796875,-0.024334900081157684,-0.03592870756983757,0.04105502367019653
1769668311754804700,2.6298046875,-0.02887772023677826,-0.047739025205373764,0.04786020144820213
1769668311764793900,2.6397939453125,-0.028450017794966698,-0.05427602306008339,0.04838351160287857
1769668311774782000,2.649781982421875,-0.026210298761725426,-0.057140517979860306,0.045763228088617325
1769668311784771000,2.65977099609375,-0.024833710864186287,-0.05114254727959633,0.048718005418777466
1769668311794759700,2.669759765625,-0.017843712121248245,-0.04151495173573494,0.048402152955532074
1769668311804748800,2.679748779296875,-0.00854155607521534,-0.030346985906362534,0.046056173741817474
1769668311814737000,2.68973681640625,0.0008202536264434457,-0.017489511519670486,0.04151654988527298
1769668311824725800,2.699725830078125,0.005291168577969074,-0.008243282325565815,0.03857988119125366
1769668311834715000,2.70971484375,0.00827763695269823,-0.008804144337773323,0.031087080016732216
1769668311844704000,2.7197041015625,0.00723607512190938,-0.015985358506441116,0.01732705906033516
1769668311854692900,2.72969287109375,0.008319981396198273,-0.01588708721101284,0.007678692229092121
1769668311864680700,2.7396806640625,0.011784487403929234,-0.006628075148910284,0.0022479742765426636
1769668311874669800,2.749669921875,0.013284645974636078,-0.002127066720277071,0.0004961469094268978
1769668311884658700,2.75965869140625,0.0070613715797662735,0.0011403656098991632,-0.004021639470010996
1769668311894647800,2.769647705078125,-0.0016636766958981752,-0.009482983499765396,-0.008217183873057365
1769668311904637000,2.779636962890625,-0.009005213156342506,-0.01896010898053646,-0.012693691067397594
1769668311914625000,2.789625,-0.011895807459950447,-0.023422768339514732,-0.014008493162691593
1769668311924614000,2.79961376953125,-0.01438320055603981,-0.026011893525719643,-0.010234261862933636
1769668311934603000,2.80960302734375,-0.017827466130256653,-0.02985430136322975,-0.008124505169689655
1769668311944592000,2.819591796875,-0.01985573023557663,-0.03050224855542183,-0.00971387978643179
1769668311954579700,2.829579833984375,-0.023666713386774063,-0.0385146364569664,-0.015376559458673
1769668311964568800,2.83956884765625,-0.02148664928972721,-0.03873168304562569,-0.02172047458589077
1769668311974558000,2.849557861328125,-0.02070288173854351,-0.03675322234630585,-0.023150060325860977
1769668311984546800,2.859546875,-0.020437363535165787,-0.04617468640208244,-0.021346300840377808
1769668311994536000,2.869535888671875,-0.020174244418740273,-0.0408632755279541,-0.018551846966147423
1769668312004523800,2.879523681640625,-0.018503110855817795,-0.04090588912367821,-0.015441274270415306
1769668312014513000,2.889512939453125,-0.015786953270435333,-0.03298857435584068,-0.014052968472242355
1769668312024501800,2.899501708984375,-0.012426575645804405,-0.025172464549541473,-0.011812984012067318
1769668312034491000,2.909490966796875,-0.009967412799596786,-0.016385098919272423,-0.0087205208837986
1769668312044479700,2.919479736328125,-0.006655772216618061,-0.008649414405226707,-0.005804359447211027
1769668312054467800,2.9294677734375,-0.005021922755986452,-0.005053082015365362,0.00020532972121145576
1769668312064457000,2.93945703125,-0.002144377212971449,-0.01130964607000351,0.0031132353469729424
1769668312074446000,2.949446044921875,-0.0049825082533061504,-0.014214621856808662,0.0052147358655929565
1769668312084434700,2.9594345703125,-0.007468036375939846,-0.01841655746102333,0.007963650859892368
1769668312094422800,2.9694228515625,-0.0060264673084020615,-0.015846075490117073,0.002630404196679592
1769668312104412000,2.979411865234375,-0.005113801918923855,-0.007890679873526096,-0.0005816344055347145
1769668312114400800,2.98940087890625,-0.004156661685556173,-0.006591590121388435,-0.004260525107383728
1769668312124390000,2.999389892578125,-0.003013899317011237,0.0022983080707490444,-0.010024404153227806
1769668312134379000,3.00937890625,0.003573695896193385,0.007518636528402567,-0.018570221960544586
1769668312144367000,3.0193671875,0.012259329669177532,0.004266384057700634,-0.015910256654024124
1769668312154355700,3.029355712890625,0.016468722373247147,0.006158826407045126,-0.017769142985343933
1769668312164344800,3.0393447265625,0.02339986525475979,0.008302670903503895,-0.019773704931139946
1769668312174333700,3.049333740234375,0.028854284435510635,0.005003014579415321,-0.02249838411808014
1769668312184322800,3.05932275390625,0.03695748373866081,0.008547681383788586,-0.02743029221892357
1769668312194311000,3.069310791015625,0.03844539448618889,0.012612464837729931,-0.02652668207883835
1769668312204300000,3.079300048828125,0.039922915399074554,0.01056129764765501,-0.024326644837856293
1769668312214289000,3.089288818359375,0.04273361340165138,0.010863034054636955,-0.02352689765393734
1769668312224278000,3.099278076171875,0.04352350905537605,0.010565824806690216,-0.020847758278250694
1769668312234265900,3.109265869140625,0.04381272941827774,-0.0035534559283405542,-0.014732340350747108
1769668312244254700,3.119254638671875,0.04218021035194397,-0.008489358238875866,-0.010466755367815495
1769668312254243800,3.129243896484375,0.04161535203456879,-0.010637996718287468,-0.005406217183917761
1769668312264233000,3.13923291015625,0.03750210255384445,-0.01944400556385517,0.00011211907985853031
1769668312274221800,3.149221923828125,0.03362959995865822,-0.02798289805650711,0.003404052462428808
1769668312284210000,3.1592099609375,0.028065189719200134,-0.02713361568748951,0.00788748450577259
1769668312294198800,3.16919873046875,0.023868048563599586,-0.028653481975197792,0.01040603592991829
1769668312304187600,3.179187744140625,0.01683863438665867,-0.035295672714710236,0.006560697220265865
1769668312314176800,3.1891767578125,0.009997506625950336,-0.034744132310152054,-0.0007845672662369907
1769668312324166000,3.199165771484375,0.006881874520331621,-0.025529062375426292,-0.00686136819422245
1769668312334154000,3.209154052734375,0.00464668357744813,-0.02407737262547016,-0.012171978130936623
1769668312344142800,3.219142822265625,0.0010836402652785182,-0.02502412721514702,-0.012944294139742851
1769668312354132000,3.229132080078125,-0.0027928571216762066,-0.030849792063236237,-0.012147210538387299
1769668312364121000,3.23912109375,-0.0033401367254555225,-0.03971279039978981,-0.01200952474027872
1769668312374110000,3.24910986328125,-0.0008178567513823509,-0.05307653546333313,-0.014672419987618923
1769668312384097800,3.259097900390625,0.00284984870813787,-0.051298875361680984,-0.007823036052286625
1769668312394087000,3.2690869140625,0.0065684206783771515,-0.052141498774290085,-0.0067657604813575745
1769668312404075800,3.27907568359375,0.011929896660149097,-0.04689400643110275,-0.01152775902301073
1769668312414065000,3.28906494140625,0.01531663816422224,-0.04610464349389076,-0.02057851105928421
1769668312424053000,3.299052978515625,0.021323397755622864,-0.03524453938007355,-0.02556794509291649
1769668312434041900,3.309041748046875,0.024467259645462036,-0.029289977625012398,-0.019172096624970436
1769668312444030700,3.31903076171875,0.027644410729408264,-0.02407524175941944,-0.004926581867039204
1769668312454019800,3.329019775390625,0.026644393801689148,-0.026789270341396332,0.007645136676728725
1769668312464008700,3.3390087890625,0.020722588524222374,-0.037882402539253235,0.012495817616581917
1769668312473996800,3.348996826171875,0.013605557382106781,-0.046179480850696564,0.013412744738161564
1769668312483986000,3.35898583984375,0.011125088669359684,-0.0466226302087307,0.01883600652217865
1769668312493975000,3.36897509765625,0.01270034909248352,-0.04711717739701271,0.020731110125780106
1769668312503964000,3.3789638671875,0.01287398673593998,-0.046313703060150146,0.026205237954854965
1769668312513953000,3.388953125,0.018800320103764534,-0.04415920376777649,0.02953871712088585
1769668312523940900,3.39894091796875,0.022723421454429626,-0.04626443237066269,0.029916886240243912
1769668312533929700,3.4089296875,0.02484436333179474,-0.040941573679447174,0.024867532774806023
1769668312543918800,3.4189189453125,0.02388642355799675,-0.042746663093566895,0.014971492812037468
1769668312553908000,3.428907958984375,0.021694110706448555,-0.035111114382743835,0.010696586221456528
1769668312563896000,3.43889599609375,0.020773455500602722,-0.026925357058644295,0.013159211724996567
1769668312573885000,3.448885009765625,0.01962163858115673,-0.031012510880827904,0.014219149947166443
1769668312583873800,3.458873779296875,0.019576897844672203,-0.03152143955230713,0.01582237333059311
1769668312593862700,3.468862548828125,0.021563349291682243,-0.030528880655765533,0.019697804003953934
1769668312603851800,3.478851806640625,0.026687802746891975,-0.014610367827117443,0.020836573094129562
1769668312613840000,3.48883984375,0.03257099166512489,0.0007896272582001984,0.020307401195168495
1769668312623829000,3.4988291015625,0.0462079755961895,0.012387960217893124,0.029170135036110878
1769668312633817900,3.50881787109375,0.04063104838132858,0.029292641207575798,0.03315955027937889
1769668312643807000,3.518806884765625,0.025417208671569824,0.02033110335469246,0.012809538282454014
1769668312653795800,3.5287958984375,0.0253349170088768,0.020445087924599648,-0.012645487673580647
1769668312663783700,3.53878369140625,0.03287272900342941,0.0343683585524559,-0.015121961012482643
1769668312673772800,3.548772705078125,0.03875325620174408,0.04232189059257507,-0.013826332986354828
1769668312683762000,3.558761962890625,0.041015077382326126,0.048891376703977585,-0.02034468576312065
1769668312693750800,3.568750732421875,0.04627135768532753,0.05139155313372612,-0.023065105080604553
1769668312703740000,3.578739990234375,0.05308984965085983,0.05979462340474129,-0.03316035121679306
1769668312713728000,3.58872802734375,0.05524807423353195,0.06522880494594574,-0.04846340790390968
1769668312723716600,3.598716552734375,0.052984919399023056,0.06163273751735687,-0.06167161837220192
1769668312733705700,3.608705810546875,0.04586735740303993,0.05216173827648163,-0.07107523828744888
1769668312743694800,3.61869482421875,0.03696547448635101,0.04724234715104103,-0.0727386549115181
1769668312753682700,3.6286826171875,0.031922779977321625,0.046119026839733124,-0.06503013521432877
1769668312763671600,3.638671630859375,0.021997444331645966,0.04722477123141289,-0.05974802002310753
1769668312773660700,3.64866064453125,0.012525911442935467,0.045648712664842606,-0.05157477781176567
1769668312783649800,3.65864990234375,0.0018072210950776935,0.034436002373695374,-0.052191298454999924
1769668312793638700,3.668638671875,-0.0036607813090085983,0.02418070286512375,-0.050220292061567307
1769668312803626800,3.678626708984375,-0.009476592764258385,0.019448265433311462,-0.037102095782756805
1769668312813615900,3.688615966796875,-0.010164487175643444,0.022482939064502716,-0.011715511791408062
1769668312823604500,3.6986044921875,-0.009310144931077957,0.022638466209173203,0.008463792502880096
1769668312833593600,3.708593505859375,-0.013316071592271328,0.013631124049425125,0.02124803140759468
1769668312843582700,3.718582763671875,-0.020364927127957344,-0.010588728822767735,0.0265961904078722
1769668312853570800,3.72857080078125,-0.025103222578763962,-0.025470206514000893,0.027184749022126198
1769668312863559700,3.7385595703125,-0.02057851105928421,-0.028115257620811462,0.02231835573911667
1769668312873548800,3.748548828125,-0.011619904078543186,-0.023617444559931755,0.02213885821402073
1769668312883537700,3.75853759765625,-0.006342051550745964,-0.02147466503083706,0.023094667121767998
1769668312893525500,3.768525390625,-0.0034320156555622816,-0.023845678195357323,0.02311650477349758
1769668312903514600,3.7785146484375,0.0011664645280689,-0.017520936205983162,0.015284414403140545
1769668312913503700,3.788503662109375,0.0054509579204022884,-0.005088767968118191,-0.001958222361281514
1769668312923492600,3.79849267578125,0.011855860240757465,0.006353503558784723,-0.013264939188957214
1769668312933481700,3.808481689453125,0.013657488860189915,0.006176935974508524,-0.014734471216797829
1769668312943469800,3.8184697265625,0.014339257963001728,0.010398046113550663,-0.005616340320557356
1769668312953458700,3.828458740234375,0.01468680053949356,0.019240006804466248,0.010427340865135193
1769668312963447800,3.83844775390625,0.018498582765460014,0.030122216790914536,0.029678000137209892
1769668312973436700,3.848436767578125,0.021516211330890656,0.043052926659584045,0.03898894414305687
1769668312983425500,3.858425537109375,0.02353701740503311,0.048539306968450546,0.03283997252583504
1769668312993413600,3.86841357421875,0.015984026715159416,0.04182414710521698,0.024448085576295853
1769668313003402800,3.87840283203125,0.007996140979230404,0.029808761551976204,0.016161659732460976
1769668313013391600,3.8883916015625,-0.0006018743733875453,0.01414351537823677,0.017116935923695564
1769668313023380700,3.898380615234375,-0.009428123012185097,0.006298375781625509,0.014142450876533985
1769668313033369900,3.908369873046875,-0.015079882927238941,0.009648898616433144,0.014195447787642479
1769668313043357700,3.918357666015625,-0.022942068055272102,0.004248274490237236,0.026463031768798828
1769668313053346600,3.9283466796875,-0.03470498323440552,-0.006973487325012684,0.03148868307471275
1769668313063335700,3.938335693359375,-0.04276344180107117,-0.019834425300359726,0.03590713441371918
1769668313073324800,3.94832470703125,-0.049260225147008896,-0.022166289389133453,0.03833647072315216
1769668313083313700,3.958313720703125,-0.0503755547106266,-0.025169268250465393,0.040527984499931335
1769668313093301800,3.9683017578125,-0.048600826412439346,-0.02582334168255329,0.04493125528097153
1769668313103291000,3.978290771484375,-0.042268894612789154,-0.02118518017232418,0.04466147720813751
1769668313113279500,3.988279541015625,-0.03133821487426758,-0.013198626227676868,0.041379399597644806
1769668313123268600,3.9982685546875,-0.020549217239022255,-0.004495415836572647,0.030832214280962944
1769668313133256700,4.008256591796875,-0.005933256354182959,0.0059654805809259415,0.01793612353503704
1769668313143245800,4.018245849609375,0.0021441110875457525,0.01335521973669529,0.007501858286559582
1769668313153234700,4.028234619140625,0.008784170262515545,0.02225763536989689,-0.002650910522788763
1769668313163223800,4.038223876953125,0.012601546011865139,0.029831930994987488,-0.011690477840602398
1769668313173212700,4.048212646484375,0.014876417815685272,0.0388917401432991,-0.01624421775341034
1769668313183200500,4.058200439453125,0.016472715884447098,0.03632871434092522,-0.018215755000710487
1769668313193189600,4.068189697265625,0.010016148909926414,0.0332154780626297,-0.013487845659255981
1769668313203178800,4.0781787109375,0.000815193576272577,0.041182324290275574,-0.01034664735198021
1769668313213167600,4.088167724609375,-0.003029079409316182,0.03304104134440422,-0.008838765323162079
1769668313223156700,4.09815673828125,-0.006956975441426039,0.033063944429159164,-0.00914236530661583
1769668313233144800,4.108144775390625,-0.011129350401461124,0.028655080124735832,-0.007524761371314526
1769668313243133700,4.1181337890625,-0.012795157730579376,0.02249758504331112,-0.004291417542845011
1769668313253122800,4.128122802734375,-0.013554158620536327,0.018856246024370193,0.004035487771034241
1769668313263111700,4.138111572265625,-0.012432434596121311,0.02267761528491974,0.01654116064310074
1769668313273100500,4.1481005859375,-0.0073047843761742115,0.02642068825662136,0.025074992328882217
1769668313283088600,4.158088623046875,-0.005053082015365362,0.01853293739259243,0.024841433390975
1769668313293077800,4.168077880859375,-0.007502923719584942,0.010280334390699863,0.01284442562609911
1769668313303066600,4.178066650390625,-0.0034469293896108866,0.005310875829309225,-0.00313560594804585
1769668313313055700,4.1880556640625,0.001463939668610692,0.010603642091155052,-0.0076065207831561565
1769668313323043600,4.198043701171875,0.007245662156492472,0.020180901512503624,-0.002695651724934578
1769668313333032700,4.20803271484375,0.005620601586997509,0.019287677481770515,0.004197141621261835
1769668313343021600,4.218021484375,0.001207743538543582,0.014771489426493645,0.007861651480197906
1769668313353010700,4.2280107421875,-0.0034762241411954165,0.011441739276051521,0.004462658893316984
1769668313362999600,4.23799951171875,-0.0021904499735683203,0.012595686130225658,-0.0023369237314909697
1769668313372987600,4.247987548828125,0.0013233247445896268,0.02418150193989277,-0.0027390611357986927
1769668313382976800,4.257976806640625,0.0015281217638403177,0.027213778346776962,-0.0016229304019361734
1769668313392966000,4.2679658203125,0.002635730430483818,0.0241980142891407,-0.002703374717384577
1769668313402954800,4.277954833984375,0.0056925066746771336,0.02551521360874176,-0.003930559381842613
1769668313412943600,4.287943603515625,0.0075609805062413216,0.026383137330412865,-0.004733768757432699
1769668313422931700,4.297931640625,0.00896712951362133,0.02051033452153206,-0.004877313040196896
1769668313432920600,4.307920654296875,0.006907440721988678,0.01744610257446766,-0.004453337751328945
1769668313442909700,4.31790966796875,0.006354302167892456,0.014405837282538414,-0.00301736150868237
1769668313452898800,4.32789892578125,0.005161472596228123,0.01690095290541649,-0.00222001108340919
1769668313462887700,4.3378876953125,0.0011025486746802926,0.01672385260462761,-0.0025947177782654762
1769668313472875500,4.34787548828125,-0.0019952403381466866,0.014978150837123394,-0.004530036821961403
1769668313482864600,4.35786474609375,-0.006229932885617018,0.009535448625683784,-0.00296329939737916
1769668313492853800,4.367853759765625,-0.008994027972221375,0.004494616761803627,-0.0009693906176835299
1769668313502842600,4.377842529296875,-0.009670470841228962,0.004050401505082846,0.005290369503200054
1769668313512830700,4.387830810546875,-0.008946623653173447,0.013513412326574326,0.009344233199954033
1769668313522819800,4.39781982421875,-0.005107410252094269,0.01492009311914444,0.012705142609775066
1769668313532808700,4.40780859375,-0.005541505757719278,0.013628726825118065,0.011884888634085655
1769668313542797800,4.4177978515625,-0.004062119405716658,0.015207448974251747,0.009453955106437206
1769668313552786700,4.42778662109375,-0.004014449194073677,0.015104384161531925,0.007765245158225298
1769668313562774800,4.43777490234375,-0.006642189808189869,0.009680856950581074,0.010415622964501381
1769668313572763600,4.447763671875,-0.009440107271075249,0.005005944054573774,0.01420370303094387
1769668313582752800,4.457752685546875,-0.009222260676324368,0.0033926009200513363,0.009763947688043118
1769668313592741600,4.46774169921875,-0.010191384702920914,0.0007440872141160071,0.003070891136303544
1769668313602730800,4.477730712890625,-0.01016768254339695,0.00029108350281603634,-0.005197691265493631
1769668313612718600,4.487718505859375,-0.011117898859083652,-0.0009656621841713786,-0.009909622371196747
1769668313622707700,4.497707763671875,-0.01071176677942276,0.00020959076937288046,-0.01212883461266756
1769668313632696600,4.507696533203125,-0.013612215407192707,-0.000517718493938446,-0.008636098355054855
1769668313642685700,4.517685791015625,-0.014721954241394997,-0.0016391756944358349,-0.003971838392317295
1769668313652674600,4.527674560546875,-0.01543648075312376,-0.004179564770311117,0.005489307455718517
1769668313662662700,4.53766259765625,-0.013993579894304276,-0.0071157002821564674,0.009702428244054317
1769668313672651800,4.54765185546875,-0.011335479095578194,0.003230147995054722,0.006343649700284004
1769668313682641000,4.557640869140625,-0.009071525186300278,0.005310076754540205,-0.003296460723504424
1769668313692629800,4.567629638671875,-0.008211856707930565,0.005191300064325333,-0.011904596351087093
1769668313702618600,4.57761865234375,-0.008255266584455967,0.000049801110435510054,-0.016470320522785187
1769668313712606700,4.587606689453125,-0.009225988760590553,0.004181162919849157,-0.017311612144112587
1769668313722595600,4.597595703125,-0.009736250154674053,0.0054605454206466675,-0.011464908719062805
1769668313732586500,4.60758642578125,-0.014621020294725895,0.004199006129056215,-0.005817409139126539
1769668313742575400,4.617575439453125,-0.015059110708534718,0.008293350227177143,0.0016330503858625889
1769668313752563200,4.627563232421875,-0.018199244514107704,0.0027688886038959026,0.005520200356841087
1769668313762552300,4.63755224609375,-0.02359347604215145,0.0036048549227416515,0.0027470507193356752
1769668313772541200,4.647541259765625,-0.03473161533474922,0.0022977753542363644,-0.007504255045205355
1769668313782530300,4.6575302734375,-0.044375188648700714,-0.0001155811914941296,-0.015484684146940708
1769668313792519400,4.66751953125,-0.05272446572780609,-0.007444067858159542,-0.016187759116292
1769668313802507500,4.677507568359375,-0.054775629192590714,-0.011712849140167236,-0.005949501879513264
1769668313812496400,4.687496337890625,-0.04767724126577377,-0.015896940603852272,0.009611881338059902
1769668313822485200,4.6974853515625,-0.03975646570324898,-0.024576183408498764,0.020185695961117744
1769668313832474000,4.70747412109375,-0.03458487614989281,-0.029741650447249413,0.02261503040790558
1769668313842463200,4.717463134765625,-0.02564277872443199,-0.020562266930937767,0.022009162232279778
1769668313852451300,4.727451416015625,-0.014129134826362133,-0.004790760576725006,0.025493908673524857
1769668313862440400,4.7374404296875,-0.005014199763536453,0.005571332760155201,0.026756778359413147
1769668313872429300,4.74742919921875,0.005571599118411541,0.013974671252071857,0.015630891546607018
1769668313882418400,4.75741845703125,0.006087986286729574,0.01774890348315239,-0.011663846671581268
1769668313892407300,4.7674072265625,0.006896255537867546,0.01588229276239872,-0.037334054708480835
1769668313902395100,4.77739501953125,0.005350290797650814,0.015249527059495449,-0.04514164477586746
1769668313912384300,4.78738427734375,0.0035356127191334963,0.015797339379787445,-0.03850611299276352
1769668313922373400,4.797373291015625,0.0004966795677319169,0.015354988165199757,-0.026102973148226738
1769668313932362200,4.8073623046875,-0.0016500946367159486,0.015312643721699715,-0.015511848032474518
1769668313942350300,4.817350341796875,-0.007773500867187977,0.014819426462054253,-0.01034718006849289
1769668313952339500,4.82733935546875,-0.012917130254209042,0.015592275187373161,-0.009410013444721699
1769668313962328300,4.837328369140625,-0.01543488260358572,0.03128894791007042,-0.008250473067164421
1769668313972317200,4.847317138671875,-0.01417600642889738,0.014898255467414856,0.0037023264449089766
1769668313982306300,4.857306396484375,-0.012484099715948105,0.008200405165553093,0.0025214808993041515
1769668313992294400,4.86729443359375,-0.010790595784783363,0.001540638622827828,0.004723382648080587
1769668314002283300,4.877283203125,-0.01016714982688427,-0.00830666534602642,0.006740460637956858
1769668314012272400,4.8872724609375,-0.001984853995963931,-0.010609767399728298,0.010690993629395962
1769668314022261500,4.897261474609375,0.002784601179882884,-0.0012985573848709464,0.01341780461370945
1769668314032250400,4.90725048828125,0.008683502674102783,0.006953513715416193,0.01176238339394331
1769668314042238200,4.91723828125,0.011110441759228706,0.01570865511894226,0.006816360633820295
1769668314052227300,4.927227294921875,0.006518619135022163,0.011951734311878681,0.004079962614923716
1769668314062216200,4.93721630859375,-0.00006231796578504145,0.0019076223252341151,0.0049247173592448235
1769668314072205300,4.947205322265625,-0.00503949960693717,-0.0024927188642323017,0.010706440545618534
1769668314082194400,4.9571943359375,-0.00566960358992219,0.004375307355076075,0.013709953054785728
1769668314092182300,4.967182373046875,-0.0021888520568609238,0.010093647055327892,0.01323990523815155
1769668314102171400,4.97717138671875,0.0020096213556826115,0.015205584466457367,0.00800173357129097
1769668314112160300,4.98716015625,0.000150202278746292,0.013104350306093693,0.0020756677258759737
1769668314122149000,4.997149169921875,-0.0036341496743261814,0.01321300771087408,0.0003760383406188339
1769668314132138200,5.00713818359375,-0.0007235808880068362,0.014366156421601772,-0.0001917476038215682
1769668314142126300,5.017126220703125,-0.0005880259559489787,0.01335868239402771,0.00026604978484101593
1769668314152115500,5.027115478515625,-0.000606934423558414,0.012020709924399853,-0.001252750982530415
1769668314162104300,5.037104248046875,0.005111937876790762,0.016643958166241646,-0.0052024852484464645
1769668314172093400,5.047093505859375,0.006488792132586241,0.01786821335554123,-0.003907922655344009
1769668314182081300,5.057081298828125,0.004225904121994972,0.018019214272499084,-0.004322044085711241
1769668314192070100,5.067070068359375,0.0024578312877565622,0.01635740138590336,-0.006420615129172802
1769668314202059300,5.077059326171875,-0.0016825852217152715,0.015588547103106976,-0.009590841829776764
1769668314212048400,5.08704833984375,-0.003754790872335434,0.01107422262430191,-0.012380503118038177
1769668314222037200,5.097037353515625,-0.0018724685069173574,0.010818825103342533,-0.007498662453144789
1769668314232025300,5.107025390625,0.0018431737553328276,0.011798336170613766,-0.0035662390291690826
1769668314242014500,5.117014404296875,0.005772135220468044,0.013308348134160042,-0.0021222729701548815
1769668314252003300,5.12700341796875,0.006381200160831213,0.00812344066798687,-0.0034549187403172255
1769668314261992200,5.1369921875,0.00809334684163332,0.011876367032527924,-0.011055846698582172
1769668314271981300,5.146981201171875,0.009849168360233307,0.014548316597938538,-0.017841847613453865
1769668314281969400,5.156969482421875,0.009490706957876682,0.017406687140464783,-0.014878815039992332
1769668314291958300,5.166958251953125,0.011895009316504002,0.018513763323426247,-0.010064885020256042
1769668314301947400,5.176947509765625,0.011240670457482338,0.01792653650045395,-0.0022945795208215714
1769668314311936300,5.186936279296875,0.01022946834564209,0.015415174886584282,0.002754773711785674
1769668314321925400,5.19692529296875,0.00748960766941309,0.013904896564781666,0.0028426581993699074
1769668314331913200,5.206913330078125,0.005916744936257601,0.013885188847780228,-0.0016437029698863626
1769668314341902300,5.21690234375,0.0065231467597186565,0.014989868737757206,-0.008595352061092854
1769668314351891200,5.22689111328125,0.007150853984057903,0.019632823765277863,-0.017734255641698837
1769668314361880300,5.23688037109375,0.007722900714725256,0.014771223068237305,-0.01912948675453663
1769668314371869400,5.246869384765625,0.00651568965986371,0.007318100426346064,-0.009644371457397938
1769668314381857300,5.256857177734375,0.009615609422326088,0.00023196132679004222,0.0011238539591431618
1769668314391846400,5.266846435546875,0.01531663816422224,-0.003305515507236123,0.00447064870968461
1769668314401835500,5.27683544921875,0.016450878232717514,-0.0033846113365143538,0.004017910920083523
1769668314411824000,5.28682421875,0.01955878734588623,-0.0004191815387457609,0.0034463966730982065
1769668314421812200,5.296812255859375,0.02135801874101162,0.0013851100811734796,-0.002755839144811034
1769668314431801300,5.30680126953125,0.01685567945241928,-0.002379800658673048,-0.007537278346717358
1769668314441790500,5.31679052734375,0.010513094253838062,-0.009644904173910618,-0.005446697119623423
1769668314451779300,5.326779296875,0.00256409146822989,-0.02089116722345352,0.005104480776935816
1769668314461768400,5.3367685546875,-0.0013696637470275164,-0.02575383335351944,0.013398629613220692
1769668314471756300,5.34675634765625,-0.0012945625931024551,-0.027693679556250572,0.0207673292607069
1769668314481745200,5.3567451171875,0.00016671388584654778,-0.02611762098968029,0.021638449281454086
1769668314491734300,5.366734375,0.005891445092856884,-0.018276741728186607,0.01859978400170803
1769668314501723400,5.376723388671875,0.00686136819422245,-0.017582722008228302,0.01326919998973608
1769668314511712300,5.386712158203125,0.00851332675665617,-0.013309946283698082,0.005408081226050854
1769668314521700400,5.396700439453125,0.00762915750965476,-0.011532286182045937,-0.0014386395923793316
1769668314531689500,5.406689453125,0.008107727393507957,-0.012718725018203259,-0.0029148298781365156
1769668314541678300,5.41667822265625,0.0037348170299082994,-0.016872989013791084,0.0015331818722188473
1769668314551667200,5.426667236328125,0.0024051007349044085,-0.01938594877719879,0.0036397422663867474
1769668314561656300,5.43665625,0.00047351003740914166,-0.022427810356020927,0.007074953522533178
1769668314571644400,5.44664453125,0.002049835165962577,-0.0179398525506258,0.006330067757517099
1769668314581633300,5.45663330078125,0.0076035913079977036,-0.014707307331264019,-0.0005853627808392048
1769668314591622400,5.466622314453125,0.00993332453072071,-0.01798805594444275,-0.006394516211003065
1769668314601611300,5.476611328125,0.00950801745057106,-0.017858626320958138,-0.009944776073098183
1769668314611599000,5.48659912109375,0.005658152047544718,-0.023036343976855278,-0.010063286870718002
1769668314621588200,5.496588134765625,0.00039947417099028826,-0.03169720992445946,-0.011235876940190792
1769668314631577300,5.506577392578125,-0.003489539958536625,-0.03287326171994209,-0.009236641228199005
1769668314641566200,5.516566162109375,-0.004704207647591829,-0.03146684542298317,-0.0067809405736625195
1769668314651555300,5.526555419921875,-0.006409962195903063,-0.028656411916017532,-0.00430020596832037
1769668314661543400,5.53654345703125,-0.005606220569461584,-0.02371331863105297,0.0009984191274270415
1769668314671532300,5.5465322265625,0.001407480682246387,-0.0181672852486372,-0.001454884884878993
1769668314681521400,5.556521484375,0.009082444943487644,-0.009953830391168594,-0.004351605195552111
1769668314691510500,5.566510498046875,0.018018681555986404,-0.005592638161033392,-0.008256332017481327
1769668314701499100,5.5764990234375,0.024110928177833557,-0.0016639430541545153,-0.011067031882703304
1769668314711487200,5.5864873046875,0.030285468325018883,0.0024109596852213144,-0.00848722830414772
1769668314721476400,5.596476318359375,0.03261147439479828,0.006077866069972515,-0.011710451915860176
1769668314731464000,5.6064638671875,0.03075658157467842,-0.0014266553334891796,-0.013492639176547527
1769668314741453000,5.616453125,0.022291190922260284,-0.00993438996374607,-0.01636672206223011
1769668314751441700,5.626441650390625,0.014964834786951542,-0.02696557156741619,-0.017663948237895966
1769668314761429800,5.6364296875,0.00768881244584918,-0.023808659985661507,-0.00902811624109745
1769668314771419000,5.6464189453125,0.002029328839853406,-0.027060646563768387,0.006079197861254215
1769668314781407700,5.65640771484375,-0.003920971881598234,-0.02899996004998684,0.014725150540471077
1769668314791396900,5.66639697265625,-0.008481902070343494,-0.03617238625884056,0.016340358182787895
1769668314801386000,5.676385986328125,-0.008841162547469139,-0.0407322496175766,0.016987506300210953
1769668314811373800,5.686373779296875,-0.006136721931397915,-0.03388446196913719,0.014123009517788887
1769668314821362700,5.69636279296875,-0.0006340986583381891,-0.0255154799669981,0.010762366466224194
1769668314831351800,5.706351806640625,0.003369697602465749,-0.020683174952864647,0.005690908990800381
1769668314841340700,5.716340576171875,0.004878644831478596,-0.020324978977441788,-0.0005864280392415822
1769668314851329800,5.726329833984375,0.007919441908597946,-0.023487215861678123,-0.009591640904545784
1769668314861318000,5.73631787109375,0.012012721039354801,-0.01272618118673563,-0.02191195636987686
1769668314871307000,5.74630712890625,0.018129203468561172,-0.007949802093207836,-0.024503478780388832
1769668314881296000,5.7562958984375,0.01973375678062439,-0.0019297265680506825,-0.023996146395802498
1769668314891285000,5.766284912109375,0.016876185312867165,-0.0017859158106148243,-0.020561734214425087
1769668314901272800,5.77627294921875,0.011651862412691116,-0.006681338418275118,-0.01811668649315834
1769668314911261700,5.78626171875,0.0036005936563014984,-0.012732040137052536,-0.012632704339921474
1769668314921250800,5.796250732421875,-0.0005808354471810162,-0.02213379740715027,-0.004495948553085327
1769668314931240000,5.806239990234375,-0.004707137122750282,-0.022970296442508698,0.00281948852352798
1769668314941228800,5.816228759765625,-0.0020993698853999376,-0.022970829159021378,0.005077050067484379
1769668314951217000,5.826216796875,0.0007225155713967979,-0.023334350436925888,0.003081809962168336
1769668314961205800,5.836205810546875,0.0019712718203663826,-0.023618243634700775,0.0020003002136945724
1769668314971194600,5.846194580078125,0.00580782163888216,-0.02382330782711506,0.0004426173691172153
1769668314981183700,5.856183837890625,0.00809041690081358,-0.027342142537236214,-0.002365685999393463
1769668314991172900,5.8661728515625,0.008945558220148087,-0.03959641233086586,-0.00449887802824378
1769668315001161000,5.876160888671875,0.006733004003763199,-0.0514054000377655,-0.010352506302297115
1769668315011149800,5.88614990234375,0.00811917893588543,-0.04595577344298363,-0.01137169823050499
1769668315021139000,5.896138916015625,0.009584183804690838,-0.036564670503139496,-0.011600996367633343
1769668315031127800,5.9061279296875,0.010240120813250542,-0.03489886224269867,-0.0083071980625391
1769668315041116700,5.91611669921875,0.008193481713533401,-0.03183436393737793,-0.00509808911010623
1769668315051104800,5.926104736328125,0.0028445222415030003,-0.027510985732078552,-0.005824599415063858
1769668315061094000,5.936093994140625,0.0012599414912983775,-0.025485917925834656,-0.004180630203336477
1769668315071082800,5.946082763671875,-0.0022690133191645145,-0.029562152922153473,-0.0017662084428593516
1769668315081071900,5.95607177734375,-0.005792907904833555,-0.03278910368680954,-0.0015638081822544336
1769668315091061000,5.96606103515625,-0.0049553439021110535,-0.03478381410241127,0.0012799152173101902
1769668315101048800,5.976048828125,-0.0013345100451260805,-0.02954857051372528,0.0035217641852796078
1769668315111037700,5.98603759765625,0.0015134743880480528,-0.0242608655244112,0.005675995256751776
1769668315121026800,5.99602685546875,0.0043952809646725655,-0.020051471889019012,0.006365487817674875
1769668315131015700,6.006015625,0.008422513492405415,-0.019090071320533752,0.0049462891183793545
1769668315141004800,6.0160048828125,0.008412659168243408,-0.017598701640963554,0.005362540949136019
1769668315150993000,6.025992919921875,0.00815113727003336,-0.01558082364499569,0.0046384274028241634
1769668315160982000,6.03598193359375,0.008670187555253506,-0.013500628992915154,-0.002692722249776125
1769668315170971000,6.045970947265625,0.008688030764460564,-0.017291106283664703,-0.003612045431509614
1769668315180960000,6.0559599609375,0.005685849115252495,-0.025950640439987183,-0.006415288895368576
1769668315190948600,6.065948486328125,0.006925816647708416,-0.021817680448293686,-0.0029441246297210455
1769668315200936700,6.075936767578125,0.008113053627312183,-0.014902250841259956,0.0021411816123872995
1769668315210925800,6.08592578125,0.010031594894826412,-0.01067821029573679,0.0019126823171973228
1769668315220915000,6.0959150390625,0.008756473660469055,-0.009272327646613121,-0.0016402408946305513
1769668315230903800,6.10590380859375,0.008321046829223633,-0.010715761221945286,-0.006456833798438311
1769668315240892000,6.115891845703125,0.005723399575799704,-0.009679258801043034,-0.008342618122696877
1769668315250880800,6.125880859375,0.004387557972222567,-0.00797057431191206,-0.007597998715937138
1769668315260869600,6.13586962890625,0.002808569697663188,-0.007991613820195198,-0.004403004422783852
1769668315270858800,6.145858642578125,0.0047835698351264,-0.005270395893603563,-0.0041217743419110775
1769668315280848000,6.155847900390625,0.00415346585214138,-0.0030453247018158436,-0.0015728629659861326
1769668315290836000,6.1658359375,0.005335110705345869,0.003756921272724867,-0.006405967753380537
1769668315300824800,6.175824951171875,0.006083725020289421,0.010125071741640568,-0.007276821415871382
1769668315310814000,6.18581396484375,0.005124188028275967,0.011083277873694897,-0.010932808741927147
1769668315320802800,6.195802734375,-0.000016245283404714428,0.011678493581712246,-0.010449178516864777
1769668315330791700,6.205791748046875,-0.0012993563432246447,0.010389789938926697,-0.010389257222414017
1769668315340779800,6.21577978515625,-0.0022719427943229675,0.00635004136711359,-0.00782782956957817
1769668315350769000,6.225768798828125,0.000014381069377122913,0.005928995553404093,-0.005809685681015253
1769668315360757800,6.2357578125,0.001930525409989059,0.008225172758102417,-0.006096241995692253
1769668315370747000,6.245746826171875,0.006672816351056099,0.014395983889698982,-0.006229400169104338
1769668315380736000,6.255736083984375,0.006137521006166935,0.013463078066706657,-0.01031575445085764
1769668315390723600,6.2657236328125,0.00493217445909977,0.010627077892422676,-0.014251107349991798
1769668315400712700,6.275712646484375,0.004107393324375153,0.01324283517897129,-0.01666579581797123
1769668315410701800,6.285701904296875,0.002439721953123808,0.014976819045841694,-0.011637747287750244
1769668315420690700,6.295690673828125,-0.001606418751180172,0.01158475037664175,-0.00418409239500761
1769668315430679800,6.3056796875,-0.007388141471892595,0.0051862397231161594,0.00020346550445538014
1769668315440668000,6.31566796875,-0.012690761126577854,0.004188353195786476,0.0024282701779156923
1769668315450656800,6.32565673828125,-0.009904562495648861,0.005920207127928734,0.00039707732503302395
1769668315460646000,6.33564599609375,-0.00959563534706831,0.008795089088380337,-0.0031854070257395506
1769668315470635000,6.345635009765625,-0.007133543025702238,0.01270061545073986,-0.0065252771601080894
1769668315480623600,6.35562353515625,-0.00006072007090551779,0.02123897522687912,-0.004963865969330072
1769668315490611700,6.36561181640625,0.006947388406842947,0.01756328158080578,-0.0025350630749017
1769668315500600800,6.375600830078125,0.010844658128917217,0.016827182844281197,-0.0029862024821341038
1769668315510590000,6.38558984375,0.015576296485960484,0.022494390606880188,-0.00663553224876523
1769668315520578800,6.395578857421875,0.016275109723210335,0.026402579620480537,-0.010447048582136631
1769668315530567000,6.40556689453125,0.012373312376439571,0.02491813339293003,-0.016649816185235977
1769668315540555800,6.4155556640625,0.005484247580170631,0.020054135471582413,-0.019467974081635475
1769668315550544600,6.425544677734375,0.0013171994360163808,0.017226656898856163,-0.019589412957429886
1769668315560533800,6.43553369140625,-0.0026852653827518225,0.018847191706299782,-0.011208445765078068
1769668315570523000,6.44552294921875,-0.002883138135075569,0.0266603734344244,0.003242398612201214
1769668315580511000,6.455510986328125,-0.0031457259319722652,0.025649171322584152,0.008798285387456417
1769668315590499800,6.465499755859375,-0.003712979145348072,0.020989438518881798,0.006295979022979736
1769668315600489000,6.475489013671875,-0.004111388232558966,0.01997131109237671,-0.0008372978190891445
1769668315610477800,6.485477783203125,-0.0019632822368294,0.01648869551718235,-0.007757255341857672
1769668315620466700,6.495466796875,0.0011616708943620324,0.018940934911370277,-0.011606855317950249
1769668315630454800,6.505454833984375,0.0022186795249581337,0.021496236324310303,-0.009755691513419151
1769668315640444000,6.51544384765625,0.002089516259729862,0.023440876975655556,-0.004576109815388918
1769668315650432800,6.525432861328125,0.001216265605762601,0.017980065196752548,-0.0023792681749910116
1769668315660422000,6.535421875,-0.0009632653673179448,0.013464143499732018,-0.00003408846168895252
1769668315670410800,6.54541064453125,-0.0021584921050816774,0.011597000993788242,-0.0018138790037482977
1769668315680398800,6.55539892578125,-0.00006311691686278209,0.016770457848906517,-0.0010333064710721374
1769668315690387700,6.5653876953125,0.0004809668753296137,0.01745222695171833,-0.0022943131625652313
1769668315700376800,6.575376953125,0.0008942894637584686,0.023850204423069954,-0.002998719457536936
1769668315710365700,6.58536572265625,0.0011627360945567489,0.02257188782095909,-0.008057394064962864
1769668315720354800,6.595354736328125,-0.000031957933970261365,0.021826468408107758,-0.011785286478698254
1769668315730343200,6.60534326171875,0.0005936186062172055,0.018426144495606422,-0.012048939242959023
1769668315740331800,6.615331787109375,0.0012242551892995834,0.018744658678770065,-0.01067767757922411
1769668315750321000,6.62532080078125,0.0020487697329372168,0.021202756091952324,-0.010635866783559322
1769668315760310000,6.63531005859375,0.003629089565947652,0.02490641549229622,-0.009277121163904667
1769668315770299000,6.645298828125,0.00023435817274730653,0.023298131301999092,-0.010356767103075981
1769668315780287000,6.655286865234375,-0.0022594258189201355,0.02093244530260563,-0.00977353472262621
1769668315790276000,6.665276123046875,-0.004291417542845011,0.02172606810927391,-0.008518120273947716
1769668315800265000,6.675264892578125,-0.0017451694002375007,0.01764104515314102,-0.002767823403701186
1769668315810254000,6.685254150390625,0.0011321097845211625,0.014523282647132874,-0.00028336033574305475
1769668315820243000,6.695242919921875,0.001511343871243298,0.01360289379954338,-0.002743322169408202
1769668315830231000,6.70523095703125,0.0035148400347679853,0.01549480389803648,-0.0035976641811430454
1769668315840220000,6.715219970703125,0.002624012529850006,0.015332616865634918,-0.0037731665652245283
1769668315850209000,6.725208984375,-0.000603738590143621,0.009955162182450294,-0.006797452457249165
1769668315860198100,6.7351982421875,-0.004334827419370413,0.008496815338730812,-0.012477442622184753
1769668315870187000,6.74518701171875,-0.006809968966990709,0.00996448379009962,-0.016050871461629868
1769668315880174800,6.7551748046875,-0.006136988289654255,0.008207063190639019,-0.015140336938202381
1769668315890164000,6.7651640625,-0.005160673521459103,0.00803182739764452,-0.00842677429318428
1769668315900152800,6.77515283203125,-0.0046120621263980865,0.006146575789898634,-0.004572913981974125
1769668315910142000,6.785141845703125,-0.00517691858112812,0.0038927425630390644,0.0002061286650132388
1769668315920131000,6.795131103515625,-0.00589570589363575,0.013866281136870384,0.0038693067617714405
1769668315930119000,6.805118896484375,-0.008024370297789574,0.009797236882150173,0.003058906877413392
1769668315940108000,6.81510791015625,-0.00811837986111641,0.007406783755868673,-0.002930808812379837
1769668315950097200,6.82509716796875,-0.010054497979581356,0.00902944803237915,-0.004416320007294416
1769668315960086000,6.8350859375,-0.008482434786856174,0.010062487795948982,-0.006259227637201548
1769668315970073900,6.845073974609375,-0.004600344225764275,0.016742227599024773,-0.0031286815647035837
1769668315980063000,6.85506298828125,-0.001654089312069118,0.016288958489894867,-0.0019654128700494766
1769668315990052000,6.865052001953125,-0.001817607437260449,0.01571664586663246,0.0002996056282427162
1769668316000041000,6.875041015625,-0.0011267834343016148,0.011128817684948444,-0.001318264752626419
1769668316010030000,6.885030029296875,0.00006364954606397077,0.014169348403811455,-0.0027483822777867317
1769668316020018200,6.89501806640625,0.0021547635551542044,0.01738458313047886,-0.0031348068732768297
1769668316030006800,6.9050068359375,0.0018551580142229795,0.022278141230344772,-0.006947921123355627
1769668316039996000,6.914995849609375,0.002038117265328765,0.023960193619132042,-0.009337841533124447
1769668316049985000,6.924985107421875,-0.0030573089607059956,0.025766883045434952,-0.010469418950378895
1769668316059974000,6.934973876953125,-0.005874666851013899,0.020783042535185814,-0.010246246121823788
1769668316069962000,6.9449619140625,-0.009376724250614643,0.016106264665722847,-0.007672034204006195
1769668316079951000,6.954951171875,-0.01483247522264719,0.009558884426951408,-0.0038400120101869106
1769668316089940000,6.96493994140625,-0.018251441419124603,0.004501541145145893,0.004801146686077118
1769668316099929000,6.97492919921875,-0.020727116614580154,-0.001100684516131878,0.007062703371047974
1769668316109918000,6.98491796875,-0.02166641317307949,-0.0014322480419650674,0.008568454533815384
1769668316119906000,6.994906005859375,-0.019040269777178764,0.0024559672456234694,0.010157296434044838
1769668316129895000,7.00489501953125,-0.016155533492565155,0.004248274490237236,0.011955995112657547
1769668316139884000,7.014884033203125,-0.015717975795269012,-0.00008255799184553325,0.010660367086529732
1769668316149873000,7.024872802734375,-0.013719008304178715,-0.0012261193478479981,0.005648031830787659
1769668316159862000,7.034862060546875,-0.009492038749158382,0.0002665824140422046,0.0026873957831412554
1769668316169849900,7.044849853515625,-0.005293298978358507,0.001282312092371285,0.0012234562309458852
1769668316179839000,7.0548388671875,-0.0041792988777160645,0.004917260725051165,-0.00035952674807049334
1769668316189827800,7.064827880859375,-0.0021845910232514143,0.003983289934694767,-0.0041529336012899876
1769668316199817000,7.07481689453125,-0.003727892879396677,0.002832005498930812,-0.011125887744128704
1769668316209806000,7.08480615234375,-0.006165750324726105,0.003835218260064721,-0.01145851705223322
1769668316219794000,7.0947939453125,-0.007702660746872425,0.0031438616570085287,-0.011380752548575401
1769668316229783000,7.104782958984375,-0.006607835181057453,0.0012431635987013578,-0.008416654542088509
1769668316239772200,7.114772216796875,-0.009841179475188255,-0.0004367584188003093,-0.002626675646752119
1769668316249761000,7.124760986328125,-0.0107093695551157,-0.002551840851083398,0.0007986819837242365
1769668316259750000,7.13475,-0.01116263959556818,-0.007340470794588327,0.002944657113403082
1769668316269738000,7.144738037109375,-0.014213823713362217,-0.00794554129242897,0.0035571842454373837
1769668316279727000,7.15472705078125,-0.014180533587932587,-0.002350505907088518,0.008185225538909435
1769668316289716000,7.164716064453125,-0.014623683877289295,-0.004432565066963434,0.010867827571928501
1769668316299705000,7.174705078125,-0.012047075666487217,0.00023169501218944788,0.014601579867303371
1769668316309694000,7.18469384765625,-0.005129780620336533,0.004163053352385759,0.014896657317876816
1769668316319681800,7.194681884765625,0.0017512947088107467,0.007089334540069103,0.00574816670268774
1769668316329671000,7.2046708984375,0.0070557789877057076,0.007494934368878603,-0.008188420906662941
1769668316339660000,7.214659912109375,0.009957559406757355,0.008264853619039059,-0.018100973218679428
1769668316349649000,7.22464892578125,0.015077220275998116,0.014338192529976368,-0.020557738840579987
1769668316359638000,7.234637939453125,0.01576964184641838,0.01936783827841282,-0.01594008505344391
1769668316369626000,7.244626220703125,0.013481187634170055,0.012521650642156601,-0.008647816255688667
1769668316379615000,7.254614990234375,0.005529255140572786,0.005106611177325249,-0.005767341703176498
1769668316389604000,7.26460400390625,0.0010303769959136844,-0.0022895196452736855,-0.0020865867845714092
1769668316399593000,7.274593017578125,-0.005030977539718151,-0.0062424493953585625,0.0040978058241307735
1769668316409581800,7.284581787109375,-0.005608350969851017,-0.009924003854393959,0.012352540157735348
1769668316419570000,7.29456982421875,-0.003322559641674161,-0.0033577135764062405,0.017533719539642334
1769668316429559000,7.30455908203125,-0.00044847631943412125,0.0009523464250378311,0.022835541516542435
1769668316439548000,7.3145478515625,0.0029611687641590834,-0.004560130648314953,0.021377461031079292
1769668316449537000,7.324537109375,0.004790227860212326,-0.006062153726816177,0.01552436500787735
1769668316459525000,7.334525146484375,0.009367669001221657,0.0020807278342545033,0.008275240659713745
1769668316469514000,7.344513916015625,0.011599664576351643,0.005227518733590841,-0.000553404854144901
1769668316479502800,7.3545029296875,0.011728028766810894,0.008565524592995644,-0.0038927425630390644
1769668316489492000,7.364491943359375,0.0080898841843009,0.005489573813974857,-0.0075782909989356995
1769668316499481000,7.374481201171875,0.005225388333201408,-0.0004964132094755769,-0.009574330411851406
1769668316509470000,7.384469970703125,0.0028535770252346992,-0.003579288488253951,-0.007213437929749489
1769668316519458000,7.3944580078125,0.0004340952436905354,-0.007601726800203323,-0.004117247182875872
1769668316529447200,7.404447265625,0.002273540711030364,-0.002700445242226124,-0.0035414716694504023
1769668316539436000,7.41443603515625,0.0025036376900970936,0.008912800811231136,-0.0051873051561415195
1769668316549425000,7.4244248046875,0.00583685003221035,0.012536298483610153,-0.007994276471436024
1769668316559414000,7.4344140625,0.005501558072865009,0.013826865702867508,-0.011663846671581268
1769668316569401900,7.44440185546875,0.0023931164760142565,0.00842730700969696,-0.009296562522649765
1769668316579391000,7.454390869140625,0.0013728595804423094,0.004092213232070208,-0.007604922633618116
1769668316589380000,7.464380126953125,0.0026791400741785765,0.0014077469240874052,-0.006822752300649881
1769668316599369000,7.474368896484375,0.0015374429058283567,-0.00022450447431765497,-0.003489806316792965
1769668316609356800,7.484356689453125,0.0011638014111667871,-0.0001597896625753492,-0.0009803095599636436
1769668316619346000,7.494345947265625,0.004880242515355349,0.0030003173742443323,-0.0007648598402738571
1769668316629335000,7.5043349609375,0.006964965257793665,0.006292783189564943,-0.0012815131340175867
1769668316639324000,7.514323974609375,0.009874202311038971,0.008322378620505333,-0.0021310613956302404
1769668316649313000,7.52431298828125,0.008176437579095364,0.005620068870484829,-0.0009060074225999415
1769668316659301000,7.534301025390625,0.004820321686565876,0.001710548298433423,0.003180080559104681
1769668316669290000,7.5442900390625,0.0019262643763795495,-0.002584597794339061,0.0049135321751236916
1769668316679279000,7.554279052734375,-0.000030892668291926384,-0.006394782569259405,0.00860094465315342
1769668316689268000,7.56426806640625,-0.000830107310321182,-0.010009757243096828,0.0057106162421405315
1769668316699256800,7.5742568359375,-0.000287088769255206,-0.00960042979568243,0.001508680754341185
1769668316709245000,7.584244873046875,0.002436792477965355,-0.0067657604813575745,-0.0013494236627593637
1769668316719234000,7.594234130859375,0.0051905009895563126,-0.004132693167775869,-0.0023177489638328552
1769668316729222400,7.604222412109375,0.003540938952937722,-0.008258462883532047,-0.003406449221074581
1769668316739211300,7.614211181640625,0.0026668894570320845,-0.013438044115900993,-0.009490440599620342
1769668316749200400,7.624200439453125,0.0023403859231621027,-0.01450011320412159,-0.008802546188235283
1769668316759188500,7.6341884765625,0.0016415724530816078,-0.019207250326871872,-0.0007605988066643476
1769668316769177300,7.64417724609375,-0.0000977380113909021,-0.019895676523447037,0.007459780666977167
1769668316779166200,7.654166259765625,0.0013334447285160422,-0.017075389623641968,0.006917827297002077
1769668316789155300,7.6641552734375,0.0018975022248923779,-0.015546469017863274,0.005139368120580912
1769668316799144200,7.674144287109375,0.001823732745833695,-0.015244466252624989,0.0013989584986120462
1769668316809132300,7.68413232421875,-0.0004141215467825532,-0.019806994125247,0.000773381965700537
1769668316819121400,7.694121337890625,-0.000037550569686573,-0.020978517830371857,-0.0021252024453133345
1769668316829110300,7.7041103515625,0.001511610229499638,-0.01926184445619583,-0.000818123109638691
1769668316839099400,7.714099365234375,0.0036647759843617678,-0.019644808024168015,0.00264744833111763
1769668316849088500,7.724088623046875,0.0007422229973599315,-0.017843978479504585,-0.0024530377704650164
1769668316859076400,7.734076416015625,0.0014588796766474843,-0.018005898222327232,-0.004911668132990599
1769668316869065200,7.744065185546875,-0.00042504051816649735,-0.018244517967104912,-0.010419883765280247
1769668316879054300,7.754054443359375,-0.0017835189355537295,-0.021200094372034073,-0.01110298465937376
1769668316889043500,7.76404345703125,-0.0028839372098445892,-0.021436583250761032,-0.01317838579416275
1769668316899032300,7.7740322265625,-0.0049337721429765224,-0.021555624902248383,-0.010163155384361744
1769668316909020400,7.7840205078125,-0.005321261938661337,-0.020502878352999687,-0.009600961580872536
1769668316919009300,7.79400927734375,-0.007786284200847149,-0.022481873631477356,-0.005860818549990654
1769668316928998100,7.803998046875,-0.008650213479995728,-0.02377004362642765,-0.0006077333819121122
1769668316938987300,7.8139873046875,-0.008787366561591625,-0.02286856435239315,0.0036754286848008633
1769668316948976400,7.823976318359375,-0.005276254843920469,-0.01973961666226387,0.007392136380076408
1769668316958964200,7.833964111328125,-0.004683168604969978,-0.018976621329784393,0.005210208240896463
1769668316968953300,7.843953369140625,-0.004011519718915224,-0.01666526310145855,-0.0017174725653603673
1769668316978942500,7.8539423828125,-0.001743571599945426,-0.013192234560847282,-0.006747118663042784
1769668316988931300,7.863931396484375,0.002812031889334321,-0.011854262091219425,-0.009762083180248737
1769668316998920400,7.87392041015625,0.004789162427186966,-0.011424428783357143,-0.010665161535143852
1769668317008908300,7.883908203125,0.004245611373335123,-0.01206651609390974,-0.012115518562495708
1769668317018897400,7.8938974609375,0.003608050523325801,-0.011418303474783897,-0.012791961431503296
1769668317028886300,7.90388623046875,0.0014452975010499358,-0.012134693562984467,-0.014006629586219788
1769668317038875400,7.91387548828125,-0.004375573713332415,-0.02136867120862007,-0.017465010285377502
1769668317048864300,7.9238642578125,-0.0076006618328392506,-0.022882945835590363,-0.01792573742568493
1769668317058852400,7.933852294921875,-0.0074030552059412,-0.0201561339199543,-0.013056679628789425
1769668317068841200,7.94384130859375,-0.008522914722561836,-0.02430027909576893,-0.009813481941819191
1769668317078830300,7.953830322265625,-0.007665110286325216,-0.02526487596333027,-0.009606554172933102
1769668317088819200,7.963819091796875,-0.0062246061861515045,-0.02785852923989296,-0.009040633216500282
1769668317098808300,7.973808349609375,-0.004930576309561729,-0.028627384454011917,-0.0076214345172047615
1769668317108796400,7.98379638671875,-0.0048948898911476135,-0.03062049299478531,-0.004344680812209845
1769668317118785300,7.993785400390625,-0.0032890038564801216,-0.03062608651816845,-0.0035694348625838757
1769668317128774400,8.0037744140625,-0.00415319949388504,-0.03248550370335579,-0.008373511023819447
1769668317138763500,8.013763427734375,-0.0007784419576637447,-0.02738901413977146,-0.010103766806423664
1769668317148752100,8.023752197265624,0.003181145992130041,-0.017423465847969055,-0.012326440773904324
1769668317158740200,8.033740234375,0.003308444982394576,-0.012449478730559349,-0.008327971212565899
1769668317168729300,8.043729248046875,0.0002772350562736392,-0.013590376824140549,-0.00893703568726778
1769668317178718200,8.05371826171875,-0.00133903743699193,-0.01617896929383278,-0.008958075195550919
1769668317188707300,8.063707275390625,-0.0012655340833589435,-0.018319884315133095,-0.008130630478262901
1769668317198696400,8.073696533203124,-0.0018232000293210149,-0.023375097662210464,-0.0033369408920407295
1769668317208684300,8.083684326171875,-0.0025350630749017,-0.02557806484401226,0.00013129384024068713
1769668317218673200,8.093673095703124,0.002672215923666954,-0.018483668565750122,0.011780492961406708
1769668317228662300,8.103662353515626,0.005057076457887888,-0.016354205086827278,0.01685754396021366
1769668317238651400,8.1136513671875,0.0046666571870446205,-0.018606441095471382,0.014331800863146782
1769668317248640300,8.12364013671875,0.0036607813090085983,-0.021454425528645515,0.008012119680643082
1769668317258628400,8.13362841796875,0.001847434788942337,-0.028619127348065376,-0.002320412313565612
1769668317268617500,8.143617431640624,-0.0005012069013901055,-0.03475851193070412,-0.007907457649707794
1769668317278606300,8.1536064453125,-0.0010852381819859147,-0.033423736691474915,-0.013524863868951797
1769668317288595500,8.163595458984375,-0.002061819192022085,-0.03291533887386322,-0.011859056539833546
1769668317298584300,8.173584228515624,-0.0022394522093236446,-0.030640466138720512,-0.006293315906077623
1769668317308572400,8.183572509765625,-0.008803877979516983,-0.037946850061416626,0.0065290057100355625
1769668317318561300,8.193561279296874,-0.0065263425931334496,-0.041971683502197266,-0.004541754722595215
1769668317328550400,8.20355029296875,-0.0051966262981295586,-0.035473570227622986,-0.004858404863625765
1769668317338539300,8.213539306640625,-0.00020666129421442747,-0.023366842418909073,0.00933144986629486
1769668317348528400,8.2235283203125,-0.0007094661123119295,-0.022426212206482887,0.018572885543107986
1769668317358516200,8.23351611328125,-0.0005419532535597682,-0.023922642692923546,0.022357502952218056
1769668317368505300,8.24350537109375,0.004463724326342344,-0.027126692235469818,0.023611320182681084
1769668317378494200,8.253494140625,0.008300540037453175,-0.026877153664827347,0.02359001524746418
1769668317388483300,8.2634833984375,0.010112821124494076,-0.02196894772350788,0.017371799796819687
1769668317398472200,8.27347216796875,0.009060340002179146,-0.026510169729590416,0.0065255435183644295
1769668317408460300,8.283460205078125,0.010846788994967937,-0.027178091928362846,0.0004796353168785572
1769668317418449400,8.293449462890624,0.007541539613157511,-0.02520921640098095,-0.0003534014686010778
1769668317428438500,8.3034384765625,0.008599613793194294,-0.019956396892666817,0.005470665637403727
1769668317438427100,8.31342724609375,0.004607534967362881,-0.019336679950356483,0.011578891426324844
1769668317448416300,8.323416259765626,0.004840828012675047,-0.019300993531942368,0.011442005634307861
1769668317458404400,8.333404296875,0.005027781706303358,-0.0205132644623518,0.007649131119251251
1769668317468393200,8.343393310546874,0.003275954397395253,-0.02376098930835724,0.003989148885011673
1769668317478382300,8.35338232421875,-0.0014751249691471457,-0.03021303005516529,-0.00012916330888401717
1769668317488371500,8.363371337890625,-0.007888815365731716,-0.03874792903661728,-0.0004492752777878195
1769668317498360300,8.3733603515625,-0.005597964394837618,-0.03172037750482559,0.003748132847249508
1769668317508348200,8.38334814453125,-0.004804342519491911,-0.022283202037215233,0.003468500915914774
1769668317518337300,8.393337158203124,-0.006144977640360594,-0.025603896006941795,0.006343116983771324
1769668317528326400,8.403326416015625,-0.009736782871186733,-0.029019666835665703,0.004791825544089079
1769668317538315300,8.413315185546875,-0.012849751859903336,-0.03410017862915993,0.005303418729454279
1769668317548304400,8.423304443359376,-0.015022092498838902,-0.032755814492702484,0.006903179921209812
1769668317558292500,8.43329248046875,-0.01537362951785326,-0.02924763411283493,0.008341286331415176
1769668317568281300,8.44328125,-0.011616175994277,-0.027654264122247696,0.008085357025265694
1769668317578270500,8.4532705078125,-0.00618039770051837,-0.0237633865326643,0.00495134899392724
1769668317588259300,8.46325927734375,-0.002554770326241851,-0.019343603402376175,0.0017025588313117623
1769668317598248200,8.473248291015626,0.0010631339391693473,-0.01937156729400158,-0.0000125168571685208
1769668317608236300,8.483236328125,0.004200071096420288,-0.016641294583678246,-0.0034935346338897943
1769668317618225400,8.493225341796874,0.007435545790940523,-0.011396997608244419,-0.00180908537004143
1769668317628214300,8.50321435546875,0.005834186915308237,-0.009395365603268147,0.001514539704658091
1769668317638203400,8.513203369140625,0.005429120268672705,-0.007848868146538734,0.002223206916823983
1769668317648192500,8.523192626953126,0.009179383516311646,-0.005911152344197035,0.0015078817959874868
1769668317658180400,8.533180419921875,0.01369264256209135,-0.000749679864384234,-0.0010871023405343294
1769668317668169200,8.543169189453126,0.018323346972465515,0.006434197071939707,-0.003915912006050348
1769668317678158300,8.553158447265625,0.023069899529218674,0.012444418855011463,-0.004294081125408411
1769668317688147200,8.563147216796875,0.020654145628213882,0.013319533318281174,-0.010458233766257763
1769668317698136300,8.57313623046875,0.017542241141200066,0.013527792878448963,-0.014002900570631027
1769668317708124400,8.58312451171875,0.014735536649823189,0.011767176911234856,-0.014880412258207798
1769668317718113500,8.593113525390624,0.006835269276052713,0.008450210094451904,-0.010822287760674953
1769668317728103400,8.603103515625,0.001910019083879888,0.0056949034333229065,-0.005287972744554281
1769668317738092500,8.613092529296875,-0.005084507167339325,0.001859419047832489,-0.005922603886574507
1769668317748081400,8.623081298828126,-0.00971654336899519,-0.003335609333589673,-0.003204049076884985
1769668317758069500,8.633069580078125,-0.01010722853243351,-0.0043651871383190155,-0.003945473115891218
1769668317768058600,8.64305859375,-0.0073143718764185905,-0.0036216326989233494,-0.0028061727061867714
1769668317778047500,8.653047607421875,-0.004589425399899483,0.00017710021347738802,-0.0035324168857187033
1769668317788036600,8.66303662109375,-0.0004420847399160266,0.004235225263983011,-0.003209375310689211
1769668317798025700,8.673025634765626,0.000755805114749819,0.006629406940191984,-0.006946855690330267
1769668317808013300,8.683013427734375,0.0031316110398620367,0.01025503408163786,-0.01215519942343235
1769668317818002400,8.69300244140625,0.0008636631537228823,0.009663280099630356,-0.019816847518086433
1769668317827991600,8.702991455078125,0.001038632821291685,0.011782890185713768,-0.025346368551254272
1769668317837980400,8.71298046875,-0.0023371900897473097,0.008474444970488548,-0.02792058140039444
1769668317847968500,8.722968505859376,-0.0029734193813055754,0.008757805451750755,-0.023844612762331963
1769668317857957600,8.73295751953125,-0.004129231441766024,0.006265885196626186,-0.015924371778964996
1769668317867946500,8.742946533203124,-0.0030075078830122948,0.006268282420933247,-0.012142948806285858
1769668317877935400,8.752935302734375,0.00004340952364145778,0.007638478651642799,-0.007714911364018917
1769668317887924500,8.762924560546875,0.002062085550278425,0.007484814152121544,-0.009284311905503273
1769668317897913300,8.772913330078126,0.005227518733590841,0.013491840101778507,-0.010123208165168762
1769668317907901400,8.7829013671875,0.008680573664605618,0.015175490640103817,-0.014085724949836731
1769668317917890600,8.792890625,0.009896306321024895,0.014963236637413502,-0.017039436846971512
1769668317927879700,8.802879638671875,0.010377805680036545,0.012612997554242611,-0.01763598434627056
1769668317937868500,8.81286865234375,0.007151918951421976,0.011900868266820908,-0.01715634949505329
1769668317947856400,8.8228564453125,0.006356166675686836,0.012615127488970757,-0.019030416384339333
1769668317957845500,8.832845458984375,0.00797377061098814,0.013119264505803585,-0.01930898241698742
1769668317967834400,8.84283447265625,0.011258780024945736,0.014582671225070953,-0.018182998523116112
1769668317977823500,8.852823486328125,0.011379154399037361,0.01384124718606472,-0.015576296485960484
1769668317987812600,8.8628125,0.009206281043589115,0.017714016139507294,-0.013395434245467186
1769668317997801500,8.872801513671876,0.009377256035804749,0.01625034213066101,-0.011395399458706379
1769668318007789300,8.882789306640625,0.011122426018118858,0.018099375069141388,-0.011990882456302643
1769668318017778400,8.8927783203125,0.013515275903046131,0.022179869934916496,-0.008817194029688835
1769668318027767300,8.902767333984375,0.014739531092345715,0.026325879618525505,-0.00935328844934702
1769668318037756400,8.91275634765625,0.0162466149777174,0.029230056330561638,-0.007154848426580429
1769668318047745500,8.92274560546875,0.011606322601437569,0.026924557983875275,-0.007680556736886501
1769668318057733600,8.932733642578125,0.011742410250008106,0.023992151021957397,-0.007106379140168428
1769668318067722500,8.942722412109376,0.0092347776517272,0.022341791540384293,-0.009708287194371223
1769668318077711600,8.952711669921875,0.009224124252796173,0.025529328733682632,-0.011269432492554188
1769668318087700500,8.962700439453124,0.010756773874163628,0.030640732496976852,-0.01113148033618927
1769668318097689300,8.972689453125,0.0117927435785532,0.03301307559013367,-0.010392719879746437
1769668318107677400,8.982677490234375,0.008914398960769176,0.030818099156022072,-0.009899236261844635
1769668318117666600,8.99266650390625,0.0049100699834525585,0.025416409596800804,-0.007351655978709459
1769668318127655400,9.002655517578125,0.0036514601670205593,0.018875686451792717,-0.004024036228656769
1769668318137644500,9.01264453125,0.002049036091193557,0.01637311466038227,-0.002591255819424987
1769668318147633700,9.022633544921876,0.00028389296494424343,0.012652145698666573,-0.0008961536805145442
1769668318157621500,9.03262158203125,0.00017896443023346364,0.00986434891819954,-0.0018977685831487179
1769668318167610400,9.0426103515625,-0.0013313142117112875,0.015401859767735004,0.0006412891671061516
1769668318177599500,9.052599609375,-0.0054272557608783245,0.0156119829043746,0.005331115797162056
1769668318187588400,9.06258837890625,-0.010512296110391617,0.017767544835805893,0.004709800239652395
1769668318197576400,9.072576416015625,-0.01483540516346693,0.012979714199900627,0.003070891136303544
1769668318207565600,9.082565673828125,-0.018087124451994896,0.011577027849853039,0.003156378399580717
1769668318217554700,9.0925546875,-0.01537496130913496,0.015391472727060318,0.007763114292174578
1769668318227543600,9.10254345703125,-0.011814581230282784,0.019330820068717003,0.01022920198738575
1769668318237532400,9.112532470703124,-0.003261040663346648,0.01961790956556797,0.008319182321429253
1769668318247521300,9.122521240234375,-0.0008130630594678223,0.01992044411599636,-0.003433613572269678
1769668318257509400,9.13250927734375,0.004143878817558289,0.020728714764118195,-0.01890338398516178
1769668318267498500,9.14249853515625,0.01251286268234253,0.023974575102329254,-0.03202877193689346
1769668318277487600,9.152487548828125,0.014880412258207798,0.030588269233703613,-0.034391794353723526
1769668318287476500,9.1624765625,0.016751017421483994,0.03423626720905304,-0.03409964591264725
1769668318297465600,9.172465576171875,0.014157364144921303,0.028504345566034317,-0.03136058524250984
1769668318307453400,9.182453369140624,0.009500560350716114,0.020907944068312645,-0.03172091022133827
1769668318317442300,9.1924423828125,0.005031776614487171,0.014802115969359875,-0.02907186560332775
1769668318327431400,9.202431396484375,0.0034432008396834135,0.022538864985108376,-0.018764633685350418
1769668318337420500,9.212420654296874,0.0024261397775262594,0.01702266000211239,-0.007601726800203323
1769668318347409400,9.222409423828125,0.0017504957504570484,0.0169166661798954,-0.005782255437225103
1769668318357397500,9.2323974609375,0.0005416869535110891,0.010207896120846272,-0.0065130265429615974
1769668318367386600,9.24238671875,0.0014080132823437452,0.004622981417924166,-0.0029409287963062525
1769668318377375500,9.25237548828125,0.0041822283528745174,0.0005395564367063344,0.0021398498211055994
1769668318387364400,9.2623642578125,0.008464857004582882,0.0013422331539914012,0.0036645096261054277
1769668318397353500,9.272353515625,0.009700830094516277,0.006326871924102306,0.002017610939219594
1769668318407341600,9.282341552734374,0.01230673398822546,0.009187106974422932,0.0003741741238627583
1769668318417330400,9.292330322265625,0.013650031760334969,0.008280833251774311,0.0001954760227818042
1769668318427319600,9.302319580078125,0.013142433948814869,0.005677859298884869,0.0035683694295585155
1769668318437308700,9.31230859375,0.006442186422646046,-0.004084490239620209,0.0012125372886657715
1769668318447297500,9.322297607421875,0.003966778516769409,-0.0021438447292894125,-0.005952964071184397
1769668318457285400,9.332285400390624,0.006361492909491062,0.004382231738418341,-0.012263057753443718
1769668318467274500,9.3422744140625,0.010063286870718002,0.014268950559198856,-0.004036286845803261
1769668318477263400,9.352263427734375,0.01013838779181242,0.013370666652917862,0.0016138756182044744
1769668318487252500,9.36225244140625,0.010509632527828217,0.00962945818901062,0.003674895968288183
1769668318497241600,9.37224169921875,0.008373244665563107,0.008458998054265976,0.007252852898091078
1769668318507229400,9.3822294921875,0.0032463932875543833,0.015166436322033405,0.025051290169358253
1769668318517218600,9.392218505859375,-0.004829110112041235,0.01931297779083252,0.042391132563352585
1769668318527207400,9.40220751953125,-0.02310851402580738,0.009355951100587845,0.03784644976258278
1769668318537196300,9.4121962890625,-0.02839568816125393,-0.002103897277265787,-0.0028506475500762463
1769668318547185400,9.422185302734375,-0.010417487472295761,-0.00592553336173296,-0.028376247733831406
1769668318557173500,9.432173583984374,0.005316734779626131,0.014191718772053719,-0.005136438645422459
1769668318567162600,9.44216259765625,0.013541908003389835,0.029143504798412323,0.010603908449411392
1769668318577151500,9.4521513671875,0.016925986856222153,0.019210712984204292,0.0030626351945102215
1769668318587140600,9.462140625,0.016331035643815994,0.009854228235781193,-0.008079764433205128
1769668318597129500,9.47212939453125,0.01583009585738182,0.003549993736669421,-0.003591539105400443
1769668318607117300,9.482117431640624,0.017413610592484474,0.0101389205083251,0.001127582392655313
1769668318617106400,9.4921064453125,0.015176822431385517,0.0109253516420722,-0.0049135321751236916
1769668318627095600,9.502095458984375,0.01233443059027195,0.014068680815398693,-0.012349343858659267
1769668318637084400,9.51208447265625,0.006332997232675552,0.017484184354543686,-0.01744663529098034
1769668318647073500,9.522073486328125,-0.002112419344484806,0.013908091932535172,-0.014723019674420357
1769668318657061600,9.5320615234375,-0.006910902913659811,0.009375925175845623,-0.008407865650951862
1769668318667050500,9.542050537109375,-0.007309578359127045,0.0038903458043932915,-0.0034437335561960936
1769668318677039400,9.552039306640625,-0.003597131697461009,0.002528937766328454,0.0007177218794822693
1769668318687028500,9.562028564453126,-0.0011443602852523327,0.01890311762690544,0.006885603070259094
1769668318697017300,9.572017333984375,-0.0009070726810023189,0.008935172110795975,0.010580472648143768
1769668318707005400,9.58200537109375,-0.0010191916953772306,0.008388424292206764,-0.0006293049664236605
1769668318716994600,9.59199462890625,-0.002460228279232979,0.00660410663112998,-0.00866006687283516
1769668318726983400,9.6019833984375,-0.0006223807577043772,0.007418235298246145,-0.01774783805012703
1769668318736971300,9.61197119140625,0.0007896272582001984,0.012296613305807114,-0.021758291870355606
1769668318746960400,9.62196044921875,0.0033164345659315586,0.010697918012738228,-0.01900751329958439
1769668318756948500,9.631948486328126,0.002522812457755208,0.007780425250530243,-0.015297196805477142
1769668318766937600,9.6419375,0.00006444849714171141,0.0038088529836386442,-0.011343734338879585
1769668318776926500,9.651926513671874,-0.0006788397440686822,0.0037675739731639624,-0.009151420556008816
1769668318786915600,9.66191552734375,0.00036511936923488975,0.0009507485083304346,-0.008665659464895725
1769668318796904400,9.671904541015625,0.0030096382834017277,0.0021616879384964705,-0.006332464516162872
1769668318806892300,9.681892333984376,0.004737230949103832,0.004040548112243414,-0.004141747951507568
1769668318816881400,9.69188134765625,0.006342051550745964,0.005023254547268152,-0.005434979218989611
1769668318826870500,9.70187060546875,0.007095459848642349,0.004210990387946367,-0.004151601810008287
1769668318836859400,9.711859375,0.0065226140432059765,0.004668787587434053,-0.006217682268470526
1769668318846848500,9.7218486328125,0.004290618933737278,0.002273540711030364,-0.01005023717880249
1769668318856836600,9.731836669921876,0.0020756677258759737,0.0018716695485636592,-0.00833702553063631
1769668318866825200,9.7418251953125,0.0033896714448928833,0.002796052722260356,-0.007848868146538734
1769668318876814300,9.751814453125,0.0034402713645249605,0.0008364989189431071,-0.0073655047453939915
1769668318886803500,9.761803466796875,0.004245345015078783,-0.0015510249650105834,-0.006191849708557129
1769668318896792300,9.771792236328125,0.00472577940672636,-0.002555569401010871,-0.00564004248008132
1769668318906780400,9.781780517578126,0.005679723806679249,-0.003210174385458231,-0.0024919197894632816
1769668318916769500,9.79176953125,0.004957740660756826,-0.0019859191961586475,-0.004522313829511404
1769668318926758400,9.80175830078125,0.004435494542121887,0.0005645901546813548,-0.005688778590410948
1769668318936747500,9.81174755859375,0.0028807413764297962,-0.00006072007090551779,-0.005155613645911217
1769668318946736400,9.821736328125,0.0018080200534313917,-0.0017454357584938407,-0.007842210121452808
1769668318956724500,9.831724365234376,-0.002214152133092284,-0.005356681998819113,-0.00860387459397316
1769668318966713300,9.84171337890625,-0.0035694348625838757,-0.006120476871728897,-0.006839530076831579
1769668318976702500,9.851702392578124,-0.0022333269007503986,-0.005613410845398903,-0.007159376051276922
1769668318986691600,9.861691650390625,-0.0006578007596544921,-0.00013528858835343271,-0.010733071714639664
1769668318996680400,9.871680419921875,0.0001906823308672756,0.0024224112275987864,-0.013139237649738789
1769668319006668500,9.88166845703125,-0.0008266451768577099,0.003260774305090308,-0.01629801280796528
1769668319016657400,9.891657470703125,-0.0014407701091840863,0.0015901734586805105,-0.016334231942892075
1769668319026646300,9.901646240234374,-0.006111954804509878,0.0014021543320268393,-0.010960238985717297
1769668319036635400,9.911635498046875,-0.00800519622862339,-0.004078897647559643,-0.006668821442872286
1769668319046624500,9.92162451171875,-0.01152722630649805,-0.010860903188586235,-0.0018913770327344537
1769668319056612600,9.931612548828125,-0.010322678834199905,-0.010706440545618534,0.0029936593491584063
1769668319066601500,9.9416015625,-0.009631588123738766,-0.010494186542928219,0.005375856999307871
1769668319076590600,9.951590576171874,-0.006570018362253904,-0.008186024613678455,0.006299174856394529
1769668319086579500,9.961579345703125,-0.001136104459874332,-0.0031073763966560364,0.005738845560699701
1769668319096568300,9.971568359375,0.0021310613956302404,-0.0013989584986120462,0.0004005394293926656
1769668319106556400,9.981556396484375,0.005900765769183636,0.0019710054621100426,-0.00823982059955597
1769668319116545500,9.991545654296875,0.009199091233313084,0.0015134743880480528,-0.00993066094815731
1769668319126534400,10.001534423828126,0.006069344002753496,0.0005233111442066729,-0.006893059704452753
1769668319136523500,10.0115234375,0.0036972665693610907,-0.00407570181414485,0.00005858954318682663
1769668319146512400,10.021512451171875,0.002094576135277748,-0.007069360930472612,0.005122057627886534
1769668319156500200,10.031500244140625,0.0035366779193282127,-0.011298727244138718,0.008235825225710869
1769668319166489300,10.0414892578125,0.004111920483410358,-0.009551693685352802,0.0028360001742839813
1769668319176478500,10.051478515625,0.0037824877072125673,-0.009038502350449562,0.005856823641806841
1769668319186467300,10.06146728515625,0.0014807175612077117,-0.012973322533071041,0.007965248078107834
1769668319196456400,10.07145654296875,-0.0029111013282090425,-0.014968562871217728,0.002097505610436201
1769668319206444500,10.081444580078125,-0.00449887802824378,-0.010119745507836342,-0.004542820155620575
1769668319216433400,10.091433349609375,-0.0036783581599593163,-0.008303203620016575,-0.0028045750223100185
1769668319226422500,10.101422607421876,-0.004495415836572647,-0.010425209999084473,0.0008729841792955995
1769668319236411400,10.111411376953125,-0.0009464874165132642,-0.01378239132463932,0.0013523531379178166
1769668319246400300,10.121400146484374,0.0006532734259963036,-0.01435044314712286,-0.0011297129094600677
1769668319256388400,10.131388427734375,0.004175570327788591,-0.013206083327531815,-0.006848584860563278
1769668319266377500,10.14137744140625,0.007315703667700291,-0.006238721311092377,-0.006336725316941738
1769668319276366600,10.15136669921875,0.011855593882501125,-0.001317998394370079,-0.0033627734519541264
1769668319286355500,10.16135546875,0.01158421766012907,0.0024517059791833162,-0.0018530274974182248
1769668319296344600,10.171344482421874,0.008565524592995644,-0.002122006844729185,-0.005078115500509739
1769668319306332400,10.18133251953125,0.003912183456122875,-0.01139966119080782,-0.006365487817674875
1769668319316321300,10.1913212890625,0.0009592706337571144,-0.020473582670092583,-0.0024679512716829777
1769668319326310400,10.201310302734376,-0.002397377509623766,-0.02496473863720894,0.007357781287282705
1769668319336299500,10.211299560546875,-0.0025278725661337376,-0.0258097592741251,0.015082280151546001
1769668319346288400,10.221288330078124,-0.0024647556710988283,-0.02323315106332302,0.01919526606798172
1769668319356276500,10.2312763671875,-0.0005909554311074317,-0.021035777404904366,0.012919526547193527
1769668319366265600,10.241265625,-0.000014381069377122913,-0.016595754772424698,0.010691792704164982
1769668319376254500,10.25125439453125,0.001422128058038652,-0.015202654525637627,0.01076982356607914
1769668319386243300,10.261243408203125,0.0030751521699130535,-0.015214638784527779,0.011058243922889233
1769668319396232400,10.271232421875,0.00606428412720561,-0.01739417016506195,0.008984706364572048
1769668319406220500,10.281220458984375,0.0054277884773910046,-0.02299639582633972,0.0011347729014232755
1769668319416209400,10.29120947265625,0.009080047719180584,-0.015283348970115185,-0.00532525684684515
1769668319426198500,10.301198486328126,0.011173025704920292,-0.011699000373482704,-0.007765511516481638
1769668319436187400,10.3111875,0.011689945124089718,-0.009664878249168396,-0.007695736363530159
1769668319446176500,10.321176513671874,0.013517673127353191,-0.013438576832413673,-0.009332781657576561
1769668319456164400,10.331164306640625,0.01338611263781786,-0.016045546159148216,-0.01194108184427023
1769668319466153500,10.341153564453125,0.014000770635902882,-0.012849219143390656,-0.011263573542237282
1769668319476142300,10.351142333984376,0.014085724949836731,-0.01281433179974556,-0.00890694186091423
1769668319486131500,10.36113134765625,0.010509632527828217,-0.011608718894422054,-0.006307164207100868
1769668319496120600,10.37112060546875,0.006547914352267981,-0.014680142514407635,-0.0028479844331741333
1769668319506108400,10.3811083984375,0.0020690099336206913,-0.018989136442542076,-0.00005299690383253619
1769668319516097500,10.39109765625,0.0005896238726563752,-0.023180685937404633,-0.003282346064224839
1769668319526086400,10.40108642578125,0.00024714134633541107,-0.023515978828072548,-0.004452539142221212
1769668319536075300,10.4110751953125,-0.0017275925492867827,-0.02160010114312172,-0.003561711637303233
1769668319546064400,10.421064453125,0.0024567660875618458,-0.01980140060186386,-0.0015579492319375277
1769668319556052500,10.431052490234375,0.0020698087755590677,-0.018679944798350334,-0.003340669209137559
1769668319566041300,10.441041259765624,-0.0020817930344492197,-0.026075275614857674,-0.006731139495968819
1769668319576030500,10.451030517578126,-0.0029638318810611963,-0.025536784902215004,-0.009757289662957191
1769668319586019600,10.46101953125,-0.004664260428398848,-0.02618100307881832,-0.008444084785878658
1769668319596008400,10.471008544921874,-0.0024684839881956577,-0.026248382404446602,-0.006341252941638231
1769668319605996300,10.480996337890625,-0.0035902075469493866,-0.027225496247410774,-0.0008282430935651064
1769668319615985400,10.4909853515625,-0.005356681998819113,-0.029401564970612526,0.00520754512399435
1769668319625974500,10.500974609375,-0.005539641249924898,-0.033355824649333954,0.006142314523458481
1769668319635963400,10.51096337890625,-0.00435986090451479,-0.03320722281932831,0.006114617921411991
1769668319645952500,10.520952392578126,-0.002778475871309638,-0.030001308768987656,0.005508748814463615
1769668319655940600,10.530940673828125,-0.0006908240029588342,-0.028555745258927345,0.0032892702147364616
1769668319665929500,10.540929443359374,-0.002055161399766803,-0.03542270511388779,-0.0032234902027994394
1769668319675918300,10.55091845703125,-0.004233360756188631,-0.03876151144504547,-0.010496582835912704
1769668319685907500,10.560907470703125,-0.004778243601322174,-0.045953910797834396,-0.010297378525137901
1769668319695896300,10.570896240234376,-0.0021198762115091085,-0.047516118735075,-0.008519452065229416
1769668319705884400,10.580884521484375,0.0011124024167656898,-0.047197870910167694,-0.00657641002908349
1769668319715873500,10.59087353515625,0.0018064221367239952,-0.04170989617705345,-0.0026229473296552896
1769668319725862400,10.6008623046875,0.00333161442540586,-0.03575773164629936,-0.005390238016843796
1769668319735851800,10.610851806640625,0.0015164038632065058,-0.0356844924390316,-0.008322112262248993
1769668319745841000,10.6208408203125,0.0007797735743224621,-0.03718438744544983,-0.012202603742480278
1769668319755828700,10.630828857421875,-0.0029047098942101,-0.03862648829817772,-0.014423680491745472
1769668319765817900,10.64081787109375,-0.0033782199025154114,-0.037756700068712234,-0.014325941912829876
1769668319775807000,10.650806884765625,-0.0026461167726665735,-0.034454647451639175,-0.01275467686355114
1769668319785795800,10.6607958984375,-0.001654622028581798,-0.029881199821829796,-0.009445167146623135
1769668319795785000,10.670784912109376,-0.002357163932174444,-0.02642015554010868,-0.00538571085780859
1769668319805772800,10.680772705078125,-0.002897519152611494,-0.026204172521829605,0.001528920722194016
1769668319815762000,10.690761962890624,-0.0025619608350098133,-0.026862507686018944,0.0036402747500687838
1769668319825750800,10.700750732421875,-0.003498594742268324,-0.029336050152778625,0.0018540926976129413
1769668319835740000,10.710739990234375,-0.0014849785948172212,-0.027033748105168343,0.0014974954538047314
1769668319845728800,10.720728759765626,-0.0007792409160174429,-0.022977488115429878,-0.0001882854849100113
1769668319855716900,10.730716796875,0.0011624698527157307,-0.020228039473295212,-0.003981425892561674
1769668319865706000,10.7407060546875,-0.0006492786924354732,-0.020381437614560127,-0.007017163094133139
1769668319875694800,10.75069482421875,-0.0008916263468563557,-0.019629361107945442,-0.013059076853096485
1769668319885683700,10.76068359375,-0.0019353191601112485,-0.022172413766384125,-0.013591708615422249
1769668319895672800,10.7706728515625,-0.004228034522384405,-0.02383768931031227,-0.013437245041131973
1769668319905661000,10.780660888671875,-0.003453587181866169,-0.022849123924970627,-0.006728210020810366
1769668319915649800,10.79064990234375,-0.005106344819068909,-0.023915719240903854,-0.0013936321483924985
1769668319925639000,10.800638916015625,-0.004508997779339552,-0.02352503314614296,0.0020445086993277073
1769668319935628000,10.8106279296875,-0.005930060520768166,-0.021467741578817368,0.00697961263358593
1769668319945617000,10.820616943359376,-0.0046269758604466915,-0.020898889750242233,0.004656536970287561
1769668319955604700,10.830604736328125,-0.003547064261510968,-0.020771324634552002,0.003632285399362445
1769668319965593900,10.84059375,-0.0012026835465803742,-0.017706293612718582,0.0030117689166218042
1769668319975582700,10.850582763671875,-0.0006077333819121122,-0.017290573567152023,0.0012602078495547175
1769668319985571800,10.86057177734375,0.004285558592528105,-0.01576831005513668,-0.0039880839176476
1769668319995561000,10.87056103515625,0.004760933108627796,-0.012018579989671707,-0.006593720521777868
1769668320005549000,10.880549072265625,0.004888498689979315,-0.013639912009239197,-0.009518137201666832
1769668320015538000,10.890537841796874,0.0065596322529017925,-0.013409814797341824,-0.00891040451824665
1769668320025526800,10.90052685546875,0.0072355424053967,-0.013316337950527668,-0.006443251855671406
1769668320035516000,10.910515869140625,0.009482983499765396,-0.011378621682524681,-0.005658418405801058
1769668320045504800,10.9205048828125,0.009857690893113613,-0.010625213384628296,-0.0032418658956885338
1769668320055492900,10.930492919921875,0.008161523379385471,-0.005054679699242115,-0.000254331884207204
1769668320065482000,10.94048193359375,0.004650411661714315,-0.004224838688969612,-0.00061279337387532
1769668320075470800,10.950470947265625,0.003096990054473281,-0.004203533288091421,-0.006077067460864782
1769668320085460000,10.9604599609375,-0.0012929646763950586,-0.005279450677335262,-0.009577525779604912
1769668320095449000,10.970448974609376,-0.0034013893455266953,-0.005052815657109022,-0.008332764729857445
1769668320105437700,10.980437744140625,-0.0020591560751199722,-0.0023816649336367846,-0.006434197071939707
1769668320115425800,10.99042578125,-0.00034914040588773787,0.0013305152533575892,-0.011661715805530548
1769668320125415000,11.000414794921875,0.002980609890073538,0.0037955371662974358,-0.016686834394931793
1769668320135403800,11.01040380859375,0.007396397180855274,0.005263471510261297,-0.020534036681056023
1769668320145393000,11.020392822265626,0.011534150689840317,0.009795638732612133,-0.02190663106739521
1769668320155382000,11.030382080078125,0.012479039840400219,0.015083611942827702,-0.021284515038132668
1769668320165369900,11.040369873046876,0.008053931407630444,0.014825285412371159,-0.020265590399503708
1769668320175358700,11.050358642578125,0.005009139887988567,0.012338425032794476,-0.015208779834210873
1769668320185347800,11.060347900390624,-0.00017070861940737814,0.005441637244075537,-0.009661149233579636
1769668320195336700,11.070336669921875,-0.0029324067290872335,0.00031132352887652814,-0.004023769870400429
1769668320205325800,11.080325927734375,-0.0051622712053358555,-0.003067695302888751,-0.0014391721924766898
1769668320215314000,11.09031396484375,-0.006914897821843624,-0.002368349116295576,-0.0022975089959800243
1769668320225303000,11.100302978515625,-0.005616340320557356,0.004172907210886478,-0.0067697553895413876
1769668320235292000,11.1102919921875,0.00006924218905624002,0.010045443661510944,-0.012373046018183231
1769668320245281000,11.120281005859376,0.003937750123441219,0.012564527802169323,-0.014800251461565495
1769668320255270000,11.130269775390625,0.006561762653291225,0.01432327926158905,-0.01805649884045124
1769668320265257700,11.1402578125,0.009208411909639835,0.016109460964798927,-0.02286483533680439
1769668320275246800,11.150246826171875,0.009165268391370773,0.016441024839878082,-0.022650184109807014
1769668320285236000,11.160236083984374,0.00729413190856576,0.013876400887966156,-0.020848024636507034
1769668320295224800,11.170224853515625,0.006360693834722042,0.012070777826011181,-0.017121462151408195
1769668320305214000,11.1802138671875,0.00566907087340951,0.013813816010951996,-0.014280135743319988
1769668320315201800,11.190201904296876,0.007503456436097622,0.016029566526412964,-0.009641176089644432
1769668320325190700,11.200190673828125,0.0062826634384691715,0.01503807120025158,-0.006844590418040752
1769668320335179800,11.2101796875,0.0037982002831995487,0.016102803871035576,-0.008699482306838036
1769668320345169000,11.2201689453125,0.004905809182673693,0.021643776446580887,-0.017180584371089935
1769668320355157800,11.23015771484375,0.004338289611041546,0.021766813471913338,-0.020966533571481705
1769668320365145900,11.240145751953126,0.0008250473183579743,0.01786768063902855,-0.022431006655097008
1769668320375135000,11.250135009765625,0.0006916229031048715,0.016581906005740166,-0.01642904058098793
1769668320385124000,11.2601240234375,0.0013334447285160422,0.018555041402578354,-0.012219914235174656
1769668320395112700,11.27011279296875,0.003512975759804249,0.023037143051624298,-0.007019559852778912
1769668320405101800,11.280101806640625,0.005458947736769915,0.023426229134202003,-0.005185441114008427
1769668320415090000,11.29008984375,0.003019758267328143,0.018325744196772575,-0.008645153604447842
1769668320425078800,11.300078857421875,0.003284476464614272,0.017656225711107254,-0.011709120124578476
1769668320435068000,11.31006787109375,0.0041252365335822105,0.019085809588432312,-0.012040417641401291
1769668320445057000,11.32005712890625,0.00370126124471426,0.018515361472964287,-0.012377840466797352
1769668320455046000,11.3300458984375,0.005244562868028879,0.021883195266127586,-0.012249475345015526
1769668320465033700,11.34003369140625,0.007325024344027042,0.02208559401333332,-0.012313657440245152
1769668320475022800,11.35002294921875,0.010180998593568802,0.02141367830336094,-0.012780243530869484
1769668320485011700,11.36001171875,0.010772219859063625,0.02100887894630432,-0.009879262186586857
1769668320495000800,11.370000732421875,0.010178867727518082,0.01960725709795952,-0.008891762234270573
1769668320504990000,11.379989990234375,0.009051019325852394,0.015561915002763271,-0.011037737131118774
1769668320514978000,11.38997802734375,0.008954612538218498,0.01720854826271534,-0.010172209702432156
1769668320524967000,11.399966796875,0.012343751266598701,0.019880231469869614,-0.008618255145847797
1769668320534956000,11.4099560546875,0.016405871137976646,0.025376463308930397,-0.005648031830787659
1769668320544944600,11.419944580078125,0.014731807634234428,0.026215357705950737,-0.006031793542206287
1769668320554933800,11.429933837890625,0.012202337384223938,0.0246100053191185,-0.009275790303945541
1769668320564921900,11.439921875,0.008655539713799953,0.01949513889849186,-0.014150439761579037
1769668320574911000,11.449910888671875,0.00458702864125371,0.015327290631830692,-0.010936270467936993
1769668320584899800,11.45989990234375,-0.0019017633749172091,0.006857373286038637,-0.008674714714288712
1769668320594889000,11.469888916015625,-0.005951365921646357,0.002112152986228466,-0.003213370218873024
1769668320604877800,11.4798779296875,-0.00700864102691412,0.0024868599139153957,-0.000743554555810988
1769668320614865700,11.48986572265625,-0.008292551152408123,0.004503405187278986,-0.0032032502349466085
1769668320624854800,11.499854736328125,-0.0057106162421405315,0.006001433357596397,-0.004611263517290354
1769668320634844000,11.509843994140626,-0.0024114924017339945,0.007693605963140726,-0.004999286029487848
1769668320644832800,11.519832763671875,-0.003192597534507513,0.010359164327383041,-0.00830879621207714
1769668320654822000,11.52982177734375,-0.002240517409518361,0.012013252824544907,-0.009513610042631626
1769668320664810000,11.53981005859375,-0.0018599516479298472,0.010664362460374832,-0.011668107472360134
1769668320674798800,11.549798828125,-0.003067961661145091,0.009178051725029945,-0.01050244178622961
1769668320684787700,11.55978759765625,-0.002372077666223049,0.007281881291419268,-0.009578058496117592
1769668320694776800,11.56977685546875,-0.000012250540748937055,0.008656605146825314,-0.00845740083605051
1769668320704765700,11.579765625,0.0006564692012034357,0.009313873015344143,-0.009983924217522144
1769668320714753800,11.58975390625,0.003590740030631423,0.014518755488097668,-0.0090568782761693
1769668320724743000,11.599742919921875,0.00490154791623354,0.016801616176962852,-0.005542837083339691
1769668320734732300,11.609732177734376,0.0020815266761928797,0.015557920560240746,-0.006994792725890875
1769668320744721400,11.619721435546875,0.002011219272390008,0.011743474751710892,-0.006838198751211166
1769668320754710500,11.62971044921875,0.0034013893455266953,0.008043012581765652,-0.006470682565122843
1769668320764698400,11.639698486328125,0.0018383801216259599,0.006670952308923006,-0.005334045272320509
1769668320774687200,11.649687255859375,0.0011606055777519941,0.006425408646464348,-0.0030575753189623356
1769668320784676400,11.65967626953125,0.0033891387283802032,0.0051657333970069885,0.000529436394572258
1769668320794665200,11.669665283203125,0.00446905056014657,0.006908239796757698,0.0018753979820758104
1769668320804654300,11.679654296875,0.003325755475088954,0.009064069017767906,0.00185036426410079
1769668320814642400,11.689642333984375,0.003177683800458908,0.007243265397846699,0.0022096247412264347
1769668320824631300,11.69963134765625,0.0026375947054475546,0.007835552096366882,0.001121457084082067
1769668320834620200,11.7096201171875,-0.0004426173691172153,0.005902630276978016,0.0006466155173256993
1769668320844609300,11.719609375,-0.00006151902198325843,0.00563950976356864,-0.00031611722079105675
1769668320854598400,11.729598388671874,0.0005281048361212015,0.005030444823205471,0.0012926984345540404
1769668320864586200,11.739586181640625,0.0037942056078463793,0.005240834783762693,0.00407463638111949
1769668320874575400,11.749575439453125,0.005887716542929411,0.005624329671263695,0.00839721318334341
1769668320884564500,11.759564453125,0.0076243639923632145,0.008279501460492611,0.00618119677528739
1769668320894553300,11.76955322265625,0.007428887765854597,0.007710117381066084,-0.00003382214708835818
1769668320904542200,11.779542236328124,0.006111954804509878,0.011444135569036007,-0.002144643571227789
1769668320914530300,11.7895302734375,0.004594751633703709,0.0102539686486125,0.0017648768844082952
1769668320924519400,11.79951953125,-0.0006151901907287538,0.004178499802947044,0.0018021611031144857
1769668320934508300,11.80950830078125,-0.006907973438501358,0.00213638786226511,0.002624545246362686
1769668320944497400,11.819497314453125,-0.00971414614468813,0.004543352872133255,0.0049223206005990505
1769668320954486300,11.829486328125,-0.008392419666051865,0.004768123384565115,0.009789513424038887
1769668320964475400,11.839475341796875,-0.006993194576352835,0.007199323270469904,0.011629225686192513
1769668320974463200,11.849463134765625,-0.006283728405833244,0.013157879933714867,0.013223660178482533
1769668320984452400,11.859452392578126,-0.004746285732835531,0.008628908544778824,0.011186075396835804
1769668320994441200,11.869441162109375,-0.0014421016676351428,0.005720203742384911,0.0005262406193651259
1769668321004430300,11.879430419921874,0.003328418591991067,0.008053132332861423,-0.0041004689410328865
