time,seconds_elapsed,z,y,x
1769668309197674800,0.0726748046875,-0.00789441354572773,0.013662341982126236,-0.0270487442612648
1769668309207663900,0.082663818359375,-0.004585436079651117,0.017208341509103775,-0.02236291393637657
1769668309217652700,0.09265283203125,0.003325400874018669,0.019568726420402527,-0.01952396146953106
1769668309227641900,0.102641845703125,0.005754470359534025,0.017572954297065735,-0.018425939604640007
1769668309237630700,0.112630615234375,0.005524725653231144,0.010600184090435505,-0.012042958289384842
1769668309247618600,0.12261865234375,0.004868523217737675,0.014602115377783775,-0.017369814217090607
1769668309257607700,0.132607666015625,0.0035755131393671036,0.01710904762148857,-0.02496611513197422
1769668309267596800,0.1425966796875,-0.0024626716040074825,0.004939999431371689,-0.022108010947704315
1769668309277585700,0.152585693359375,-0.0011808025883510709,0.006068184040486813,-0.018963012844324112
1769668309287573800,0.16257373046875,-0.0004982344107702374,0.00526817049831152,-0.016052711755037308
1769668309297563000,0.17256298828125,-0.0030121267773211002,0.0005935520166531205,-0.010655786842107773
1769668309307551700,0.1825517578125,-0.004934662953019142,-0.0009859688580036163,-0.011792156845331192
1769668309317540600,0.19254052734375,-0.0033659690525382757,0.0034921495243906975,-0.014277673326432705
1769668309327529700,0.20252978515625,0.0036964677274227142,0.01551312580704689,-0.015066768042743206
1769668309337517800,0.212517822265625,0.007483083754777908,0.026121266186237335,-0.022968396544456482
1769668309347506700,0.222506591796875,0.010358498431742191,0.02807336300611496,-0.026656609028577805
1769668309357495800,0.232495849609375,0.0125470831990242,0.029320046305656433,-0.0314268060028553
1769668309367485000,0.24248486328125,0.011074887588620186,0.023736996576189995,-0.03628121316432953
1769668309377473800,0.252473876953125,0.006945435889065266,0.014351327903568745,-0.04748928174376488
1769668309387461600,0.262461669921875,0.0017504075076431036,0.012618674896657467,-0.066909059882164
1769668309397450800,0.27245068359375,-0.02633817493915558,0.003509175032377243,-0.07608432322740555
1769668309407439600,0.282439697265625,-0.033547352999448776,-0.0038962766993790865,-0.08191531896591187
1769668309417428700,0.2924287109375,-0.035112980753183365,0.01835237815976143,-0.1087455302476883
1769668309427417900,0.30241796875,-0.006379337981343269,0.05786064267158508,-0.140949547290802
1769668309437406000,0.312406005859375,0.008820300921797752,0.09018803387880325,-0.1663362979888916
1769668309447394800,0.322394775390625,0.03945384547114372,0.10599362850189209,-0.2070073038339615
1769668309457383700,0.3323837890625,0.03889030963182449,0.11451032012701035,-0.22205212712287903
1769668309467372500,0.34237255859375,0.042224325239658356,0.1459135264158249,-0.2505192160606384
1769668309477361700,0.352361572265625,0.07197690010070801,0.2040315717458725,-0.28325194120407104
1769668309487349800,0.362349853515625,0.08374407142400742,0.22396507859230042,-0.30664169788360596
1769668309497339000,0.3723388671875,0.07027584314346313,0.22738242149353027,-0.2989065647125244
1769668309507327700,0.38232763671875,0.04251212626695633,0.21116270124912262,-0.29020360112190247
1769668309517316900,0.39231689453125,0.0650797113776207,0.21416327357292175,-0.3496142327785492
1769668309527304700,0.4023046875,0.08943085372447968,0.27429184317588806,-0.4441694915294647
1769668309537293600,0.41229345703125,0.09761025011539459,0.2910752296447754,-0.4826488196849823
1769668309547282700,0.42228271484375,0.09887605160474777,0.2805280387401581,-0.43908190727233887
1769668309557271800,0.432271728515625,0.08806847035884857,0.2743159830570221,-0.3765111565589905
1769668309567260700,0.4422607421875,0.08042945712804794,0.2665393054485321,-0.32240477204322815
1769668309577248800,0.452248779296875,0.07084602862596512,0.23724958300590515,-0.28788062930107117
1769668309587238000,0.46223779296875,0.04612790420651436,0.22996477782726288,-0.2964315116405487
1769668309597226800,0.472226806640625,0.03726792335510254,0.24921390414237976,-0.36957570910453796
1769668309607215600,0.482215576171875,0.019564025104045868,0.2628708481788635,-0.444327712059021
1769668309617204700,0.492204833984375,-0.013904719613492489,0.23996001482009888,-0.5452507734298706
1769668309627192800,0.50219287109375,-0.09374202787876129,0.1169842854142189,-0.588334321975708
1769668309637181700,0.512181640625,-0.18669626116752625,-0.0131458081305027,-0.585172176361084
1769668309647170800,0.5221708984375,-0.2729688286781311,-0.08649405837059021,-0.6183615326881409
1769668309657159700,0.53215966796875,-0.29742908477783203,-0.10977885872125626,-0.6792968511581421
1769668309667148800,0.542148681640625,-0.2559002637863159,-0.1862371414899826,-0.88426274061203
1769668309677136600,0.55213671875,-0.2220306694507599,-0.10936643183231354,-1.1012126207351685
1769668309687125800,0.562125732421875,-0.14846056699752808,0.057334933429956436,-1.1998223066329956
1769668309697114600,0.572114501953125,-0.053679294884204865,0.12363281100988388,-1.2886285781860352
1769668309707103700,0.582103759765625,0.0032087545841932297,0.13002413511276245,-1.3177510499954224
1769668309717091800,0.592091796875,0.034109536558389664,0.1581459790468216,-1.2504498958587646
1769668309727081200,0.602081298828125,0.03728562220931053,0.1481998711824417,-1.148503303527832
1769668309737070300,0.6120703125,0.010579627007246017,0.08556400239467621,-1.0494240522384644
1769668309747059500,0.6220595703125,-0.013068177737295628,0.04526851326227188,-0.9718977808952332
1769668309757048300,0.63204833984375,-0.027803411707282066,0.02644983120262623,-0.8745676875114441
1769668309767036400,0.642036376953125,-0.028013801202178,0.046581462025642395,-0.8056533336639404
1769668309777025300,0.652025390625,-0.053417205810546875,0.03821098059415817,-0.6750744581222534
1769668309787014100,0.66201416015625,-0.05782420560717583,0.019213587045669556,-0.49824222922325134
1769668309797003300,0.672003173828125,-0.07696212828159332,0.0009236549958586693,-0.3221362829208374
1769668309806992400,0.681992431640625,-0.08862277865409851,-0.03599974140524864,-0.17508505284786224
1769668309816980500,0.69198046875,-0.11147403717041016,-0.060748230665922165,-0.055962126702070236
1769668309826969300,0.70196923828125,-0.15089920163154602,-0.09103289991617203,0.04240864887833595
1769668309836958500,0.71195849609375,-0.19127169251441956,-0.12027207762002945,0.12013372033834457
1769668309846947300,0.721947265625,-0.22610503435134888,-0.14554893970489502,0.17367631196975708
1769668309856935200,0.73193505859375,-0.23186439275741577,-0.15111052989959717,0.2029975950717926
1769668309866924300,0.74192431640625,-0.22417186200618744,-0.13088035583496094,0.21850784122943878
1769668309876913400,0.751913330078125,-0.1944015622138977,-0.09323037415742874,0.2249400019645691
1769668309886902300,0.76190234375,-0.15795354545116425,-0.06209535524249077,0.21148917078971863
1769668309896891400,0.771891357421875,-0.12482955306768417,-0.04019109159708023,0.17988146841526031
1769668309906879500,0.78187939453125,-0.09902831166982651,-0.030181599780917168,0.14328937232494354
1769668309916868000,0.7918681640625,-0.08175061643123627,-0.020207125693559647,0.10899465531110764
1769668309926857200,0.801857177734375,-0.07108598202466965,-0.013221385888755322,0.0836927592754364
1769668309936846300,0.811846435546875,-0.05974886193871498,-0.015719853341579437,0.06763294339179993
1769668309946835200,0.821835205078125,-0.04422076791524887,-0.004468264989554882,0.04841158166527748
1769668309956823300,0.8318232421875,-0.024761097505688667,0.006654640194028616,0.03232550248503685
1769668309966812400,0.8418125,-0.010260452516376972,0.019241539761424065,0.010050556622445583
1769668309976801300,0.85180126953125,-0.00442284531891346,0.018371524289250374,-0.015817219391465187
1769668309986790400,0.861790283203125,-0.005492637399584055,0.011747444979846478,-0.035891059786081314
1769668309996778200,0.8717783203125,-0.006539630703628063,0.010264160111546516,-0.049756430089473724
1769668310006767400,0.881767333984375,-0.005034411791712046,0.016437100246548653,-0.051214512437582016
1769668310016756200,0.891756103515625,-0.011387818492949009,0.01189403049647808,-0.03665979579091072
1769668310026745300,0.901745361328125,-0.013993455097079277,0.005041717551648617,-0.01662243902683258
1769668310036734500,0.911734375,-0.012097498401999474,-0.005418058019131422,-0.003816580632701516
1769668310046722300,0.921722412109375,-0.006617245264351368,-0.005342423915863037,0.003198984544724226
1769668310056711400,0.93171142578125,0.0018391323974356055,-0.006011984311044216,-0.0015065956395119429
1769668310066700300,0.9417001953125,0.0074117970652878284,-0.0070681944489479065,-0.01494730357080698
1769668310076689200,0.951689208984375,0.009228646755218506,-0.006616298109292984,-0.026722241193056107
1769668310086678300,0.96167822265625,0.005661342293024063,-0.010451782494783401,-0.027491364628076553
1769668310096666400,0.971666259765625,0.002033764496445656,-0.013810154050588608,-0.023658670485019684
1769668310106655200,0.9816552734375,0.005549403373152018,-0.00460174260661006,-0.028890183195471764
1769668310116644400,0.991644287109375,0.007706339005380869,0.002258251653984189,-0.028883032500743866
1769668310126633500,1.001633544921875,0.00805787555873394,0.0010401218896731734,-0.019835473969578743
1769668310136621300,1.011621337890625,0.002317477250471711,-0.004462599288672209,-0.014057046733796597
1769668310146610200,1.021610107421875,-0.006589198485016823,-0.009503430686891079,-0.012070861645042896
1769668310156599300,1.031599365234375,-0.01706678792834282,-0.020437179133296013,-0.013092586770653725
1769668310166588400,1.04158837890625,-0.02482857182621956,-0.03059607371687889,-0.0136657003313303
1769668310176577300,1.051577392578125,-0.029209425672888756,-0.03365640714764595,-0.01697477512061596
1769668310186565400,1.0615654296875,-0.03460019826889038,-0.030667545273900032,-0.019618762657046318
1769668310196554500,1.071554443359375,-0.03851436823606491,-0.03306586295366287,-0.018506240099668503
1769668310206543000,1.081543212890625,-0.0418156236410141,-0.0312541127204895,-0.02636389620602131
1769668310216532200,1.0915322265625,-0.04149502515792847,-0.024703701958060265,-0.03962501138448715
1769668310226521300,1.101521240234375,-0.041840437799692154,-0.019791236147284508,-0.053246814757585526
1769668310236509400,1.111509521484375,-0.046592891216278076,-0.01804729923605919,-0.05885639786720276
1769668310246498300,1.121498291015625,-0.058749955147504807,-0.025774728506803513,-0.05579349398612976
1769668310256487400,1.1314873046875,-0.08063607662916183,-0.032421767711639404,-0.043204255402088165
1769668310266476300,1.141476318359375,-0.10516539216041565,-0.04090207442641258,-0.029021859169006348
1769668310276465400,1.15146533203125,-0.12565985321998596,-0.04524527117609978,-0.013972166925668716
1769668310286453200,1.161453369140625,-0.1458711177110672,-0.049563053995370865,-0.0031693195924162865
1769668310296442400,1.1714423828125,-0.1465521901845932,-0.04734403267502785,-0.00425743218511343
1769668310306431200,1.18143115234375,-0.13867855072021484,-0.027158338576555252,-0.00826122798025608
1769668310316420400,1.19142041015625,-0.11957274377346039,-0.015907498076558113,-0.013378700241446495
1769668310326408400,1.201408447265625,-0.11431778967380524,0.0019844169728457928,0.01535228081047535
1769668310336397300,1.211397216796875,-0.11869757622480392,-0.008744907565414906,0.08983691781759262
1769668310346386400,1.221386474609375,-0.07779035717248917,0.02988823875784874,0.11345303058624268
1769668310356375300,1.231375244140625,-0.0025988942943513393,0.08622050285339355,0.10989665985107422
1769668310366364200,1.2413642578125,0.06370742619037628,0.12277159094810486,0.09613078087568283
1769668310376352300,1.251352294921875,0.10005606710910797,0.1552620381116867,0.08148515224456787
1769668310386341400,1.26134130859375,0.1182238757610321,0.15569905936717987,0.045154839754104614
1769668310396330200,1.271330322265625,0.11834554374217987,0.15041698515415192,0.015604974702000618
1769668310406319400,1.2813193359375,0.07984928786754608,0.0948309674859047,0.016853995621204376
1769668310416307200,1.29130712890625,0.04428956285119057,0.019897308200597763,0.05501333624124527
1769668310426296300,1.30129638671875,0.02746717445552349,0.06320802867412567,0.1169440820813179
1769668310436285200,1.31128515625,0.012760093435645103,0.10357940196990967,0.18282027542591095
1769668310446274300,1.3212744140625,-0.012709047645330429,0.1284610480070114,0.172859787940979
1769668310456263400,1.331263427734375,-0.0692024677991867,0.053556717932224274,0.19536590576171875
1769668310466251300,1.341251220703125,-0.1727091670036316,-0.04724739119410515,0.22150084376335144
1769668310476240400,1.351240478515625,-0.27634111046791077,-0.14808225631713867,0.2939767837524414
1769668310486229500,1.3612294921875,-0.3510022759437561,-0.18377792835235596,0.3860933780670166
1769668310496218000,1.371218017578125,-0.39073801040649414,-0.18295523524284363,0.4641418755054474
1769668310506207200,1.381207275390625,-0.4059838056564331,-0.19965432584285736,0.5799566507339478
1769668310516195300,1.3911953125,-0.38603442907333374,-0.18838873505592346,0.6496242880821228
1769668310526184400,1.401184326171875,-0.3685089647769928,-0.20880267024040222,0.8429394364356995
1769668310536173300,1.41117333984375,-0.3492869436740875,-0.12205235660076141,0.8467357754707336
1769668310546162400,1.421162353515625,-0.3050960600376129,-0.06721413880586624,0.7550782561302185
1769668310556150500,1.431150634765625,-0.3146624267101288,-0.10013939440250397,0.6198015809059143
1769668310566139100,1.44113916015625,-0.2403344064950943,-0.02505503036081791,0.32326897978782654
1769668310576128300,1.451128173828125,-0.13916802406311035,0.01418917067348957,0.2556203007698059
1769668310586117400,1.461117431640625,-0.0704781711101532,0.06289465725421906,0.1418340802192688
1769668310596106200,1.471106201171875,-0.03809443488717079,0.06254124641418457,0.01445133239030838
1769668310606094300,1.48109423828125,-0.029708674177527428,0.053714994341135025,-0.11545553803443909
1769668310616083500,1.49108349609375,-0.016334543004631996,0.06040346622467041,-0.1781189739704132
1769668310626072300,1.501072265625,0.00005055568180978298,0.09864486008882523,-0.17018142342567444
1769668310636061400,1.5110615234375,0.018148768693208694,0.14263074100017548,-0.11852484196424484
1769668310646050300,1.52105029296875,0.03733258321881294,0.1786566525697708,-0.07464633136987686
1769668310656038400,1.531038330078125,0.0455063171684742,0.1872863471508026,-0.038310177624225616
1769668310666027300,1.54102734375,0.03919675946235657,0.16981388628482819,-0.009281190112233162
1769668310676016400,1.551016357421875,0.030302908271551132,0.16452640295028687,0.01512184739112854
1769668310686005200,1.561005126953125,0.030005432665348053,0.17232440412044525,0.026769980788230896
1769668310695993300,1.570993408203125,0.034503377974033356,0.19995519518852234,0.027162499725818634
1769668310705982200,1.580982177734375,0.047382425516843796,0.21105365455150604,0.012627234682440758
1769668310715971300,1.590971435546875,0.04911264032125473,0.20553843677043915,-0.017516089603304863
1769668310725960200,1.600960205078125,0.037107907235622406,0.16907870769500732,-0.0484260655939579
1769668310735949300,1.61094921875,0.029208922758698463,0.15344122052192688,-0.06235034763813019
1769668310745937200,1.620937255859375,0.01925642229616642,0.15494537353515625,-0.058830443769693375
1769668310755926000,1.630926025390625,0.004495807457715273,0.12253878265619278,-0.05069172754883766
1769668310765915100,1.6409150390625,-0.0017791326390579343,0.11321958154439926,-0.03543873876333237
1769668310775904300,1.650904296875,-0.0012227039551362395,0.1364908367395401,-0.026071593165397644
1769668310785893000,1.66089306640625,-0.007633998058736324,0.1819712370634079,-0.02166672609746456
1769668310795881200,1.670881103515625,-0.018101241439580917,0.16143417358398438,-0.029443517327308655
1769668310805870300,1.680870361328125,-0.028633510693907738,0.11186608672142029,-0.01641906425356865
1769668310815859200,1.690859130859375,-0.04158284515142441,0.0897129625082016,0.00340885273180902
1769668310825848000,1.70084814453125,-0.0518256276845932,0.08882826566696167,0.024704020470380783
1769668310835836200,1.710836181640625,-0.0649585872888565,0.07524467259645462,0.040086813271045685
1769668310845825300,1.7208251953125,-0.07868345081806183,0.060659606009721756,0.05018924921751022
1769668310855814100,1.730814208984375,-0.08891713619232178,0.032520171254873276,0.05625145137310028
1769668310865803300,1.74080322265625,-0.09581258893013,0.01359068788588047,0.05613959953188896
1769668310875792400,1.75079248046875,-0.09893244504928589,0.014773090369999409,0.04910561814904213
1769668310885780200,1.7607802734375,-0.09045693278312683,0.012776519171893597,0.03538181632757187
1769668310895769000,1.77076904296875,-0.0978773832321167,0.0069040642119944096,0.030038531869649887
1769668310905758200,1.78075830078125,-0.10861924290657043,-0.01191622857004404,0.037195511162281036
1769668310915747000,1.7907470703125,-0.12053320556879044,-0.039121270179748535,0.03768601268529892
1769668310925736200,1.800736083984375,-0.11553259193897247,-0.0358479805290699,0.027359072118997574
1769668310935724300,1.810724365234375,-0.0993511825799942,-0.030330220237374306,0.018974337726831436
1769668310945713400,1.82071337890625,-0.09357532113790512,-0.02324381284415722,0.005839893128722906
1769668310955702300,1.830702392578125,-0.08972491323947906,-0.0012289632577449083,-0.007214297540485859
1769668310965691100,1.840691162109375,-0.08578556776046753,-0.0034473766572773457,-0.010616485960781574
1769668310975679200,1.85067919921875,-0.08275817334651947,-0.011500312946736813,-0.002916825469583273
1769668310985668000,1.860668212890625,-0.07697378844022751,-0.009542090818285942,0.00815926119685173
1769668310995657200,1.8706572265625,-0.06834647804498672,0.001771075651049614,0.01653309538960457
1769668311005646300,1.880646240234375,-0.06299219280481339,-0.0009544033091515303,0.02815539762377739
1769668311015635200,1.89063525390625,-0.05737369880080223,0.013676592148840427,0.025961365550756454
1769668311025623000,1.900623046875,-0.05502452328801155,0.008169707842171192,0.007984763011336327
1769668311035612200,1.910612060546875,-0.04436666890978813,0.017250629141926765,0.0019120059441775084
1769668311045601000,1.92060107421875,-0.03570207208395004,0.012098478153347969,0.012329226359724998
1769668311055590100,1.930590087890625,-0.03138575330376625,0.0116818156093359,0.010292300954461098
1769668311065579300,1.940579345703125,-0.028052007779479027,0.01258649118244648,0.006051217205822468
1769668311075567400,1.9505673828125,-0.022740868851542473,0.013823169283568859,-0.004446794278919697
1769668311085556200,1.96055615234375,-0.01604541577398777,0.013576294295489788,-0.020039336755871773
1769668311095545300,1.97054541015625,-0.0032892271410673857,0.011540181003510952,-0.031070809811353683
1769668311105534200,1.9805341796875,0.011690255254507065,0.010488498955965042,-0.04348726570606232
1769668311115522000,1.99052197265625,0.03454647958278656,0.0299670547246933,-0.0634690374135971
1769668311125511200,2.00051123046875,0.042867790907621384,0.04368925839662552,-0.06613699346780777
1769668311135500300,2.010500244140625,0.04740656912326813,0.057105883955955505,-0.06682019680738449
1769668311145489200,2.0204892578125,0.05196776241064072,0.06989172101020813,-0.06062115728855133
1769668311155478300,2.030478271484375,0.05171503871679306,0.07198160141706467,-0.052895765751600266
1769668311165466400,2.04046630859375,0.051320623606443405,0.07258054614067078,-0.04594331607222557
1769668311175455000,2.050455078125,0.04332593083381653,0.06940284371376038,-0.03473993018269539
1769668311185444000,2.060444091796875,0.03806352615356445,0.0686744675040245,-0.02440100722014904
1769668311195433200,2.07043310546875,0.028662655502557755,0.06410162895917892,-0.022974815219640732
1769668311205422000,2.080422119140625,0.016491476446390152,0.05461704730987549,-0.021498624235391617
1769668311215410200,2.09041015625,0.004159502685070038,0.04002558812499046,-0.012809809297323227
1769668311225399300,2.1003994140625,-0.009445256553590298,0.03638691082596779,-0.004169715568423271
1769668311235388200,2.11038818359375,-0.017750056460499763,0.018329083919525146,0.008238484151661396
1769668311245377300,2.120377197265625,-0.01155927311629057,0.024225853383541107,0.021367335692048073
1769668311255365000,2.130365234375,-0.001475884229876101,0.039515409618616104,0.027387497946619987
1769668311265354200,2.140354248046875,0.0022826348431408405,0.04850571230053902,0.02914731577038765
1769668311275343000,2.150343017578125,-0.0012064173351973295,0.05515119805932045,0.024481024593114853
1769668311285332200,2.160332275390625,0.0028312010690569878,0.05263184756040573,0.016867313534021378
1769668311295321300,2.1703212890625,0.010391512885689735,0.04954607039690018,0.012219062075018883
1769668311305309200,2.18030908203125,0.015231008641421795,0.0701538696885109,0.013427072204649448
1769668311315298000,2.190298095703125,0.022012177854776382,0.08266334980726242,0.006985232699662447
1769668311325287200,2.200287109375,0.028881536796689034,0.09297937154769897,0.0036853100173175335
1769668311335276000,2.210276123046875,0.0310344360768795,0.0893823578953743,-0.0013365056365728378
1769668311345265200,2.22026513671875,0.0351032130420208,0.08893627673387527,-0.0054319147020578384
1769668311355253200,2.230253173828125,0.04461153969168663,0.09375922381877899,-0.010752951726317406
1769668311365242400,2.240242431640625,0.056560877710580826,0.10114976018667221,-0.018075579777359962
1769668311375231200,2.250231201171875,0.060308344662189484,0.1045355275273323,-0.022333353757858276
1769668311385220400,2.260220458984375,0.059600476175546646,0.09970828145742416,-0.02428145706653595
1769668311395208200,2.270208251953125,0.0533057376742363,0.09206040948629379,-0.02811594307422638
1769668311405197000,2.280197021484375,0.0515589714050293,0.08182135224342346,-0.029343660920858383
1769668311415186200,2.290186279296875,0.0482962429523468,0.06962155550718307,-0.02814456820487976
1769668311425175300,2.30017529296875,0.046587295830249786,0.06314448267221451,-0.03169829025864601
1769668311435164200,2.3101640625,0.04392693191766739,0.05528566986322403,-0.02577311173081398
1769668311445152300,2.32015234375,0.03321569785475731,0.04711296409368515,-0.01583712361752987
1769668311455141400,2.330141357421875,0.02630661614239216,0.03759865090250969,-0.0008799128700047731
1769668311465130000,2.3401298828125,0.016948269680142403,0.025954779237508774,0.0073873382061719894
1769668311475119000,2.350119140625,0.011289850808680058,0.01652127131819725,0.014079539105296135
1769668311485108200,2.360108154296875,0.006677255965769291,0.006783156655728817,0.021169940009713173
1769668311495096300,2.370096435546875,0.006467597559094429,0.0035227579064667225,0.022880354896187782
1769668311505085200,2.380085205078125,0.004304045345634222,0.005545695312321186,0.024890508502721786
1769668311515074300,2.39007421875,0.0007182992994785309,0.011327870190143585,0.03374994173645973
1769668311525063200,2.400063232421875,-0.004396834410727024,0.003883535973727703,0.0412728376686573
1769668311535051000,2.410051025390625,-0.010298987850546837,-0.014667510986328125,0.038959890604019165
1769668311545040100,2.4200400390625,-0.01650841347873211,-0.023742498829960823,0.03363516926765442
1769668311555029200,2.430029296875,-0.023696810007095337,-0.033177655190229416,0.02829834073781967
1769668311565018000,2.44001806640625,-0.022766035050153732,-0.03220507130026817,0.02792363241314888
1769668311575007200,2.45000732421875,-0.01745893619954586,-0.025739559903740883,0.025356771424412727
1769668311584995300,2.459995361328125,-0.008774101734161377,-0.009678835049271584,0.027212994173169136
1769668311594984200,2.469984130859375,-0.003465179819613695,-0.002557080239057541,0.026907460764050484
1769668311604973300,2.479973388671875,0.00014686549548059702,0.0027042608708143234,0.015068644657731056
1769668311614962200,2.489962158203125,0.002946342807263136,0.0037516686134040356,0.000005784677341580391
1769668311624951000,2.499950927734375,0.008997843600809574,0.013909763656556606,-0.007329093758016825
1769668311634939100,2.509939208984375,0.009840156883001328,0.013691840693354607,-0.00024488591589033604
1769668311644928300,2.51992822265625,0.00734104635193944,0.008796418085694313,0.01072600670158863
1769668311654917000,2.529917236328125,0.0009509259834885597,0.005817285738885403,0.01588601805269718
1769668311664906200,2.53990625,-0.0018935964908450842,0.00276983086951077,0.01966637372970581
1769668311674894000,2.54989404296875,-0.005649497266858816,0.002344089327380061,0.02732119709253311
1769668311684883200,2.55988330078125,-0.006928613875061274,-0.0028213777113705873,0.030339889228343964
1769668311694872000,2.5698720703125,-0.007490185089409351,-0.0047236038371920586,0.026495419442653656
1769668311704861200,2.579861083984375,-0.007170339114964008,-0.00395022239536047,0.020848985761404037
1769668311714850300,2.589850341796875,-0.009519380517303944,-0.006736242678016424,0.017432866618037224
1769668311724838000,2.599837890625,-0.013498942367732525,-0.010170122608542442,0.024362944066524506
1769668311734826800,2.60982666015625,-0.017609937116503716,-0.021766923367977142,0.03403228521347046
1769668311744815900,2.61981591796875,-0.025563733652234077,-0.03386273607611656,0.04409423843026161
1769668311754804700,2.6298046875,-0.030106598511338234,-0.045672956854104996,0.05089924857020378
1769668311764793900,2.6397939453125,-0.029678896069526672,-0.05220995470881462,0.05142255872488022
1769668311774782000,2.649781982421875,-0.027439678087830544,-0.05507337301969528,0.04880043864250183
1769668311784771000,2.65977099609375,-0.026063090190291405,-0.049075402319431305,0.05175521597266197
1769668311794759700,2.669759765625,-0.019071299582719803,-0.03945173695683479,0.05144607648253441
1769668311804748800,2.679748779296875,-0.009769142605364323,-0.028283769264817238,0.04910009726881981
1769668311814737000,2.68973681640625,-0.00040826445911079645,-0.01542422641068697,0.044556938111782074
1769668311824725800,2.699725830078125,0.004062650725245476,-0.006177997216582298,0.041620269417762756
1769668311834715000,2.70971484375,0.00704934261739254,-0.006739350967109203,0.03412830829620361
1769668311844704000,2.7197041015625,0.006007780786603689,-0.013920565135776997,0.020368285477161407
1769668311854692900,2.72969287109375,0.007091193459928036,-0.013821213506162167,0.010718073695898056
1769668311864680700,2.7396806640625,0.010555699467658997,-0.00456220144405961,0.0052873557433485985
1769668311874669800,2.749669921875,0.012056037783622742,-0.00006158556789159775,0.0035361985210329294
1769668311884658700,2.75965869140625,0.005832763854414225,0.0032058467622846365,-0.0009815879166126251
1769668311894647800,2.769647705078125,-0.002892015501856804,-0.007418091408908367,-0.005176125094294548
1769668311904637000,2.779636962890625,-0.010233552195131779,-0.016895215958356857,-0.009652632288634777
1769668311914625000,2.789625,-0.013124550692737103,-0.021356992423534393,-0.010968944057822227
1769668311924614000,2.79961376953125,-0.015611943788826466,-0.023946117609739304,-0.00719471275806427
1769668311934603000,2.80960302734375,-0.019056208431720734,-0.027788525447249413,-0.00508495606482029
1769668311944592000,2.819591796875,-0.02108447253704071,-0.02843647263944149,-0.006674330681562424
1769668311954579700,2.829579833984375,-0.024894388392567635,-0.036451224237680435,-0.012332974001765251
1769668311964568800,2.83956884765625,-0.022714324295520782,-0.03666827082633972,-0.018676888197660446
1769668311974558000,2.849557861328125,-0.021931400522589684,-0.034687936305999756,-0.020109672099351883
1769668311984546800,2.859546875,-0.02166588231921196,-0.04410940036177635,-0.018305912613868713
1769668311994536000,2.869535888671875,-0.021401744335889816,-0.038800258189439774,-0.015507585369050503
1769668312004523800,2.879523681640625,-0.01973061077296734,-0.03884287178516388,-0.012397012673318386
1769668312014513000,2.889512939453125,-0.01701498031616211,-0.030924372375011444,-0.011010732501745224
1769668312024501800,2.899501708984375,-0.013654602691531181,-0.023108262568712234,-0.008770747110247612
1769668312034491000,2.909490966796875,-0.011196020990610123,-0.014319617301225662,-0.0056804693304002285
1769668312044479700,2.919479736328125,-0.007884380407631397,-0.006583933252841234,-0.0027643078938126564
1769668312054467800,2.9294677734375,-0.0062509821727871895,-0.0029866208788007498,0.0032437071204185486
1769668312064457000,2.93945703125,-0.00337343686260283,-0.009243184700608253,0.006151612848043442
1769668312074446000,2.949446044921875,-0.006210314575582743,-0.01215091161429882,0.00825781561434269
1769668312084434700,2.9594345703125,-0.008695842698216438,-0.01635284721851349,0.011006729677319527
1769668312094422800,2.9694228515625,-0.007254940457642078,-0.013780889101326466,0.0056709591299295425
1769668312104412000,2.979411865234375,-0.006342275068163872,-0.005825493484735489,0.002458920469507575
1769668312114400800,2.98940087890625,-0.005384556483477354,-0.004527682904154062,-0.0012177831958979368
1769668312124390000,2.999389892578125,-0.004241793882101774,0.0043622152879834175,-0.0069816624745726585
1769668312134379000,3.00937890625,0.0023453570902347565,0.009583529084920883,-0.015529163181781769
1769668312144367000,3.0193671875,0.01103099063038826,0.006331276148557663,-0.012869197875261307
1769668312154355700,3.029355712890625,0.015239979140460491,0.008224601857364178,-0.014729593880474567
1769668312164344800,3.0393447265625,0.022171122953295708,0.01036844588816166,-0.016734156757593155
1769668312174333700,3.049333740234375,0.027625810354948044,0.007068200968205929,-0.019457828253507614
1769668312184322800,3.05932275390625,0.03572900965809822,0.010612867772579193,-0.024389736354351044
1769668312194311000,3.069310791015625,0.03721754252910614,0.014676273800432682,-0.023483771830797195
1769668312204300000,3.079300048828125,0.038695063441991806,0.012625106610357761,-0.02128373458981514
1769668312214289000,3.089288818359375,0.04150540754199028,0.012927630916237831,-0.02048533409833908
1769668312224278000,3.099278076171875,0.04229530319571495,0.012630421668291092,-0.017806194722652435
1769668312234265900,3.109265869140625,0.042583804577589035,-0.0014872883912175894,-0.011693460866808891
1769668312244254700,3.119254638671875,0.040951285511255264,-0.006423190701752901,-0.007427875883877277
1769668312254243800,3.129243896484375,0.04038647562265396,-0.008571927435696125,-0.0023671705275774
1769668312264233000,3.13923291015625,0.036273226141929626,-0.017377935349941254,0.0031511657871305943
1769668312274221800,3.149221923828125,0.032400403171777725,-0.025916144251823425,0.006441929377615452
1769668312284210000,3.1592099609375,0.02683599293231964,-0.025066861882805824,0.010925360955297947
1769668312294198800,3.16919873046875,0.022639621049165726,-0.02658839337527752,0.013446759432554245
1769668312304187600,3.179187744140625,0.015610205940902233,-0.03323058411478996,0.009601419791579247
1769668312314176800,3.1891767578125,0.008769256994128227,-0.03267943859100342,0.0022568278945982456
1769668312324166000,3.199165771484375,0.005653624888509512,-0.023464366793632507,-0.003819972975179553
1769668312334154000,3.209154052734375,0.0034180758520960808,-0.0220118910074234,-0.00913192704319954
1769668312344142800,3.219142822265625,-0.0001449675764888525,-0.022958645597100258,-0.009904243052005768
1769668312354132000,3.229132080078125,-0.0040213302709162235,-0.028784604743123055,-0.009106655605137348
1769668312364121000,3.23912109375,-0.0045686098746955395,-0.03764760494232178,-0.00896896980702877
1769668312374110000,3.24910986328125,-0.0020467350259423256,-0.05101046711206436,-0.01163337379693985
1769668312384097800,3.259097900390625,0.0016209704335778952,-0.049232807010412216,-0.004783989395946264
1769668312394087000,3.2690869140625,0.0053396327421069145,-0.05007562413811684,-0.0037263790145516396
1769668312404075800,3.27907568359375,0.01070110872387886,-0.044828131794929504,-0.008488377556204796
1769668312414065000,3.28906494140625,0.014088964089751244,-0.0440412312746048,-0.017534926533699036
1769668312424053000,3.299052978515625,0.020095722749829292,-0.03318112716078758,-0.022524360567331314
1769668312434041900,3.309041748046875,0.02323923259973526,-0.02722577378153801,-0.016129860654473305
1769668312444030700,3.31903076171875,0.026416383683681488,-0.022011037915945053,-0.001884345430880785
1769668312454019800,3.329019775390625,0.02541542425751686,-0.024723004549741745,0.010683848522603512
1769668312464008700,3.3390087890625,0.019493618980050087,-0.03581613674759865,0.015534529462456703
1769668312473996800,3.348996826171875,0.012376904487609863,-0.044113900512456894,0.01645262911915779
1769668312483986000,3.35898583984375,0.009896435774862766,-0.04455704987049103,0.021875889971852303
1769668312493975000,3.36897509765625,0.011472099460661411,-0.045052483677864075,0.023772506043314934
1769668312503964000,3.3789638671875,0.01164573710411787,-0.04424900934100151,0.029246633872389793
1769668312513953000,3.388953125,0.017571981996297836,-0.042094312608242035,0.032579775899648666
1769668312523940900,3.39894091796875,0.02149508334696293,-0.044199541211128235,0.03295794501900673
1769668312533929700,3.4089296875,0.023616380989551544,-0.038877468556165695,0.027909938246011734
1769668312543918800,3.4189189453125,0.022658441215753555,-0.040682557970285416,0.01801389828324318
1769668312553908000,3.428907958984375,0.020465949550271034,-0.03304661437869072,0.013738317415118217
1769668312563896000,3.43889599609375,0.0195452943444252,-0.024860858917236328,0.016200942918658257
1769668312573885000,3.448885009765625,0.01839289627969265,-0.028946734964847565,0.017258698120713234
1769668312583873800,3.458873779296875,0.018348155543208122,-0.02945566363632679,0.0188619215041399
1769668312593862700,3.468862548828125,0.02033611200749874,-0.02846645563840866,0.02274308167397976
1769668312603851800,3.478851806640625,0.025460565462708473,-0.01254794280976057,0.023881850764155388
1769668312613840000,3.48883984375,0.03134220466017723,0.002855500904843211,0.023346781730651855
1769668312623829000,3.4988291015625,0.04497918859124184,0.014453833922743797,0.03220951557159424
1769668312633817900,3.50881787109375,0.039402663707733154,0.03135763108730316,0.03620044142007828
1769668312643807000,3.518806884765625,0.024188825860619545,0.022396093234419823,0.015850428491830826
1769668312653795800,3.5287958984375,0.02410617470741272,0.022510863840579987,-0.00960593856871128
1769668312663783700,3.53878369140625,0.03164398670196533,0.03643413260579109,-0.012082411907613277
1769668312673772800,3.548772705078125,0.03752584382891655,0.04438471049070358,-0.010781733319163322
1769668312683762000,3.558761962890625,0.039787665009498596,0.050954196602106094,-0.017300086095929146
1769668312693750800,3.568750732421875,0.04504328593611717,0.05345585569739342,-0.020023036748170853
1769668312703740000,3.578739990234375,0.051861777901649475,0.061858925968408585,-0.03011828288435936
1769668312713728000,3.58872802734375,0.054019197821617126,0.06729487329721451,-0.045424360781908035
1769668312723716600,3.598716552734375,0.05175603926181793,0.06369880586862564,-0.05863257125020027
1769668312733705700,3.608705810546875,0.044638704508543015,0.0542273186147213,-0.06803535670042038
1769668312743694800,3.61869482421875,0.035736821591854095,0.0493079274892807,-0.0696987733244896
1769668312753682700,3.6286826171875,0.030694708228111267,0.04818332940340042,-0.061988066881895065
1769668312763671600,3.638671630859375,0.020769372582435608,0.049289073795080185,-0.05670595169067383
1769668312773660700,3.64866064453125,0.011297033168375492,0.047714781016111374,-0.04853573068976402
1769668312783649800,3.65864990234375,0.0005783428205177188,0.03650207072496414,-0.049152251332998276
1769668312793638700,3.668638671875,-0.004888941999524832,0.026245201006531715,-0.04717855900526047
1769668312803626800,3.678626708984375,-0.01070475298911333,0.02151276357471943,-0.034060366451740265
1769668312813615900,3.688615966796875,-0.011392960324883461,0.024548126384615898,-0.008674956858158112
1769668312823604500,3.6986044921875,-0.010538618080317974,0.024703653529286385,0.011504347436130047
1769668312833593600,3.708593505859375,-0.014544814825057983,0.015696899965405464,0.024287579581141472
1769668312843582700,3.718582763671875,-0.021593669429421425,-0.00852295383810997,0.02963573858141899
1769668312853570800,3.72857080078125,-0.026331428438425064,-0.023405609652400017,0.030226312577724457
1769668312863559700,3.7385595703125,-0.021806716918945312,-0.026050660759210587,0.025359919294714928
1769668312873548800,3.748548828125,-0.012848332524299622,-0.021552355960011482,0.025179581716656685
1769668312883537700,3.75853759765625,-0.0075704799965023994,-0.019409576430916786,0.026135390624403954
1769668312893525500,3.768525390625,-0.004659689962863922,-0.02178226411342621,0.026160091161727905
1769668312903514600,3.7785146484375,-0.00006121001206338406,-0.015457522124052048,0.018327999860048294
1769668312913503700,3.788503662109375,0.004222079645842314,-0.003022698452696204,0.0010808242950588465
1769668312923492600,3.79849267578125,0.01062698196619749,0.008419573307037354,-0.010225892066955566
1769668312933481700,3.808481689453125,0.012429149821400642,0.00824182853102684,-0.011693412438035011
1769668312943469800,3.8184697265625,0.013110918924212456,0.012462938204407692,-0.002575281308963895
1769668312953458700,3.828458740234375,0.013458550907671452,0.021304702386260033,0.013468735851347446
1769668312963447800,3.83844775390625,0.01727033406496048,0.03218691051006317,0.03271939605474472
1769668312973436700,3.848436767578125,0.020287469029426575,0.045118700712919235,0.04202849417924881
1769668312983425500,3.858425537109375,0.02230827510356903,0.050605081021785736,0.03587952256202698
1769668312993413600,3.86841357421875,0.01475559826940298,0.04388923570513725,0.02748880907893181
1769668313003402800,3.87840283203125,0.0067677125334739685,0.031873852014541626,0.01920238323509693
1769668313013391600,3.8883916015625,-0.0018303925171494484,0.016208799555897713,0.02015732228755951
1769668313023380700,3.898380615234375,-0.010656640864908695,0.008363660424947739,0.017182838171720505
1769668313033369900,3.908369873046875,-0.016308490186929703,0.011714380234479904,0.017235498875379562
1769668313043357700,3.918357666015625,-0.02417067624628544,0.006313755642622709,0.02950308285653591
1769668313053346600,3.9283466796875,-0.035932790488004684,-0.004909777082502842,0.03453176096081734
1769668313063335700,3.938335693359375,-0.043991249054670334,-0.017770715057849884,0.03895021229982376
1769668313073324800,3.94832470703125,-0.05048852041363716,-0.02010149508714676,0.04137769713997841
1769668313083313700,3.958313720703125,-0.05160384997725487,-0.0231044739484787,0.043569210916757584
1769668313093301800,3.9683017578125,-0.04982898756861687,-0.023758843541145325,0.04797298461198807
1769668313103291000,3.978290771484375,-0.043497055768966675,-0.019120682030916214,0.04770320653915405
1769668313113279500,3.988279541015625,-0.03256668895483017,-0.011133439838886261,0.04441995546221733
1769668313123268600,3.9982685546875,-0.021777689456939697,-0.002430229214951396,0.03387276828289032
1769668313133256700,4.008256591796875,-0.007162179797887802,0.008031647652387619,0.020975003018975258
1769668313143245800,4.018245849609375,0.0009151875274255872,0.015421386808156967,0.010540737770497799
1769668313153234700,4.028234619140625,0.007556098513305187,0.024321936070919037,0.00039115757681429386
1769668313163223800,4.038223876953125,0.011373474262654781,0.031896233558654785,-0.008648409508168697
1769668313173212700,4.048212646484375,0.013647720217704773,0.04095741733908653,-0.013204501010477543
1769668313183200500,4.058200439453125,0.015244018286466599,0.038394391536712646,-0.015176038257777691
1769668313193189600,4.068189697265625,0.008787943981587887,0.035280074924230576,-0.010446282103657722
1769668313203178800,4.0781787109375,-0.0004130115848965943,0.04324692115187645,-0.00730508379638195
1769668313213167600,4.088167724609375,-0.004257373511791229,0.035105835646390915,-0.005797537975013256
1769668313223156700,4.09815673828125,-0.008185269311070442,0.03512873873114586,-0.006101137958467007
1769668313233144800,4.108144775390625,-0.012357069179415703,0.030718592926859856,-0.004481344483792782
1769668313243133700,4.1181337890625,-0.014022876508533955,0.024561097845435143,-0.0012480008881539106
1769668313253122800,4.128122802734375,-0.014783036895096302,0.02092231623828411,0.007074534427374601
1769668313263111700,4.138111572265625,-0.013661312870681286,0.024743685498833656,0.019580207765102386
1769668313273100500,4.1481005859375,-0.008533843792974949,0.028487149626016617,0.028113368898630142
1769668313283088600,4.158088623046875,-0.0062821414321660995,0.020599398761987686,0.027879811823368073
1769668313293077800,4.168077880859375,-0.008731666952371597,0.012346109375357628,0.015883974730968475
1769668313303066600,4.178066650390625,-0.004675672389566898,0.007376651279628277,-0.00009605707600712776
1769668313313055700,4.1880556640625,0.0002356900367885828,0.012668337672948837,-0.004565125331282616
1769668313323043600,4.198043701171875,0.0060174125246703625,0.02224559709429741,0.0003457434941083193
1769668313333032700,4.20803271484375,0.004392795264720917,0.021351387724280357,0.007240220904350281
1769668313343021600,4.218021484375,-0.00002006290014833212,0.016835199669003487,0.01090473122894764
1769668313353010700,4.2280107421875,-0.004704429302364588,0.013506336137652397,0.007504221983253956
1769668313362999600,4.23799951171875,-0.0034186551347374916,0.014660282991826534,0.0007046395912766457
1769668313372987600,4.247987548828125,0.00009503052569925785,0.026246296241879463,0.00030216597951948643
1769668313382976800,4.257976806640625,0.0002998275449499488,0.029278572648763657,0.0014182967133820057
1769668313392966000,4.2679658203125,0.0014075252693146467,0.026262611150741577,0.0003381886053830385
1769668313402954800,4.277954833984375,0.004464301280677319,0.027579810470342636,-0.0008889960590749979
1769668313412943600,4.287943603515625,0.006332908757030964,0.028447438031435013,-0.0016917006578296423
1769668313422931700,4.297931640625,0.007739057764410973,0.022574637085199356,-0.0018352449405938387
1769668313432920600,4.307920654296875,0.005679101683199406,0.019510995596647263,-0.0014122787397354841
1769668313442909700,4.31790966796875,0.005125963129103184,0.016470730304718018,0.00002369750291109085
1769668313452898800,4.32789892578125,0.003933754283934832,0.018964465707540512,0.0008234055712819099
1769668313462887700,4.3378876953125,-0.0001251697540283203,0.018787365406751633,0.0004486988764256239
1769668313472875500,4.34787548828125,-0.0032237134873867035,0.017043337225914,-0.0014894818887114525
1769668313482864600,4.35786474609375,-0.007458406034857035,0.011600635014474392,0.00007725553587079048
1769668313492853800,4.367853759765625,-0.010222501121461391,0.0065598031505942345,0.0020711643155664206
1769668313502842600,4.377842529296875,-0.010898943990468979,0.0061155883595347404,0.008330924436450005
1769668313512830700,4.387830810546875,-0.010175052098929882,0.015578500926494598,0.012384956702589989
1769668313522819800,4.39781982421875,-0.006335838697850704,0.016985181719064713,0.015745865181088448
1769668313532808700,4.40780859375,-0.006769577506929636,0.015693027526140213,0.014926956966519356
1769668313542797800,4.4177978515625,-0.005290191154927015,0.017271749675273895,0.012496023438870907
1769668313552786700,4.42778662109375,-0.0052429670467972755,0.017169669270515442,0.010805632919073105
1769668313562774800,4.43777490234375,-0.007870707660913467,0.01174614205956459,0.0134560102596879
1769668313572763600,4.447763671875,-0.010668535716831684,0.007071032654494047,0.017244426533579826
1769668313582752800,4.457752685546875,-0.010450689122080803,0.005457689519971609,0.012804670259356499
1769668313592741600,4.46774169921875,-0.01141941174864769,0.0028082900680601597,0.006113127805292606
1769668313602730800,4.477730712890625,-0.011395709589123726,0.0023552863858640194,-0.0021554548293352127
1769668313612718600,4.487718505859375,-0.012347003445029259,0.001100896974094212,-0.006871411576867104
1769668313622707700,4.497707763671875,-0.01194087229669094,0.002276150044053793,-0.009090623818337917
1769668313632696600,4.507696533203125,-0.01484055444598198,0.001547173596918583,-0.005595039576292038
1769668313642685700,4.517685791015625,-0.015950292348861694,0.0004257163964211941,-0.000930779380723834
1769668313652674600,4.527674560546875,-0.01666446402668953,-0.0021154603455215693,0.008531711995601654
1769668313662662700,4.53766259765625,-0.015221563167870045,-0.005051596090197563,0.012744832783937454
1769668313672651800,4.54765185546875,-0.012563684023916721,0.005294744856655598,0.009385213255882263
1769668313682641000,4.557640869140625,-0.010299730114638805,0.007374673616141081,-0.0002548974007368088
1769668313692629800,4.567629638671875,-0.009440016932785511,0.007255798205733299,-0.008862865157425404
1769668313702618600,4.57761865234375,-0.009483426809310913,0.002114299451932311,-0.013428589329123497
1769668313712606700,4.587606689453125,-0.01045459695160389,0.006246644072234631,-0.014271561056375504
1769668313722595600,4.597595703125,-0.01096485834568739,0.007526026573032141,-0.008424857631325722
1769668313732586500,4.60758642578125,-0.01584944874048233,0.006264094728976488,-0.0027766861021518707
1769668313742575400,4.617575439453125,-0.016287539154291153,0.010358438827097416,0.004673773422837257
1769668313752563200,4.627563232421875,-0.01942749321460724,0.0048335837200284,0.008561595343053341
1769668313762552300,4.63755224609375,-0.024821724742650986,0.005669550038874149,0.0057884459383785725
1769668313772541200,4.647541259765625,-0.03596022352576256,0.004363256506621838,-0.004464203491806984
1769668313782530300,4.6575302734375,-0.04560379683971405,0.0019498999463394284,-0.01244463212788105
1769668313792519400,4.66751953125,-0.05395262688398361,-0.0053795697167515755,-0.01314602792263031
1769668313802507500,4.677507568359375,-0.056003790348768234,-0.00964835099875927,-0.002907770685851574
1769668313812496400,4.687496337890625,-0.04890567064285278,-0.013831852003932,0.012652603909373283
1769668313822485200,4.6974853515625,-0.04098489508032799,-0.02251109480857849,0.0232264194637537
1769668313832474000,4.70747412109375,-0.03581317141652107,-0.027676856145262718,0.025656256824731827
1769668313842463200,4.717463134765625,-0.026871072128415108,-0.018497472628951073,0.025050388649106026
1769668313852451300,4.727451416015625,-0.015356765128672123,-0.002727445447817445,0.02853766269981861
1769668313862440400,4.7374404296875,-0.0062418305315077305,0.007634648121893406,0.0298005323857069
1769668313872429300,4.74742919921875,0.004343260079622269,0.016039563342928886,0.018671950325369835
1769668313882418400,4.75741845703125,0.004859647713601589,0.019813794642686844,-0.008622787892818451
1769668313892407300,4.7674072265625,0.0056673320941627026,0.017948459833860397,-0.03429517522454262
1769668313902395100,4.77739501953125,0.0041213673539459705,0.0173156950622797,-0.042102765291929245
1769668313912384300,4.78738427734375,0.0023068247828632593,0.017863214015960693,-0.03546673059463501
1769668313922373400,4.797373291015625,-0.0007321083685383201,0.01742086187005043,-0.023063592612743378
1769668313932362200,4.8073623046875,-0.002878522966057062,0.017377732321619987,-0.012471124529838562
1769668313942350300,4.817350341796875,-0.009001929312944412,0.016884515061974525,-0.007306457031518221
1769668313952339500,4.82733935546875,-0.0141452020034194,0.01765657588839531,-0.006367945112287998
1769668313962328300,4.837328369140625,-0.016662955284118652,0.03335325047373772,-0.0052084047347307205
1769668313972317200,4.847317138671875,-0.015404300764203072,0.01696304976940155,0.006743553560227156
1769668313982306300,4.857306396484375,-0.013712394051253796,0.010265198536217213,0.005562707781791687
1769668313992294400,4.86729443359375,-0.012019339017570019,0.003606413956731558,0.007762931287288666
1769668314002283300,4.877283203125,-0.011395893059670925,-0.006240889895707369,0.009780009277164936
1769668314012272400,4.8872724609375,-0.0032140957191586494,-0.008542914874851704,0.013728703372180462
1769668314022261500,4.897261474609375,0.0015553594566881657,0.0007682949071750045,0.01645551435649395
1769668314032250400,4.90725048828125,0.007455074228346348,0.009018601849675179,0.014803105965256691
1769668314042238200,4.91723828125,0.009882013313472271,0.017773743718862534,0.009857083670794964
1769668314052227300,4.927227294921875,0.005289786029607058,0.01401770580559969,0.007119176909327507
1769668314062216200,4.93721630859375,-0.0012911510420963168,0.003973593935370445,0.007963931187987328
1769668314072205300,4.947205322265625,-0.006267928052693605,-0.0004276302643120289,0.013747163116931915
1769668314082194400,4.9571943359375,-0.006898032035678625,0.006440395954996347,0.016750676557421684
1769668314092182300,4.967182373046875,-0.0034169238060712814,0.012157948687672615,0.01628197357058525
1769668314102171400,4.97717138671875,0.0007815496064722538,0.017269887030124664,0.01104380190372467
1769668314112160300,4.98716015625,-0.0010775161208584905,0.015167863108217716,0.005119084380567074
1769668314122149000,4.997149169921875,-0.0048618679866194725,0.015276520512998104,0.0034194549079984426
1769668314132138200,5.00713818359375,-0.0019518304616212845,0.016430851072072983,0.002849647542461753
1769668314142126300,5.017126220703125,-0.001816275529563427,0.015423377975821495,0.0033074449747800827
1769668314152115500,5.027115478515625,-0.001834740862250328,0.014084420166909695,0.0017903283005580306
1769668314162104300,5.037104248046875,0.0038841315545141697,0.018707668408751488,-0.002159405965358019
1769668314172093400,5.047093505859375,0.0052602291107177734,0.01993359625339508,-0.0008677032310515642
1769668314182081300,5.057081298828125,0.002997341100126505,0.020084597170352936,-0.0012818246614187956
1769668314192070100,5.067070068359375,0.0012302445247769356,0.018420618027448654,-0.003376691835001111
1769668314202059300,5.077059326171875,-0.00291017210111022,0.017651762813329697,-0.006546918302774429
1769668314212048400,5.08704833984375,-0.004983040504157543,0.013138918206095695,-0.009339108131825924
1769668314222037200,5.097037353515625,-0.0031007181387394667,0.012883519753813744,-0.004457267001271248
1769668314232025300,5.107025390625,0.0006148349493741989,0.013863228261470795,-0.0005251800175756216
1769668314242014500,5.117014404296875,0.004543796181678772,0.01537324022501707,0.0009187860414385796
1769668314252003300,5.12700341796875,0.005153305362910032,0.01018734835088253,-0.00041217682883143425
1769668314261992200,5.1369921875,0.006865452043712139,0.013940274715423584,-0.008013105019927025
1769668314271981300,5.146981201171875,0.00862114131450653,0.016612518578767776,-0.014799611642956734
1769668314281969400,5.156969482421875,0.008262679912149906,0.01947088912129402,-0.011836579069495201
1769668314291958300,5.166958251953125,0.010667379014194012,0.02057707868516445,-0.007021130528301001
1769668314301947400,5.176947509765625,0.010013040155172348,0.019989851862192154,0.0007491749711334705
1769668314311936300,5.186936279296875,0.009001881815493107,0.017478391528129578,0.005798697005957365
1769668314321925400,5.19692529296875,0.006262021139264107,0.015968112275004387,0.005886581726372242
1769668314331913200,5.206913330078125,0.0046891141682863235,0.015948504209518433,0.0014000515220686793
1769668314341902300,5.21690234375,0.005295515991747379,0.017053183168172836,-0.005551597569137812
1769668314351891200,5.22689111328125,0.005923223216086626,0.021696139127016068,-0.014690501615405083
1769668314361880300,5.23688037109375,0.006495269946753979,0.01683453842997551,-0.016085732728242874
1769668314371869400,5.246869384765625,0.005287440028041601,0.009382795542478561,-0.006602976471185684
1769668314381857300,5.256857177734375,0.008387359790503979,0.002296656370162964,0.004165248945355415
1769668314391846400,5.266846435546875,0.014088611118495464,-0.0012413125950843096,0.007512885145843029
1769668314401835500,5.27683544921875,0.015222851186990738,-0.0013204084243625402,0.0070601473562419415
1769668314411824000,5.28682421875,0.018329909071326256,0.0016468879766762257,0.006485443562269211
1769668314421812200,5.296812255859375,0.020129140466451645,0.003451179713010788,0.00028320751152932644
1769668314431801300,5.30680126953125,0.015627386048436165,-0.00031500705517828465,-0.004496050998568535
1769668314441790500,5.31679052734375,0.009284799918532372,-0.007580110803246498,-0.0024054700043052435
1769668314451779300,5.326779296875,0.0013358863070607185,-0.018826570361852646,0.008146043866872787
1769668314461768400,5.3367685546875,-0.0025978689081966877,-0.023689236491918564,0.016440192237496376
1769668314471756300,5.34675634765625,-0.002522149356082082,-0.025630462914705276,0.023811252787709236
1769668314481745200,5.3567451171875,-0.0010608729207888246,-0.024054404348134995,0.02468237280845642
1769668314491734300,5.366734375,0.004662882070988417,-0.016211358830332756,0.021640002727508545
1769668314501723400,5.376723388671875,0.005632805172353983,-0.01551733911037445,0.01630941964685917
1769668314511712300,5.386712158203125,0.007285608444362879,-0.011246433481574059,0.008451498113572598
1769668314521700400,5.396700439453125,0.006401439197361469,-0.009468773379921913,0.0016047770623117685
1769668314531689500,5.406689453125,0.006879477761685848,-0.010654030367732048,0.0001265653409063816
1769668314541678300,5.41667822265625,0.0025065673980861902,-0.0148082934319973,0.004574577324092388
1769668314551667200,5.426667236328125,0.001177732483483851,-0.01732322759926319,0.006684511434286833
1769668314561656300,5.43665625,-0.0007538582431152463,-0.020365089178085327,0.010119723156094551
1769668314571644400,5.44664453125,0.000822727452032268,-0.015877725556492805,0.009375853464007378
1769668314581633300,5.45663330078125,0.006376483477652073,-0.012645179405808449,0.0024604229256510735
1769668314591622400,5.466622314453125,0.008705518208444118,-0.015924345701932907,-0.0033514369279146194
1769668314601611300,5.476611328125,0.008280211128294468,-0.015794916078448296,-0.006901696790009737
1769668314611599000,5.48659912109375,0.0044305212795734406,-0.020973028615117073,-0.0070195323787629604
1769668314621588200,5.496588134765625,-0.0008281564805656672,-0.029633894562721252,-0.008192121982574463
1769668314631577300,5.506577392578125,-0.004717567469924688,-0.030809059739112854,-0.0061944047920405865
1769668314641566200,5.516566162109375,-0.005932235158979893,-0.02940264344215393,-0.003738704137504101
1769668314651555300,5.526555419921875,-0.007637680508196354,-0.02659289911389351,-0.0012567893136292696
1769668314661543400,5.53654345703125,-0.006833938881754875,-0.021649805828928947,0.00404183566570282
1769668314671532300,5.5465322265625,0.00017900753300637007,-0.016102097928524017,0.0015856700483709574
1769668314681521400,5.556521484375,0.007853971794247627,-0.007888644002377987,-0.0013110502623021603
1769668314691510500,5.566510498046875,0.016790298745036125,-0.0035276480484753847,-0.0052154408767819405
1769668314701499100,5.5764990234375,0.022882545366883278,0.000401047058403492,-0.008026140742003918
1769668314711487200,5.5864873046875,0.029057219624519348,0.004475655034184456,-0.005445833317935467
1769668314721476400,5.596476318359375,0.031383223831653595,0.008142560720443726,-0.008669056929647923
1769668314731464000,5.6064638671875,0.029529299587011337,0.0006358686368912458,-0.010447531007230282
1769668314741453000,5.616453125,0.0210639089345932,-0.007871866226196289,-0.013321613892912865
1769668314751441700,5.626441650390625,0.013736763037741184,-0.024901270866394043,-0.014621879905462265
1769668314761429800,5.6364296875,0.0064607406966388226,-0.02174435928463936,-0.00598604790866375
1769668314771419000,5.6464189453125,0.000801610411144793,-0.024997133761644363,0.009122614748775959
1769668314781407700,5.65640771484375,-0.005148690193891525,-0.026936447247862816,0.01776856742799282
1769668314791396900,5.66639697265625,-0.009709973819553852,-0.034108083695173264,0.019382426515221596
1769668314801386000,5.676385986328125,-0.010069234296679497,-0.0386679470539093,0.020029574632644653
1769668314811373800,5.686373779296875,-0.007364002987742424,-0.03182193636894226,0.017168117687106133
1769668314821362700,5.69636279296875,-0.001861379947513342,-0.02345295622944832,0.013807474635541439
1769668314831351800,5.706351806640625,0.0021418030373752117,-0.018619267269968987,0.008733650669455528
1769668314841340700,5.716340576171875,0.003650750033557415,-0.018261071294546127,0.00245631393045187
1769668314851329800,5.726329833984375,0.0066912369802594185,-0.021422619000077248,-0.006550077348947525
1769668314861318000,5.73631787109375,0.010784516111016273,-0.010661584325134754,-0.018870392814278603
1769668314871307000,5.74630712890625,0.016902096569538116,-0.005887674167752266,-0.021457692608237267
1769668314881296000,5.7562958984375,0.018506649881601334,0.00013240112457424402,-0.020950360223650932
1769668314891285000,5.766284912109375,0.01564757712185383,0.00027956534177064896,-0.017521683126688004
1769668314901272800,5.77627294921875,0.01042325422167778,-0.004615857265889645,-0.015076635405421257
1769668314911261700,5.78626171875,0.002372388495132327,-0.01066744327545166,-0.009591140784323215
1769668314921250800,5.796250732421875,-0.0018090405501425266,-0.020069200545549393,-0.0014543852303177118
1769668314931240000,5.806239990234375,-0.005934723652899265,-0.020907079800963402,0.005863411817699671
1769668314941228800,5.816228759765625,-0.0033269566483795643,-0.020907612517476082,0.008120973594486713
1769668314951217000,5.826216796875,-0.0005048963357694447,-0.02127153053879738,0.006126409862190485
1769668314961205800,5.836205810546875,0.00074385991320014,-0.021555423736572266,0.005044899880886078
1769668314971194600,5.846194580078125,0.004580278880894184,-0.021760189905762672,0.003486709902063012
1769668314981183700,5.856183837890625,0.0068628741428256035,-0.025279024615883827,0.0006784065626561642
1769668314991172900,5.8661728515625,0.007717129774391651,-0.03753132373094559,-0.0014581549912691116
1769668315001161000,5.876160888671875,0.0055045755580067635,-0.04934031143784523,-0.007311783265322447
1769668315011149800,5.88614990234375,0.006891416385769844,-0.043892163783311844,-0.008328449912369251
1769668315021139000,5.896138916015625,0.008356421254575253,-0.03450106084346771,-0.008557748049497604
1769668315031127800,5.9061279296875,0.009012182243168354,-0.03283485770225525,-0.0052646249532699585
1769668315041116700,5.91611669921875,0.0069655426777899265,-0.02977035753428936,-0.002055515768006444
1769668315051104800,5.926104736328125,0.0016164504922926426,-0.025446683168411255,-0.002782531315460801
1769668315061094000,5.936093994140625,0.00003186974208801985,-0.02342161536216736,-0.0011385621037334204
1769668315071082800,5.946082763671875,-0.0034959912300109863,-0.027500322088599205,0.0012800864642485976
1769668315081071900,5.95607177734375,-0.007019885815680027,-0.030727272853255272,0.0014824867248535156
1769668315091061000,5.96606103515625,-0.006183371413499117,-0.03271961212158203,0.004322151653468609
1769668315101048800,5.976048828125,-0.0025625373236835003,-0.027484368532896042,0.006564000621438026
1769668315111037700,5.98603759765625,0.0002854469930753112,-0.022196661680936813,0.008718231692910194
1769668315121026800,5.99602685546875,0.003167253453284502,-0.017987269908189774,0.009407724253833294
1769668315131015700,6.006015625,0.007194750942289829,-0.01702645979821682,0.007989536970853806
1769668315141004800,6.0160048828125,0.007184896618127823,-0.015535090118646622,0.00840578880161047
1769668315150993000,6.025992919921875,0.006923242472112179,-0.013516915962100029,0.007681169547140598
1769668315160982000,6.03598193359375,0.007442292757332325,-0.011436721310019493,0.00035001966170966625
1769668315170971000,6.045970947265625,0.0074607497081160545,-0.015228582546114922,-0.0005669374950230122
1769668315180960000,6.0559599609375,0.004458568058907986,-0.0238881167024374,-0.0033701809588819742
1769668315190948600,6.065948486328125,0.005697432905435562,-0.019752690568566322,0.00009676627814769745
1769668315200936700,6.075936767578125,0.0068846698850393295,-0.012837260961532593,0.0051820725202560425
1769668315210925800,6.08592578125,0.008803567849099636,-0.008614007383584976,0.0049549187533557415
1769668315220915000,6.0959150390625,0.007528446149080992,-0.0072081247344613075,0.0014019955415278673
1769668315230903800,6.10590380859375,0.007092663086950779,-0.008650771342217922,-0.0034159428905695677
1769668315240892000,6.115891845703125,0.00449501583352685,-0.00761426892131567,-0.00530172698199749
1769668315250880800,6.125880859375,0.0031597954221069813,-0.005906962789595127,-0.004554750397801399
1769668315260869600,6.13586962890625,0.0015808072639629245,-0.005928002297878265,-0.001359756337478757
1769668315270858800,6.145858642578125,0.003556245006620884,-0.003207772970199585,-0.0010768359061330557
1769668315280848000,6.155847900390625,0.0029261410236358643,-0.0009827017784118652,0.0014720754697918892
1769668315290836000,6.1658359375,0.004107083193957806,0.00582112418487668,-0.0033637313172221184
1769668315300824800,6.175824951171875,0.004855697508901358,0.012189274653792381,-0.004234584979712963
1769668315310814000,6.18581396484375,0.003896027337759733,0.013147776015102863,-0.007891077548265457
1769668315320802800,6.195802734375,-0.001244405866600573,0.013742991723120213,-0.007407447323203087
1769668315330791700,6.205791748046875,-0.0025271628983318806,0.012453500181436539,-0.007346177939325571
1769668315340779800,6.21577978515625,-0.00349974911659956,0.008413751609623432,-0.004784750286489725
1769668315350769000,6.225768798828125,-0.0012136463774368167,0.007993198931217194,-0.0027674492448568344
1769668315360757800,6.2357578125,0.0007024980150163174,0.01028937567025423,-0.0030540055595338345
1769668315370747000,6.245746826171875,0.00544531736522913,0.01645900309085846,-0.0031851385720074177
1769668315380736000,6.255736083984375,0.004910022020339966,0.015526097267866135,-0.007271492853760719
1769668315390723600,6.2657236328125,0.003704013768583536,0.012691576033830643,-0.011209376156330109
1769668315400712700,6.275712646484375,0.002879232633858919,0.015307333320379257,-0.01362406462430954
1769668315410701800,6.285701904296875,0.0012123100459575653,0.017039639875292778,-0.008593147620558739
1769668315420690700,6.295690673828125,-0.0028338306583464146,0.013647571206092834,-0.0011394924949854612
1769668315430679800,6.3056796875,-0.008616884239017963,0.007252015173435211,0.0032430144492536783
1769668315440668000,6.31566796875,-0.01391950435936451,0.006254128646105528,0.005467819049954414
1769668315450656800,6.32565673828125,-0.011132990941405296,0.007985295727849007,0.003437800332903862
1769668315460646000,6.33564599609375,-0.010824063792824745,0.01086017768830061,-0.0001446839887648821
1769668315470635000,6.345635009765625,-0.00836126133799553,0.014764128252863884,-0.0034818605054169893
1769668315480623600,6.35562353515625,-0.0012884384486824274,0.023302488029003143,-0.0019204493146389723
1769668315490611700,6.36561181640625,0.005719801411032677,0.019626498222351074,0.0005088602192699909
1769668315500600800,6.375600830078125,0.009617071598768234,0.018890399485826492,0.000057720812037587166
1769668315510590000,6.38558984375,0.014348136261105537,0.024558888748288155,-0.0035938010551035404
1769668315520578800,6.395578857421875,0.015046949498355389,0.028467077761888504,-0.007405317388474941
1769668315530567000,6.40556689453125,0.011145813390612602,0.026981152594089508,-0.013605554588139057
1769668315540555800,6.4155556640625,0.004256748594343662,0.02211715467274189,-0.01642371341586113
1769668315550544600,6.425544677734375,0.00008926051668822765,0.019290663301944733,-0.016546839848160744
1769668315560533800,6.43553369140625,-0.003913204185664654,0.02091119810938835,-0.008165872655808926
1769668315570523000,6.44552294921875,-0.0041114771738648415,0.028725266456604004,0.006283457390964031
1769668315580511000,6.455510986328125,-0.00437406450510025,0.027714062482118607,0.011839344166219234
1769668315590499800,6.465499755859375,-0.0049408297054469585,0.02305324748158455,0.00933888927102089
1769668315600489000,6.475489013671875,-0.005339238792657852,0.02203512005507946,0.002205612836405635
1769668315610477800,6.485477783203125,-0.003191000781953335,0.018552208319306374,-0.004713838919997215
1769668315620466700,6.495466796875,-0.0000660475343465805,0.0210044477134943,-0.008563438430428505
1769668315630454800,6.505454833984375,0.0009904743637889624,0.02356083318591118,-0.006714127957820892
1769668315640444000,6.51544384765625,0.0008613110985606909,0.02550547383725643,-0.0015345464926213026
1769668315650432800,6.525432861328125,-0.000011806143447756767,0.020044367760419846,0.0006627999246120453
1769668315660422000,6.535421875,-0.0021913370583206415,0.01552844513207674,0.0030079795978963375
1769668315670410800,6.54541064453125,-0.003386210650205612,0.013660513795912266,0.0012295376509428024
1769668315680398800,6.55539892578125,-0.0012908353237435222,0.01883397065103054,0.0020101103000342846
1769668315690387700,6.5653876953125,-0.0007463578367605805,0.01951484940946102,0.0007506252732127905
1769668315700376800,6.575376953125,-0.0003330352483317256,0.025912826880812645,0.000046218978241086006
1769668315710365700,6.58536572265625,-0.00006476312410086393,0.02463490702211857,-0.005013132467865944
1769668315720354800,6.595354736328125,-0.0012594572035595775,0.023889487609267235,-0.008741024881601334
1769668315730343200,6.60534326171875,-0.000634231953881681,0.020489953458309174,-0.00900602899491787
1769668315740331800,6.615331787109375,-0.000003595370799303055,0.020808467641472816,-0.007634766865521669
1769668315750321000,6.62532080078125,0.0008207423379644752,0.023266959935426712,-0.007593630347400904
1769668315760310000,6.63531005859375,0.002401062287390232,0.026970617473125458,-0.006234884727746248
1769668315770299000,6.645298828125,-0.0009929665829986334,0.025360753759741783,-0.007311828434467316
1769668315780287000,6.655286865234375,-0.0034867506474256516,0.02299506776034832,-0.006728596054017544
1769668315790276000,6.665276123046875,-0.005519268102943897,0.02378987707197666,-0.0054752095602452755
1769668315800265000,6.675264892578125,-0.002973020076751709,0.019704854115843773,0.0002750873100012541
1769668315810254000,6.685254150390625,-0.00009622902143746614,0.016588173806667328,0.0027576987631618977
1769668315820243000,6.695242919921875,0.0002830050652846694,0.015667784959077835,0.00029773684218525887
1769668315830231000,6.70523095703125,0.0022870334796607494,0.017558515071868896,-0.0005545848980545998
1769668315840220000,6.715219970703125,0.001396206091158092,0.01739632710814476,-0.0007300872821360826
1769668315850209000,6.725208984375,-0.0018315010238438845,0.012018773704767227,-0.00375420437194407
1769668315860198100,6.7351982421875,-0.005562589969485998,0.010560426861047745,-0.009434194304049015
1769668315870187000,6.74518701171875,-0.00803862139582634,0.012030063197016716,-0.01301098708063364
1769668315880174800,6.7551748046875,-0.007365641184151173,0.010272642597556114,-0.012100452557206154
1769668315890164000,6.7651640625,-0.006388085428625345,0.010094648227095604,-0.005382174625992775
1769668315900152800,6.77515283203125,-0.005839474033564329,0.00820939615368843,-0.0015283140819519758
1769668315910142000,6.785141845703125,-0.006404505111277103,0.005955958738923073,0.00325005198828876
1769668315920131000,6.795131103515625,-0.007123292423784733,0.01592949777841568,0.006913229823112488
1769668315930119000,6.805118896484375,-0.009252176620066166,0.011860947124660015,0.006101986393332481
1769668315940108000,6.81510791015625,-0.009346186183393002,0.009470494464039803,0.00011227047070860863
1769668315950097200,6.82509716796875,-0.011281519196927547,0.011091377586126328,-0.0013701948337256908
1769668315960086000,6.8350859375,-0.009709456004202366,0.01212441734969616,-0.003213102463632822
1769668315970073900,6.845073974609375,-0.005828504916280508,0.01880672574043274,-0.00008695037104189396
1769668315980063000,6.85506298828125,-0.0028822498861700296,0.018353456631302834,0.0010763183236122131
1769668315990052000,6.865052001953125,-0.0030447584576904774,0.017778873443603516,0.003345221746712923
1769668316000041000,6.875041015625,-0.0023539343383163214,0.013191044330596924,0.0017273514531552792
1769668316010030000,6.885030029296875,-0.001164112938567996,0.016232959926128387,0.000294865807518363
1769668316020018200,6.89501806640625,0.0009270011214539409,0.01944819465279579,-0.000091558787971735
1769668316030006800,6.9050068359375,0.0006269083824008703,0.024342836812138557,-0.003906525671482086
1769668316039996000,6.914995849609375,0.0008098676335066557,0.026024889200925827,-0.006296446546912193
1769668316049985000,6.924985107421875,-0.004285380709916353,0.02783118560910225,-0.007427350617945194
1769668316059974000,6.934973876953125,-0.0071027386002242565,0.022847343236207962,-0.007204177789390087
1769668316069962000,6.9449619140625,-0.010604619048535824,0.018170172348618507,-0.0046292925253510475
1769668316079951000,6.954951171875,-0.016060369089245796,0.011622792109847069,-0.0007972700987011194
1769668316089940000,6.96493994140625,-0.019478941336274147,0.006564559880644083,0.007845408283174038
1769668316099929000,6.97492919921875,-0.021954616531729698,0.000962334219366312,0.010106964968144894
1769668316109918000,6.98491796875,-0.022893913090229034,0.0006307706935331225,0.011612716130912304
1769668316119906000,6.994906005859375,-0.020267769694328308,0.004518985748291016,0.013201558031141758
1769668316129895000,7.00489501953125,-0.017383739352226257,0.006312871351838112,0.014997558668255806
1769668316139884000,7.014884033203125,-0.016946181654930115,0.001982038840651512,0.01370193064212799
1769668316149873000,7.024872802734375,-0.014947035349905491,0.0008380835643038154,0.00869026780128479
1769668316159862000,7.034862060546875,-0.010720065794885159,0.002330785384401679,0.005729632452130318
1769668316169849900,7.044849853515625,-0.006521105300635099,0.003346022218465805,0.004266535397619009
1769668316179839000,7.0548388671875,-0.005407105199992657,0.0069809709675610065,0.002683552447706461
1769668316189827800,7.064827880859375,-0.003412751480937004,0.006047788076102734,-0.0011112024076282978
1769668316199817000,7.07481689453125,-0.0049560535699129105,0.004896503873169422,-0.008084156550467014
1769668316209806000,7.08480615234375,-0.00739311845973134,0.005897940136492252,-0.008413747884333134
1769668316219794000,7.0947939453125,-0.008930029347538948,0.00520658353343606,-0.008335983380675316
1769668316229783000,7.104782958984375,-0.0078359954059124,0.003307661972939968,-0.005374923348426819
1769668316239772200,7.114772216796875,-0.011069339700043201,0.0016277399845421314,0.0004150555469095707
1769668316249761000,7.124760986328125,-0.011936694383621216,-0.0004892179276794195,0.0038436204195022583
1769668316259750000,7.13475,-0.012389964424073696,-0.005277847871184349,0.00598959531635046
1769668316269738000,7.144738037109375,-0.015441366471350193,-0.005882423371076584,0.006601276807487011
1769668316279727000,7.15472705078125,-0.015408076345920563,-0.0002873882185667753,0.011229317635297775
1769668316289716000,7.164716064453125,-0.015851667150855064,-0.0023684606421738863,0.013910232111811638
1769668316299705000,7.174705078125,-0.013275058940052986,0.0022957995533943176,0.017643984407186508
1769668316309694000,7.18469384765625,-0.006356888450682163,0.006225180812180042,0.01794244349002838
1769668316319681800,7.194681884765625,0.0005241869948804379,0.009151462465524673,0.008793951943516731
1769668316329671000,7.2046708984375,0.005828016437590122,0.009558545425534248,-0.005145172588527203
1769668316339660000,7.214659912109375,0.00872979685664177,0.010328465141355991,-0.01505772490054369
1769668316349649000,7.22464892578125,0.01384919323027134,0.01640239544212818,-0.017515502870082855
1769668316359638000,7.234637939453125,0.014541614800691605,0.021432042121887207,-0.012897849082946777
1769668316369626000,7.244626220703125,0.012253601104021072,0.014584867283701897,-0.005603892728686333
1769668316379615000,7.254614990234375,0.004301668144762516,0.007169827818870544,-0.0027234184090048075
1769668316389604000,7.26460400390625,-0.00019734143279492855,-0.00022600684314966202,0.0009568298701196909
1769668316399593000,7.274593017578125,-0.006258695852011442,-0.004178936593234539,0.00714122224599123
1769668316409581800,7.284581787109375,-0.006836069282144308,-0.007860491052269936,0.015395957045257092
1769668316419570000,7.29456982421875,-0.004550278186798096,-0.001294200774282217,0.020577136427164078
1769668316429559000,7.30455908203125,-0.001676150830462575,0.0030157603323459625,0.02587912604212761
1769668316439548000,7.3145478515625,0.0017334942240267992,-0.0024967167992144823,0.024421047419309616
1769668316449537000,7.324537109375,0.0035626410972326994,-0.003998937085270882,0.018568288534879684
1769668316459525000,7.334525146484375,0.008140082471072674,0.004143944010138512,0.01131916418671608
1769668316469514000,7.344513916015625,0.010372339747846127,0.00729014165699482,0.00249153352342546
1769668316479502800,7.3545029296875,0.010500703938305378,0.010628147050738335,-0.0008478041272610426
1769668316489492000,7.364491943359375,0.00686238519847393,0.007552592549473047,-0.0045340294018387794
1769668316499481000,7.374481201171875,0.003997889347374439,0.001566605526022613,-0.006530068814754486
1769668316509470000,7.384469970703125,0.0016254164511337876,-0.0015147901140153408,-0.004171706736087799
1769668316519458000,7.3944580078125,-0.0007940653013065457,-0.005537228658795357,-0.001075515989214182
1769668316529447200,7.404447265625,0.0010455576702952385,-0.0006363408174365759,-0.0004990666639059782
1769668316539436000,7.41443603515625,0.001275654649361968,0.01097690500319004,-0.0021449001505970955
1769668316549425000,7.4244248046875,0.0046096122823655605,0.014598723500967026,-0.0049489992670714855
1769668316559414000,7.4344140625,0.00427432032302022,0.01588929072022438,-0.008618569001555443
1769668316569401900,7.44440185546875,0.0011656610295176506,0.010490226559340954,-0.006252131890505552
1769668316579391000,7.454390869140625,0.0001454041339457035,0.006155133247375488,-0.004560492001473904
1769668316589380000,7.464380126953125,0.00145128951407969,0.0034715556539595127,-0.003779841586947441
1769668316599369000,7.474368896484375,0.00030959234572947025,0.001839304226450622,-0.0004468956030905247
1769668316609356800,7.484356689453125,-0.00006435916293412447,0.0019047086825594306,0.0020614215172827244
1769668316619346000,7.494345947265625,0.003652081824839115,0.005064815748482943,0.0022768713533878326
1769668316629335000,7.5043349609375,0.005737727507948875,0.008355207741260529,0.0017637640703469515
1769668316639324000,7.514323974609375,0.008646965026855469,0.010384803637862206,0.0009142158087342978
1769668316649313000,7.52431298828125,0.0069487192668020725,0.007683581672608852,0.0021374092902988195
1769668316659301000,7.534301025390625,0.003592603374272585,0.0037740611005574465,0.0062234969809651375
1769668316669290000,7.5442900390625,0.0006989396642893553,-0.0005219748709350824,0.007958470843732357
1769668316679279000,7.554279052734375,-0.0012582173803821206,-0.004332159645855427,0.011645883321762085
1769668316689268000,7.56426806640625,-0.0020576065871864557,-0.007946738973259926,0.008754877373576164
1769668316699256800,7.5742568359375,-0.0015145880170166492,-0.00753741106018424,0.004552942235022783
1769668316709245000,7.584244873046875,0.0012095111887902021,-0.004703236743807793,0.0016956842737272382
1769668316719234000,7.594234130859375,0.0039632199332118034,-0.002070169197395444,0.0007273589726537466
1769668316729222400,7.604222412109375,0.0023130883928388357,-0.006194653920829296,-0.0003635385073721409
1769668316739211300,7.614211181640625,0.001439038896933198,-0.011374235153198242,-0.006447529885917902
1769668316749200400,7.624200439453125,0.001112225349061191,-0.012435615062713623,-0.005760814994573593
1769668316759188500,7.6341884765625,0.0004134118789806962,-0.017142752185463905,0.002281132386997342
1769668316769177300,7.64417724609375,-0.0013247160241007805,-0.01783384568989277,0.01050607580691576
1769668316779166200,7.654166259765625,0.00010646670125424862,-0.015013559721410275,0.00996412243694067
1769668316789155300,7.6641552734375,0.0006700903177261353,-0.01348364818841219,0.008183968253433704
1769668316799144200,7.674144287109375,0.0005963208386674523,-0.013181645423173904,0.004443558398634195
1769668316809132300,7.68413232421875,-0.001642016228288412,-0.01774308644235134,0.0038161238189786673
1769668316819121400,7.694121337890625,-0.0012654452584683895,-0.018914610147476196,0.0009175394661724567
1769668316829110300,7.7041103515625,0.0002837155479937792,-0.01719793677330017,0.0022246188018471003
1769668316839099400,7.714099365234375,0.0024368814192712307,-0.017580900341272354,0.0056901900097727776
1769668316849088500,7.724088623046875,-0.00048527622129768133,-0.015780959278345108,0.0005912238266319036
1769668316859076400,7.734076416015625,0.0002313804579898715,-0.015942879021167755,-0.0018674065358936787
1769668316869065200,7.744065185546875,-0.001652234815992415,-0.01618219166994095,-0.0073744370602071285
1769668316879054300,7.754054443359375,-0.0030107132624834776,-0.01913776807487011,-0.00805753841996193
1769668316889043500,7.76404345703125,-0.0041121868416666985,-0.019371887668967247,-0.010136990807950497
1769668316899032300,7.7740322265625,-0.006162021774798632,-0.019490929320454597,-0.00712176039814949
1769668316909020400,7.7840205078125,-0.006548980250954628,-0.018439365550875664,-0.006557544693350792
1769668316919009300,7.79400927734375,-0.009014002978801727,-0.020418360829353333,-0.002817401895299554
1769668316928998100,7.803998046875,-0.009877976030111313,-0.021706432104110718,0.0024355147033929825
1769668316938987300,7.8139873046875,-0.01001512911170721,-0.020804952830076218,0.006718676537275314
1769668316948976400,7.823976318359375,-0.0065040611661970615,-0.01767590641975403,0.010435216128826141
1769668316958964200,7.833964111328125,-0.005910974927246571,-0.01691291108727455,0.008253287523984909
1769668316968953300,7.843953369140625,-0.0052393702790141106,-0.014601454138755798,0.001325438148342073
1769668316978942500,7.8539423828125,-0.0029714221600443125,-0.011128425598144531,-0.0037042079493403435
1769668316988931300,7.863931396484375,0.001584313460625708,-0.009790749289095402,-0.0067186662927269936
1769668316998920400,7.87392041015625,0.003561444114893675,-0.00936091598123312,-0.0076217446476221085
1769668317008908300,7.883908203125,0.0030177608132362366,-0.01000270713120699,-0.009072607383131981
1769668317018897400,7.8938974609375,0.0023801999632269144,-0.009354494512081146,-0.009749051183462143
1769668317028886300,7.90388623046875,0.00021753506734967232,-0.010071082040667534,-0.01096338126808405
1769668317038875400,7.91387548828125,-0.005603336263448,-0.01930505968630314,-0.014421761967241764
1769668317048864300,7.9238642578125,-0.008828733116388321,-0.020818643271923065,-0.014883669093251228
1769668317058852400,7.933852294921875,-0.008631126955151558,-0.018091831356287003,-0.010014611296355724
1769668317068841200,7.94384130859375,-0.009751253761351109,-0.022235386073589325,-0.006772423163056374
1769668317078830300,7.953830322265625,-0.008893448859453201,-0.023199982941150665,-0.006565495394170284
1769668317088819200,7.963819091796875,-0.007451800629496574,-0.025796202942728996,-0.005995186511427164
1769668317098808300,7.973808349609375,-0.006157770752906799,-0.026565058156847954,-0.004575987812131643
1769668317108796400,7.98379638671875,-0.006122345104813576,-0.02855757251381874,-0.0013002501800656319
1769668317118785300,7.993785400390625,-0.004516459070146084,-0.02856316603720188,-0.0005250042304396629
1769668317128774400,8.0037744140625,-0.0053808740340173244,-0.030422089621424675,-0.005329925566911697
1769668317138763500,8.013763427734375,-0.0020061165560036898,-0.025325600057840347,-0.007060181349515915
1769668317148752100,8.023752197265624,0.0019536905456334352,-0.015360546298325062,-0.009282009676098824
1769668317158740200,8.033740234375,0.00208098953589797,-0.010386559180915356,-0.005283540580421686
1769668317168729300,8.043729248046875,-0.000950089655816555,-0.011527754366397858,-0.005892097018659115
1769668317178718200,8.05371826171875,-0.002566362265497446,-0.014116346836090088,-0.005913136526942253
1769668317188707300,8.063707275390625,-0.002492902334779501,-0.016257163137197495,-0.005085861310362816
1769668317198696400,8.073696533203124,-0.0030505682807415724,-0.021312376484274864,-0.0002921717241406441
1769668317208684300,8.083684326171875,-0.0037634465843439102,-0.023513074964284897,0.003172184806317091
1769668317218673200,8.093673095703124,0.001443832297809422,-0.01641867868602276,0.014821384102106094
1769668317228662300,8.103662353515626,0.003829137422144413,-0.014290198683738708,0.019900117069482803
1769668317238651400,8.1136513671875,0.0034387181513011456,-0.016542434692382812,0.017374373972415924
1769668317248640300,8.12364013671875,0.0024334564805030823,-0.019391803070902824,0.011057058349251747
1769668317258628400,8.13362841796875,0.0006201100768521428,-0.026556504890322685,0.00072452612221241
1769668317268617500,8.143617431640624,-0.00172896939329803,-0.03269490227103233,-0.004864209331572056
1769668317278606300,8.1536064453125,-0.002313000615686178,-0.03136012703180313,-0.010481615550816059
1769668317288595500,8.163595458984375,-0.003289013635367155,-0.030853012576699257,-0.008813610300421715
1769668317298584300,8.173584228515624,-0.0034666466526687145,-0.02857813984155655,-0.003247869201004505
1769668317308572400,8.183572509765625,-0.010031596757471561,-0.0358833372592926,0.009572422131896019
1769668317318561300,8.193561279296874,-0.007754060905426741,-0.03990817070007324,-0.0014983380679041147
1769668317328550400,8.20355029296875,-0.006424300838261843,-0.03341015800833702,-0.0018148194067180157
1769668317338539300,8.213539306640625,-0.0014343358343467116,-0.02130342833697796,0.01237503532320261
1769668317348528400,8.2235283203125,-0.001936878077685833,-0.02036339044570923,0.021617485210299492
1769668317358516200,8.23351611328125,-0.0017693651607260108,-0.021859820932149887,0.02540210261940956
1769668317368505300,8.24350537109375,0.0032357412856072187,-0.02506258711218834,0.026653725653886795
1769668317378494200,8.253494140625,0.007072556763887405,-0.024813048541545868,0.02663242071866989
1769668317388483300,8.2634833984375,0.008884749375283718,-0.019904647022485733,0.020413868129253387
1769668317398472200,8.27347216796875,0.007832268252968788,-0.024445869028568268,0.00956761185079813
1769668317408460300,8.283460205078125,0.009619420394301414,-0.025115370750427246,0.0035244044847786427
1769668317418449400,8.293449462890624,0.006314171478152275,-0.02314649522304535,0.0026913676410913467
1769668317428438500,8.3034384765625,0.007372722029685974,-0.017894765362143517,0.008517300710082054
1769668317438427100,8.31342724609375,0.003380643203854561,-0.017275048419833183,0.014625526033341885
1769668317448416300,8.323416259765626,0.0036136771086603403,-0.017238765954971313,0.014487622305750847
1769668317458404400,8.333404296875,0.0038006308022886515,-0.018451036885380745,0.010694747790694237
1769668317468393200,8.343393310546874,0.0020489762537181377,-0.02169915847480297,0.007035443559288979
1769668317478382300,8.35338232421875,-0.0027021029964089394,-0.028151199221611023,0.0029171316418796778
1769668317488371500,8.363371337890625,-0.009115836583077908,-0.0366859994828701,0.0025968498084694147
1769668317498360300,8.3733603515625,-0.006824985612183809,-0.029658447951078415,0.0067942580208182335
1769668317508348200,8.38334814453125,-0.006031407043337822,-0.020221173763275146,0.006514456123113632
1769668317518337300,8.393337158203124,-0.007372042164206505,-0.02354186773300171,0.00938907265663147
1769668317528326400,8.403326416015625,-0.01096445694565773,-0.02695625275373459,0.00783541053533554
1769668317538315300,8.413315185546875,-0.014077426865696907,-0.03203676640987396,0.008347004652023315
1769668317548304400,8.423304443359376,-0.01625029742717743,-0.03069121763110161,0.009944743476808071
1769668317558292500,8.43329248046875,-0.016601834446191788,-0.027183037251234055,0.011382849887013435
1769668317568281300,8.44328125,-0.01284345705062151,-0.025591740384697914,0.01113046519458294
1769668317578270500,8.4532705078125,-0.007407679222524166,-0.021700862795114517,0.007996456697583199
1769668317588259300,8.46325927734375,-0.0037817484699189663,-0.017281772568821907,0.004748853854835033
1769668317598248200,8.473248291015626,-0.00016384408809244633,-0.01730973646044731,0.003033778164535761
1769668317608236300,8.483236328125,0.0029727898072451353,-0.014578770846128464,-0.0004484266974031925
1769668317618225400,8.493225341796874,0.006208264268934727,-0.009334473870694637,0.0012360225664451718
1769668317628214300,8.50321435546875,0.004606992471963167,-0.0073330397717654705,0.0045599862933158875
1769668317638203400,8.513203369140625,0.004201925825327635,-0.005786542315036058,0.005268653854727745
1769668317648192500,8.523192626953126,0.007952919229865074,-0.0038505150005221367,0.0045562186278402805
1769668317658180400,8.533180419921875,0.01246617827564478,0.0013109574792906642,0.0019612344913184643
1769668317668169200,8.543169189453126,0.01709553971886635,0.008497906848788261,-0.0008728327229619026
1769668317678158300,8.553158447265625,0.021842092275619507,0.014508129097521305,-0.0012510018423199654
1769668317688147200,8.563147216796875,0.019427210092544556,0.015381264500319958,-0.00741176912561059
1769668317698136300,8.57313623046875,0.01631530560553074,0.015589524060487747,-0.010956436395645142
1769668317708124400,8.58312451171875,0.013507774099707603,0.013830788433551788,-0.01183716394007206
1769668317718113500,8.593113525390624,0.005607506725937128,0.010513821616768837,-0.007779039442539215
1769668317728103400,8.603103515625,0.0006832561921328306,0.00775623694062233,-0.002240828238427639
1769668317738092500,8.613092529296875,-0.0063112699426710606,0.003920752555131912,-0.0028754593804478645
1769668317748081400,8.623081298828126,-0.010943868197500706,-0.0012729864101856947,-0.00015911064110696316
1769668317758069500,8.633069580078125,-0.011334553360939026,-0.002302564214915037,-0.0009005346801131964
1769668317768058600,8.64305859375,-0.00854187086224556,-0.0015586139634251595,0.00023808889091014862
1769668317778047500,8.653047607421875,-0.005816924385726452,0.0022401190362870693,-0.00048815528862178326
1769668317788036600,8.66303662109375,-0.0016692356439307332,0.006297452375292778,-0.00016375910490751266
1769668317798025700,8.673025634765626,-0.00047134578926488757,0.008691634051501751,-0.0039012394845485687
1769668317808013300,8.683013427734375,0.0019045898225158453,0.012316963635385036,-0.009109074249863625
1769668317818002400,8.69300244140625,-0.00036335806362330914,0.011725209653377533,-0.016770722344517708
1769668317827991600,8.702991455078125,-0.00018908560741692781,0.013846402987837791,-0.02230295166373253
1769668317837980400,8.71298046875,-0.0035649086348712444,0.010537957772612572,-0.024877164512872696
1769668317847968500,8.722968505859376,-0.004200656898319721,0.010820230469107628,-0.020799335092306137
1769668317857957600,8.73295751953125,-0.005356469191610813,0.008328310213983059,-0.01287909410893917
1769668317867946500,8.742946533203124,-0.0042340997606515884,0.008329218253493309,-0.009095123037695885
1769668317877935400,8.752935302734375,-0.0011831822339445353,0.009699414484202862,-0.004667086061090231
1769668317887924500,8.762924560546875,0.0008338803891092539,0.00954941101372242,-0.006242748349905014
1769668317897913300,8.772913330078126,0.003999313339591026,0.015556436963379383,-0.007081644609570503
1769668317907901400,8.7829013671875,0.007452723104506731,0.017239298671483994,-0.011042814701795578
1769668317917890600,8.792890625,0.008668456226587296,0.01702704466879368,-0.013996526598930359
1769668317927879700,8.802879638671875,0.009149822406470776,0.014677101746201515,-0.01459357887506485
1769668317937868500,8.81286865234375,0.005923936143517494,0.013964972458779812,-0.01411394402384758
1769668317947856400,8.8228564453125,0.005128492135554552,0.01467854157090187,-0.01598682999610901
1769668317957845500,8.832845458984375,0.006746096070855856,0.0151826785877347,-0.016265396028757095
1769668317967834400,8.84283447265625,0.010030841454863548,0.016646677628159523,-0.01514042541384697
1769668317977823500,8.852823486328125,0.010151215828955173,0.01590525358915329,-0.012533723376691341
1769668317987812600,8.8628125,0.007978430017828941,0.019777825102210045,-0.010352523997426033
1769668317997801500,8.872801513671876,0.00814940594136715,0.018314151093363762,-0.008352488279342651
1769668318007789300,8.882789306640625,0.009895318187773228,0.020161502063274384,-0.008945096284151077
1769668318017778400,8.8927783203125,0.0122881680727005,0.024241996929049492,-0.005771408323198557
1769668318027767300,8.902767333984375,0.01351246703416109,0.02838790789246559,-0.006307332776486874
1769668318037756400,8.91275634765625,0.015019550919532776,0.031292084604501724,-0.0041088927537202835
1769668318047745500,8.92274560546875,0.010378867387771606,0.028987478464841843,-0.004636126104742289
1769668318057733600,8.932733642578125,0.010514955036342144,0.026055071502923965,-0.004061948508024216
1769668318067722500,8.942722412109376,0.00800779927521944,0.02440362237393856,-0.006661992520093918
1769668318077711600,8.952711669921875,0.007997145876288414,0.0275911595672369,-0.008223137818276882
1769668318087700500,8.962700439453124,0.009529492817819118,0.03270325809717178,-0.008086372166872025
1769668318097689300,8.972689453125,0.01056546252220869,0.0350756011903286,-0.007347611710429192
1769668318107677400,8.982677490234375,0.007686636410653591,0.032881710678339005,-0.006855987943708897
1769668318117666600,8.99266650390625,0.003682307433336973,0.027480021119117737,-0.004308408126235008
1769668318127655400,9.002655517578125,0.002423829399049282,0.020939001813530922,-0.000980281736701727
1769668318137644500,9.01264453125,0.0008214054396376014,0.018436430022120476,0.00045249867253005505
1769668318147633700,9.022633544921876,-0.0009434317471459508,0.014714768156409264,0.0021487846970558167
1769668318157621500,9.03262158203125,-0.0010483602527529001,0.01192697137594223,0.001147169852629304
1769668318167610400,9.0426103515625,-0.0025589887518435717,0.017465272918343544,0.0036848746240139008
1769668318177599500,9.052599609375,-0.006654930301010609,0.01767539605498314,0.008374701254069805
1769668318187588400,9.06258837890625,-0.011739577166736126,0.019830068573355675,0.007754907943308353
1769668318197576400,9.072576416015625,-0.01606268621981144,0.015042237937450409,0.006115999072790146
1769668318207565600,9.082565673828125,-0.019314754754304886,0.013640343211591244,0.006200132891535759
1769668318217554700,9.0925546875,-0.016602592542767525,0.017454788088798523,0.01080686878412962
1769668318227543600,9.10254345703125,-0.013041775673627853,0.021393146365880966,0.013274649158120155
1769668318237532400,9.112532470703124,-0.0044882348738610744,0.021680235862731934,0.011364629492163658
1769668318247521300,9.122521240234375,-0.002040605992078781,0.021983562037348747,-0.0003895210102200508
1769668318257509400,9.13250927734375,0.002916335826739669,0.02279183268547058,-0.015859290957450867
1769668318267498500,9.14249853515625,0.011285537853837013,0.026037197560071945,-0.028983833268284798
1769668318277487600,9.152487548828125,0.013653087429702282,0.032650891691446304,-0.03134685754776001
1769668318287476500,9.1624765625,0.015522990375757217,0.03630046918988228,-0.031057409942150116
1769668318297465600,9.172465576171875,0.012929337099194527,0.030568547546863556,-0.02831834927201271
1769668318307453400,9.182453369140624,0.008273235522210598,0.022970566526055336,-0.028675971552729607
1769668318317442300,9.1924423828125,0.003804451785981655,0.01686473935842514,-0.026026926934719086
1769668318327431400,9.202431396484375,0.0022159195505082607,0.024601388722658157,-0.015719525516033173
1769668318337420500,9.212420654296874,0.0011988584883511066,0.01908518373966217,-0.004556618630886078
1769668318347409400,9.222409423828125,0.0005227333167567849,0.018980277702212334,-0.0027390073519200087
1769668318357397500,9.2323974609375,-0.0006860754801891744,0.012271507643163204,-0.0034697784576565027
1769668318367386600,9.24238671875,0.00018073199316859245,0.006685505621135235,0.00010417914018034935
1769668318377375500,9.25237548828125,0.0029549470636993647,0.002602080348879099,0.005184957757592201
1769668318387364400,9.2623642578125,0.007236873731017113,0.0034063374623656273,0.0067069148644804955
1769668318397353500,9.272353515625,0.008472846820950508,0.00839097611606121,0.005060016177594662
1769668318407341600,9.282341552734374,0.011079755611717701,0.011248936876654625,0.003420469118282199
1769668318417330400,9.292330322265625,0.01242305338382721,0.010342663154006004,0.003241770900785923
1769668318427319600,9.302319580078125,0.011915884912014008,0.007738695479929447,0.006616365164518356
1769668318437308700,9.31230859375,0.005215637385845184,-0.0020236538257449865,0.004260533023625612
1769668318447297500,9.322297607421875,0.0027387954760342836,-0.00007974030449986458,-0.0029105590656399727
1769668318457285400,9.332285400390624,0.005133509635925293,0.006446336396038532,-0.009220652282238007
1769668318467274500,9.3422744140625,0.008836822584271431,0.016329588368535042,-0.0009879500139504671
1769668318477263400,9.352263427734375,0.008911923505365849,0.015431303530931473,0.004662212450057268
1769668318487252500,9.36225244140625,0.009282351471483707,0.011691981926560402,0.006720003671944141
1769668318497241600,9.37224169921875,0.007145963609218597,0.010521521791815758,0.010297960601747036
1769668318507229400,9.3822294921875,0.0020189813803881407,0.01722925715148449,0.02809588983654976
1769668318517218600,9.392218505859375,-0.006056522019207478,0.02137579768896103,0.04543573409318924
1769668318527207400,9.40220751953125,-0.0243351049721241,0.011416886933147907,0.0408942736685276
1769668318537196300,9.4121962890625,-0.029622279107570648,-0.000042961444705724716,0.00019717775285243988
1769668318547185400,9.422185302734375,-0.011644079349935055,-0.0038645975291728973,-0.025328421965241432
1769668318557173500,9.432173583984374,0.004090142901986837,0.016252655535936356,-0.0020886133424937725
1769668318567162600,9.44216259765625,0.012314452789723873,0.03120642527937889,0.013648338615894318
1769668318577151500,9.4521513671875,0.01569853164255619,0.02127363346517086,0.006107065826654434
1769668318587140600,9.462140625,0.015103360638022423,0.011917642317712307,-0.0050361789762973785
1769668318597129500,9.47212939453125,0.01460242085158825,0.005613407585769892,-0.0005479536484926939
1769668318607117300,9.482117431640624,0.016185980290174484,0.012202235870063305,0.004171337001025677
1769668318617106400,9.4921064453125,0.013949192129075527,0.012988667003810406,-0.0018697776831686497
1769668318627095600,9.502095458984375,0.011106270365417004,0.016133179888129234,-0.009307612664997578
1769668318637084400,9.51208447265625,0.005104836542159319,0.019548682495951653,-0.01440490409731865
1769668318647073500,9.522073486328125,-0.0033388833981007338,0.015968728810548782,-0.01167468260973692
1769668318657061600,9.5320615234375,-0.008137366734445095,0.011436562985181808,-0.005359528586268425
1769668318667050500,9.542050537109375,-0.00853690318763256,0.00595296872779727,-0.00039879512041807175
1769668318677039400,9.552039306640625,-0.004824456293135881,0.004591560922563076,0.003762660315260291
1769668318687028500,9.562028564453126,-0.0023715111892670393,0.020965345203876495,0.00993121974170208
1769668318697017300,9.572017333984375,-0.0021342234686017036,0.010997398756444454,0.013626089319586754
1769668318707005400,9.58200537109375,-0.002246516291052103,0.010451046749949455,0.002415633527562022
1769668318716994600,9.59199462890625,-0.003687553107738495,0.008666729554533958,-0.005615128204226494
1769668318726983400,9.6019833984375,-0.0018491436494514346,0.009479569271206856,-0.014700694009661674
1769668318736971300,9.61197119140625,-0.000437135633546859,0.014357946813106537,-0.01871114782989025
1769668318746960400,9.62196044921875,0.0020900131203234196,0.01275845617055893,-0.015959005802869797
1769668318756948500,9.631948486328126,0.0012963908957317472,0.009840963408350945,-0.01224868930876255
1769668318766937600,9.6419375,-0.001163138309493661,0.005872069392353296,-0.00829981081187725
1769668318776926500,9.651926513671874,-0.0019064265070483088,0.005830790381878614,-0.006107497029006481
1769668318786915600,9.66191552734375,-0.0008623360772617161,0.0030136683490127325,-0.0056212288327515125
1769668318796904400,9.671904541015625,0.0017821828369051218,0.0042246077209711075,-0.0032880338840186596
1769668318806892300,9.681892333984376,0.00350942462682724,0.006104258354753256,-0.0010986686684191227
1769668318816881400,9.69188134765625,0.005114245228469372,0.007086964789777994,-0.002391899935901165
1769668318826870500,9.70187060546875,0.005868438631296158,0.006272919476032257,-0.0011054766364395618
1769668318836859400,9.711859375,0.005295592825859785,0.006730716675519943,-0.0031715570949018
1769668318846848500,9.7218486328125,0.003063337644562125,0.0043360646814107895,-0.007005129009485245
1769668318856836600,9.731836669921876,0.0008483864367008209,0.003934193402528763,-0.005291917361319065
1769668318866825200,9.7418251953125,0.0021626069210469723,0.004858081229031086,-0.004802912473678589
1769668318876814300,9.751814453125,0.002213207073509693,0.0028985273092985153,-0.004319549538195133
1769668318886803500,9.761803466796875,0.003019008319824934,0.0005093134241178632,-0.003143001114949584
1769668318896792300,9.771792236328125,0.0034994427114725113,-0.0004952310118824244,-0.002591193886473775
1769668318906780400,9.781780517578126,0.004452789202332497,-0.0011484434362500906,0.0005545448511838913
1769668318916769500,9.79176953125,0.0037308058235794306,0.00007581175304949284,-0.0014758491888642311
1769668318926758400,9.80175830078125,0.003208430018275976,0.002626618603244424,-0.002642823150381446
1769668318936747500,9.81174755859375,0.001653676968999207,0.0020013083703815937,-0.002109658205881715
1769668318946736400,9.821736328125,0.0005811713635921478,0.00031609658617526293,-0.004795405548065901
1769668318956724500,9.831724365234376,-0.003441000822931528,-0.003295149654150009,-0.005557070020586252
1769668318966713300,9.84171337890625,-0.004797684494405985,-0.004055781755596399,-0.003798134857788682
1769668318976702500,9.851702392578124,-0.003461576532572508,-0.003548715729266405,-0.004117980599403381
1769668318986691600,9.861691650390625,-0.0018851254135370255,0.0019273343496024609,-0.007688133046030998
1769668318996680400,9.871680419921875,-0.0010366423521190882,0.004485034383833408,-0.010094298981130123
1769668319006668500,9.88166845703125,-0.0020541006233543158,0.005323694087564945,-0.013253582641482353
1769668319016657400,9.891657470703125,-0.002668225672096014,0.0036530932411551476,-0.01328980177640915
1769668319026646300,9.901646240234374,-0.007339673116803169,0.0034656671341508627,-0.007916822098195553
1769668319036635400,9.911635498046875,-0.009232915006577969,-0.0020153848454356194,-0.0036254047881811857
1769668319046624500,9.92162451171875,-0.012754075229167938,-0.008799370378255844,0.001155427540652454
1769668319056612600,9.931612548828125,-0.011549527756869793,-0.008644908666610718,0.0060404641553759575
1769668319066601500,9.9416015625,-0.010858782567083836,-0.00843186117708683,0.008421303704380989
1769668319076590600,9.951590576171874,-0.007797212805598974,-0.006123698782175779,0.009344621561467648
1769668319086579500,9.961579345703125,-0.002362824510782957,-0.0010461423080414534,0.008786160498857498
1769668319096568300,9.971568359375,0.0009043413447216153,0.0006622755900025368,0.003447853960096836
1769668319106556400,9.981556396484375,0.004673179239034653,0.004034222103655338,-0.005195897072553635
1769668319116545500,9.991545654296875,0.0079715047031641,0.003576690796762705,-0.006886737421154976
1769668319126534400,10.001534423828126,0.004841404967010021,0.0025873170234262943,-0.0038504863623529673
1769668319136523500,10.0115234375,0.0024693277664482594,-0.0020116958767175674,0.0031011628452688456
1769668319146512400,10.021512451171875,0.0008672514231875539,-0.005006738007068634,0.008166995830833912
1769668319156500200,10.031500244140625,0.0023093530908226967,-0.009236104786396027,0.011280763894319534
1769668319166489300,10.0414892578125,0.0028850717935711145,-0.007490161340683699,0.005882804747670889
1769668319176478500,10.051478515625,0.0025556390173733234,-0.0069769700057804585,0.008903628215193748
1769668319186467300,10.06146728515625,0.00025352323427796364,-0.010910997167229652,0.01101069524884224
1769668319196456400,10.07145654296875,-0.004138295538723469,-0.012906236574053764,0.005142952315509319
1769668319206444500,10.081444580078125,-0.00572633370757103,-0.008056825958192348,-0.0014983895234763622
1769668319216433400,10.091433349609375,-0.0049058133736252785,-0.0062402840703725815,0.00023985560983419418
1769668319226422500,10.101422607421876,-0.005722393747419119,-0.00836338009685278,0.0039192792028188705
1769668319236411400,10.111411376953125,-0.002173465443775058,-0.011720561422407627,0.004398648161441088
1769668319246400300,10.121400146484374,-0.000573532423004508,-0.012289009988307953,0.0019172616302967072
1769668319256388400,10.131388427734375,0.00294876447878778,-0.011144650168716908,-0.0038016103208065033
1769668319266377500,10.14137744140625,0.006088725756853819,-0.0041768914088606834,-0.003290430409833789
1769668319276366600,10.15136669921875,0.010628615505993366,0.0007438317406922579,-0.0003164785448461771
1769668319286355500,10.16135546875,0.010356892831623554,0.004514329135417938,0.001191910938359797
1769668319296344600,10.171344482421874,0.0073381997644901276,-0.000059383921325206757,-0.002033177064731717
1769668319306332400,10.18133251953125,0.0026849457062780857,-0.009337236173450947,-0.003320210613310337
1769668319316321300,10.1913212890625,-0.00026796699967235327,-0.01841115765273571,0.0005773259326815605
1769668319326310400,10.201310302734376,-0.003624832956120372,-0.02290181815624237,0.010402211919426918
1769668319336299500,10.211299560546875,-0.0037553280126303434,-0.02374683879315853,0.0181267112493515
1769668319346288400,10.221288330078124,-0.003692036960273981,-0.02117062732577324,0.022240374237298965
1769668319356276500,10.2312763671875,-0.0018182366620749235,-0.018973253667354584,0.015964634716510773
1769668319366265600,10.241265625,-0.0012414022348821163,-0.01453382521867752,0.013737917877733707
1769668319376254500,10.25125439453125,0.00019510684069246054,-0.01314072497189045,0.013815948739647865
1769668319386243300,10.261243408203125,0.0018473457312211394,-0.013150928542017937,0.014101322740316391
1769668319396232400,10.271232421875,0.004836477804929018,-0.015330459922552109,0.012027785181999207
1769668319406220500,10.281220458984375,0.004200376570224762,-0.020933575928211212,0.004179372917860746
1769668319416209400,10.29120947265625,0.007852636277675629,-0.0132205281406641,-0.002280656946823001
1769668319426198500,10.301198486328126,0.009945482946932316,-0.009635882452130318,-0.004721418954432011
1769668319436187400,10.3111875,0.010462402366101742,-0.0076017603278160095,-0.004651643801480532
1769668319446176500,10.321176513671874,0.012290261685848236,-0.01137575600296259,-0.0062881819903850555
1769668319456164400,10.331164306640625,0.012158701196312904,-0.013982725329697132,-0.008896482177078724
1769668319466153500,10.341153564453125,0.012774349190294743,-0.010788680985569954,-0.00821506604552269
1769668319476142300,10.351142333984376,0.012859303504228592,-0.010753793641924858,-0.005858434364199638
1769668319486131500,10.36113134765625,0.009283549152314663,-0.009548978880047798,-0.003257290692999959
1769668319496120600,10.37112060546875,0.005321830976754427,-0.012620402500033379,0.00020188908092677593
1769668319506108400,10.3811083984375,0.0008422898827120662,-0.016927901655435562,0.0029943175613880157
1769668319516097500,10.39109765625,-0.00063709617825225,-0.02111945115029812,-0.00023503159172832966
1769668319526086400,10.40108642578125,-0.0009808416943997145,-0.02145187370479107,-0.0014101341366767883
1769668319536075300,10.4110751953125,-0.0029555754736065865,-0.01953599601984024,-0.0005193066317588091
1769668319546064400,10.421064453125,0.0012297016801312566,-0.017739372327923775,0.0014880062080919743
1769668319556052500,10.431052490234375,0.0008427443681284785,-0.016617916524410248,-0.000294713769108057
1769668319566041300,10.441041259765624,-0.003308857325464487,-0.024013247340917587,-0.0036851840559393167
1769668319576030500,10.451030517578126,-0.004190896172076464,-0.023474756628274918,-0.006711333990097046
1769668319586019600,10.46101953125,-0.005891498178243637,-0.02411857806146145,-0.00539880758151412
1769668319596008400,10.471008544921874,-0.0036957217380404472,-0.02418595738708973,-0.003295975737273693
1769668319605996300,10.480996337890625,-0.004816884640604258,-0.02516436204314232,0.002219241810962558
1769668319615985400,10.4909853515625,-0.006583359092473984,-0.02734043076634407,0.008255030028522015
1769668319625974500,10.500974609375,-0.006767009384930134,-0.031293101608753204,0.009187083691358566
1769668319635963400,10.51096337890625,-0.005587229039520025,-0.031144501641392708,0.009159387089312077
1769668319645952500,10.520952392578126,-0.0040053678676486015,-0.027939677238464355,0.008555383421480656
1769668319655940600,10.530940673828125,-0.001917715766467154,-0.026494113728404045,0.006335904821753502
1769668319665929500,10.540929443359374,-0.0032821395434439182,-0.03336087614297867,-0.00017719529569149017
1769668319675918300,10.55091845703125,-0.005460338667035103,-0.03669968247413635,-0.007450288161635399
1769668319685907500,10.560907470703125,-0.006005394272506237,-0.04389168322086334,-0.007251762319356203
1769668319695896300,10.570896240234376,-0.003347027115523815,-0.04545389115810394,-0.005473835859447718
1769668319705884400,10.580884521484375,-0.00011514057405292988,-0.04513475298881531,-0.003532317467033863
1769668319715873500,10.59087353515625,0.0005788791459053755,-0.039646778255701065,0.00042114523239433765
1769668319725862400,10.6008623046875,0.0021042898297309875,-0.03369510918855667,-0.002345299581065774
1769668319735851800,10.610851806640625,0.00028907915111631155,-0.03362186998128891,-0.0052771735936403275
1769668319745841000,10.6208408203125,-0.0004470751155167818,-0.03512285649776459,-0.009155798703432083
1769668319755828700,10.630828857421875,-0.0041315583512187,-0.03656495735049248,-0.011376876384019852
1769668319765817900,10.64081787109375,-0.004605284426361322,-0.035694669932127,-0.01127998623996973
1769668319775807000,10.650806884765625,-0.003873181063681841,-0.03239261731505394,-0.009708721190690994
1769668319785795800,10.6607958984375,-0.002882077358663082,-0.027818279340863228,-0.006400736514478922
1769668319795785000,10.670784912109376,-0.00358461937867105,-0.024357235059142113,-0.002341280225664377
1769668319805772800,10.680772705078125,-0.004124153405427933,-0.02414313703775406,0.004576575942337513
1769668319815762000,10.690761962890624,-0.0037885953206568956,-0.024801472201943398,0.006687929853796959
1769668319825750800,10.700750732421875,-0.004725615959614515,-0.02727412059903145,0.004900217987596989
1769668319835740000,10.710739990234375,-0.0027119996957480907,-0.024971818551421165,0.004543620627373457
1769668319845728800,10.720728759765626,-0.0020072238985449076,-0.0209133829921484,0.0028541195206344128
1769668319855716900,10.730716796875,-0.00006551318801939487,-0.018163934350013733,-0.0009390208870172501
1769668319865706000,10.7407060546875,-0.0018762999679893255,-0.01831950806081295,-0.003971037920564413
1769668319875694800,10.75069482421875,-0.002118647564202547,-0.017567431554198265,-0.01001295167952776
1769668319885683700,10.76068359375,-0.0031631255988031626,-0.020108703523874283,-0.010548628866672516
1769668319895672800,10.7706728515625,-0.005455840844660997,-0.02177397906780243,-0.01039416529238224
1769668319905661000,10.780660888671875,-0.004681042395532131,-0.02078620344400406,-0.003683779388666153
1769668319915649800,10.79064990234375,-0.006333800032734871,-0.021852798759937286,0.0016507984837517142
1769668319925639000,10.800638916015625,-0.005736018996685743,-0.021463103592395782,0.005090633872896433
1769668319935628000,10.8106279296875,-0.007157081738114357,-0.01940581202507019,0.010025737807154655
1769668319945617000,10.820616943359376,-0.005854431539773941,-0.018835969269275665,0.007700967602431774
1769668319955604700,10.830604736328125,-0.004774519708007574,-0.018708404153585434,0.006676715798676014
1769668319965593900,10.84059375,-0.0024290625005960464,-0.01564585603773594,0.006060446612536907
1769668319975582700,10.850582763671875,-0.0018341124523431063,-0.01523013599216938,0.004308885429054499
1769668319985571800,10.86057177734375,0.0030584940686821938,-0.013706281781196594,-0.0009421284776180983
1769668319995561000,10.87056103515625,0.003533868584781885,-0.00995655171573162,-0.0035477650817483664
1769668320005549000,10.880549072265625,0.0036604711785912514,-0.011575709097087383,-0.006475900765508413
1769668320015538000,10.890537841796874,0.005331604741513729,-0.01134561188519001,-0.005868168082088232
1769668320025526800,10.90052685546875,0.00600865064188838,-0.011254706420004368,-0.0033966172486543655
1769668320035516000,10.910515869140625,0.008256091736257076,-0.009316990152001381,-0.0026117837987840176
1769668320045504800,10.9205048828125,0.00863092765212059,-0.008563879877328873,-0.00019472138956189156
1769668320055492900,10.930492919921875,0.006934760604053736,-0.002993346191942692,0.0027928126510232687
1769668320065482000,10.94048193359375,0.0034234337508678436,-0.002163008553907275,0.002433501649647951
1769668320075470800,10.950470947265625,0.0018700120272114873,-0.002141703153029084,-0.003030772553756833
1769668320085460000,10.9604599609375,-0.0025202459655702114,-0.003216926706954837,-0.006532417610287666
1769668320095449000,10.970448974609376,-0.004628670401871204,-0.0029902916867285967,-0.005287656560540199
1769668320105437700,10.980437744140625,-0.003286350518465042,-0.00031933910213410854,-0.0033887503668665886
1769668320115425800,10.99042578125,-0.0015763347037136555,0.003392841201275587,-0.008616268634796143
1769668320125415000,11.000414794921875,0.0017538469983264804,0.005856870673596859,-0.013639690354466438
1769668320135403800,11.01040380859375,0.006169634405523539,0.0073248050175607204,-0.017486892640590668
1769668320145393000,11.020392822265626,0.010307086631655693,0.01185766700655222,-0.018860675394535065
1769668320155382000,11.030382080078125,0.011251975782215595,0.017145641148090363,-0.018238559365272522
1769668320165369900,11.040369873046876,0.0068266503512859344,0.016887810081243515,-0.017220482230186462
1769668320175358700,11.050358642578125,0.0037818585988134146,0.014400948770344257,-0.012163671664893627
1769668320185347800,11.060347900390624,-0.00139829539693892,0.007504853419959545,-0.006617225706577301
1769668320195336700,11.070336669921875,-0.00415999349206686,0.002374539850279689,-0.0009798465762287378
1769668320205325800,11.080325927734375,-0.0063895960338413715,-0.0010050723794847727,0.001605766243301332
1769668320215314000,11.09031396484375,-0.00814222265034914,-0.00030572619289159775,0.0007474294397979975
1769668320225303000,11.100302978515625,-0.006843621842563152,0.00623543094843626,-0.0037246474530547857
1769668320235292000,11.1102919921875,-0.0011580390855669975,0.012107967399060726,-0.009327937848865986
1769668320245281000,11.120281005859376,0.0027103382162749767,0.014627348631620407,-0.011755651794373989
1769668320255270000,11.130269775390625,0.005334350746124983,0.01638609915971756,-0.015011899173259735
1769668320265257700,11.1402578125,0.007981347851455212,0.018171489238739014,-0.019818879663944244
1769668320275246800,11.150246826171875,0.00793820433318615,0.01850305311381817,-0.01960422843694687
1769668320285236000,11.160236083984374,0.006066632457077503,0.015939420089125633,-0.01780376210808754
1769668320295224800,11.170224853515625,0.005133194848895073,0.014133796095848083,-0.014077200554311275
1769668320305214000,11.1802138671875,0.004442350938916206,0.01587505079805851,-0.011232821270823479
1769668320315201800,11.190201904296876,0.006276736501604319,0.018090801313519478,-0.0065938616171479225
1769668320325190700,11.200190673828125,0.005055425688624382,0.017100496217608452,-0.0037993132136762142
1769668320335179800,11.2101796875,0.002570962533354759,0.01816522888839245,-0.005654205102473497
1769668320345169000,11.2201689453125,0.00367839727550745,0.023706596344709396,-0.01413598470389843
1769668320355157800,11.23015771484375,0.0031108777038753033,0.023829635232686996,-0.0179219339042902
1769668320365145900,11.240145751953126,-0.0004025833331979811,0.019930996000766754,-0.019387252628803253
1769668320375135000,11.250135009765625,-0.0005360077484510839,0.01864522136747837,-0.013385286554694176
1769668320385124000,11.2601240234375,0.00010612001642584801,0.020617663860321045,-0.00917497556656599
1769668320395112700,11.27011279296875,0.0022856509312987328,0.02509976550936699,-0.003974621184170246
1769668320405101800,11.280101806640625,0.004232142120599747,0.025487661361694336,-0.0021384665742516518
1769668320415090000,11.29008984375,0.0017929524183273315,0.020387176424264908,-0.005598179064691067
1769668320425078800,11.300078857421875,0.0020573255605995655,0.019718453288078308,-0.00866350345313549
1769668320435068000,11.31006787109375,0.002898085629567504,0.021148037165403366,-0.008994800969958305
1769668320445057000,11.32005712890625,0.0024741103406995535,0.02057758904993534,-0.009332224726676941
1769668320455046000,11.3300458984375,0.004017411731183529,0.02394542284309864,-0.00920385867357254
1769668320465033700,11.34003369140625,0.006097959820181131,0.024147622287273407,-0.009267701767385006
1769668320475022800,11.35002294921875,0.008953934535384178,0.023475706577301025,-0.009734287858009338
1769668320485011700,11.36001171875,0.009544982574880123,0.023071303963661194,-0.006833984982222319
1769668320495000800,11.370000732421875,0.00895163044333458,0.02166968211531639,-0.0058464850299060345
1769668320504990000,11.379989990234375,0.007824256084859371,0.01762324944138527,-0.00799059309065342
1769668320514978000,11.38997802734375,0.007727849762886763,0.019269881770014763,-0.007125065196305513
1769668320524967000,11.399966796875,0.011116252280771732,0.02194325067102909,-0.005573993548750877
1769668320534956000,11.4099560546875,0.015178372152149677,0.027439482510089874,-0.0026037702336907387
1769668320544944600,11.419944580078125,0.01350513007491827,0.028276491910219193,-0.002984308637678623
1769668320554933800,11.429933837890625,0.01097565982490778,0.026671139523386955,-0.006228305399417877
1769668320564921900,11.439921875,0.007429118268191814,0.02155567705631256,-0.011101932264864445
1769668320574911000,11.449910888671875,0.0033606071956455708,0.01738782785832882,-0.0078877629712224
1769668320584899800,11.45989990234375,-0.0031283125281333923,0.008918209932744503,-0.005626718979328871
1769668320594889000,11.469888916015625,-0.007177914958447218,0.004172989167273045,-0.0001653744839131832
1769668320604877800,11.4798779296875,-0.00823583547025919,0.004549185745418072,0.002301892265677452
1769668320614865700,11.48986572265625,-0.009519745595753193,0.006565731018781662,-0.00015780352987349033
1769668320624854800,11.499854736328125,-0.006937897764146328,0.00806395709514618,-0.001566155580803752
1769668320634844000,11.509843994140626,-0.0036387736909091473,0.009756130166351795,-0.0019541780930012465
1769668320644832800,11.519832763671875,-0.004420009441673756,0.012421985156834126,-0.005264196544885635
1769668320654822000,11.52982177734375,-0.0034679293166846037,0.01407607365399599,-0.006469010375440121
1769668320664810000,11.53981005859375,-0.003086929675191641,0.012726192362606525,-0.008621812798082829
1769668320674798800,11.549798828125,-0.0042949398048222065,0.011239881627261639,-0.007456147111952305
1769668320684787700,11.55978759765625,-0.0035994895733892918,0.009344702586531639,-0.006533458828926086
1769668320694776800,11.56977685546875,-0.0012396624078974128,0.010719425976276398,-0.005412801168859005
1769668320704765700,11.579765625,-0.0005707251257263124,0.011376198381185532,-0.006938477512449026
1769668320714753800,11.58975390625,0.0023635458201169968,0.016581080853939056,-0.006011431571096182
1769668320724743000,11.599742919921875,0.003674742067232728,0.018863048404455185,-0.0024958625435829163
1769668320734732300,11.609732177734376,0.0008547208271920681,0.017619352787733078,-0.0039478181861341
1769668320744721400,11.619721435546875,0.0007840683683753014,0.013805701397359371,-0.003792582545429468
1769668320754710500,11.62971044921875,0.0021742384415119886,0.010105239227414131,-0.0034250663593411446
1769668320764698400,11.639698486328125,0.0006116172298789024,0.008732285350561142,-0.0022869007661938667
1769668320774687200,11.649687255859375,-0.0000661573139950633,0.008486742153763771,-0.00001043081283569336
1769668320784676400,11.65967626953125,0.002161376178264618,0.007229344919323921,0.0035726844798773527
1769668320794665200,11.669665283203125,0.003241288010030985,0.00897185131907463,0.004918646067380905
1769668320804654300,11.679654296875,0.00209890678524971,0.011125601828098297,0.004897168837487698
1769668320814642400,11.689642333984375,0.0019508351106196642,0.009304797276854515,0.005256429314613342
1769668320824631300,11.69963134765625,0.0014104003785178065,0.009897878393530846,0.004166903905570507
1769668320834620200,11.7096201171875,-0.0016698116669431329,0.007964955642819405,0.0036920621059834957
1769668320844609300,11.719609375,-0.0012884538155049086,0.0077012404799461365,0.0027303474489599466
1769668320854598400,11.729598388671874,-0.0006988300010561943,0.007092176005244255,0.004339163191616535
1769668320864586200,11.739586181640625,0.0025667063891887665,0.007303853519260883,0.00711889797821641
1769668320874575400,11.749575439453125,0.0046602170914411545,0.007687348406761885,0.01144147478044033
1769668320884564500,11.759564453125,0.006396995857357979,0.010342223569750786,0.009225966408848763
1769668320894553300,11.76955322265625,0.006201519630849361,0.009772839024662971,0.003010947024449706
1769668320904542200,11.779542236328124,0.004884803667664528,0.013506362214684486,0.0009009726345539093
1769668320914530300,11.7895302734375,0.003367600729689002,0.012316195294260979,0.0048104929737746716
1769668320924519400,11.79951953125,-0.0018429525662213564,0.006242111325263977,0.0048454091884195805
1769668320934508300,11.80950830078125,-0.008135735988616943,0.004199999384582043,0.0056677935644984245
1769668320944497400,11.819497314453125,-0.010941864922642708,0.0066068656742572784,0.007965737022459507
1769668320954486300,11.829486328125,-0.009620138444006443,0.006831636186689138,0.01283293031156063
1769668320964475400,11.839475341796875,-0.008221045136451721,0.009263131767511368,0.014672135934233665
1769668320974463200,11.849463134765625,-0.007511578965932131,0.015221688896417618,0.01626657135784626
1769668320984452400,11.859452392578126,-0.005973567254841328,0.010691432282328606,0.01423118356615305
1769668320994441200,11.869441162109375,-0.0026693828403949738,0.007782727479934692,0.003571348497644067
1769668321004430300,11.879430419921874,0.0021012676879763603,0.010115358978509903,-0.0010548527352511883
1769668321014419200,11.889419189453125,0.008120544254779816,0.016022251918911934,-0.004928154405206442
