time,seconds_elapsed,z,y,x
1769659607208350500,0.0683505859375,0.02532799355685711,0.04495282843708992,-0.08497054874897003
1769659607218338600,0.078338623046875,0.02269572578370571,0.05181126669049263,-0.0864025354385376
1769659607228327200,0.0883271484375,0.02846386469900608,0.06563440710306168,-0.08026421070098877
1769659607238315300,0.098315185546875,0.030524618923664093,0.08027007430791855,-0.07400285452604294
1769659607248303400,0.108303466796875,0.030856182798743248,0.07110613584518433,-0.07491498440504074
1769659607258291500,0.11829150390625,0.03074566274881363,0.0395471416413784,-0.0772380605340004
1769659607268280300,0.1282802734375,0.027412716299295425,0.01203748770058155,-0.07247339934110641
1769659607278268400,0.138268310546875,0.018860772252082825,-0.007392934989184141,-0.06839370727539062
1769659607288256500,0.148256591796875,0.014190386980772018,-0.01926450803875923,-0.06987468898296356
1769659607298244400,0.158244384765625,0.01170246209949255,-0.023371901363134384,-0.0695740208029747
1769659607308232200,0.168232177734375,0.012345349416136742,-0.019569439813494682,-0.06482267379760742
1769659607318221300,0.17822119140625,0.01672198809683323,-0.02822418138384819,-0.06149212270975113
1769659607328209400,0.18820947265625,0.020668793469667435,-0.03141571208834648,-0.06040874868631363
1769659607338197500,0.198197509765625,0.02130049467086792,-0.022344985976815224,-0.06217122822999954
1769659607348185300,0.208185302734375,0.024691764265298843,-0.011679026298224926,-0.06522587686777115
1769659607358173400,0.21817333984375,0.02394235134124756,-0.005139368120580912,-0.07099108397960663
1769659607368162300,0.228162353515625,0.021443240344524384,-0.0070520504377782345,-0.07576347142457962
1769659607378150400,0.238150390625,0.018272213637828827,-0.017609886825084686,-0.08358623832464218
1769659607388138200,0.24813818359375,0.021284515038132668,-0.023807594552636147,-0.09549269825220108
1769659607398126300,0.258126220703125,0.022063490003347397,-0.024032365530729294,-0.09642480313777924
1769659607408115500,0.268115478515625,0.017557421699166298,-0.01841176487505436,-0.08997250348329544
1769659607418103600,0.278103515625,0.016267919912934303,-0.01732253096997738,-0.08611997216939926
1769659607428091400,0.28809130859375,0.014931545592844486,-0.018728148192167282,-0.08595645427703857
1769659607438079200,0.298079345703125,0.017944112420082092,-0.019058113917708397,-0.0868600606918335
1769659607448067300,0.3080673828125,0.016159262508153915,-0.0241926871240139,-0.08347944915294647
1769659607458056400,0.318056396484375,0.01727565936744213,-0.034815769642591476,-0.0812663584947586
1769659607468044300,0.328044189453125,0.015058311633765697,-0.04331711307168007,-0.08472287654876709
1769659607478032400,0.338032470703125,0.014844725839793682,-0.04842425882816315,-0.08855489641427994
1769659607488020500,0.3480205078125,0.014226339757442474,-0.04757550731301308,-0.0987342968583107
1769659607498009300,0.35800927734375,0.017241304740309715,-0.03759318217635155,-0.11076433211565018
1769659607507997200,0.3679970703125,0.0162426196038723,-0.027273699641227722,-0.11912266165018082
1769659607517985300,0.3779853515625,0.015674833208322525,-0.014249509200453758,-0.12366654723882675
1769659607527973400,0.387973388671875,0.014221812598407269,-0.0029353362042456865,-0.1255320906639099
1769659607537961500,0.39796142578125,0.01486656442284584,-0.0018192053539678454,-0.12246759235858917
1769659607547950300,0.407950439453125,0.01600959338247776,0.002537459833547473,-0.12178076058626175
1769659607557938400,0.4179384765625,0.01635713502764702,0.003954794257879257,-0.12041376531124115
1769659607567926500,0.427926513671875,0.015911854803562164,-0.009783920831978321,-0.1217578575015068
1769659607577914400,0.437914306640625,0.01631692238152027,-0.02369760535657406,-0.12188755720853806
1769659607587903200,0.4479033203125,0.01679336093366146,-0.027361849322915077,-0.12247105687856674
1769659607597891300,0.457891357421875,0.015719840303063393,-0.028808744624257088,-0.11664032936096191
1769659607607879400,0.46787939453125,0.01543781254440546,-0.03394358605146408,-0.10428965091705322
1769659607617867500,0.477867431640625,0.015268967486917973,-0.042451851069927216,-0.09476592391729355
1769659607627855400,0.48785546875,0.02052578143775463,-0.053335126489400864,-0.0826895534992218
1769659607637844200,0.49784423828125,0.02034601755440235,-0.04980750381946564,-0.08014277368783951
1769659607647832300,0.507832275390625,0.020786505192518234,-0.04198446869850159,-0.08217636495828629
1769659607657820400,0.5178203125,0.019945744425058365,-0.0358424186706543,-0.08110284060239792
1769659607667808300,0.527808349609375,0.02052205242216587,-0.025965021923184395,-0.0821627825498581
1769659607677796400,0.53779638671875,0.020665597170591354,-0.017483917996287346,-0.08259687572717667
1769659607687785500,0.547785400390625,0.02213965728878975,-0.019821641966700554,-0.0771283432841301
1769659607697773600,0.557773681640625,0.021748438477516174,-0.023196665570139885,-0.07303426414728165
1769659607707761400,0.567761474609375,0.023375097662210464,-0.03789651393890381,-0.06285912543535233
1769659607717749200,0.577749267578125,0.023868847638368607,-0.03538382425904274,-0.06115736439824104
1769659607727738400,0.58773828125,0.026871562004089355,-0.03617691248655319,-0.0654170885682106
1769659607737726500,0.5977265625,0.027306189760565758,-0.03548342362046242,-0.06770634651184082
1769659607747714300,0.60771435546875,0.02630377560853958,-0.025376196950674057,-0.07006457448005676
1769659607757702400,0.617702392578125,0.028968002647161484,-0.023611320182681084,-0.06963606923818588
1769659607767690500,0.6276904296875,0.030279075726866722,-0.0143533730879426,-0.0748598575592041
1769659607777679400,0.637679443359375,0.03297312930226326,0.003931624814867973,-0.07280176877975464
1769659607787667200,0.647667236328125,0.03494706377387047,0.005095692351460457,-0.06082287058234215
1769659607797655300,0.6576552734375,0.031009580940008163,0.0014644722687080503,-0.05013667047023773
1769659607807643400,0.667643310546875,0.02401532046496868,0.0031156321056187153,-0.0484389066696167
1769659607817632500,0.677632568359375,0.02364460937678814,0.0008487494196742773,-0.04578400030732155
1769659607827620400,0.687620361328125,0.025981532409787178,0.00010998855577781796,-0.04573739320039749
1769659607837608400,0.6976083984375,0.023907730355858803,-0.001612011343240738,-0.041488852351903915
1769659607847596300,0.70759619140625,0.018762502819299698,-0.011858257465064526,-0.03321068361401558
1769659607857584400,0.71758447265625,0.009512810967862606,-0.01561411377042532,-0.030615167692303658
1769659607867573200,0.7275732421875,0.00404507527127862,-0.016574449837207794,-0.02977840229868889
1769659607877561300,0.737561279296875,0.0029116340447217226,-0.024576716125011444,-0.03532683104276657
1769659607887549400,0.747549560546875,0.004900216590613127,-0.024403076618909836,-0.03585600107908249
1769659607897537500,0.75753759765625,0.0065196845680475235,-0.007861917838454247,-0.03439925238490105
1769659607907525400,0.767525390625,0.004264785908162594,0.0007174555794335902,-0.03568875417113304
1769659607917514800,0.7775146484375,-0.00017204020696226507,-0.0009731190511956811,-0.03404398635029793
1769659607927502600,0.787502685546875,-0.005155347287654877,0.002499643014743924,-0.03187137842178345
1769659607937490700,0.79749072265625,-0.00549330236390233,0.0018333201296627522,-0.03442881256341934
1769659607947478800,0.807478759765625,-0.008885903283953667,0.002785400254651904,-0.03185140714049339
1769659607957468000,0.817468017578125,-0.008953813463449478,0.005946572404354811,-0.027473436668515205
1769659607967455700,0.827455810546875,-0.010008425451815128,0.0163643267005682,-0.020375579595565796
1769659607977443600,0.837443603515625,-0.00920281931757927,0.022411832585930824,-0.020604344084858894
1769659607987431700,0.847431640625,-0.009526127018034458,0.023554062470793724,-0.02599724568426609
1769659607997419800,0.857419677734375,-0.012437494471669197,0.012944560497999191,-0.03972211107611656
1769659608007409000,0.867408935546875,-0.011750931851565838,0.012456669472157955,-0.049376871436834335
1769659608017396700,0.877396728515625,-0.01595073752105236,0.02291969768702984,-0.053415022790431976
1769659608027384800,0.887384765625,-0.013875335454940796,0.03525625914335251,-0.044072918593883514
1769659608037373000,0.897373046875,-0.014003166928887367,0.04362976923584938,-0.03844619169831276
1769659608047361800,0.90736181640625,-0.010975153185427189,0.039267510175704956,-0.034570228308439255
1769659608057349600,0.917349609375,-0.00629065278917551,0.031512387096881866,-0.036308739334344864
1769659608067337700,0.927337646484375,-0.003635747591033578,0.035770513117313385,-0.041316013783216476
1769659608077325800,0.937325927734375,-0.0051838429644703865,0.04134025052189827,-0.04084650054574013
1769659608087313700,0.947313720703125,-0.004868258256465197,0.051975317299366,-0.03621126711368561
1769659608097302800,0.957302734375,-0.001752093667164445,0.05510426312685013,-0.04146035760641098
1769659608107290600,0.96729052734375,0.003853061469271779,0.06274567544460297,-0.04687083512544632
1769659608117278700,0.97727880859375,0.010343983769416809,0.06425008922815323,-0.04773316904902458
1769659608127266600,0.9872666015625,0.012428972870111465,0.06927920877933502,-0.042867038398981094
1769659608137254700,0.997254638671875,0.010998588986694813,0.07658185809850693,-0.043238818645477295
1769659608147243800,1.007243896484375,0.011413775384426117,0.07400578260421753,-0.04707217216491699
1769659608157231900,1.01723193359375,0.008260060101747513,0.06960144639015198,-0.05157983675599098
1769659608167219700,1.0272197265625,0.010603908449411392,0.07485853135585785,-0.04447026178240776
1769659608177207800,1.037207763671875,0.015166436322033405,0.07659783959388733,-0.038115162402391434
1769659608187196700,1.04719677734375,0.018137725070118904,0.06871967762708664,-0.03401762247085571
1769659608197184800,1.057184814453125,0.018628545105457306,0.05844360217452049,-0.0344192273914814
1769659608207172600,1.067172607421875,0.015124624595046043,0.05354045704007149,-0.03675615042448044
1769659608217160700,1.07716064453125,0.014129401184618473,0.05715116858482361,-0.03448207676410675
1769659608227148800,1.087148681640625,0.011118431575596333,0.062640480697155,-0.027945347130298615
1769659608237138000,1.097137939453125,0.01678883284330368,0.0568491667509079,-0.02268081158399582
1769659608247125800,1.107125732421875,0.018679412081837654,0.049125999212265015,-0.016031431034207344
1769659608257113600,1.117113525390625,0.02214924432337284,0.043044138699769974,-0.00481259822845459
1769659608267101700,1.127101806640625,0.02244219183921814,0.04247608780860901,-0.0021670141723006964
1769659608277090800,1.1370908203125,0.01685035228729248,0.047749679535627365,0.00013422331539914012
1769659608287079000,1.147078857421875,0.01509932428598404,0.05592558532953262,0.003579288488253951
1769659608297066800,1.157066650390625,0.015558985993266106,0.06496088951826096,0.011006845161318779
1769659608307054800,1.167054931640625,0.01937795802950859,0.06480696052312851,0.02273700386285782
1769659608317043000,1.17704296875,0.027063574641942978,0.06034696474671364,0.034572359174489975
1769659608327031800,1.18703173828125,0.03074406459927559,0.05951472744345665,0.04202628135681152
1769659608337019600,1.19701953125,0.034143321216106415,0.06021540239453316,0.04235970601439476
1769659608347007700,1.2070078125,0.033007752150297165,0.06595557928085327,0.03672392666339874
1769659608356995800,1.216995849609375,0.03232784569263458,0.06404795497655869,0.03633243963122368
1769659608366983700,1.226983642578125,0.026164492592215538,0.06257016956806183,0.037517014890909195
1769659608376972800,1.236972900390625,0.026518426835536957,0.06639313697814941,0.03400643542408943
1769659608386960600,1.246960693359375,0.026690732687711716,0.0687556266784668,0.03489140421152115
1769659608396948700,1.25694873046875,0.025782328099012375,0.06671697646379471,0.03147057443857193
1769659608406936600,1.2669365234375,0.026195384562015533,0.07232532650232315,0.013391971588134766
1769659608416925700,1.27692578125,0.02052684687077999,0.09041059017181396,0.004004595335572958
1769659608426913800,1.286913818359375,0.015176289714872837,0.09671296179294586,-0.0054480284452438354
1769659608436902000,1.29690185546875,0.012377840466797352,0.0917205959558487,-0.001680987305007875
1769659608446889700,1.3068896484375,0.010926949791610241,0.07037456333637238,0.008790295571088791
1769659608456877800,1.3168779296875,0.013383982703089714,0.043235886842012405,0.015296930447220802
1769659608466866700,1.32686669921875,0.01786315254867077,0.034747328609228134,0.009695770218968391
1769659608476854800,1.336854736328125,0.01441009808331728,0.04989538714289665,0.0016266588354483247
1769659608486842600,1.346842529296875,0.009943710640072823,0.06204952299594879,0.0024833977222442627
1769659608496830700,1.356830810546875,0.00851625669747591,0.05350876599550247,-0.0036882117856293917
1769659608506819800,1.36681982421875,0.010426275432109833,0.04326944425702095,-0.00609251344576478
1769659608516807700,1.3768076171875,0.013798636384308338,0.03404265642166138,-0.0044144559651613235
1769659608526795800,1.386795654296875,0.01678936555981636,0.03573509305715561,0.0041366880759596825
1769659608536783600,1.39678369140625,0.02136441133916378,0.042513106018304825,0.010684601962566376
1769659608546771700,1.406771728515625,0.023796942085027695,0.0440705232322216,0.010261958464980125
1769659608556760800,1.4167607421875,0.02322782389819622,0.04557307809591293,0.004720186814665794
1769659608566749000,1.4267490234375,0.027750937268137932,0.05877543240785599,-0.0039116512052714825
1769659608576736800,1.43673681640625,0.029592514038085938,0.06809037178754807,-0.003941211849451065
1769659608586724900,1.446724853515625,0.030648456886410713,0.0681324452161789,-0.0007989483419805765
1769659608596713700,1.456713623046875,0.03117096796631813,0.06191583350300789,-0.0007685882737860084
1769659608606701800,1.466701904296875,0.030158700421452522,0.051543086767196655,-0.0005121259018778801
1769659608616689700,1.476689697265625,0.02574504353106022,0.04361671954393387,-0.0011795139871537685
1769659608626677800,1.486677734375,0.0219697467982769,0.029746975749731064,-0.003322559641674161
1769659608636665900,1.496665771484375,0.021889053285121918,0.014386129565536976,-0.0038810246624052525
1769659608646654700,1.50665478515625,0.021510351449251175,0.010090717114508152,-0.002386192325502634
1769659608656642600,1.516642578125,0.021263476461172104,0.004857605788856745,0.00169563468080014
1769659608666630700,1.526630615234375,0.01890311762690544,-0.00452790642157197,0.010125604458153248
1769659608676618800,1.53661865234375,0.02105548419058323,-0.014482269994914532,0.0154340835288167
1769659608686606600,1.546606689453125,0.02256975695490837,-0.01829485036432743,0.011685417965054512
1769659608696595700,1.556595703125,0.024816932156682014,-0.015252189710736275,0.010356234386563301
1769659608706583800,1.566583740234375,0.023977771401405334,-0.01895877718925476,0.003114300547167659
1769659608716572000,1.576572021484375,0.023489346727728844,-0.02642388455569744,-0.011232414282858372
1769659608726559700,1.586559814453125,0.024994032457470894,-0.02845188044011593,-0.021521270275115967
1769659608736548600,1.596548583984375,0.02684013545513153,-0.03111264482140541,-0.027044933289289474
1769659608746536700,1.60653662109375,0.02805107645690441,-0.03460191935300827,-0.029345903545618057
1769659608756524800,1.61652490234375,0.028414331376552582,-0.029142173007130623,-0.04060281813144684
1769659608766512600,1.6265126953125,0.03327566385269165,-0.021134845912456512,-0.04748496040701866
1769659608776500700,1.636500732421875,0.03440484404563904,-0.020501013845205307,-0.053693853318691254
1769659608786489600,1.646489501953125,0.03605866804718971,-0.023244069889187813,-0.05943696200847626
1769659608796477700,1.656477783203125,0.03564055263996124,-0.02262062393128872,-0.062489744275808334
1769659608806465800,1.6664658203125,0.03605227544903755,-0.01889832317829132,-0.06302396953105927
1769659608816453600,1.67645361328125,0.03966059535741806,-0.020533770322799683,-0.05958929285407066
1769659608826441700,1.686441650390625,0.0440518781542778,-0.014704111032187939,-0.061945926398038864
1769659608836430800,1.696430908203125,0.04946501925587654,-0.009643572382628918,-0.06514091789722443
1769659608846419000,1.7064189453125,0.046838078647851944,-0.025708826258778572,-0.06300745904445648
1769659608856406800,1.71640673828125,0.04825142025947571,-0.03206019848585129,-0.06156216561794281
1769659608866395000,1.726394775390625,0.04698242247104645,-0.022249378263950348,-0.05986360087990761
1769659608876383700,1.7363837890625,0.044014595448970795,-0.011991148814558983,-0.06263355165719986
1769659608886371800,1.746371826171875,0.04716644808650017,-0.00848696194589138,-0.07058042287826538
1769659608896359700,1.756359619140625,0.04778137058019638,-0.0054757255129516125,-0.08603368699550629
1769659608906347800,1.76634765625,0.04848471283912659,-0.005757221486419439,-0.09414061158895493
1769659608916335400,1.77633544921875,0.04640638083219528,-0.008552475832402706,-0.10628409683704376
1769659608926324500,1.786324462890625,0.03978869318962097,-0.011626828461885452,-0.10769077390432358
1769659608936312300,1.796312255859375,0.038542598485946655,-0.010983143001794815,-0.1010616347193718
1769659608946300200,1.806300048828125,0.037162281572818756,-0.004472779110074043,-0.0939406082034111
1769659608956288300,1.816288330078125,0.034033600240945816,0.01410676445811987,-0.10830037295818329
1769659608966277400,1.82627734375,0.03909733518958092,0.035290878266096115,-0.11122186481952667
1769659608976265500,1.836265380859375,0.03666160628199577,0.019945744425058365,-0.0932934582233429
1769659608986253300,1.84625341796875,0.033724140375852585,-0.010817494243383408,-0.08852427452802658
1769659608996241400,1.856241455078125,0.03472122922539711,-0.0074030552059412,-0.09496220201253891
1769659609006229500,1.8662294921875,0.03265754505991936,0.0028599686920642853,-0.09261249005794525
1769659609016218400,1.87621826171875,0.033858899027109146,0.00711809704080224,-0.09757395833730698
1769659609026206200,1.886206298828125,0.034864239394664764,0.009425459429621696,-0.1029207855463028
1769659609036194300,1.8961943359375,0.03465171903371811,0.017465543001890182,-0.10877468436956406
1769659609046182400,1.906182373046875,0.035236019641160965,0.025178324431180954,-0.11786697804927826
1769659609056171500,1.916171630859375,0.038301050662994385,0.0317656509578228,-0.12536084651947021
1769659609066159400,1.926159423828125,0.037029389292001724,0.026885144412517548,-0.12653370201587677
1769659609076147200,1.936147216796875,0.04779202491044998,0.013673467561602592,-0.12446416169404984
1769659609086135300,1.94613525390625,0.05248531326651573,-0.007451790850609541,-0.13540655374526978
1769659609096123400,1.956123291015625,0.06157761067152023,-0.00920095480978489,-0.151603102684021
1769659609106112500,1.966112548828125,0.054900798946619034,0.03351854532957077,-0.1838558465242386
1769659609116100400,1.976100341796875,0.04084516689181328,0.07945487648248672,-0.2064000368118286
1769659609126088400,1.98608837890625,0.027301128953695297,0.10912036150693893,-0.2224794179201126
1769659609136076500,1.99607666015625,0.028922194615006447,0.12377201020717621,-0.22242508828639984
1769659609146065400,2.0060654296875,0.03846163675189018,0.1169457957148552,-0.21242384612560272
1769659609156053200,2.01605322265625,0.05102696642279625,0.0915946289896965,-0.18335038423538208
1769659609166041300,2.026041259765625,0.054176684468984604,0.06094590947031975,-0.15646684169769287
1769659609176029400,2.036029541015625,0.05485951900482178,0.03178296238183975,-0.13811659812927246
1769659609186017300,2.046017333984375,0.045270808041095734,0.020063988864421844,-0.12875904142856598
1769659609196006400,2.05600634765625,0.03227271884679794,0.018569689244031906,-0.13505661487579346
1769659609205994200,2.065994140625,0.026459570974111557,0.011118431575596333,-0.13939623534679413
1769659609215982300,2.075982421875,0.02954777143895626,-0.006456035189330578,-0.14421017467975616
1769659609225970200,2.08597021484375,0.036198750138282776,-0.024152740836143494,-0.15483404695987701
1769659609235958300,2.095958251953125,0.04141188785433769,-0.025434253737330437,-0.16011163592338562
1769659609245947400,2.105947509765625,0.04020707309246063,-0.008942095562815666,-0.1543712019920349
1769659609255935500,2.115935546875,0.03995966538786888,0.02021685428917408,-0.14695456624031067
1769659609265923300,2.12592333984375,0.042686741799116135,0.052260540425777435,-0.14190679788589478
1769659609275911400,2.135911376953125,0.0445067472755909,0.07969403266906738,-0.14989948272705078
1769659609285900300,2.145900390625,0.0353180430829525,0.08857247978448868,-0.16145946085453033
1769659609295888400,2.155888427734375,0.03442481905221939,0.09369239956140518,-0.18817922472953796
1769659609305876200,2.165876220703125,0.022179869934916496,0.07281668484210968,-0.19804704189300537
1769659609315864300,2.1758642578125,0.015549398958683014,0.04061400517821312,-0.20407643914222717
1769659609325852400,2.185852294921875,0.01630254089832306,0.029171466827392578,-0.2075555920600891
1769659609335841500,2.195841552734375,0.020012058317661285,0.04831986129283905,-0.20803974568843842
1769659609345829400,2.205829345703125,0.023747406899929047,0.07278712093830109,-0.20552626252174377
1769659609355817200,2.215817138671875,0.023274695500731468,0.07888656109571457,-0.18455307185649872
1769659609365805300,2.225805419921875,0.015971776098012924,0.05360677093267441,-0.15432006120681763
1769659609375794400,2.23579443359375,0.009870207868516445,0.03483281657099724,-0.126104936003685
1769659609385782500,2.245782470703125,0.003919906914234161,0.03367780148983002,-0.1163306012749672
1769659609395770400,2.255770263671875,0.0018096179701387882,0.050568901002407074,-0.1126256138086319
1769659609405758500,2.265758544921875,0.00020905814017169178,0.06619793176651001,-0.11302215605974197
1769659609415746600,2.27574658203125,-0.006393450777977705,0.06053072214126587,-0.11897432059049606
1769659609425735400,2.2857353515625,-0.005775863770395517,0.04421113803982735,-0.1373666524887085
1769659609435723300,2.29572314453125,-0.00723474333062768,0.02713175304234028,-0.1610485464334488
1769659609445711400,2.30571142578125,-0.006747651379555464,0.029990389943122864,-0.18001823127269745
1769659609455699500,2.315699462890625,-0.003658917034044862,0.052927661687135696,-0.20402424037456512
1769659609465688600,2.3256884765625,0.002739860210567713,0.07965701073408127,-0.2325269877910614
1769659609475676400,2.335676513671875,0.0018194715958088636,0.09291582554578781,-0.2526567578315735
1769659609485664300,2.345664306640625,-0.00890667550265789,0.08946143835783005,-0.25389033555984497
1769659609495652400,2.35565234375,-0.01757047139108181,0.0683116763830185,-0.2561558783054352
1769659609505640200,2.36564013671875,-0.03136511147022247,0.038727954030036926,-0.24903379380702972
1769659609515629300,2.37562939453125,-0.03404318913817406,0.022435534745454788,-0.22868403792381287
1769659609525617400,2.385617431640625,-0.03543415665626526,0.0279765073210001,-0.2077486664056778
1769659609535605500,2.39560546875,-0.03593909367918968,0.03921930864453316,-0.1877794861793518
1769659609545593300,2.40559326171875,-0.03190360590815544,0.048519067466259,-0.16268771886825562
1769659609555582200,2.415582275390625,-0.03291454166173935,0.04601968824863434,-0.14553509652614594
1769659609565570300,2.4255703125,-0.03262984752655029,0.03519606962800026,-0.12692199647426605
1769659609575558400,2.435558349609375,-0.03142423555254936,0.013556288555264473,-0.11623579263687134
1769659609585546200,2.445546142578125,-0.02544250898063183,0.0015595471486449242,-0.10576903820037842
1769659609595534300,2.455534423828125,-0.02256309986114502,-0.0008580705034546554,-0.10936111211776733
1769659609605523500,2.4655234375,-0.02827984094619751,0.009793242439627647,-0.11358222365379333
1769659609615511300,2.47551123046875,-0.03396143019199371,0.008400142192840576,-0.1291385442018509
1769659609625499400,2.48549951171875,-0.03145726025104523,-0.0073170349933207035,-0.15961283445358276
1769659609635487200,2.4954873046875,-0.0377122238278389,0.012806875631213188,-0.16730830073356628
1769659609645476400,2.505476318359375,-0.053100503981113434,0.04796113446354866,-0.16674184799194336
1769659609655464400,2.51546435546875,-0.06382611393928528,0.07438981533050537,-0.14723019301891327
1769659609665452500,2.52545263671875,-0.06293235719203949,0.07770944386720657,-0.12507882714271545
1769659609675440400,2.5354404296875,-0.06184792146086693,0.05119714140892029,-0.10917868465185165
1769659609685428500,2.545428466796875,-0.056287508457899094,0.010482202284038067,-0.11458995938301086
1769659609695417300,2.555417236328125,-0.05885479599237442,-0.020674385130405426,-0.12261086702346802
1769659609705405400,2.565405517578125,-0.059421781450510025,-0.026199646294116974,-0.13217401504516602
1769659609715393300,2.575393310546875,-0.050571829080581665,-0.020870128646492958,-0.1321180909872055
1769659609725381400,2.58538134765625,-0.04222894459962845,-0.04670119285583496,-0.130120187997818
1769659609735370500,2.59537060546875,-0.03569301590323448,-0.062304653227329254,-0.12537389993667603
1769659609745358600,2.605358642578125,-0.030104639008641243,-0.07487903535366058,-0.12454619258642197
1769659609755346200,2.61534619140625,-0.03181518614292145,-0.04686417803168297,-0.14333052933216095
1769659609765334300,2.625334228515625,-0.03280588239431381,0.016703346744179726,-0.1556447148323059
1769659609775322400,2.635322265625,-0.025462482124567032,0.06375288218259811,-0.1532697081565857
1769659609785311500,2.6453115234375,-0.01834971271455288,0.07141666114330292,-0.14306634664535522
1769659609795299300,2.65529931640625,-0.013821805827319622,0.06749995052814484,-0.14590847492218018
1769659609805287400,2.665287353515625,-0.01733265072107315,0.06619233638048172,-0.16121205687522888
1769659609815275500,2.675275634765625,-0.016705477610230446,0.07874488085508347,-0.1872074455022812
1769659609825264400,2.685264404296875,-0.016440758481621742,0.0941813588142395,-0.20405060052871704
1769659609835252200,2.695252197265625,-0.01906876638531685,0.10223902016878128,-0.2087838351726532
1769659609845240300,2.705240234375,-0.018515627831220627,0.09409666806459427,-0.19848166406154633
1769659609855228400,2.715228515625,-0.019510583952069283,0.07312481105327606,-0.17304980754852295
1769659609865216300,2.72521630859375,-0.02058863267302513,0.052984122186899185,-0.1476810723543167
1769659609875205400,2.735205322265625,-0.026521354913711548,0.0336221419274807,-0.1244061067700386
1769659609885193500,2.745193359375,-0.028148280456662178,0.019657324999570847,-0.10486649721860886
1769659609895181300,2.755181396484375,-0.023739418014883995,0.010147974826395512,-0.08515164256095886
1769659609905169400,2.76516943359375,-0.02888278104364872,0.00415319949388504,-0.0576648935675621
1769659609915158300,2.775158203125,-0.032703619450330734,0.020145215094089508,-0.030349649488925934
1769659609925146000,2.78514599609375,-0.02201581932604313,0.03007960505783558,-0.01094798929989338
1769659609935134200,2.79513427734375,-0.007484814152121544,0.016513463109731674,0.011595402844250202
1769659609945122300,2.805122314453125,0.009046225808560848,0.01666286587715149,0.02490721456706524
1769659609955110100,2.815110107421875,0.01925625279545784,0.034989673644304276,0.030192524194717407
1769659609965099000,2.82509912109375,0.025618011131882668,0.0790463462471962,0.018451711162924767
1769659609975087000,2.835087158203125,0.021700235083699226,0.11568158864974976,-0.003621100215241313
1769659609985075200,2.8450751953125,0.022068550810217857,0.11943238973617554,-0.03400137647986412
1769659609995063000,2.85506298828125,0.017471667379140854,0.09511559456586838,-0.06109025329351425
1769659610005052200,2.86505224609375,0.011334147304296494,0.07501006126403809,-0.07810811698436737
1769659610015040300,2.875040283203125,0.0036157737486064434,0.05844360217452049,-0.07866285741329193
1769659610025028400,2.8850283203125,-0.0078544607385993,0.042745865881443024,-0.08230898529291153
1769659610035016000,2.895015869140625,-0.013456420041620731,0.026914704591035843,-0.09909409284591675
1769659610045004000,2.905004150390625,-0.008349542506039143,0.019765980541706085,-0.1413363516330719
1769659610054993200,2.9149931640625,0.014281733892858028,0.027815917506814003,-0.1818627417087555
1769659610064981200,2.924981201171875,0.017058080062270164,0.02237747795879841,-0.1998760998249054
1769659610074969000,2.934968994140625,0.016048207879066467,0.019148128107190132,-0.19003544747829437
1769659610084957200,2.944957275390625,0.011713647283613682,0.0232363473623991,-0.16965241730213165
1769659610094946000,2.954946044921875,-0.003692206460982561,0.048892442137002945,-0.1550724059343338
1769659610104934100,2.96493408203125,-0.028791701421141624,0.07584203034639359,-0.15306305885314941
1769659610114922000,2.974921875,-0.04602581635117531,0.0933469906449318,-0.17173953354358673
1769659610124910000,2.98491015625,-0.05555087700486183,0.07819866389036179,-0.2099154144525528
1769659610134898200,2.994898193359375,-0.05485925450921059,0.044866807758808136,-0.26016926765441895
1769659610144887300,3.00488720703125,-0.04380979761481285,0.04722237214446068,-0.3316567540168762
1769659610154875400,3.01487548828125,-0.049542251974344254,0.11711650341749191,-0.38756850361824036
1769659610164863200,3.02486328125,-0.047136884182691574,0.194322869181633,-0.4158179759979248
1769659610174851000,3.03485107421875,-0.02840314619243145,0.2382892668247223,-0.4266032576560974
1769659610184840200,3.044840087890625,-0.010846256278455257,0.2653975784778595,-0.44547146558761597
1769659610194828300,3.054828369140625,0.006540190894156694,0.28928160667419434,-0.4791109263896942
1769659610204816100,3.064816162109375,0.010232130996882915,0.33225303888320923,-0.5115724802017212
1769659610214804200,3.07480419921875,0.017375795170664787,0.39643895626068115,-0.5621930360794067
1769659610224792300,3.084792236328125,0.024627847597002983,0.4720120131969452,-0.5991291999816895
1769659610234781200,3.09478125,0.021135378628969193,0.4945439398288727,-0.6087070107460022
1769659610244769000,3.10476904296875,0.014751781709492207,0.48371341824531555,-0.5915203094482422
1769659610254757000,3.114757080078125,0.0010982876410707831,0.4576660990715027,-0.5556051731109619
1769659610264745200,3.1247451171875,-0.007738347165286541,0.42406073212623596,-0.5126699805259705
1769659610274734300,3.134734375,-0.005849100649356842,0.35242435336112976,-0.4552636444568634
1769659610284722200,3.14472216796875,-0.027817249298095703,0.2848610281944275,-0.38026025891304016
1769659610294710300,3.154710205078125,-0.037390246987342834,0.21836349368095398,-0.2852543890476227
1769659610304698000,3.164697998046875,-0.02762017585337162,0.14774392545223236,-0.15469184517860413
1769659610314686000,3.17468603515625,-0.013756025582551956,0.0814322754740715,-0.012358665466308594
1769659610324675000,3.184675048828125,0.004005660768598318,0.04936541989445686,0.10678184032440186
1769659610334663200,3.1946630859375,0.016327308490872383,0.008596950210630894,0.15949511528015137
1769659610344651300,3.2046513671875,0.016711868345737457,-0.03671114146709442,0.15878884494304657
1769659610354639000,3.21463916015625,0.004280232358723879,-0.07524841278791428,0.1465742588043213
1769659610364628000,3.2246279296875,-0.010245180688798428,-0.09323753416538239,0.12937316298484802
1769659610374616000,3.234615966796875,-0.028541363775730133,-0.06972075998783112,0.11008522659540176
1769659610384604200,3.244604248046875,-0.03570100665092468,-0.02462119050323963,0.06904671341180801
1769659610394592000,3.254592041015625,-0.02786731719970703,-0.00464588450267911,0.02123231813311577
1769659610404580000,3.264580078125,-0.0060344566591084,-0.006701312027871609,-0.013817545026540756
1769659610414569200,3.2745693359375,0.015446600504219532,0.0037713022902607918,-0.019808592274785042
1769659610424557300,3.284557373046875,0.02821885421872139,0.016382968053221703,-0.019024822860956192
1769659610434545200,3.294545166015625,0.029195168986916542,-0.002412291243672371,-0.04207448288798332
1769659610444533000,3.304532958984375,0.01763811521232128,-0.016759805381298065,-0.06397871673107147
1769659610454522000,3.314522216796875,-0.0026288062799721956,-0.004833903629332781,-0.06070196256041527
1769659610464510200,3.32451025390625,-0.014913436025381088,0.0024732777383178473,-0.04547640308737755
1769659610474498300,3.334498291015625,-0.018937738612294197,-0.025595108047127724,-0.03548502177000046
1769659610484486100,3.344486083984375,-0.019045863300561905,-0.07001157850027084,-0.03141731023788452
1769659610494474200,3.35447412109375,-0.02143019065260887,-0.09111339598894119,-0.02834002859890461
1769659610504463000,3.364463134765625,-0.024387365207076073,-0.10503267496824265,-0.028960544615983963
1769659610514451200,3.374451171875,-0.022177474573254585,-0.12026036530733109,-0.03242771327495575
1769659610524439000,3.38443896484375,-0.014634869061410427,-0.12414512038230896,-0.028803685680031776
1769659610534427100,3.39442724609375,-0.0008362325606867671,-0.11742063611745834,-0.02689845860004425
1769659610544416300,3.404416259765625,0.009615076705813408,-0.08477693796157837,-0.03683125227689743
1769659610554404400,3.414404296875,0.01453073974698782,-0.03436622768640518,-0.05192498117685318
1769659610564392200,3.42439208984375,0.021016335114836693,-0.031247401610016823,-0.05727846920490265
1769659610574380000,3.434380126953125,0.025772208347916603,-0.057200971990823746,-0.0658506527543068
1769659610584369200,3.444369140625,0.02821352891623974,-0.080266073346138,-0.06755880266427994
1769659610594357200,3.454357177734375,0.030722226947546005,-0.04796832427382469,-0.040328249335289
1769659610604345000,3.464344970703125,0.030061496421694756,0.01281672902405262,-0.013035374693572521
1769659610614333200,3.474333251953125,0.030973095446825027,-0.018396584317088127,-0.0365351065993309
1769659610624321300,3.4843212890625,0.02515914849936962,-0.07796217501163483,-0.037587057799100876
1769659610634310100,3.49431005859375,0.019150791689753532,-0.05264510214328766,-0.0037894118577241898
1769659610644298000,3.504298095703125,-0.005589442327618599,-0.013129650615155697,-0.0017217335989698768
1769659610654286000,3.5142861328125,-0.008251272141933441,-0.005219529382884502,0.003757453989237547
1769659610664274200,3.524274169921875,-0.011598865501582623,-0.015044462867081165,0.009408148936927319
1769659610674263300,3.53426318359375,-0.006384928710758686,-0.03278324753046036,0.013456153683364391
1769659610684251100,3.544251220703125,0.0033657029271125793,-0.03530659154057503,0.03327113762497902
1769659610694239200,3.5542392578125,0.005625661462545395,-0.01494965422898531,0.053096506744623184
1769659610704227300,3.564227294921875,0.00014194648247212172,0.04542393982410431,0.07276714593172073
1769659610714215200,3.574215087890625,0.01284629013389349,0.14431217312812805,0.07267926633358002
1769659610724204000,3.5842041015625,0.028768265619874,0.2357185184955597,0.0930657610297203
1769659610734192000,3.594192138671875,0.0634857639670372,0.31232860684394836,0.08610505610704422
1769659610744180200,3.60418017578125,0.0987902283668518,0.34442368149757385,0.05489733815193176
1769659610754168300,3.614168212890625,0.12823866307735443,0.3228078782558441,0.00851492490619421
1769659610764157200,3.6241572265625,0.12221112847328186,0.3040195405483246,-0.027188211679458618
1769659610774145000,3.63414501953125,0.0947483479976654,0.2944428026676178,-0.02828703075647354
1769659610784133000,3.644133056640625,0.07256980985403061,0.274432897567749,-0.030465230345726013
1769659610794121200,3.654121337890625,0.05967158451676369,0.24576182663440704,-0.043057188391685486
1769659610804110000,3.664110107421875,0.054116763174533844,0.2316066026687622,-0.0492333248257637
1769659610814098200,3.67409814453125,0.05213004723191261,0.2314225733280182,-0.04982854425907135
1769659610824086300,3.684086181640625,0.043588489294052124,0.22718575596809387,-0.02311037853360176
1769659610834074400,3.694074462890625,0.03178136423230171,0.2108810842037201,-0.0026911243330687284
1769659610844062200,3.704062255859375,0.009002815932035446,0.19408825039863586,-0.012288091704249382
1769659610854051000,3.714051025390625,-0.014905712567269802,0.1733691245317459,-0.032641299068927765
1769659610864039200,3.7240390625,-0.028020448982715607,0.1606019288301468,-0.06731965392827988
1769659610874027300,3.73402734375,-0.03281706944108009,0.16545367240905762,-0.10776215046644211
1769659610884015000,3.74401513671875,-0.03681660443544388,0.17407752573490143,-0.13805294036865234
1769659610894004200,3.754004150390625,-0.02696690335869789,0.20666369795799255,-0.15394562482833862
1769659610903992000,3.763991943359375,-0.01335521973669529,0.2440432906150818,-0.1333271712064743
1769659610913980400,3.77398046875,0.00863130483776331,0.2306382656097412,-0.1026851013302803
1769659610923968300,3.78396826171875,0.03292572498321533,0.20394007861614227,-0.06977641582489014
1769659610933956400,3.793956298828125,0.0499878004193306,0.21235060691833496,-0.040830519050359726
1769659610943945500,3.803945556640625,0.06034909561276436,0.22886674106121063,-0.015210111625492573
1769659610953933600,3.81393359375,0.05963190644979477,0.2086767852306366,0.01375416200608015
1769659610963921400,3.82392138671875,0.054361775517463684,0.18193703889846802,0.039501603692770004
1769659610973909500,3.833909423828125,0.044438306242227554,0.16769765317440033,0.0581626370549202
1769659610983898400,3.8438984375,0.03297792375087738,0.15645192563533783,0.0723961666226387
1769659610993886500,3.853886474609375,0.019838152453303337,0.10709263384342194,0.0839681401848793
1769659611003874300,3.863874267578125,0.012500079348683357,0.060630057007074356,0.08878686279058456
1769659611013862400,3.8738623046875,0.00023755396250635386,0.0317201130092144,0.09521014243364334
1769659611023850500,3.8838505859375,-0.009167931973934174,0.013307283632457256,0.09114881604909897
1769659611033839400,3.89383935546875,-0.01834944635629654,-0.002552639925852418,0.07797309756278992
1769659611043827200,3.9038271484375,-0.029139243066310883,-0.007149522192776203,0.06564159691333771
1769659611053815300,3.913815185546875,-0.02990064024925232,-0.004520449787378311,0.05060458928346634
1769659611063803400,3.923803466796875,-0.0251583494246006,0.008738364093005657,0.0313323549926281
1769659611073792500,3.93379248046875,-0.02383662387728691,0.019171830266714096,0.008884038776159286
1769659611083780600,3.943780517578125,-0.016631174832582474,0.029110480099916458,-0.010583668015897274
1769659611093768400,3.9537685546875,-0.006506102625280619,0.044196221977472305,-0.02564011514186859
1769659611103756500,3.963756591796875,-0.0013467605458572507,0.060257747769355774,-0.03261280432343483
1769659611113745400,3.973745361328125,0.006560430862009525,0.07676561921834946,-0.02876853197813034
1769659611123733500,3.9837333984375,0.004797418136149645,0.09212353825569153,-0.02328321896493435
1769659611133721300,3.993721435546875,0.00484269205480814,0.09618272632360458,-0.021580658853054047
1769659611143709400,4.00370947265625,0.0036634444259107113,0.09935082495212555,-0.02473464049398899
1769659611153697500,4.013697509765625,-0.012591425329446793,0.09265883266925812,-0.01792999729514122
1769659611163686400,4.023686279296875,-0.033849842846393585,0.0714065358042717,-0.007889880798757076
1769659611173674200,4.03367431640625,-0.06259547173976898,0.049067944288253784,-0.004514590837061405
1769659611183662300,4.043662353515625,-0.0985577329993248,0.03887256607413292,-0.004936168901622295
1769659611193650400,4.053650390625,-0.141103595495224,0.008948753587901592,-0.008310394361615181
1769659611203639600,4.0636396484375,-0.16993631422519684,-0.02575969137251377,-0.01930844970047474
1769659611213627400,4.07362744140625,-0.1775209903717041,-0.116951122879982,-0.04062226042151451
1769659611223615500,4.083615478515625,-0.17648422718048096,-0.19844171404838562,-0.07019586861133575
1769659611233603600,4.093603515625,-0.16970540583133698,-0.19208236038684845,-0.09252753853797913
1769659611243592400,4.103592529296875,-0.1420908272266388,-0.11424827575683594,-0.11011478304862976
1769659611253580300,4.113580322265625,-0.10965059697628021,-0.04553339630365372,-0.10276579111814499
1769659611263568400,4.123568359375,-0.08219020813703537,-0.0011984225129708648,-0.09714359045028687
1769659611273556500,4.133556396484375,-0.0586172416806221,0.009880593977868557,-0.09616834670305252
1769659611283544300,4.14354443359375,-0.039266444742679596,0.025711754336953163,-0.0918383076786995
1769659611293533400,4.153533447265625,-0.026634540408849716,0.044019389897584915,-0.07360763847827911
1769659611303521300,4.163521240234375,-0.03666293993592262,0.06973860412836075,-0.0495837964117527
1769659611313509400,4.17350927734375,-0.07856378704309464,-0.024117320775985718,-0.0647885799407959
1769659611323497200,4.183497314453125,-0.10074498504400253,-0.20381304621696472,-0.09197226911783218
1769659611333486300,4.193486328125,-0.15020202100276947,-0.30285146832466125,-0.08830536156892776
1769659611343474400,4.203474365234375,-0.18893024325370789,-0.2997443675994873,-0.093435138463974
1769659611353462500,4.213462646484375,-0.1849490851163864,-0.2686964273452759,-0.08726486563682556
1769659611363450600,4.22345068359375,-0.1616666615009308,-0.21324169635772705,-0.08171829581260681
1769659611373438500,4.2334384765625,-0.13796958327293396,-0.14832182228565216,-0.077387735247612
1769659611383427300,4.24342724609375,-0.1202441155910492,-0.13072098791599274,-0.04127846285700798
1769659611393415400,4.25341552734375,-0.10176125168800354,-0.10073167085647583,-0.03143222630023956
1769659611403403500,4.263403564453125,-0.0904071256518364,-0.12341754138469696,-0.010017480701208115
1769659611413391400,4.273391357421875,-0.08287037909030914,-0.11249379068613052,-0.01918860897421837
1769659611423380500,4.28338037109375,-0.08818604797124863,-0.13557061553001404,-0.02280438132584095
1769659611433368300,4.293368408203125,-0.09696090221405029,-0.12797313928604126,-0.034082602709531784
1769659611443356400,4.3033564453125,-0.11921054869890213,-0.10206511616706848,-0.0337371900677681
1769659611453344300,4.31334423828125,-0.13369761407375336,-0.06856761127710342,-0.03395450487732887
1769659611463333400,4.32333349609375,-0.13116493821144104,-0.04773449897766113,-0.03395264223217964
1769659611473321500,4.333321533203125,-0.14836150407791138,-0.033845048397779465,-0.03201199322938919
1769659611483309600,4.3433095703125,-0.14219442009925842,-0.026006566360592842,-0.02960183471441269
1769659611493297400,4.35329736328125,-0.14918042719364166,-0.03439712151885033,-0.02515808306634426
1769659611503285500,4.363285400390625,-0.13512106239795685,-0.04445481672883034,-0.0321856327354908
1769659611513274400,4.3732744140625,-0.13891181349754333,-0.05552664026618004,-0.04079749807715416
1769659611523262500,4.383262451171875,-0.12308064848184586,-0.0316585935652256,-0.04574192315340042
1769659611533250300,4.393250244140625,-0.12133601307868958,-0.0006908240029588342,-0.04506387934088707
1769659611543238400,4.40323828125,-0.12846343219280243,0.02225630357861519,-0.043471843004226685
1769659611553227500,4.4132275390625,-0.131521537899971,0.0388837493956089,-0.04146062582731247
1769659611563215600,4.423215576171875,-0.1239941194653511,0.06474490463733673,-0.04639439657330513
1769659611573203200,4.433203125,-0.11761211603879929,0.06254460662603378,-0.05392022430896759
1769659611583191300,4.44319140625,-0.11297182738780975,0.05567498132586479,-0.06760434061288834
1769659611593180400,4.453180419921875,-0.06855323165655136,0.07683113217353821,-0.0777997225522995
1769659611603168500,4.46316845703125,-0.041978877037763596,0.08874557912349701,-0.07880506664514542
1769659611613156400,4.47315625,-0.0287629384547472,0.10719223320484161,-0.0820530578494072
1769659611623144400,4.48314453125,-0.05078594759106636,0.10244807600975037,-0.08903000503778458
1769659611633132500,4.493132568359375,-0.08822173625230789,0.06557901203632355,-0.08534472435712814
1769659611643121400,4.503121337890625,-0.08839643746614456,0.03708957880735397,-0.08400808274745941
1769659611653109200,4.513109130859375,-0.076491579413414,-0.01443859376013279,-0.06713695824146271
1769659611663097300,4.523097412109375,-0.06407245993614197,-0.05362967401742935,-0.0551103912293911
1769659611673085400,4.53308544921875,-0.06444503366947174,-0.07613897323608398,-0.044431112706661224
1769659611683074600,4.543074462890625,-0.07323320209980011,-0.06738836318254471,-0.03792820870876312
1769659611693062400,4.5530625,-0.08331512659788132,-0.07372615486383438,-0.035960663110017776
1769659611703050500,4.563050537109375,-0.08906009793281555,-0.10239534825086594,-0.03639449179172516
1769659611713038300,4.573038330078125,-0.08244933933019638,-0.0961824581027031,-0.03448926657438278
1769659611723026400,4.5830263671875,-0.07789000123739243,-0.09823602437973022,-0.03455771133303642
1769659611733015300,4.593015380859375,-0.06872287392616272,-0.08892028778791428,-0.03543522208929062
1769659611743003400,4.60300341796875,-0.0455578975379467,-0.047442082315683365,-0.040162600576877594
1769659611752991500,4.612991455078125,-0.0421634316444397,-0.043841756880283356,-0.06300666183233261
1769659611762979600,4.6229794921875,-0.046180013567209244,-0.05000617355108261,-0.0724550262093544
1769659611772968400,4.632968505859375,-0.042936548590660095,-0.039374303072690964,-0.06261544674634933
1769659611782956300,4.642956298828125,-0.03936817869544029,-0.05327094346284866,-0.045806635171175
1769659611792944400,4.6529443359375,-0.030820496380329132,-0.041784998029470444,-0.040521591901779175
1769659611802932500,4.662932373046875,-0.021467475220561028,-0.03645281493663788,-0.04109523817896843
1769659611812921600,4.672921630859375,-0.011093131266534328,-0.032939307391643524,-0.049374740570783615
1769659611822909400,4.682909423828125,-0.015440741553902626,-0.024233434349298477,-0.046834882348775864
1769659611832897500,4.6928974609375,-0.021567342802882195,-0.012688631191849709,-0.041845716536045074
1769659611842885400,4.702885498046875,-0.02173032984137535,-0.010214820504188538,-0.03602990508079529
1769659611852873200,4.712873291015625,-0.013939517550170422,0.008810003288090229,-0.031798411160707474
1769659611862862300,4.7228623046875,-0.0044054011814296246,0.0400286428630352,-0.032285500317811966
1769659611872850400,4.732850341796875,-0.006924751214683056,0.053641922771930695,-0.03598010540008545
1769659611882838500,4.742838623046875,-0.008499745279550552,0.03549088165163994,-0.038066692650318146
1769659611892826400,4.752826416015625,-0.011118165217339993,0.020193951204419136,-0.02923538349568844
1769659611902815200,4.762815185546875,-0.017284180968999863,0.005102084018290043,-0.01167263463139534
1769659611912803300,4.77280322265625,-0.021105818450450897,0.0022509037517011166,0.0013483584625646472
1769659611922791400,4.78279150390625,-0.026165558025240898,-0.006061088293790817,0.001814411603845656
1769659611932779500,4.792779541015625,-0.027355192229151726,-0.016170447692275047,-0.0018341189716011286
1769659611942767400,4.802767333984375,-0.02948492206633091,-0.014420750550925732,-0.012496083974838257
1769659611952756500,4.812756591796875,-0.03213956207036972,-0.0038602519780397415,-0.02527206763625145
1769659611962744600,4.82274462890625,-0.029885461553931236,0.010921889916062355,-0.040762610733509064
1769659611972732400,4.832732421875,-0.02773762121796608,0.02058916538953781,-0.0588017962872982
1769659611982720500,4.842720458984375,-0.01649269089102745,0.03503601625561714,-0.07686308771371841
1769659611992709400,4.85270947265625,-0.0037670412566512823,0.06507620215415955,-0.08213668316602707
1769659612002697500,4.862697509765625,0.008096275851130486,0.09176720678806305,-0.06996070593595505
1769659612012685600,4.872685546875,0.004259992390871048,0.07859095185995102,-0.06165910139679909
1769659612022673700,4.882673583984375,0.00027297402266412973,0.06760460883378983,-0.05113242566585541
1769659612032662300,4.892662353515625,-0.003373958868905902,0.09577473253011703,-0.04602128639817238
1769659612042650400,4.902650390625,-0.003177683800458908,0.07745883613824844,-0.036546025425195694
1769659612052638500,4.912638427734375,-0.006067746318876743,0.051531367003917694,-0.023010510951280594
1769659612062626600,4.92262646484375,-0.010278469882905483,0.05155160650610924,-0.008452340960502625
1769659612072614400,4.932614501953125,-0.012296346947550774,0.05155294016003609,0.00788801722228527
1769659612082603500,4.942603515625,-0.015142201445996761,0.049069542437791824,0.017234114930033684
1769659612092591600,4.952591552734375,-0.012528575025498867,0.04417678341269493,0.022779081016778946
1769659612102579700,4.962579833984375,-0.007515972945839167,0.049263421446084976,0.025892050936818123
1769659612112567600,4.972567626953125,0.0006442186422646046,0.05417428910732269,0.021141238510608673
1769659612122556400,4.982556396484375,0.008232629857957363,0.05928542837500572,0.007113569416105747
1769659612132544500,4.99254443359375,0.015738483518362045,0.06444636732339859,-0.0037491980474442244
1769659612142532600,5.00253271484375,0.016259662806987762,0.07061771303415298,-0.011728827841579914
1769659612152520400,5.0125205078125,0.011977300979197025,0.06436114758253098,-0.017040768638253212
1769659612162509600,5.022509521484375,0.007391870021820068,0.06162554770708084,-0.02749261073768139
1769659612172497400,5.032497314453125,0.0018671422731131315,0.04658934101462364,-0.037934064865112305
1769659612182485500,5.042485595703125,-0.0028250813484191895,0.03003646247088909,-0.03309829905629158
1769659612192473300,5.052473388671875,-0.0035087147261947393,0.03157763183116913,-0.0265346709638834
1769659612202461400,5.06246142578125,-0.0018277274211868644,0.028873993083834648,-0.029391977936029434
1769659612212450600,5.072450439453125,-0.004560130648314953,0.02028742805123329,-0.04121081903576851
1769659612222438700,5.082438720703125,-0.005890379659831524,0.01587483659386635,-0.048358477652072906
1769659612232426500,5.092426513671875,-0.007529821712523699,0.017114272341132164,-0.04481806978583336
1769659612242414600,5.10241455078125,-0.00714659271761775,0.009884322062134743,-0.04927726835012436
1769659612252403500,5.112403564453125,-0.008015848696231842,-0.00711756432428956,-0.05240008980035782
1769659612262391600,5.1223916015625,-0.005886384751647711,-0.011580223217606544,-0.042329348623752594
1769659612272379400,5.13237939453125,-0.0031289479229599237,-0.0076363482512533665,-0.02545236237347126
1769659612282367500,5.142367431640625,0.0024945829063653946,0.010464625433087349,-0.015323828905820847
1769659612292356600,5.152356689453125,0.0012149340473115444,0.025845445692539215,-0.017589112743735313
1769659612302344400,5.162344482421875,0.0021374530624598265,0.012056929059326649,-0.03232145309448242
1769659612312332300,5.172332275390625,-0.0013081447687000036,0.011594871059060097,-0.04135516285896301
1769659612322320400,5.1823203125,-0.006478938274085522,0.005262672435492277,-0.0429256297647953
1769659612332308500,5.19230859375,-0.012864133343100548,-0.027424700558185577,-0.039566583931446075
1769659612342297600,5.202297607421875,-0.018617359921336174,-0.04355040565133095,-0.03870691731572151
1769659612352285400,5.212285400390625,-0.016286561265587807,-0.03656600043177605,-0.038310371339321136
1769659612362273500,5.2222734375,-0.01239195466041565,-0.02365179918706417,-0.038187865167856216
1769659612372261600,5.23226171875,-0.010186058469116688,-0.014302239753305912,-0.04021293297410011
1769659612382250500,5.24225048828125,-0.002546514617279172,-0.01320954505354166,-0.049010686576366425
1769659612392238300,5.25223828125,0.004706604406237602,-0.016214655712246895,-0.06523839384317398
1769659612402226400,5.262226318359375,0.01010935939848423,-0.013455887325108051,-0.07821278274059296
1769659612412214500,5.272214599609375,0.016568856313824654,-0.010748517699539661,-0.08737485110759735
1769659612422203600,5.28220361328125,0.01152882445603609,-0.01534433476626873,-0.09752708673477173
1769659612432191500,5.29219140625,0.008808138780295849,-0.014032461680471897,-0.09782429784536362
1769659612442179300,5.302179443359375,0.010782340541481972,-0.0057622818276286125,-0.09101513028144836
1769659612452167400,5.31216748046875,0.016643425449728966,-0.0054911719635128975,-0.07813820987939835
1769659612462156500,5.322156494140625,0.018553709611296654,-0.0150388702750206,-0.0636916309595108
1769659612472144600,5.33214453125,0.008687764406204224,-0.046058572828769684,-0.06484131515026093
1769659612482132500,5.342132568359375,-0.005577191710472107,-0.07401110976934433,-0.07967644929885864
1769659612492120600,5.35212060546875,-0.013279319740831852,-0.08852028101682663,-0.09087131917476654
1769659612502108700,5.362108642578125,-0.008651278913021088,-0.08858206123113632,-0.09054508060216904
1769659612512097500,5.37209765625,0.00013901700731366873,-0.07562285661697388,-0.08083652704954147
1769659612522085400,5.38208544921875,0.007869374938309193,-0.06932234764099121,-0.07522790879011154
1769659612532073500,5.392073486328125,0.00646642129868269,-0.06836280971765518,-0.07719092816114426
1769659612542061600,5.4020615234375,0.005862682592123747,-0.07858295738697052,-0.08006207644939423
1769659612552050700,5.41205078125,0.0019531622529029846,-0.088539719581604,-0.0787786990404129
1769659612562038500,5.42203857421875,0.004511927254498005,-0.09039673954248428,-0.07697254419326782
1769659612572026400,5.4320263671875,0.004817924462258816,-0.0851878672838211,-0.07856964319944382
1769659612582014500,5.442014404296875,0.004012851044535637,-0.08107168227434158,-0.08031987398862839
1769659612592003600,5.452003662109375,0.0041518681682646275,-0.07857417315244675,-0.07966340333223343
1769659612601991400,5.461991455078125,0.00544350128620863,-0.0749080628156662,-0.07473389059305191
1769659612611979500,5.4719794921875,0.007354851812124252,-0.06560457497835159,-0.07115646451711655
1769659612621967600,5.481967529296875,0.009045426733791828,-0.056714944541454315,-0.07325370609760284
1769659612631955500,5.49195556640625,0.008401207625865936,-0.05077636241912842,-0.07387156039476395
1769659612641944300,5.5019443359375,0.004799549002200365,-0.04906128719449043,-0.0764167457818985
1769659612651932400,5.511932373046875,0.0019254654180258512,-0.05481957271695137,-0.07724925130605698
1769659612661920500,5.52192041015625,0.00022796659322921187,-0.06595797836780548,-0.06859450787305832
1769659612671908400,5.531908447265625,-0.002254632068797946,-0.08029164373874664,-0.051044806838035583
1769659612681897500,5.5418974609375,-0.007686415687203407,-0.092472143471241,-0.035116441547870636
1769659612691885600,5.551885498046875,-0.019524699077010155,-0.10993821918964386,-0.03502056747674942
1769659612701873700,5.561873779296875,-0.03092196397483349,-0.1227078065276146,-0.03903874382376671
1769659612711861500,5.571861572265625,-0.03478434681892395,-0.1165204867720604,-0.042026810348033905
1769659612721850400,5.581850341796875,-0.028718996793031693,-0.09246575087308884,-0.04421033710241318
1769659612731838500,5.59183837890625,-0.01775289885699749,-0.05217984691262245,-0.04241190478205681
1769659612741826600,5.60182666015625,-0.006847786251455545,-0.022000906988978386,-0.04188193753361702
1769659612751814700,5.611814697265625,0.0022770026698708534,-0.005633118096739054,-0.03428766503930092
1769659612761802500,5.621802490234375,0.008945824578404427,0.0125424237921834,-0.027034280821681023
1769659612771791400,5.631791259765625,0.012087022885680199,0.02250877022743225,-0.014180000871419907
1769659612781779500,5.641779541015625,0.007933823391795158,0.026281671598553658,-0.007252320181578398
1769659612791767600,5.651767578125,0.002294047037139535,0.023988690227270126,-0.004802744835615158
1769659612801755400,5.66175537109375,-0.0027622305788099766,0.012368518859148026,-0.008020109497010708
1769659612811744500,5.67174462890625,-0.002852778183296323,-0.004309260752052069,-0.013613812625408173
1769659612821732600,5.681732666015625,0.004680505488067865,-0.005155613645911217,-0.011484349146485329
1769659612831720700,5.691720703125,0.012256932444870472,0.009521333500742912,-0.00755086075514555
1769659612841708500,5.70170849609375,0.014958443120121956,0.016685768961906433,-0.007859254255890846
1769659612851697400,5.711697509765625,0.010553042404353619,0.017161943018436432,-0.007469367701560259
1769659612861685500,5.721685546875,0.003593935864046216,0.0093919038772583,-0.0062461779452860355
1769659612871673600,5.731673583984375,0.0016852483386173844,0.0007909588166512549,-0.0014136058744043112
1769659612881661400,5.741661376953125,0.0073196981102228165,0.005164668429642916,0.0029848709236830473
1769659612891649500,5.7516494140625,0.014799718745052814,0.014928082935512066,0.0065316688269376755
1769659612901638400,5.761638427734375,0.021468807011842728,0.028130438178777695,0.005447762086987495
1769659612911626500,5.77162646484375,0.023569507524371147,0.03842568397521973,0.005562544334679842
1769659612921614300,5.7816142578125,0.026877686381340027,0.04017698019742966,0.008311459794640541
1769659612931602400,5.7916025390625,0.02731018327176571,0.04854383319616318,0.017137175425887108
1769659612941591300,5.80159130859375,0.030426349490880966,0.052972402423620224,0.020485833287239075
1769659612951579400,5.811579345703125,0.028444690629839897,0.07147417962551117,0.016224775463342667
1769659612961567500,5.8215673828125,0.02652801387012005,0.06244207173585892,0.015182415023446083
1769659612971555600,5.8315556640625,0.018642127513885498,0.05071750655770302,0.0032951291650533676
1769659612981544200,5.841544189453125,0.011658786796033382,0.05271594226360321,-0.011840680614113808
1769659612991532300,5.8515322265625,0.007503456436097622,0.05622385814785957,-0.017665013670921326
1769659613001520400,5.861520263671875,0.005726861767470837,0.058816976845264435,-0.02075028605759144
1769659613011508500,5.871508544921875,-0.000526773277670145,0.05260355770587921,-0.026824157685041428
1769659613021497600,5.88149755859375,-0.0033987262286245823,0.04398982971906662,-0.03708425164222717
1769659613031485400,5.8914853515625,-0.004336425103247166,0.04396958649158478,-0.04156368970870972
1769659613041473300,5.901473388671875,-0.001636246219277382,0.05907956510782242,-0.04566548764705658
1769659613051461400,5.91146142578125,0.002627208363264799,0.07348806411027908,-0.049923352897167206
1769659613061449200,5.92144921875,0.0029031119775027037,0.08946090936660767,-0.051302600651979446
1769659613071438300,5.931438232421875,-0.001683916780166328,0.10141610354185104,-0.05199715495109558
1769659613081426400,5.941426513671875,-0.006388657260686159,0.09516113996505737,-0.04622635245323181
1769659613091414500,5.95141455078125,-0.009124255739152431,0.07973477244377136,-0.03923874720931053
1769659613101402400,5.96140234375,-0.007678958587348461,0.06254726648330688,-0.022964704781770706
1769659613111391200,5.97139111328125,-0.001418932224623859,0.05851044878363609,-0.0037033918779343367
1769659613121379300,5.98137939453125,0.0034938009921461344,0.0611184798181057,0.014040451496839523
1769659613131367400,5.991367431640625,0.005161738954484463,0.0657728910446167,0.017369402572512627
1769659613141355300,6.001355224609375,0.004221909213811159,0.06911595165729523,0.015992281958460808
1769659613151344400,6.011344482421875,0.006295179948210716,0.06789542734622955,0.011531753465533257
1769659613161332500,6.02133251953125,0.011405520141124725,0.06297044456005096,0.008442220278084278
1769659613171320300,6.0313203125,0.021742314100265503,0.06410947442054749,0.01013785507529974
1769659613181308200,6.04130810546875,0.023914387449622154,0.06805095821619034,0.011030546389520168
1769659613191296300,6.051296142578125,0.02231569215655327,0.07359379529953003,0.00999404489994049
1769659613201285400,6.061285400390625,0.022780146449804306,0.08257130533456802,0.006149771623313427
1769659613211273500,6.0712734375,0.022658707574009895,0.08783184736967087,0.00518757151439786
1769659613221261300,6.08126123046875,0.024413198232650757,0.08843958377838135,0.006843791343271732
1769659613231249400,6.09124951171875,0.024714400991797447,0.08837753534317017,0.01227584108710289
1769659613241238300,6.10123828125,0.021733790636062622,0.06995724886655807,0.019414443522691727
1769659613251226400,6.111226318359375,0.012586898170411587,0.05257612466812134,0.018132664263248444
1769659613261214200,6.121214111328125,0.0057167415507137775,0.04277009889483452,0.012819924391806126
1769659613271202300,6.131202392578125,0.006678941659629345,0.03848880156874657,0.012473447248339653
1769659613281191400,6.14119140625,0.011010839603841305,0.03454972058534622,0.013739247806370258
1769659613291179500,6.151179443359375,0.014037256129086018,0.03430444374680519,0.017619740217924118
1769659613301167600,6.161167724609375,0.014447915367782116,0.033556628972291946,0.011407383717596531
1769659613311155200,6.1711552734375,0.011387943290174007,0.031243672594428062,0.0036045885644853115
1769659613321143300,6.181143310546875,0.002683134749531746,0.02828356996178627,-0.008534898981451988
1769659613331132400,6.19113232421875,-0.002239984693005681,0.01817953586578369,-0.016690297052264214
1769659613341120500,6.20112060546875,-0.0047090016305446625,0.002302036387845874,-0.018497783690690994
1769659613351108400,6.2111083984375,-0.004923119675368071,-0.008636364713311195,-0.021578794345259666
1769659613361096400,6.221096435546875,-0.006061354652047157,-0.011963185854256153,-0.02346537820994854
1769659613371085300,6.231085205078125,-0.009414806962013245,-0.009032377041876316,-0.020851751789450645
1769659613381073400,6.241073486328125,-0.01685301586985588,-0.014552044682204723,-0.018683141097426414
1769659613391061200,6.251061279296875,-0.022542327642440796,-0.046728089451789856,-0.014061223715543747
1769659613401049300,6.26104931640625,-0.028478246182203293,-0.04200790449976921,-0.009108010679483414
1769659613411038500,6.27103857421875,-0.026756247505545616,-0.04434216395020485,0.0012650014832615852
1769659613421026600,6.281026611328125,-0.02293008379638195,-0.0465022549033165,0.007966047152876854
1769659613431014400,6.291014404296875,-0.022166289389133453,-0.041128795593976974,0.007992146536707878
1769659613441002500,6.30100244140625,-0.02322090044617653,-0.03869812563061714,0.000027164242055732757
1769659613450990300,6.310990234375,-0.02076200395822525,-0.04000840336084366,-0.010668356902897358
1769659613460979500,6.3209794921875,-0.016695622354745865,-0.03924940153956413,-0.018155567348003387
1769659613470967300,6.33096728515625,-0.011746937409043312,-0.03238829970359802,-0.02129543572664261
1769659613480955400,6.340955322265625,-0.006931675598025322,-0.026373017579317093,-0.02123418264091015
1769659613490943500,6.350943603515625,-0.001814944320358336,-0.02436233125627041,-0.020607007667422295
1769659613500932400,6.360932373046875,0.0010958907660096884,-0.013437245041131973,-0.033548906445503235
1769659613510920200,6.370920166015625,0.0030863373540341854,-0.005001150071620941,-0.0458335354924202
1769659613520908300,6.380908203125,0.009243565611541271,-0.014461496844887733,-0.04416266828775406
1769659613530896400,6.390896484375,0.014788267202675343,-0.011987154372036457,-0.04367051646113396
1769659613540885500,6.400885498046875,0.018557438626885414,-0.004216050263494253,-0.04903145879507065
1769659613550873300,6.410873291015625,0.020291956141591072,-0.005793440621346235,-0.03859266638755798
1769659613560861400,6.420861328125,0.020237892866134644,0.0009752495680004358,-0.03122023679316044
1769659613570849500,6.430849609375,0.01732572726905346,0.012173042632639408,-0.026222815737128258
1769659613580838400,6.44083837890625,0.019585153087973595,0.02136600948870182,-0.019242137670516968
1769659613590826200,6.450826171875,0.021373465657234192,0.029016470536589622,-0.015733422711491585
1769659613600814300,6.460814453125,0.025742914527654648,0.04872545972466469,-0.014012488536536694
1769659613610802400,6.470802490234375,0.02840474247932434,0.060918211936950684,-0.01853453554213047
1769659613620790500,6.48079052734375,0.026934944093227386,0.06906535476446152,-0.016757408156991005
1769659613630779400,6.490779296875,0.025605494156479836,0.07299644500017166,-0.017771007493138313
1769659613640767200,6.500767333984375,0.023518376052379608,0.06848132610321045,-0.017139306291937828
1769659613650755300,6.51075537109375,0.018319351598620415,0.05301235243678093,-0.01378372311592102
1769659613660743400,6.520743408203125,0.01167583093047142,0.04296424612402916,-0.013354421593248844
1769659613670732300,6.530732177734375,0.008272577077150345,0.04730439931154251,-0.014669223688542843
1769659613680720400,6.540720458984375,0.01302472222596407,0.0371931754052639,-0.004334561061114073
1769659613690708500,6.55070849609375,0.013347497209906578,0.04139404371380806,-0.0021369203459471464
1769659613700696600,6.560696533203125,0.010401774197816849,0.03774365037679672,-0.005532983224838972
1769659613710685200,6.570685302734375,0.004126834217458963,0.024650217965245247,-0.006916761863976717
1769659613720673300,6.58067333984375,-0.0014306501252576709,0.02251569554209709,-0.006854976527392864
1769659613730661400,6.590661376953125,-0.004649080336093903,0.016970194876194,0.001100950757972896
1769659613740649500,6.6006494140625,-0.010129067115485668,0.010031328536570072,0.01363352034240961
1769659613750638600,6.610638671875,-0.017829330638051033,-0.003744937013834715,0.023202523589134216
1769659613760626400,6.62062646484375,-0.02406272478401661,-0.01913401298224926,0.029868949204683304
1769659613770614300,6.6306142578125,-0.032290562987327576,-0.02280811034142971,0.031020233407616615
1769659613780602400,6.640602294921875,-0.03188762441277504,-0.02269173040986061,0.03304050862789154
1769659613790590200,6.650590087890625,-0.03329244256019592,-0.021766282618045807,0.030709976330399513
1769659613800579300,6.660579345703125,-0.03339950367808342,-0.020487165078520775,0.02635331079363823
1769659613810567400,6.6705673828125,-0.030792800709605217,-0.019812321290373802,0.018162759020924568
1769659613820555500,6.680555419921875,-0.026074210181832314,-0.01702079549431801,0.012181032449007034
1769659613830543400,6.69054345703125,-0.022519955411553383,-0.013288907706737518,0.0068094367161393166
1769659613840532200,6.7005322265625,-0.023740217089653015,-0.01432487741112709,0.002582201035693288
1769659613850520300,6.710520263671875,-0.023904800415039062,-0.015138472430408001,0.0019371833186596632
1769659613860508400,6.72050830078125,-0.025109346956014633,-0.015340340323746204,-0.002424541860818863
1769659613870496300,6.730496337890625,-0.018869295716285706,-0.02346005290746689,-0.0028005801141262054
1769659613880485400,6.7404853515625,-0.0166183914989233,-0.03163808584213257,-0.0011707255616784096
1769659613890473500,6.750473388671875,-0.009181780740618706,-0.03235287964344025,-0.004022704903036356
1769659613900461300,6.76046142578125,-0.009284578263759613,-0.026925623416900635,-0.004954811185598373
1769659613910449200,6.77044921875,-0.007249657064676285,-0.023311447352170944,-0.005588111001998186
1769659613920437200,6.780437255859375,-0.006072806194424629,-0.014317420311272144,-0.00580888707190752
1769659613930426400,6.79042626953125,-0.001882854849100113,-0.003163036424666643,-0.00005273058923194185
1769659613940414200,6.800414306640625,-0.00022210762836039066,0.001767273643054068,0.0025417208671569824
1769659613950402300,6.81040234375,0.0010817759903147817,0.0030575753189623356,-0.0012548814993351698
1769659613960390400,6.820390380859375,0.00007163903501350433,0.0009419600828550756,-0.006007025949656963
1769659613970379300,6.830379150390625,0.0008625978953205049,0.0027361316606402397,-0.0035976641811430454
1769659613980367000,6.8403671875,0.005964948330074549,0.008248874917626381,-0.003427221905440092
1769659613990355200,6.850355224609375,0.014792528003454208,0.018735870718955994,-0.005102084018290043
1769659614000343300,6.86034326171875,0.0218333937227726,0.027647873386740685,-0.009518669918179512
1769659614010332400,6.87033251953125,0.021398233249783516,0.02869263105094433,-0.015664447098970413
1769659614020320300,6.8803203125,0.019580624997615814,0.028690766543149948,-0.0188975241035223
1769659614030308400,6.890308349609375,0.016039952635765076,0.03151558339595795,-0.013295033015310764
1769659614040296200,6.900296142578125,0.019819777458906174,0.0357646569609642,-0.0005073322099633515
1769659614050285300,6.910285400390625,0.020740166306495667,0.03960093855857849,0.0078584561124444
1769659614060273200,6.920273193359375,0.025440644472837448,0.038148183375597,0.013880128972232342
1769659614070261200,6.93026123046875,0.027211913838982582,0.034455712884664536,0.011229218915104866
1769659614080249300,6.940249267578125,0.0244922935962677,0.027346668764948845,0.008523712866008282
1769659614090237400,6.950237548828125,0.019580092281103134,0.022595856338739395,-0.00016005597717594355
1769659614100226300,6.960226318359375,0.020351877436041832,0.015320366248488426,-0.005862948950380087
1769659614110214100,6.970214111328125,0.021035511046648026,0.009644637815654278,-0.010142115876078606
1769659614120202200,6.9802021484375,0.022722089663147926,0.007923436351120472,-0.007821171544492245
1769659614130190300,6.9901904296875,0.021916218101978302,0.026549585163593292,0.0041002025827765465
1769659614140179500,7.000179443359375,0.018016284331679344,0.014053501188755035,0.004069310147315264
1769659614150167300,7.010167236328125,0.013083311729133129,0.003519633784890175,0.005637379363179207
1769659614160155400,7.0201552734375,0.008100003935396671,0.0009086705395020545,0.010029997676610947
1769659614170143500,7.0301435546875,0.003632285399362445,-0.005593170877546072,0.011446799151599407
1769659614180132400,7.04013232421875,0.005815278738737106,-0.006877081003040075,0.011494736187160015
1769659614190120200,7.0501201171875,0.004881840664893389,-0.008263522759079933,0.008728244341909885
1769659614200108300,7.0601083984375,0.0023547669406980276,-0.012651612982153893,0.006992661859840155
1769659614210096400,7.070096435546875,-0.0006021407316438854,-0.01882561855018139,0.005261074751615524
1769659614220085500,7.08008544921875,-0.011094463057816029,-0.0281517431139946,0.0014793860027566552
1769659614230073000,7.090072998046875,-0.014116884209215641,-0.03805097937583923,0.0012492889072746038
1769659614240061200,7.100061279296875,-0.017162209376692772,-0.041297104209661484,0.003288471372798085
1769659614250049300,7.11004931640625,-0.01799364760518074,-0.04451606795191765,0.006697583943605423
1769659614260037000,7.120037109375,-0.020612068474292755,-0.041186850517988205,0.008971123956143856
1769659614270026200,7.130026123046875,-0.018542258068919182,-0.03948961943387985,0.012026835232973099
1769659614280014300,7.140014404296875,-0.016956878826022148,-0.030552050098776817,0.016683638095855713
1769659614290002400,7.15000244140625,-0.014215953648090363,-0.02852858044207096,0.013763482682406902
1769659614299990300,7.159990234375,-0.012148275971412659,-0.036083437502384186,0.010661166161298752
1769659614309979100,7.169979248046875,-0.0113413380458951,-0.02924363873898983,0.011081946082413197
1769659614319967200,7.17996728515625,-0.008233695290982723,-0.026572221890091896,0.008846488781273365
1769659614329955300,7.189955322265625,-0.007258711848407984,-0.014308365061879158,-0.0013515542959794402
1769659614339943200,7.199943115234375,-0.008274441584944725,-0.004156395327299833,-0.003608583239838481
1769659614349932300,7.209932373046875,-0.003418167121708393,-0.024868065491318703,-0.004960403777658939
1769659614359920400,7.21992041015625,0.0019805929623544216,-0.017838118597865105,0.00021252025908324867
1769659614369908200,7.229908203125,0.004855209030210972,-0.012884106487035751,-0.0015446334145963192
1769659614379896300,7.239896240234375,0.007011037785559893,-0.013513145968317986,-0.006643255241215229
1769659614389885200,7.24988525390625,0.006103166379034519,-0.008048605173826218,-0.009940248914062977
1769659614399873300,7.259873291015625,0.00905341561883688,-0.007435279432684183,-0.010437194257974625
1769659614409861400,7.269861328125,0.009227586910128593,-0.0035270904190838337,-0.009983391501009464
1769659614419849500,7.279849365234375,0.008802279829978943,0.0029768813401460648,-0.015092932619154453
1769659614429837300,7.28983740234375,0.01013678964227438,0.005873069167137146,-0.017953699454665184
1769659614439826200,7.299826171875,0.010204434394836426,0.004828843753784895,-0.01619281806051731
1769659614449814300,7.309814208984375,0.0107093695551157,-0.0008346347021870315,-0.009829727932810783
1769659614459802400,7.31980224609375,0.011959724128246307,0.00027297402266412973,0.003067961661145091
1769659614469790200,7.329790283203125,0.012054531835019588,0.008406267501413822,0.01510118879377842
1769659614479779300,7.339779296875,0.011649465188384056,0.004986502695828676,0.018000837415456772
1769659614489767400,7.349767333984375,0.006638728082180023,-0.001698830397799611,0.0111059146001935
1769659614499755300,7.35975537109375,0.006082660052925348,-0.013817545026540756,0.009855826385319233
1769659614509743000,7.3697431640625,0.007494135294109583,-0.014108628034591675,0.013046027161180973
1769659614519732200,7.379732177734375,0.01059112511575222,-0.0046663908287882805,0.017253022640943527
1769659614529720300,7.38972021484375,0.011207913048565388,-0.00040613205055706203,0.01786235347390175
1769659614539708400,7.39970849609375,0.009049421176314354,-0.0031880701426416636,0.006394782569259405
1769659614549696300,7.4096962890625,0.006219812668859959,-0.007697867229580879,-0.001961684552952647
1769659614559684400,7.419684326171875,0.007528223562985659,-0.007666175253689289,-0.010880078189074993
1769659614569673200,7.429673095703125,0.010510165244340897,-0.004029895178973675,-0.013649765402078629
1769659614579661300,7.439661376953125,0.01780989021062851,0.02292528934776783,-0.013999705202877522
1769659614589649200,7.449649169921875,0.023387614637613297,0.03933994844555855,-0.010212424211204052
1769659614599637200,7.45963720703125,0.028926456347107887,0.03730609267950058,-0.011504855938255787
1769659614609626400,7.46962646484375,0.027787422761321068,0.034324951469898224,-0.009304285980761051
1769659614619614500,7.479614501953125,0.02340305969119072,0.02719859778881073,-0.006656038574874401
1769659614629602300,7.489602294921875,0.023792147636413574,0.026856381446123123,-0.003204049076884985
1769659614639590100,7.499590087890625,0.022309033200144768,0.029210882261395454,-0.0018847191240638494
1769659614649579300,7.509579345703125,0.020686635747551918,0.020748155191540718,-0.0032290827948600054
1769659614659567400,7.5195673828125,0.013679326511919498,0.01122282724827528,-0.007543936371803284
1769659614669555200,7.52955517578125,0.006600910797715187,-0.005574794951826334,-0.01486549898982048
1769659614679543300,7.539543212890625,-0.0018285263795405626,-0.015005048364400864,-0.012492622248828411
1769659614689532200,7.5495322265625,-0.00041864890954457223,0.00185036426410079,-0.0009209210984408855
1769659614699520300,7.559520263671875,0.003801928833127022,0.018754512071609497,0.00965529028326273
1769659614709508000,7.569508056640625,0.004461860284209251,0.015075888484716415,0.008156996220350266
1769659614719496200,7.57949609375,0.0000013315805063029984,0.007616640534251928,0.0002743055811151862
1769659614729484300,7.589484375,-0.008192682638764381,-0.009928264655172825,-0.003680754918605089
1769659614739473400,7.599473388671875,-0.013078250922262669,-0.024514930322766304,-0.01149766519665718
1769659614749461200,7.609461181640625,-0.015893479809165,-0.031187480315566063,-0.014185060746967793
1769659614759449300,7.619449462890625,-0.011854262091219425,-0.036257073283195496,-0.012485431507229805
1769659614769437400,7.6294375,-0.009594570845365524,-0.016986174508929253,-0.006374542135745287
1769659614779426300,7.63942626953125,-0.014720356091856956,0.053111422806978226,0.0009171926649287343
1769659614789414400,7.649414306640625,-0.015350460074841976,0.058038536459207535,0.0013568805297836661
1769659614799402200,7.65940234375,-0.012732306495308876,0.01176211703568697,0.014748852699995041
1769659614809390300,7.669390380859375,-0.013351225294172764,-0.0005009406013414264,0.011225489899516106
1769659614819379500,7.67937939453125,-0.01804744452238083,-0.017234647646546364,0.0011321097845211625
1769659614829367300,7.6893671875,-0.0237018670886755,-0.05095559358596802,-0.00023968449386302382
1769659614839355100,7.699355224609375,-0.023496272042393684,-0.05529361590743065,-0.003766508772969246
1769659614849343200,7.70934326171875,-0.020301276817917824,-0.029081186279654503,-0.013170396909117699
1769659614859332400,7.719332275390625,-0.0118489358574152,-0.0019241338595747948,-0.01683756895363331
1769659614869320400,7.729320556640625,0.0004825647920370102,0.017007745802402496,-0.024562601000070572
1769659614879308300,7.739308349609375,0.009022790007293224,0.04043583944439888,-0.024704281240701675
1769659614889296400,7.74929638671875,0.013685185462236404,0.053401973098516464,-0.019761720672249794
1769659614899285200,7.75928515625,0.013525396585464478,0.044268928468227386,-0.011972772888839245
1769659614909273300,7.7692734375,0.009574596770107746,0.029820745810866356,-0.00452710734680295
1769659614919261400,7.779261474609375,0.0008639294537715614,0.012071843259036541,0.0016476977616548538
1769659614929249300,7.789249267578125,-0.005245361942797899,-0.0002759034978225827,0.005664543714374304
1769659614939237400,7.7992373046875,-0.008786301128566265,-0.0035598473623394966,0.009181248024106026
1769659614949226500,7.8092265625,-0.0024953819811344147,0.007004646118730307,0.006329268682748079
1769659614959214300,7.81921435546875,0.0029585056472569704,0.01961018703877926,0.0037915424909442663
1769659614969202200,7.8292021484375,0.0085452850908041,0.027659857645630836,-0.0002681803307496011
1769659614979190300,7.839190185546875,0.013470268808305264,0.030850324779748917,-0.003221892286092043
1769659614989179400,7.849179443359375,0.012577843852341175,0.029524601995944977,-0.002350505907088518
1769659614999167500,7.85916748046875,0.010378871113061905,0.026384469121694565,0.004689560271799564
1769659615009155300,7.8691552734375,0.008982043713331223,0.01612703874707222,0.006682403851300478
1769659615019143400,7.879143310546875,0.0043715788051486015,0.0025891251862049103,0.005562012083828449
1769659615029132300,7.88913232421875,-0.0016644756542518735,-0.016997626051306725,-0.0037950044497847557
1769659615039120400,7.899120361328125,-0.006864297669380903,-0.03050038404762745,-0.014689996838569641
1769659615049108200,7.909108154296875,-0.010939733125269413,-0.030952855944633484,-0.017119597643613815
1769659615059096300,7.919096435546875,-0.01068193931132555,-0.032052475959062576,-0.01600240170955658
1769659615069085400,7.92908544921875,-0.012552543543279171,-0.03819851949810982,-0.015674833208322525
1769659615079073500,7.939073486328125,-0.014694790355861187,-0.050096724182367325,-0.01587936468422413
1769659615089061400,7.949061279296875,-0.020310331135988235,-0.062380287796258926,-0.012831908650696278
1769659615099049200,7.95904931640625,-0.023733025416731834,-0.07039746642112732,-0.01594407856464386
1769659615109037300,7.969037353515625,-0.025780197232961655,-0.0673566684126854,-0.019001387059688568
1769659615119026400,7.9790263671875,-0.027452662587165833,-0.05560893192887306,-0.019536150619387627
1769659615129014300,7.98901416015625,-0.02894296869635582,-0.04397331550717354,-0.02689526416361332
1769659615139002400,7.99900244140625,-0.028622057288885117,-0.04248221218585968,-0.02431252971291542
1769659615148990500,8.008990478515624,-0.02388908714056015,-0.05877756327390671,-0.021201426163315773
1769659615158979300,8.018979248046875,-0.025650767609477043,-0.06085029989480972,-0.022461632266640663
1769659615168967400,8.028967529296875,-0.02815387398004532,-0.05783800035715103,-0.02713974192738533
1769659615178955300,8.038955322265625,-0.032040756195783615,-0.06282077729701996,-0.03086390718817711
1769659615188943400,8.048943359375,-0.03407248109579086,-0.0657033771276474,-0.03340509533882141
1769659615198932500,8.058932373046876,-0.03953222930431366,-0.06416726857423782,-0.03633483871817589
1769659615208920600,8.068920654296875,-0.03518754988908768,-0.0528232678771019,-0.045690521597862244
1769659615218908400,8.078908447265626,-0.032094284892082214,-0.060756292194128036,-0.03524081036448479
1769659615228896300,8.088896240234375,-0.03027108684182167,-0.06771939247846603,-0.02442890964448452
1769659615238885400,8.098885498046876,-0.028309136629104614,-0.0632796362042427,-0.023032614961266518
1769659615248873500,8.10887353515625,-0.024894963949918747,-0.05765743553638458,-0.0220272708684206
1769659615258861300,8.118861328125,-0.020720457658171654,-0.04910070076584816,-0.027121897786855698
1769659615268849400,8.128849365234375,-0.017232516780495644,-0.04075728356838226,-0.02539004571735859
1769659615278837500,8.13883740234375,-0.014401310123503208,-0.03510632365942001,-0.029867617413401604
1769659615288826400,8.148826416015625,-0.011344267055392265,-0.025726135820150375,-0.027275295928120613
1769659615298814200,8.158814208984374,-0.0037649108562618494,-0.018544388934969902,-0.02442624792456627
1769659615308802300,8.16880224609375,0.00018642126815393567,-0.01233629509806633,-0.02298814058303833
1769659615318790400,8.178790283203124,0.005074919667094946,-0.00555135915055871,-0.018091918900609016
1769659615328779500,8.188779541015625,0.010104033164680004,0.0006727144937030971,-0.014964834786951542
1769659615338767400,8.198767333984375,0.011049721390008926,0.0025949841365218163,-0.010958375409245491
1769659615348755500,8.20875537109375,0.01426362432539463,0.005795038305222988,-0.007002782076597214
1769659615358743600,8.21874365234375,0.014446583576500416,0.0075545888394117355,-0.0019385149935260415
1769659615368732400,8.228732421875,0.015121161937713623,0.009763414971530437,0.0022240057587623596
1769659615378720300,8.23872021484375,0.013667608611285686,0.007889081723988056,0.007203850895166397
1769659615388708400,8.248708251953126,0.010983143001794815,0.00007163903501350433,0.008857940323650837
1769659615398696400,8.258696533203125,0.003674895968288183,-0.015735553577542305,0.011200190521776676
1769659615408685600,8.268685546875,-0.005013933405280113,-0.0343095026910305,0.014641793444752693
1769659615418673200,8.278673095703125,-0.011099789291620255,-0.04670438915491104,0.017406953498721123
1769659615428661200,8.2886611328125,-0.018273811787366867,-0.05163416638970375,0.024274978786706924
1769659615438649300,8.2986494140625,-0.020321249961853027,-0.05054466798901558,0.025922676548361778
1769659615448637400,8.308637451171874,-0.02203552797436714,-0.05411170423030853,0.025405224412679672
1769659615458626300,8.318626220703125,-0.02767636813223362,-0.0638309121131897,0.029989324510097504
1769659615468614400,8.328614501953124,-0.033418942242860794,-0.05829952657222748,0.027479294687509537
1769659615478602500,8.3386025390625,-0.040641169995069504,-0.0778370052576065,0.027176493778824806
1769659615488590600,8.348590576171874,-0.048781655728816986,-0.0968509092926979,0.031197067350149155
1769659615498579200,8.3585791015625,-0.05620042234659195,-0.10444039106369019,0.03191665560007095
1769659615508567300,8.3685673828125,-0.060629524290561676,-0.11396731436252594,0.03143062815070152
1769659615518555400,8.378555419921875,-0.0646040290594101,-0.12110245227813721,0.029412750154733658
1769659615528543500,8.38854345703125,-0.06463439017534256,-0.13415727019309998,0.027835892513394356
1769659615538532400,8.398532470703126,-0.06664694100618362,-0.13611842691898346,0.02207787148654461
1769659615548520400,8.4085205078125,-0.07065846025943756,-0.1373988687992096,0.018270617350935936
1769659615558508300,8.41850830078125,-0.07589689642190933,-0.14026843011379242,0.01852628029882908
1769659615568496400,8.428496337890625,-0.078995481133461,-0.14962731301784515,0.025184448808431625
1769659615578485500,8.438485595703124,-0.08350580930709839,-0.1579217165708542,0.030195185914635658
1769659615588473300,8.448473388671875,-0.08353297412395477,-0.15785087645053864,0.03284343332052231
1769659615598461400,8.45846142578125,-0.07893875986337662,-0.14906005561351776,0.039446741342544556
1769659615608449500,8.468449462890625,-0.07246407866477966,-0.13989612460136414,0.04066753387451172
1769659615618438400,8.4784384765625,-0.06552627682685852,-0.12322259694337845,0.03310149535536766
1769659615628426200,8.48842626953125,-0.0629374235868454,-0.10914912074804306,0.023243004456162453
1769659615638414300,8.498414306640624,-0.05799219757318497,-0.09311822801828384,0.007577758282423019
1769659615648402400,8.50840234375,-0.051721785217523575,-0.06826774030923843,-0.0011965582380071282
1769659615658390300,8.518390380859374,-0.04483697935938835,-0.049482330679893494,-0.006750314496457577
1769659615668379400,8.52837939453125,-0.04079057276248932,-0.0413823276758194,-0.010936803184449673
1769659615678367500,8.538367431640625,-0.03761555254459381,-0.026799390092492104,-0.009975668974220753
1769659615688355300,8.548355224609375,-0.036376118659973145,-0.025497104972600937,-0.006982808467000723
1769659615698343200,8.55834326171875,-0.039447542279958725,-0.02954590693116188,-0.003020557342097163
1769659615708332300,8.568332275390626,-0.04350992664694786,-0.03454679250717163,0.004455734975636005
1769659615718320400,8.5783203125,-0.04872892424464226,-0.031390413641929626,0.014839932322502136
1769659615728308500,8.58830859375,-0.053589724004268646,-0.03363492712378502,0.020252274349331856
1769659615738296300,8.59829638671875,-0.05335962772369385,-0.043377835303545,0.021471204236149788
1769659615748285200,8.60828515625,-0.05083175376057625,-0.04608573764562607,0.02352503314614296
1769659615758273300,8.618273193359375,-0.0490863211452961,-0.04338555783033371,0.019340408965945244
1769659615768261400,8.628261474609374,-0.049306295812129974,-0.05597192421555519,0.01739337109029293
1769659615778249200,8.638249267578125,-0.05258491262793541,-0.063434898853302,0.019706327468156815
1769659615788238300,8.64823828125,-0.053109556436538696,-0.06431187689304352,0.023988423869013786
1769659615798226400,8.658226318359375,-0.05056916922330856,-0.0698334127664566,0.02659645676612854
1769659615808214500,8.668214599609374,-0.04711664468050003,-0.07253199070692062,0.024023843929171562
1769659615818202400,8.678202392578125,-0.03815510869026184,-0.06739369034767151,0.02171195298433304
1769659615828191200,8.688191162109375,-0.02586968056857586,-0.04734914004802704,0.013194365426898003
1769659615838179300,8.698179443359376,-0.015340073965489864,-0.022880548611283302,0.001282312092371285
1769659615848167400,8.70816748046875,-0.012385030277073383,-0.009122125804424286,-0.008162322454154491
1769659615858155500,8.718155517578126,-0.012007128447294235,-0.005088502075523138,-0.014948856085538864
1769659615868143400,8.728143310546875,-0.012634302489459515,-0.00555109279230237,-0.010118946433067322
1769659615878132200,8.73813232421875,-0.012716860510408878,-0.012799684889614582,-0.008527708239853382
1769659615888120300,8.748120361328125,-0.010891796089708805,-0.020668260753154755,-0.0029433255549520254
1769659615898108400,8.7581083984375,-0.007663245778530836,-0.023240607231855392,-0.005224855616688728
1769659615908096300,8.76809619140625,-0.0015302523970603943,-0.018576081842184067,-0.007706122938543558
1769659615918086000,8.7780859375,0.0007518103811889887,-0.00788615271449089,-0.008962868712842464
1769659615928074000,8.788073974609375,0.005138835404068232,0.005775064695626497,-0.00911493506282568
1769659615938062000,8.79806201171875,0.0060120862908661366,0.01363298762589693,-0.006798517424613237
1769659615948049700,8.808049560546875,0.003716441337019205,0.018802182748913765,-0.0033337450586259365
1769659615958038800,8.818038818359375,0.004037884995341301,0.01992097683250904,-0.003876763628795743
1769659615968027000,8.82802685546875,0.009313073940575123,0.02466673031449318,-0.00427091121673584
1769659615978015000,8.838014892578125,0.012797287665307522,0.03928402438759804,-0.010936536826193333
1769659615988002800,8.8480029296875,0.015677496790885925,0.05341741815209389,-0.013918745331466198
1769659615997991700,8.85799169921875,0.019844278693199158,0.07080146670341492,-0.02088264562189579
1769659616007979800,8.867979736328126,0.021579593420028687,0.08280753344297409,-0.027823375537991524
1769659616017967900,8.8779677734375,0.023301593959331512,0.08620492368936539,-0.029016736894845963
1769659616027955700,8.887955810546876,0.025464879348874092,0.08492900431156158,-0.03122210130095482
1769659616037943800,8.89794384765625,0.024282969534397125,0.07359352707862854,-0.031500134617090225
1769659616047933000,8.907932861328124,0.02237934060394764,0.06131448969244957,-0.028873460367321968
1769659616057921000,8.917921142578125,0.01961391419172287,0.0562685988843441,-0.030675621703267097
1769659616067908900,8.927908935546874,0.017889784649014473,0.056712016463279724,-0.03015470691025257
1769659616077897000,8.93789697265625,0.013932326808571815,0.061281997710466385,-0.03038347139954567
1769659616087885800,8.9478857421875,0.012317919172346592,0.06192168965935707,-0.027533091604709625
1769659616097874000,8.9578740234375,0.015329155139625072,0.05571253225207329,-0.02244645357131958
1769659616107861800,8.96786181640625,0.019396867603063583,0.05498628690838814,-0.016451144590973854
1769659616117849900,8.977849853515625,0.01726820319890976,0.0535053014755249,-0.019782226532697678
1769659616127839000,8.9878388671875,0.01375123206526041,0.058389805257320404,-0.025953836739063263
1769659616137826800,8.997826904296875,0.012662265449762344,0.06010434776544571,-0.03299123793840408
1769659616147815000,9.00781494140625,0.012408732436597347,0.06142367795109749,-0.0366368405520916
1769659616157802800,9.017802734375,0.014437262900173664,0.06614120304584503,-0.034445591270923615
1769659616167791900,9.0277919921875,0.017606690526008606,0.06728556007146835,-0.03602378070354462
1769659616177780000,9.037780029296876,0.01757473312318325,0.07248085737228394,-0.03616253286600113
1769659616187768000,9.04776806640625,0.017375262454152107,0.07924661785364151,-0.03466450423002243
1769659616197756000,9.057755859375,0.018637865781784058,0.07633604854345322,-0.03176219016313553
1769659616207744000,9.067743896484375,0.01570412889122963,0.07358606904745102,-0.030437268316745758
1769659616217732900,9.07773291015625,0.015245798043906689,0.07013115286827087,-0.020198479294776917
1769659616227721000,9.087720947265625,0.015455654822289944,0.06622882187366486,-0.010516290552914143
1769659616237708800,9.097708740234374,0.014735270291566849,0.0626830905675888,-0.0010804444318637252
1769659616247697000,9.10769677734375,0.012496083974838257,0.05555273965001106,0.007801463827490807
1769659616257686000,9.11768603515625,0.008698949590325356,0.047567520290613174,0.008582303300499916
1769659616267673900,9.127673828125,0.0024429175537079573,0.03816363215446472,0.009462477639317513
1769659616277661700,9.13766162109375,-0.002900981344282627,0.026335733011364937,0.013231382705271244
1769659616287649800,9.14764990234375,-0.0038434739690274,0.010660633444786072,0.012601279653608799
1769659616297639000,9.157638916015625,-0.0019707391038537025,0.001318264752626419,0.013994911685585976
1769659616307627000,9.167626953125,-0.0024176177103072405,-0.0005123922019265592,0.017971277236938477
1769659616317614800,9.17761474609375,-0.001446362817659974,0.003498328384011984,0.019176358357071877
1769659616327603000,9.18760302734375,-0.003721767570823431,0.012300342321395874,0.022604644298553467
1769659616337591800,9.197591796875,-0.004142014309763908,0.014756308868527412,0.02327815815806389
1769659616347580000,9.207579833984376,-0.0026354643050581217,0.016204269602894783,0.021203022450208664
1769659616357567700,9.217567626953125,-0.0014895059866830707,0.014542457647621632,0.022405706346035004
1769659616367555800,9.227555908203126,0.002636795863509178,0.01649561896920204,0.02293354459106922
1769659616377545000,9.237544921875,0.009308813139796257,0.02430933341383934,0.02335512451827526
1769659616387533000,9.247532958984374,0.016500413417816162,0.038244057446718216,0.016476444900035858
1769659616397521000,9.25752099609375,0.024953819811344147,0.05161632224917412,0.0118515994399786
1769659616407508700,9.2675087890625,0.027105653658509254,0.05745929852128029,0.007968178018927574
1769659616417497900,9.277497802734375,0.024639831855893135,0.056482184678316116,0.007992146536707878
1769659616427486000,9.28748583984375,0.02015640027821064,0.04255465045571327,0.006310892757028341
1769659616437473800,9.297473876953125,0.0161195807158947,0.03285808116197586,0.0025619608350098133
1769659616447462000,9.3074619140625,0.018867164850234985,0.037272803485393524,0.0006460828590206802
1769659616457450000,9.317449951171875,0.021099425852298737,0.048764076083898544,-0.0016873788554221392
1769659616467438800,9.32743896484375,0.02490960992872715,0.06381626427173615,-0.010509632527828217
1769659616477426700,9.3374267578125,0.024403342977166176,0.07205075770616531,-0.018366223201155663
1769659616487414800,9.347414794921875,0.021642711013555527,0.06594226509332657,-0.021143633872270584
1769659616497403000,9.35740283203125,0.01750149577856064,0.047745417803525925,-0.02454955130815506
1769659616507392000,9.36739208984375,0.015325160697102547,0.03368073329329491,-0.026606842875480652
1769659616517379800,9.3773798828125,0.013590909540653229,0.021569740027189255,-0.029461752623319626
1769659616527368000,9.387367919921875,0.008279767818748951,0.01028379611670971,-0.031308919191360474
1769659616537355800,9.397355712890626,0.00683233980089426,0.005760417319834232,-0.037633661180734634
1769659616547345000,9.407344970703125,0.006006227340549231,0.0010572749888524413,-0.0377441830933094
1769659616557332700,9.417332763671874,0.0063210129737854,-0.0059654805809259415,-0.03784005716443062
1769659616567320800,9.42732080078125,0.0017339842161163688,-0.0111059146001935,-0.03646506741642952
1769659616577309000,9.437308837890624,0.0008772452711127698,-0.019935091957449913,-0.03927603363990784
1769659616587297800,9.4472978515625,-0.004513525404036045,-0.023188143968582153,-0.04237355664372444
1769659616597286000,9.457285888671874,-0.004576908424496651,-0.0226733535528183,-0.044624458998441696
1769659616607273700,9.467273681640625,-0.004603273700922728,-0.02323688007891178,-0.05049726366996765
1769659616617261800,9.47726171875,-0.005706089083105326,-0.025674736127257347,-0.056235842406749725
1769659616627251000,9.4872509765625,-0.004798217210918665,-0.029264677315950394,-0.05638444796204567
1769659616637239000,9.497239013671875,-0.00563977612182498,-0.03433613479137421,-0.05079074203968048
1769659616647227000,9.507226806640626,-0.006595850922167301,-0.0350131094455719,-0.04400314390659332
1769659616657215000,9.517215087890625,-0.006383064668625593,-0.04073677584528923,-0.036310870200395584
1769659616667203000,9.527203125,-0.006536728702485561,-0.03952370584011078,-0.03309324011206627
1769659616677192000,9.53719189453125,-0.005122590344399214,-0.03148415684700012,-0.03509699925780296
1769659616687179800,9.5471796875,-0.0031127026304602623,-0.01679815538227558,-0.03844965249300003
1769659616697168000,9.55716796875,0.003171025775372982,-0.0017590179340913892,-0.04063291475176811
1769659616707156000,9.567156005859376,0.008434231393039227,0.0062855929136276245,-0.03861610218882561
1769659616717145000,9.57714501953125,0.008762332610785961,0.010581005364656448,-0.03201332688331604
1769659616727132700,9.587132568359374,0.00532658863812685,0.013073191046714783,-0.025889120995998383
1769659616737120800,9.597120849609375,0.000975782226305455,0.003920439630746841,-0.023308252915740013
1769659616747108900,9.60710888671875,-0.0028474517166614532,-0.006268016062676907,-0.01968235895037651
1769659616757098000,9.617097900390625,-0.0011984225129708648,-0.010703776963055134,-0.018039453774690628
1769659616767085800,9.6270859375,0.0005257080192677677,-0.005085039883852005,-0.012447348795831203
1769659616777074000,9.637073974609375,0.0032418658956885338,0.0007728493656031787,-0.006973487325012684
1769659616787062000,9.64706201171875,0.004520449787378311,0.00842437706887722,-0.004649080336093903
1769659616797051000,9.65705078125,0.005450425669550896,0.010959707200527191,-0.005469067487865686
1769659616807038700,9.667038818359375,0.003623763332143426,0.014052968472242355,-0.0019736685790121555
1769659616817026800,9.67702685546875,0.0008215851848945022,0.011774367652833462,-0.004323641769587994
1769659616827015000,9.687014892578125,-0.004387291613966227,0.00836978293955326,-0.006594253238290548
1769659616837004000,9.697004150390624,-0.008205732330679893,0.00523790530860424,-0.009721603244543076
1769659616846992000,9.706991943359375,-0.012685434892773628,-0.002776611829176545,-0.00887977797538042
1769659616856980000,9.71697998046875,-0.014764298684895039,-0.010810569860041142,-0.007741809356957674
1769659616866967800,9.7269677734375,-0.014919561333954334,-0.015169631689786911,-0.006567355245351791
1769659616876957000,9.73695703125,-0.01278450433164835,-0.011512046679854393,-0.004597148858010769
1769659616886944800,9.74694482421875,-0.011169031262397766,-0.0054275221191346645,-0.003727093804627657
1769659616896932900,9.756932861328124,-0.01230353768914938,-0.0032732912804931402,-0.003564108395949006
1769659616906921000,9.7669208984375,-0.014377607963979244,-0.00794127956032753,-0.0035776905715465546
1769659616916908000,9.776907958984374,-0.017236776649951935,-0.013600497506558895,-0.0007677893154323101
1769659616926897200,9.786897216796875,-0.020681310445070267,-0.023368971422314644,-0.0011550129856914282
1769659616936885000,9.796885009765624,-0.0208877045661211,-0.023000657558441162,-0.0031398669816553593
1769659616946873000,9.806873046875,-0.021092502400279045,-0.01890471577644348,-0.008131163194775581
1769659616956861000,9.81686083984375,-0.016536366194486618,-0.0099610211327672,-0.013382118195295334
1769659616966850000,9.82685009765625,-0.015215970575809479,-0.005410477984696627,-0.015869511291384697
1769659616976838100,9.836838134765625,-0.01456030085682869,-0.00971494521945715,-0.012956811115145683
1769659616986826200,9.846826171875,-0.017460748553276062,-0.01828872598707676,-0.013537379913032055
1769659616996814000,9.85681396484375,-0.018316689878702164,-0.02441985532641411,-0.017050622031092644
1769659617006803000,9.866802978515626,-0.017965683713555336,-0.02636449597775936,-0.019940419122576714
1769659617016791000,9.876791015625,-0.016697486862540245,-0.019478360190987587,-0.029375465586781502
1769659617026779100,9.886779052734376,-0.012411396019160748,-0.007879761047661304,-0.03922756388783455
1769659617036767000,9.89676708984375,-0.007435013074427843,0.004715659189969301,-0.043963462114334106
1769659617046756000,9.906756103515624,-0.00708667142316699,0.01179061271250248,-0.047572579234838486
1769659617056744200,9.916744140625,-0.004806472919881344,0.009003881365060806,-0.0478210523724556
1769659617066732300,9.926732177734374,-0.005666141398251057,-0.0022897860035300255,-0.04635178670287132
1769659617076720000,9.93672021484375,-0.006848318502306938,-0.012437760829925537,-0.044616468250751495
1769659617086708000,9.9467080078125,-0.009284578263759613,-0.01576990820467472,-0.043186087161302567
1769659617096697000,9.956697021484375,-0.007798002101480961,-0.011529357172548771,-0.04290352389216423
1769659617106685200,9.966685302734374,-0.008025702089071274,-0.008038751780986786,-0.045394111424684525
1769659617116673300,9.97667333984375,-0.008137821219861507,-0.0054427022114396095,-0.04959045723080635
1769659617126661000,9.9866611328125,-0.009430252946913242,-0.0079761678352952,-0.05567391589283943
1769659617136650000,9.99664990234375,-0.008478705771267414,-0.011051585897803307,-0.057999387383461
1769659617146638000,10.00663818359375,-0.008891495876014233,-0.014187457971274853,-0.05528376251459122
1769659617156626200,10.016626220703126,-0.00905448105186224,-0.018445054069161415,-0.06106042489409447
1769659617166614000,10.026614013671875,-0.007171892561018467,-0.02153458632528782,-0.06631244719028473
1769659617176603100,10.03660302734375,-0.007522364612668753,-0.0150388702750206,-0.06986749917268753
1769659617186591200,10.04659130859375,-0.010083792731165886,-0.013460149057209492,-0.07454853504896164
1769659617196579300,10.056579345703126,-0.008642223663628101,-0.01708124950528145,-0.07327660918235779
1769659617206567200,10.066567138671875,-0.011624963954091072,-0.02268161065876484,-0.06738223880529404
1769659617216556000,10.07655615234375,-0.021046163514256477,-0.03292465955018997,-0.05495885759592056
1769659617226544000,10.086544189453125,-0.026459038257598877,-0.04387984052300453,-0.04634059965610504
1769659617236532200,10.0965322265625,-0.03184927627444267,-0.049309492111206055,-0.04459303244948387
1769659617246520000,10.10652001953125,-0.03807707875967026,-0.054254982620477676,-0.04222868010401726
1769659617256509200,10.11650927734375,-0.04380021244287491,-0.05660868436098099,-0.038060300052165985
1769659617266497000,10.1264970703125,-0.045759499073028564,-0.056718140840530396,-0.03699823096394539
1769659617276485000,10.136485107421874,-0.05043521150946617,-0.06666744500398636,-0.03128175809979439
1769659617286473000,10.146472900390625,-0.05318811908364296,-0.07271920889616013,-0.027828967198729515
1769659617296461000,10.1564609375,-0.05221766605973244,-0.07679997384548187,-0.02347203716635704
1769659617306450200,10.1664501953125,-0.052373193204402924,-0.08056088536977768,-0.02533225528895855
1769659617316438300,10.176438232421875,-0.05241979658603668,-0.0768367275595665,-0.027950940653681755
1769659617326426000,10.186426025390626,-0.047385890036821365,-0.07196606695652008,-0.025846777483820915
1769659617336414200,10.196414306640625,-0.04321671277284622,-0.06314301490783691,-0.027103256434202194
1769659617346403000,10.206403076171876,-0.04069096967577934,-0.05644064024090767,-0.025404958054423332
1769659617356391200,10.21639111328125,-0.03921477869153023,-0.05495992302894592,-0.025653697550296783
1769659617366379000,10.22637890625,-0.03922117128968239,-0.05411037430167198,-0.024527180939912796
1769659617376367000,10.2363671875,-0.037814754992723465,-0.052495699375867844,-0.021710887551307678
1769659617386356200,10.246356201171874,-0.03455771133303642,-0.04826020821928978,-0.0195462703704834
1769659617396344000,10.256343994140625,-0.03316248208284378,-0.044554684311151505,-0.016863135620951653
1769659617406332000,10.266331787109374,-0.02791205793619156,-0.04236290231347084,-0.015677763149142265
1769659617416320000,10.276320068359375,-0.022552713751792908,-0.0326804481446743,-0.018089521676301956
1769659617426309000,10.28630908203125,-0.018688200041651726,-0.022276809439063072,-0.017540644854307175
1769659617436297200,10.296297119140625,-0.016028767451643944,-0.016702281311154366,-0.01864905096590519
1769659617446285000,10.30628515625,-0.01540745235979557,-0.015387744642794132,-0.01793612353503704
1769659617456273200,10.316273193359375,-0.013469469733536243,-0.02209438383579254,-0.015528625808656216
1769659617466262000,10.326261962890625,-0.012940299697220325,-0.030315561220049858,-0.018545987084507942
1769659617476250000,10.33625,-0.008947954513132572,-0.029806630685925484,-0.017124392092227936
1769659617486238000,10.346238037109375,-0.0054941014386713505,-0.025001756846904755,-0.014647119678556919
1769659617496226000,10.35622607421875,-0.0018455706303939223,-0.01714782789349556,-0.017163008451461792
1769659617506215200,10.366215087890625,0.000035420041967881843,-0.014514227397739887,-0.011513643898069859
1769659617516203300,10.376203369140624,-0.0033159018494188786,-0.018080467358231544,-0.0068272799253463745
1769659617526191400,10.38619140625,-0.006618754006922245,-0.021891716867685318,-0.0015105449128895998
1769659617536179000,10.396178955078126,-0.007277087774127722,-0.02382170967757702,-0.0010921623324975371
1769659617546167000,10.4061669921875,-0.005922870244830847,-0.020007530227303505,-0.0031044469214975834
1769659617556156200,10.41615625,-0.003049319377169013,-0.010066482238471508,-0.009258213452994823
1769659617566144300,10.426144287109375,0.0020985708106309175,-0.000287088769255206,-0.013493171893060207
1769659617576132000,10.436132080078124,0.008265919052064419,0.006981476675719023,-0.019834425300359726
1769659617586120200,10.4461201171875,0.013047358952462673,0.01338797714561224,-0.027728300541639328
1769659617596109000,10.456109130859375,0.013617541640996933,0.013007943518459797,-0.027338679879903793
1769659617606097200,10.46609716796875,0.01191018894314766,0.004326038993895054,-0.026694994419813156
1769659617616085000,10.4760849609375,0.010071808472275734,-0.008021174930036068,-0.021102089434862137
1769659617626073000,10.486072998046875,0.012259596027433872,-0.017416540533304214,-0.018857311457395554
1769659617636062200,10.496062255859375,0.012010323815047741,-0.014667092822492123,-0.01937955617904663
1769659617646050300,10.50605029296875,0.014504374004900455,0.0018761969404295087,-0.02598978951573372
1769659617656038100,10.5160380859375,0.01401488482952118,0.017170730978250504,-0.03291986510157585
1769659617666026200,10.526026123046876,0.019647737964987755,0.0326591432094574,-0.03626159951090813
1769659617676015000,10.53601513671875,0.02088930271565914,0.037272803485393524,-0.037646178156137466
1769659617686003200,10.546003173828124,0.018877550959587097,0.029825806617736816,-0.03298564627766609
1769659617695991000,10.555990966796875,0.013397297821938992,0.022854449227452278,-0.029709160327911377
1769659617705979100,10.565979248046874,0.011259845457971096,0.013591708615422249,-0.03316141664981842
1769659617715968300,10.57596826171875,0.00797536876052618,0.012117649428546429,-0.03026975505053997
1769659617725956000,10.5859560546875,0.008923454210162163,0.018154235556721687,-0.026802320033311844
1769659617735944000,10.59594384765625,0.011826299130916595,0.02310798317193985,-0.028683044016361237
1769659617745932000,10.60593212890625,0.013008742593228817,0.03144900128245354,-0.021709555760025978
1769659617755921200,10.615921142578125,0.01636113040149212,0.034867703914642334,-0.019167035818099976
1769659617765909200,10.6259091796875,0.014463361352682114,0.03297312930226326,-0.01549613568931818
1769659617775897000,10.63589697265625,0.00866193138062954,0.02515329048037529,-0.014889201149344444
1769659617785885200,10.64588525390625,0.005095692351460457,0.022354841232299805,-0.016411731019616127
1769659617795873300,10.655873291015626,0.006220611743628979,0.02129330486059189,-0.020671989768743515
1769659617805862100,10.665862060546875,0.004428037907928228,0.026373283937573433,-0.02009221911430359
1769659617815850000,10.67585009765625,0.004437092691659927,0.029878536239266396,-0.017586184665560722
1769659617825838000,10.685838134765625,0.0007004113867878914,0.023572171106934547,-0.011759454384446144
1769659617835826200,10.695826171875,-0.006069077644497156,0.009621468372642994,-0.012144014239311218
1769659617845815300,10.705815185546875,-0.008555404841899872,0.0051721250638365746,-0.019329756498336792
1769659617855803100,10.71580322265625,-0.012152270413935184,-0.0009843043517321348,-0.022725818678736687
1769659617865791000,10.725791015625,-0.010416422039270401,-0.01107582077383995,-0.0235841553658247
1769659617875779000,10.735779052734374,-0.011635350994765759,-0.011748534627258778,-0.020730579271912575
1769659617885768200,10.745768310546875,-0.009103483520448208,-0.010521883144974709,-0.02064535766839981
1769659617895756000,10.755756103515624,-0.010934939607977867,-0.01013918686658144,-0.016531305387616158
1769659617905744100,10.765744140625,-0.011796471662819386,-0.01937609538435936,-0.011932292953133583
1769659617915732200,10.775732177734374,-0.010567156597971916,-0.025346901267766953,-0.013641510158777237
1769659617925722000,10.78572216796875,-0.007981494069099426,-0.024163926020264626,-0.012370916083455086
1769659617935710000,10.7957099609375,-0.003951598424464464,-0.019691146910190582,-0.015231683850288391
1769659617945698000,10.805697998046876,0.00045060686534270644,-0.009156746789813042,-0.02112019807100296
1769659617955686100,10.81568603515625,0.003364637726917863,-0.0037987329997122288,-0.02112499251961708
1769659617965675000,10.825675048828124,0.0054608117789030075,0.00009028115891851485,-0.025860359892249107
1769659617975662800,10.835662841796875,0.007673632353544235,0.005028847139328718,-0.02689553052186966
1769659617985651000,10.84565087890625,0.011479555629193783,0.005432316102087498,-0.028920864686369896
1769659617995639000,10.85563916015625,0.012224175967276096,0.0065319351851940155,-0.024880316108465195
1769659618005627100,10.865627197265624,0.01565059833228588,0.008530637249350548,-0.021810224279761314
1769659618015616000,10.875615966796875,0.020329773426055908,0.01170139666646719,-0.01889565959572792
1769659618025604000,10.88560400390625,0.022337263450026512,0.014281467534601688,-0.019518574699759483
1769659618035592200,10.89559228515625,0.02387896738946438,0.018739067018032074,-0.021322865039110184
1769659618045580000,10.905580078125,0.027846544981002808,0.020956147462129593,-0.023739418014883995
1769659618055569000,10.91556884765625,0.02895122393965721,0.026196716353297234,-0.02425633743405342
1769659618065557000,10.925556884765625,0.027219902724027634,0.022517293691635132,-0.024817198514938354
1769659618075545000,10.935545166015626,0.023433687165379524,0.020919131115078926,-0.025176459923386574
1769659618085533200,10.945533203125,0.020262926816940308,0.01943548396229744,-0.025470739230513573
1769659618095522000,10.95552197265625,0.01335921511054039,0.013914483599364758,-0.01998276263475418
1769659618105510000,10.965510009765625,0.01122043002396822,0.011276623234152794,-0.019098326563835144
1769659618115498000,10.975498046875,0.005170527379959822,0.009680856950581074,-0.016699617728590965
1769659618125486000,10.985486083984375,0.0005528722540475428,0.004282096866518259,-0.01543461624532938
1769659618135475000,10.995474853515624,-0.0018152105621993542,-0.0030570426024496555,-0.012522449716925621
1769659618145463000,11.005463134765625,-0.0023089605383574963,-0.01696034148335457,-0.007941014133393764
1769659618155451100,11.015451171875,-0.007467770017683506,-0.027635622769594193,-0.008237157016992569
1769659618165439200,11.025439208984375,-0.011207380332052708,-0.04033224284648895,-0.006927947048097849
1769659618175428000,11.035427978515624,-0.01164600346237421,-0.040160201489925385,-0.011783688329160213
1769659618185416000,11.045416015625,-0.00959483627229929,-0.03718465194106102,-0.012025237083435059
1769659618195404000,11.055404052734374,-0.006314621306955814,-0.029533658176660538,-0.011995410546660423
1769659618205392100,11.06539208984375,-0.004465854726731777,-0.02328401803970337,-0.01116237323731184
1769659618215380000,11.0753798828125,-0.006696518510580063,-0.021194500848650932,-0.012398879043757915
1769659618225369000,11.085369140625,-0.008057394064962864,-0.02419881336390972,-0.012388226576149464
1769659618235357000,11.09535693359375,-0.00917379092425108,-0.029528863728046417,-0.01383805088698864
1769659618245345000,11.105344970703126,-0.007318633142858744,-0.03214382007718086,-0.020143616944551468
1769659618255332900,11.115332763671875,-0.004619252867996693,-0.03155126795172691,-0.024602549150586128
1769659618265322000,11.125322021484376,-0.0008609999786131084,-0.027214843779802322,-0.03069133311510086
1769659618275310000,11.13531005859375,0.00023409185814671218,-0.01600027084350586,-0.03219042718410492
1769659618285298200,11.145298095703126,0.003096457337960601,-0.010006560944020748,-0.02852644957602024
1769659618295286000,11.1552861328125,0.0013845774810761213,-0.009705091826617718,-0.020293820649385452
1769659618305275000,11.16527490234375,-0.0013464941876009107,-0.019300460815429688,-0.007072556763887405
1769659618315263000,11.175262939453125,-0.005093295592814684,-0.03406422585248947,0.002261023735627532
1769659618325251000,11.1852509765625,-0.008500809781253338,-0.04001932218670845,0.008393485099077225
1769659618335239000,11.195239013671875,-0.00881799217313528,-0.0425914041697979,0.010942928493022919
1769659618345228000,11.20522802734375,-0.007242732681334019,-0.030900390818715096,0.010249974206089973
1769659618355216100,11.215216064453125,-0.004511395003646612,-0.014850584790110588,0.008371380157768726
1769659618365204000,11.225203857421874,0.00009693906031316146,0.0015520902816206217,0.00766005041077733
1769659618375191800,11.23519189453125,0.0030157635919749737,0.009347694925963879,0.0067452541552484035
1769659618385181000,11.245180908203125,0.0035446672700345516,0.01582610048353672,0.009769273921847343
1769659618395169000,11.2551689453125,0.0029174929950386286,0.016273777931928635,0.01583249308168888
1769659618405157000,11.2651572265625,0.0016711335629224777,0.020170249044895172,0.018262360244989395
1769659618415145000,11.27514501953125,0.003909520339220762,0.029994117096066475,0.015529957599937916
1769659618425133800,11.2851337890625,0.0049156625755131245,0.045580800622701645,0.015383750200271606
1769659618435122000,11.295121826171876,0.006972421891987324,0.051837630569934845,0.01637311466038227
1769659618445110000,11.305110107421875,0.005588643718510866,0.052619002759456635,0.015905728563666344
1769659618455098000,11.31509814453125,0.0032767534721642733,0.04664340242743492,0.018677014857530594
1769659618465086000,11.3250859375,0.0024610271211713552,0.04163532704114914,0.019710054621100426
1769659618475075000,11.335074951171874,0.0014476943761110306,0.04225371405482292,0.019223762676119804
1769659618485063200,11.345063232421875,0.0022479742765426636,0.03730742633342743,0.013885721564292908
1769659618495051300,11.35505126953125,0.007952997460961342,0.037040308117866516,0.008946623653173447
1769659618505039000,11.3650390625,0.010618023574352264,0.04586362838745117,0.01124892570078373
1769659618515028000,11.375028076171875,0.01113494299352169,0.05197345092892647,0.00555295730009675
1769659618525016000,11.38501611328125,0.009936786256730556,0.05849100649356842,0.001728391507640481
1769659618535004200,11.395004150390625,0.008625179529190063,0.05509600788354874,0.0026905916165560484
1769659618544992000,11.404991943359375,0.011721637099981308,0.06150144338607788,0.0013824469642713666
1769659618554981000,11.414981201171875,0.011473430320620537,0.0670996755361557,-0.0018644790397956967
1769659618564969000,11.424968994140626,0.01014078501611948,0.07086964696645737,-0.005381449591368437
1769659618574957000,11.43495703125,0.006594253238290548,0.06729727983474731,-0.008185758255422115
1769659618584945000,11.44494482421875,0.006304234731942415,0.05983297526836395,-0.008974320255219936
1769659618594934000,11.45493408203125,0.008072307333350182,0.048211470246315,-0.009533584117889404
1769659618604922000,11.464922119140626,0.006779875606298447,0.03813726454973221,-0.003763046581298113
1769659618614910200,11.47491015625,0.005149221979081631,0.032766468822956085,-0.003555053612217307
1769659618624898000,11.48489794921875,0.003204581793397665,0.024997495114803314,-0.004428304266184568
1769659618634887000,11.494886962890625,-0.0001179780374513939,0.021104753017425537,-0.008509332314133644
1769659618644875000,11.504875,0.0019888486713171005,0.024628913030028343,-0.014258564449846745
1769659618654863000,11.514863037109375,0.0013161342358216643,0.022009428590536118,-0.008778844028711319
1769659618664851000,11.524850830078124,0.0020453077740967274,0.023077089339494705,-0.0048922267742455006
1769659618674840000,11.534840087890625,-0.0002335592289455235,0.00407596817240119,-0.00316010694950819
1769659618684828200,11.544828125,-0.004237888380885124,-0.010906975716352463,-0.003296993440017104
1769659618694816000,11.55481591796875,-0.006281331647187471,-0.01991192251443863,-0.0027302727103233337
1769659618704803800,11.564803955078125,-0.0067484499886631966,-0.02327576093375683,-0.004583033733069897
1769659618714792000,11.5747919921875,-0.007481351960450411,-0.01221671886742115,-0.005048820748925209
1769659618724781000,11.584781005859375,-0.005331115797162056,0.001686846255324781,-0.008273109793663025
1769659618734769200,11.59476904296875,-0.001734250457957387,0.011202853173017502,-0.00848696194589138
1769659618744757000,11.604757080078125,0.0020580908749252558,0.012575979344546795,-0.009892311878502369
1769659618754745000,11.6147451171875,0.004332696553319693,0.011226022616028786,-0.010787666775286198
1769659618764734000,11.62473388671875,0.0016652746126055717,0.0034061830956488848,-0.015330220572650433
1769659618774722000,11.63472216796875,0.0006612628931179643,-0.00159470085054636,-0.021032048389315605
1769659618784710000,11.6447099609375,0.0005416869535110891,-0.006079996936023235,-0.027422036975622177
1769659618794698000,11.654697998046874,0.0036312201991677284,-0.014028999954462051,-0.030907848849892616
1769659618804687000,11.66468701171875,0.0055151404812932014,-0.019574234262108803,-0.03560832887887955
1769659618814675200,11.67467529296875,0.006413158029317856,-0.023897342383861542,-0.03832528367638588
1769659618824663000,11.6846630859375,0.004143878817558289,-0.021401429548859596,-0.04097006842494011
1769659618834651000,11.69465087890625,0.005752161610871553,-0.01685674488544464,-0.04248886927962303
1769659618844640000,11.704639892578125,0.00571860559284687,-0.015104650519788265,-0.04445428401231766
1769659618854628000,11.714628173828125,0.010087521746754646,-0.015547001734375954,-0.04512406885623932
1769659618864616200,11.7246162109375,0.011513377539813519,-0.02497485838830471,-0.04342923313379288
1769659618874604000,11.73460400390625,0.009577259421348572,-0.031566981226205826,-0.04318954795598984
1769659618884593000,11.744593017578126,0.011492072604596615,-0.040233172476291656,-0.043840955942869186
1769659618894581000,11.7545810546875,0.011433216743171215,-0.04481833800673485,-0.037767618894577026
1769659618904569000,11.764569091796876,0.00726350536569953,-0.043420445173978806,-0.035885561257600784
1769659618914557000,11.774556884765625,0.005709550809115171,-0.04573047161102295,-0.03187936916947365
1769659618924544500,11.78454443359375,0.003739344421774149,-0.046413570642471313,-0.029696909710764885
1769659618934533600,11.79453369140625,0.004526042379438877,-0.04211922362446785,-0.025238510221242905
1769659618944521700,11.804521728515626,0.010760768316686153,-0.030904386192560196,-0.0242515429854393
1769659618954509800,11.814509765625,0.016034893691539764,-0.01453100610524416,-0.01998009905219078
1769659618964497700,11.82449755859375,0.020247215405106544,0.00038642468280158937,-0.018399514257907867
1769659618974486500,11.834486572265625,0.0199220422655344,0.0051777176558971405,-0.0176389142870903
1769659618984474600,11.844474609375,0.01561171654611826,0.0007454187725670636,-0.0149840097874403
1769659618994462700,11.854462646484375,0.015672968700528145,-0.007499994244426489,-0.007190801203250885
1769659619004450600,11.864450439453124,0.015458584763109684,-0.010697918012738228,0.0004034689045511186
1769659619014439700,11.874439697265625,0.015341139398515224,-0.011899003759026527,0.007382016163319349
1769659619024427800,11.884427734375,0.015418903902173042,-0.006097839679569006,0.011984224431216717
1769659619034415600,11.89441552734375,0.010568488389253616,-0.00577719509601593,0.018858909606933594
1769659619044403500,11.904403564453125,0.009789779782295227,-0.010908840224146843,0.018802182748913765
1769659619054392600,11.914392578125,0.0018722022650763392,-0.017404023557901382,0.023637419566512108
1769659619064380700,11.924380615234375,0.0022053637076169252,-0.022469090297818184,0.02665451355278492
1769659619074368800,11.93436865234375,0.00007084008393576369,-0.016696687787771225,0.02839728631079197
1769659619084356600,11.944356689453125,0.0002031991898547858,-0.014880944974720478,0.031136879697442055
1769659619094345500,11.954345458984376,0.001017593895085156,-0.00017736652807798237,0.029456425458192825
1769659619104333600,11.96433349609375,0.0013797837309539318,0.008786301128566265,0.028683310374617577
1769659619114321700,11.97432177734375,0.0019742012955248356,0.014032461680471897,0.03159654140472412
