time,seconds_elapsed,acc_z,acc_y,acc_x,gyro_z,gyro_y,gyro_x
1.76966E+18,0.078338623,0.001203567,-0.065313891,0.074792206,0.021360926,0.054040764,-0.083755128
1.76966E+18,0.088327148,0.063691295,-0.032331659,-0.007048457,0.027129116,0.067863829,-0.077616662
1.76966E+18,0.098315186,0.101630857,-0.03862053,-0.042565761,0.02918987,0.082499497,-0.071355306
1.76966E+18,0.108303467,0.095549492,-0.029296822,0.006351853,0.029520877,0.0733364,-0.072269015
1.76966E+18,0.118291504,0.067078015,-0.014852117,0.111971744,0.029410355,0.041777402,-0.074592091
1.76966E+18,0.128280273,0.061149173,0.006310498,0.145772745,0.026077358,0.014267826,-0.069827572
1.76966E+18,0.138268311,0.00878657,0.033095629,0.130545658,0.017525414,-0.005162598,-0.065747879
1.76966E+18,0.148256592,0.017808628,0.030915363,0.110294458,0.01285503,-0.017034171,-0.067228861
1.76966E+18,0.158244385,0.023969507,0.00396072,0.068151599,0.010367105,-0.021141564,-0.066928193
1.76966E+18,0.168232178,0.006447861,-0.013293781,0.021293402,0.011009587,-0.017338488,-0.062177997
1.76966E+18,0.178221191,-0.001774682,-0.018685411,0.016601298,0.015386226,-0.02599323,-0.058847446
1.76966E+18,0.188209473,0.017635573,-0.026527941,0.021111908,0.01933283,-0.029184453,-0.057764649
1.76966E+18,0.19819751,0.002454371,-0.012457331,-0.005617694,0.019964531,-0.020113727,-0.059527129
1.76966E+18,0.208185303,-0.041636079,0.000741758,-0.034810032,0.023356609,-0.009448995,-0.062579475
1.76966E+18,0.21817334,-0.04762509,-0.001301146,-0.038646249,0.022607196,-0.002909337,-0.068344682
1.76966E+18,0.228162354,-0.054554634,-0.054274027,-0.017171353,0.020108338,-0.004822401,-0.073116355
1.76966E+18,0.238150391,-0.020763387,-0.117192547,0.01531725,0.016937312,-0.015380238,-0.080939122
1.76966E+18,0.248138184,0.024154783,-0.13344927,0.005374679,0.019948855,-0.021576798,-0.092847735
1.76966E+18,0.258126221,0.009069478,-0.103003278,-0.070112962,0.020727828,-0.021801569,-0.09377984
1.76966E+18,0.268115479,-0.059285133,-0.034260582,-0.08096505,0.016222978,-0.016182803,-0.087324098
1.76966E+18,0.278103516,-0.033612931,-0.001145078,-0.068237085,0.014933477,-0.015093569,-0.083471566
1.76966E+18,0.288091309,-0.011958733,-0.034189854,-0.043466655,0.013595935,-0.016497428,-0.083311349
1.76966E+18,0.298079346,-0.001716156,-0.03340718,0.001629647,0.016608503,-0.016827393,-0.084214956
1.76966E+18,0.308067383,0.003464461,-0.059224342,0.004957622,0.014823299,-0.021961428,-0.08083535
1.76966E+18,0.318056396,0.02119533,-0.044930444,-0.0014407,0.015939696,-0.032584511,-0.078622259
1.76966E+18,0.328044189,0.066073167,-0.034685529,-0.027037352,0.013722701,-0.041086391,-0.082077771
1.76966E+18,0.338032471,0.060621331,-0.039887189,-0.028593934,0.013509115,-0.046193536,-0.085909791
1.76966E+18,0.348020508,0.054655738,-0.050341363,-0.043388621,0.012890729,-0.045344785,-0.096089192
1.76966E+18,0.358009277,-0.018162849,-0.063020812,-0.034636721,0.0159062,-0.035363227,-0.108117789
1.76966E+18,0.36799707,-0.070820663,-0.093345223,-0.037238867,0.014907973,-0.025044432,-0.116474822
1.76966E+18,0.377985352,-0.01983165,-0.073553312,-0.06803864,0.014340186,-0.012020242,-0.121018708
1.76966E+18,0.387973389,0.037252174,-0.005869184,-0.083588676,0.012886354,-0.000704845,-0.122886553
1.76966E+18,0.397961426,0.077794027,0.049250061,-0.144562346,0.013531106,0.000411286,-0.119822055
1.76966E+18,0.407950439,0.074830501,0.086129885,-0.132090695,0.014674489,0.004767415,-0.119134218
1.76966E+18,0.417938477,0.033685421,0.071429159,-0.080000735,0.015022031,0.006184749,-0.117767222
1.76966E+18,0.427926514,0.012626257,-0.00492635,-0.074330872,0.014576244,-0.0075532,-0.119112752
1.76966E+18,0.437914307,0.043353409,-0.045047348,-0.020963001,0.014981312,-0.021466885,-0.119242452
1.76966E+18,0.44790332,0.026799749,-0.028425884,-0.00046601,0.015457852,-0.025131281,-0.119825661
1.76966E+18,0.457891357,0.044518365,-0.008226561,-0.051022477,0.014384331,-0.026578177,-0.113994934
1.76966E+18,0.467879395,0.024515435,-0.012865327,-0.050614919,0.014102556,-0.0317134,-0.101643533
1.76966E+18,0.477867432,0.01325579,-0.019476269,-0.017629911,0.013933711,-0.040221665,-0.092119806
1.76966E+18,0.487855469,0.037899815,0.000299275,0.029167058,0.019190677,-0.051105171,-0.08004301
1.76966E+18,0.497844238,0.049836921,0.002932546,-0.021978754,0.019010913,-0.047577549,-0.077496231
1.76966E+18,0.507832275,0.078733929,0.011108839,-0.075524758,0.019450592,-0.039753288,-0.079532117
1.76966E+18,0.517820313,0.057099021,-0.006576456,-0.095392949,0.018609831,-0.033611238,-0.078458592
1.76966E+18,0.52780835,0.087394206,0.014058336,-0.116942664,0.019186089,-0.023733763,-0.079518683
1.76966E+18,0.537796387,0.101234515,0.014344167,-0.122456459,0.019329634,-0.015252659,-0.079952776
1.76966E+18,0.5477854,0.059939213,-0.006903788,-0.085690909,0.020803995,-0.017590845,-0.07448338
1.76966E+18,0.557773682,0.039743981,-0.025425533,-0.03727803,0.020412777,-0.020965869,-0.070389301
1.76966E+18,0.567761475,0.009920503,-0.047518123,-0.015613018,0.022040654,-0.035667554,-0.060210716
1.76966E+18,0.577749268,0.001519757,-0.026508068,-0.009845833,0.022534404,-0.033154864,-0.058508955
1.76966E+18,0.587738281,0.033635732,0.004972528,-0.038595104,0.025536254,-0.033946652,-0.062771119
1.76966E+18,0.597726563,-0.022895718,0.011346739,-0.041783524,0.025970884,-0.033253163,-0.065060377
1.76966E+18,0.607714355,-0.053645076,-0.01056874,-0.073464757,0.024968417,-0.02314586,-0.067418747
1.76966E+18,0.617702393,-0.029715915,-0.007477204,-0.064967562,0.027632644,-0.021380983,-0.066990241
1.76966E+18,0.62769043,0.050672198,-0.01959785,-0.051815966,0.028943162,-0.012122191,-0.072215609
1.76966E+18,0.637679443,0.061511586,-0.016989713,-0.078819124,0.031637218,0.006162806,-0.07015752
1.76966E+18,0.647667236,-0.006529119,0.001661211,-0.060683163,0.033612113,0.007325418,-0.058175895
1.76966E+18,0.657655273,0.009913491,0.008460954,-0.026676118,0.029674629,0.003694198,-0.047489695
1.76966E+18,0.667643311,0.076633149,0.021314591,-0.045291094,0.022679811,0.005346199,-0.045793511
1.76966E+18,0.677632568,0.146097739,0.023932664,-0.015506343,0.0223091,0.003079317,-0.043138605
1.76966E+18,0.687620361,0.135281755,0.063969491,0.003313508,0.024645973,0.002340633,-0.043092139
1.76966E+18,0.697608398,0.076993232,0.05672142,0.027204087,0.022572171,0.000618633,-0.038843602
1.76966E+18,0.707596191,0.018659099,0.019621231,0.034031741,0.017426943,-0.009627613,-0.030565431
1.76966E+18,0.717584473,0.02288637,0.022818566,0.043864715,0.008177251,-0.01338347,-0.027969915
1.76966E+18,0.727573242,0.070510885,0.007052257,-0.001746405,0.002709364,-0.014343576,-0.027133582
1.76966E+18,0.737561279,0.114839847,0.005001169,-0.026230858,0.001575923,-0.022345841,-0.032682009
1.76966E+18,0.747549561,0.114606029,0.009099252,-0.038497342,0.003565316,-0.022173427,-0.033208881
1.76966E+18,0.757537598,0.029268171,8.0664E-05,-0.062874828,0.005184784,-0.005632269,-0.031752132
1.76966E+18,0.767525391,-0.0063561,-0.039319034,-0.063115066,0.002929277,0.002948023,-0.033043358
1.76966E+18,0.777514648,0.064244801,-0.090435473,-0.06127543,-0.00150755,0.001257449,-0.031398591
1.76966E+18,0.787502686,0.116714975,-0.099874917,-0.063655457,-0.006490958,0.004730364,-0.02922627
1.76966E+18,0.797490723,0.137362644,-0.100819505,-0.068050038,-0.006828913,0.004064041,-0.031783704
1.76966E+18,0.80747876,0.144671524,-0.063204936,-0.093676939,-0.010221059,0.005015431,-0.029205006
1.76966E+18,0.817468018,0.09066635,-0.031016485,-0.110110918,-0.010288969,0.008176603,-0.024827035
1.76966E+18,0.827455811,0.044919338,0.022116555,-0.104702337,-0.011343935,0.018594895,-0.017730184
1.76966E+18,0.837443604,0.076879844,0.071775781,-0.081614307,-0.010538328,0.0246424,-0.017958948
1.76966E+18,0.847431641,0.125877949,0.056056818,-0.027459523,-0.010861738,0.025784783,-0.023352137
1.76966E+18,0.857419678,0.169037904,0.016394085,0.012592209,-0.013773105,0.015175281,-0.037077002
1.76966E+18,0.867408936,0.16887073,-0.004853285,0.044181233,-0.013085783,0.014686242,-0.046729609
1.76966E+18,0.877396729,0.062598806,-0.015638299,-0.003071663,-0.017285587,0.025149271,-0.050767761
1.76966E+18,0.887384766,0.019715905,0.021578795,-0.017490795,-0.015210439,0.037486214,-0.041426372
1.76966E+18,0.897373047,0.025219763,0.021522681,-0.0722792,-0.015338271,0.045859724,-0.035799645
1.76966E+18,0.907361816,0.112032954,0.060696753,-0.077440821,-0.012309749,0.041496702,-0.031922247
1.76966E+18,0.917349609,0.148863679,0.055953358,-0.036859512,-0.007625249,0.033741578,-0.033660758
1.76966E+18,0.927337646,0.113599491,0.062952423,-0.060545362,-0.004971308,0.038001157,-0.038670763
1.76966E+18,0.937325928,0.027340427,0.034210897,-0.063828037,-0.006519403,0.043570895,-0.03820125
1.76966E+18,0.947313721,0.00304419,-0.021458968,-0.041397155,-0.006203413,0.054205347,-0.033564866
1.76966E+18,0.957302734,0.012619846,-0.06290683,0.000577215,-0.003087249,0.057334293,-0.038813956
1.76966E+18,0.967290527,0.078330628,-0.061499302,0.005755933,0.002517502,0.06497632,-0.044225581
1.76966E+18,0.977278809,0.093286205,-0.032909751,-0.027303164,0.009008424,0.066480733,-0.045087919
1.76966E+18,0.987266602,0.075212788,-0.058130702,-0.070283058,0.011093413,0.071509853,-0.040221788
1.76966E+18,0.997254639,0.069520714,-0.114607207,-0.071046005,0.009663029,0.078812502,-0.040593565
1.76966E+18,1.007243896,0.118031318,-0.12590017,-0.067693772,0.010078367,0.076236196,-0.04442649
1.76966E+18,1.017231934,0.135415035,-0.130014619,-0.071132222,0.006924652,0.07183186,-0.048934154
1.76966E+18,1.027219727,0.124980169,-0.141774031,-0.035285687,0.009269007,0.077088177,-0.041823141
1.76966E+18,1.037207764,0.1351754,-0.105728904,-0.002041297,0.013831535,0.078827485,-0.035468042
1.76966E+18,1.047196777,0.17249356,-0.047810383,0.012866642,0.016803129,0.070948869,-0.031369641
1.76966E+18,1.057184814,0.157885171,-0.03579729,0.031280251,0.017293949,0.060672794,-0.031771246
1.76966E+18,1.067172607,0.136239156,-0.030844051,-0.004745441,0.013789267,0.055770796,-0.034110323
1.76966E+18,1.077160645,0.096739542,-0.06110358,-0.032970688,0.012794044,0.059381507,-0.031836249
1.76966E+18,1.087148682,0.044137248,-0.109349433,-0.041578649,0.009782468,0.064871736,-0.025301246
1.76966E+18,1.097137939,0.061063869,-0.10237141,-0.034150399,0.015452869,0.059080426,-0.02003671
1.76966E+18,1.107125732,0.05908698,-0.074537647,-0.009083178,0.017344054,0.051356338,-0.013385603
1.76966E+18,1.117113525,0.029651572,-0.040695583,0.005685206,0.020813886,0.045274477,-0.002166771
1.76966E+18,1.127101807,-0.0029834,-0.003994623,-0.042757776,0.021107087,0.044706043,0.000479531
1.76966E+18,1.13709082,-0.036624936,0.009626491,-0.048381169,0.015515248,0.049979635,0.002780769
1.76966E+18,1.147078857,-0.051713821,0.014191607,-0.021078298,0.013764372,0.058155309,0.006226265
1.76966E+18,1.15706665,-0.050648822,0.049100423,0.031165684,0.014224034,0.067190617,0.013653821
1.76966E+18,1.167054932,-0.031753531,0.098956049,0.060466744,0.0180426,0.067037299,0.025382832
1.76966E+18,1.177042969,-0.029150107,0.137829677,0.079143095,0.025728216,0.0625773,0.037218187
1.76966E+18,1.187031738,-0.085794954,0.134112118,0.096864045,0.029408909,0.061744757,0.044672683
1.76966E+18,1.197019531,-0.106238022,0.115924719,0.092533322,0.032808166,0.062445432,0.045006108
1.76966E+18,1.207007813,-0.126651865,0.102258597,0.07969123,0.031673413,0.068184391,0.039372623
1.76966E+18,1.21699585,-0.144888948,0.060899582,0.059799366,0.030993504,0.066276766,0.038981136
1.76966E+18,1.226983643,-0.129933334,0.05255261,0.05715908,0.024829693,0.064799666,0.040164422
1.76966E+18,1.2369729,-0.093581955,0.037142859,0.062807608,0.025183627,0.068622634,0.036653843
1.76966E+18,1.246960693,-0.056607456,0.045826516,0.036609629,0.025355933,0.070985124,0.037538812
1.76966E+18,1.25694873,-0.048304889,0.038214872,0.073632807,0.024447529,0.068946473,0.034117982
1.76966E+18,1.266936523,-0.023400713,0.058009706,0.06726561,0.024859775,0.074556045,0.01603708
1.76966E+18,1.276925781,-0.045619559,0.054735799,-0.001246785,0.019191237,0.092641309,0.006649704
1.76966E+18,1.286913818,-0.094509043,-0.00185878,-0.04863982,0.013841134,0.098942995,-0.002801626
1.76966E+18,1.296901855,-0.020641806,-0.039376317,-0.065748483,0.011042685,0.093950629,0.000965415
1.76966E+18,1.306889648,0.021830724,-0.047443888,-0.037313539,0.009590986,0.072605819,0.011434397
1.76966E+18,1.31687793,0.084108024,-0.026516836,-0.031175475,0.012048019,0.045467146,0.017941032
1.76966E+18,1.326866699,0.107959987,0.009158873,-0.032750908,0.016527947,0.036977436,0.012342028
1.76966E+18,1.336854736,0.012540333,0.031098903,-0.145111359,0.013074893,0.052125495,0.004272917
1.76966E+18,1.346842529,-0.106895025,0.000457096,-0.11353797,0.008608505,0.064279631,0.005129656
1.76966E+18,1.356830811,-0.056501055,-0.053745034,-0.049050301,0.007181051,0.055738874,-0.001041953
1.76966E+18,1.366819824,0.005810111,-0.093272742,0.00926964,0.009090968,0.045499705,-0.003446542
1.76966E+18,1.376807617,0.013462708,-0.138609429,0.019699995,0.012463329,0.036272917,-0.001768485
1.76966E+18,1.386795654,0.014588497,-0.132561966,0.020125673,0.01545411,0.037965279,0.006782803
1.76966E+18,1.396783691,-0.006640169,-0.094149525,0.000449936,0.020029156,0.044743292,0.013330717
1.76966E+18,1.406771729,-0.047640836,-0.092347444,-0.041862873,0.022461686,0.046300709,0.012908073
1.76966E+18,1.416760742,-0.088055848,-0.048356911,-0.086343674,0.021892568,0.047803264,0.007366301
1.76966E+18,1.426749023,-0.106114067,-0.023924481,-0.094619189,0.026416443,0.061004471,-0.001263385
1.76966E+18,1.436736816,-0.116552459,-0.021400515,-0.101212449,0.02825802,0.070319407,-0.001292946
1.76966E+18,1.446724854,-0.106462479,-0.070025722,-0.081632866,0.02931199,0.070364475,0.00184371
1.76966E+18,1.456713623,-0.034659773,-0.056969841,-0.015870938,0.029834501,0.06414786,0.00187407
1.76966E+18,1.466701904,-0.00331771,-0.064285133,0.019924159,0.028823445,0.053773273,0.002133989
1.76966E+18,1.476689697,-0.006674034,-0.057866498,0.038087446,0.024409788,0.045846906,0.001466601
1.76966E+18,1.486677734,-0.006152641,-0.061399348,0.032595571,0.020634085,0.031977773,-0.000677595
1.76966E+18,1.496665771,-0.040224458,-0.050323243,0.032175592,0.020553391,0.016616927,-0.00123606
1.76966E+18,1.506654785,-0.025805509,-0.065143796,-0.016535686,0.020175096,0.012320901,0.000259923
1.76966E+18,1.516642578,-0.077570749,-0.075337273,-0.039205783,0.019928221,0.00708779,0.004341749
1.76966E+18,1.526630615,-0.122713356,-0.033196752,-0.007441256,0.01756781,-0.002297645,0.012771576
1.76966E+18,1.536618652,-0.100271223,0.00267185,0.023565731,0.019720178,-0.012252009,0.018080056
1.76966E+18,1.546606689,-0.057847757,0.035299277,0.007857582,0.021234045,-0.016063975,0.014330238
1.76966E+18,1.556595703,-0.084832794,0.025602643,-0.00286065,0.02348122,-0.013021315,0.013001055
1.76966E+18,1.56658374,-0.094354692,0.035395723,0.02084975,0.022642363,-0.016728364,0.005759984
1.76966E+18,1.576572021,-0.100606702,0.013775427,0.064541592,0.022153938,-0.024193469,-0.008586731
1.76966E+18,1.586559814,-0.087290124,-0.005428455,0.037483197,0.023659233,-0.026222384,-0.018873865
1.76966E+18,1.596548584,-0.083844989,0.046344987,-0.028208296,0.025505336,-0.028883148,-0.024397528
1.76966E+18,1.606536621,-0.056398179,0.00432137,-0.068756579,0.026715821,-0.032371733,-0.026699789
1.76966E+18,1.616524902,0.006461268,-0.030026305,-0.074877692,0.027079076,-0.026911989,-0.037956703
1.76966E+18,1.626512695,-0.00526773,-0.075977909,-0.0479967,0.031940207,-0.018904354,-0.044839419
1.76966E+18,1.636500732,-0.076600461,-0.083112583,-0.024653818,0.033069387,-0.018270522,-0.051048312
1.76966E+18,1.646489502,-0.08700959,-0.080177699,-0.027816228,0.034723766,-0.02101442,-0.056789842
1.76966E+18,1.656477783,-0.059035505,-0.061934186,-0.039989481,0.034305651,-0.020390974,-0.059842624
1.76966E+18,1.66646582,-0.050637131,-0.025119828,-0.087334292,0.034717325,-0.016668597,-0.060376994
1.76966E+18,1.676453613,-0.065638301,-0.048301382,-0.085507369,0.038325645,-0.018304044,-0.056942318
1.76966E+18,1.68644165,-0.00747366,-0.130701433,-0.060987699,0.042715564,-0.012472314,-0.059302833
1.76966E+18,1.696430908,0.05436291,-0.13516075,-0.018537966,0.048128705,-0.007411775,-0.062497824
1.76966E+18,1.706418945,0.028523499,-0.141849434,-0.058151452,0.045503076,-0.023479024,-0.060360625
1.76966E+18,1.716406738,-0.068913925,-0.088386139,-0.075364599,0.046916418,-0.029830396,-0.058915332
1.76966E+18,1.726394775,-0.151208799,-0.046304071,-0.061713821,0.045647267,-0.020019347,-0.057217199
1.76966E+18,1.736383789,-0.157037614,-0.054232525,-0.061715136,0.04267944,-0.009761117,-0.05998715
1.76966E+18,1.746371826,-0.129620067,-0.067689388,-0.056089551,0.045831751,-0.006257619,-0.067932732
1.76966E+18,1.756359619,-0.113256961,-0.08630758,-0.066506901,0.046446674,-0.003246382,-0.083385997
1.76966E+18,1.766347656,-0.142283186,-0.105604985,-0.063839727,0.04714895,-0.00352627,-0.091495931
1.76966E+18,1.776335449,-0.159818806,-0.104208562,-0.051900429,0.045070618,-0.006321525,-0.103639424
1.76966E+18,1.786324463,-0.167922618,-0.039268765,-0.044875207,0.03845359,-0.009396873,-0.105044231
1.76966E+18,1.796312256,-0.224974329,0.029342999,-0.026711043,0.037207495,-0.008753188,-0.098415092
1.76966E+18,1.806300049,-0.220841686,0.067532152,-0.036095542,0.035827432,-0.002243207,-0.091293342
1.76966E+18,1.81628833,-0.107534529,0.08240122,-0.057905807,0.03269875,0.016336337,-0.105653107
1.76966E+18,1.826277344,-0.081851769,0.004073533,-0.072879651,0.037762232,0.037520833,-0.108575322
1.76966E+18,1.836265381,-0.133978262,-0.065425535,-0.050242433,0.035326503,0.022175699,-0.090646915
1.76966E+18,1.846253418,-0.027094928,0.006705635,-0.020946342,0.032388579,-0.00858685,-0.08587902
1.76966E+18,1.856241455,-0.012941278,-0.041774026,-0.016732377,0.033385668,-0.005172411,-0.092316948
1.76966E+18,1.866229492,-0.084224892,-0.045806642,-0.046405193,0.031321984,0.005090613,-0.089967236
1.76966E+18,1.876218262,-0.126414586,-0.036966918,-0.040862464,0.032523338,0.009348741,-0.094928704
1.76966E+18,1.886206299,-0.140067848,-0.053518824,-0.044649727,0.033529136,0.011655414,-0.100274242
1.76966E+18,1.896194336,-0.163386764,-0.121510995,-0.047316316,0.033316616,0.019695498,-0.106128141
1.76966E+18,1.906182373,-0.122982273,-0.151276603,-0.066819328,0.033901222,0.027407821,-0.115219571
1.76966E+18,1.916171631,-0.0821768,-0.213305482,-0.043115211,0.036966249,0.033995148,-0.122713439
1.76966E+18,1.926159424,-0.011020649,-0.246062673,-0.006455606,0.03569505,0.029113954,-0.123885006
1.76966E+18,1.936147217,-0.005482888,-0.258690099,0.038146191,0.046457686,0.015902277,-0.121815465
1.76966E+18,1.946135254,-0.047071621,-0.189573893,0.127138333,0.051150311,-0.005221989,-0.13275972
1.76966E+18,1.956123291,-0.124247142,-0.199606042,0.105517015,0.060242608,-0.006971153,-0.148956269
1.76966E+18,1.966112549,-0.149596687,-0.169326639,0.055390902,0.053566508,0.035747278,-0.181207001
1.76966E+18,1.976100342,-0.078649758,-0.088372695,-0.095817459,0.039510876,0.081683606,-0.203751191
1.76966E+18,1.986088379,-0.021808439,-0.029443537,-0.158828626,0.025966737,0.111349247,-0.219830871
1.76966E+18,1.99607666,0.089032036,0.038421793,-0.116290776,0.027587803,0.126000896,-0.219776541
1.76966E+18,2.00606543,0.203592408,0.071879241,-0.044469841,0.03712704,0.119174987,-0.209775865
1.76966E+18,2.016053223,0.221038049,0.107416419,0.007311492,0.04969237,0.09382382,-0.180702403
1.76966E+18,2.02604126,0.171478922,0.172592947,0.021935207,0.052841783,0.063175559,-0.153819725
1.76966E+18,2.036029541,0.130711954,0.229908826,0.061094959,0.053524617,0.034012612,-0.135469481
1.76966E+18,2.046017334,0.034557007,0.197664845,0.066897361,0.043936469,0.022292798,-0.126110345
1.76966E+18,2.056006348,0.009736893,0.121228086,0.088382486,0.030938378,0.020798499,-0.132407919
1.76966E+18,2.065994141,0.019959084,-0.014312018,0.115142775,0.025124772,0.013347927,-0.136748835
1.76966E+18,2.075982422,0.098662546,-0.160135032,0.125164695,0.028212972,-0.004226539,-0.141562775
1.76966E+18,2.085970215,0.170734095,-0.197263278,0.106321317,0.034863543,-0.021922633,-0.152187794
1.76966E+18,2.095958252,0.097589437,-0.161139241,0.043325347,0.04007668,-0.023204146,-0.157465383
1.76966E+18,2.10594751,-0.071029858,-0.10178455,-0.055111939,0.038871817,-0.006711911,-0.151725084
1.76966E+18,2.115935547,-0.163247538,0.025773324,-0.115113111,0.03862441,0.022447038,-0.144308448
1.76966E+18,2.12592334,-0.197675878,0.113664958,-0.166028767,0.041351892,0.054490112,-0.139259532
1.76966E+18,2.135911377,-0.166730193,0.08818974,-0.153865743,0.043171898,0.081923604,-0.147252217
1.76966E+18,2.145900391,-0.044963762,-0.052135261,-0.117846773,0.033982787,0.090802662,-0.158813342
1.76966E+18,2.155888428,0.137406995,-0.147020115,-0.086629943,0.033089563,0.095922582,-0.185533106
1.76966E+18,2.165876221,0.271040535,-0.130048522,-0.030494945,0.020845223,0.075045951,-0.19539921
1.76966E+18,2.175864258,0.286350259,-0.085644147,-0.084371643,0.014214752,0.042843271,-0.201428607
1.76966E+18,2.185852295,0.309635347,0.020243747,-0.075926763,0.014967032,0.031402033,-0.204910189
1.76966E+18,2.195841553,0.302921601,0.056621466,-0.069629417,0.018676549,0.050550427,-0.205394343
1.76966E+18,2.205829346,0.290777574,0.056893854,-0.076356094,0.022412354,0.075016998,-0.202879578
1.76966E+18,2.215817139,0.243085264,0.045148471,-0.088717563,0.021939643,0.081116438,-0.181906387
1.76966E+18,2.22580542,0.155874598,-0.022670681,-0.170757695,0.014636672,0.055836726,-0.151673511
1.76966E+18,2.235794434,0.098617026,-0.057632689,-0.209899034,0.008535104,0.037062772,-0.123458393
1.76966E+18,2.245782471,0.123162269,-0.101077863,-0.206004949,0.002583792,0.035909291,-0.113686934
1.76966E+18,2.255770264,0.136987235,-0.159894794,-0.186250886,0.000473503,0.052800391,-0.109981947
1.76966E+18,2.265758545,0.091832992,-0.171934191,-0.132652421,-0.001126754,0.068428963,-0.110377625
1.76966E+18,2.275746582,0.082133509,-0.20526246,-0.101552787,-0.007729263,0.062761754,-0.116329789
1.76966E+18,2.285735352,0.093028924,-0.185228557,-0.056226183,-0.007110968,0.046441093,-0.134720102
1.76966E+18,2.295723145,0.108032505,-0.177693485,-0.028841041,-0.008569848,0.029361708,-0.158401996
1.76966E+18,2.305711426,0.063031333,-0.204202138,-0.052301996,-0.0080824,0.032219809,-0.177370682
1.76966E+18,2.315699463,0.039706572,-0.210531341,-0.058573039,-0.004993665,0.05515708,-0.201376691
1.76966E+18,2.325688477,0.066637834,-0.220751121,-0.067431468,0.00140598,0.081885137,-0.22987701
1.76966E+18,2.335676514,0.02479425,-0.234157715,-0.098978845,0.000485591,0.095143951,-0.250006765
1.76966E+18,2.345664307,0.047937736,-0.235240835,-0.11480346,-0.010241628,0.091691166,-0.251243353
1.76966E+18,2.355652344,0.123873048,-0.169065358,-0.156269297,-0.018905424,0.070541404,-0.253508896
1.76966E+18,2.365640137,0.145133278,-0.117282564,-0.194224641,-0.032700419,0.040958215,-0.246387824
1.76966E+18,2.375629395,0.097502927,-0.050488663,-0.184868638,-0.035378497,0.024665795,-0.226038069
1.76966E+18,2.385617432,0.02859598,-0.035426703,-0.137112907,-0.036769107,0.030206233,-0.205101684
1.76966E+18,2.395605469,0.033065234,0.023109073,-0.132708535,-0.037274044,0.041449033,-0.185132504
1.76966E+18,2.405593262,0.052206134,0.097749011,-0.058873483,-0.033238661,0.050748944,-0.160041034
1.76966E+18,2.415582275,0.056633303,0.15313246,0.046729602,-0.034249596,0.048249565,-0.142888412
1.76966E+18,2.425570313,0.082594112,0.194058929,0.135215257,-0.033964951,0.037426025,-0.124275453
1.76966E+18,2.43555835,0.091270609,0.22031273,0.226162041,-0.032759339,0.015786244,-0.11358925
1.76966E+18,2.445546143,0.064320935,0.156847097,0.260675574,-0.026777562,0.003789425,-0.103122346
1.76966E+18,2.455534424,-0.021113077,0.063521163,0.274491772,-0.023898153,0.001371808,-0.10671442
1.76966E+18,2.465523438,-0.057110273,-0.013784195,0.212785988,-0.029614743,0.012022891,-0.110935107
1.76966E+18,2.47551123,-0.051871788,-0.074115038,0.180239663,-0.035296332,0.010629791,-0.126491427
1.76966E+18,2.485499512,0.031968817,-0.102702834,0.131078011,-0.032791857,-0.005087845,-0.156964853
1.76966E+18,2.495487305,0.04743965,-0.070078914,0.190544345,-0.03904682,0.015036066,-0.16466032
1.76966E+18,2.505476318,-0.032674774,-0.030514965,0.061277329,-0.054434896,0.05019002,-0.164093301
1.76966E+18,2.515464355,-0.0861331,0.129275199,-0.007029022,-0.065160505,0.076618701,-0.144581646
1.76966E+18,2.525452637,-0.072647741,0.194003984,0.01910013,-0.064267308,0.079939172,-0.122431852
1.76966E+18,2.53544043,0.084535602,0.229154793,-0.062226155,-0.063182876,0.053426865,-0.106531709
1.76966E+18,2.545428467,0.228080295,0.186323367,-0.081187899,-0.057622205,0.012711545,-0.111942269
1.76966E+18,2.555417236,0.356933616,0.109236035,-0.127871908,-0.060189493,-0.018445041,-0.119963177
1.76966E+18,2.565405518,0.3574176,0.065924717,-0.148969057,-0.060756531,-0.023970226,-0.129526466
1.76966E+18,2.575393311,0.318493264,0.11726269,-0.09972148,-0.051906578,-0.018640708,-0.129470542
1.76966E+18,2.585381348,0.273142549,0.125402157,-0.041897652,-0.0435642,-0.044471007,-0.12747407
1.76966E+18,2.595370605,0.239550076,0.074226097,0.065628656,-0.037028272,-0.060074467,-0.122727782
1.76966E+18,2.605358643,0.132527333,0.052401218,0.101616646,-0.031439081,-0.072650075,-0.121897787
1.76966E+18,2.615346191,0.125128601,-0.064664488,0.087683544,-0.03314963,-0.044635218,-0.140682116
1.76966E+18,2.625334229,0.053600803,-0.131714994,0.043847179,-0.034140222,0.018932156,-0.152996019
1.76966E+18,2.635322266,-0.123977239,-0.087173257,0.027631519,-0.026796823,0.065981694,-0.150621012
1.76966E+18,2.645311523,-0.106894002,0.055893737,0.125574299,-0.019684765,0.073646538,-0.140419662
1.76966E+18,2.655299316,0.039726446,0.057174424,0.108423111,-0.01515686,0.069729827,-0.14326179
1.76966E+18,2.665287354,0.143357501,-0.00751286,0.12923136,-0.018667553,0.068421982,-0.15856494
1.76966E+18,2.675275635,0.211411046,-0.054003393,0.104526104,-0.01804038,0.080974527,-0.184560329
1.76966E+18,2.685264404,0.175022367,-0.063757894,0.099894645,-0.017776065,0.096411623,-0.201404631
1.76966E+18,2.695252197,0.11192659,-0.136287124,0.044952948,-0.020404074,0.104469284,-0.206137866
1.76966E+18,2.705240234,0.060393971,-0.10727438,-0.020490123,-0.019850325,0.096326008,-0.195833966
1.76966E+18,2.715228516,0.016394524,-0.099715343,-0.005231763,-0.020845281,0.075354151,-0.17040211
1.76966E+18,2.725216309,0.01673267,-0.142235803,0.026992052,-0.021924092,0.055214614,-0.145035535
1.76966E+18,2.735205322,0.007665566,-0.247173264,-0.033620384,-0.027856814,0.035852633,-0.12176057
1.76966E+18,2.745193359,0.036955812,-0.251613877,-0.018500702,-0.029482774,0.021886364,-0.102218233
1.76966E+18,2.755181396,-0.006183219,-0.156509828,0.051646601,-0.025073912,0.012377013,-0.082503378
1.76966E+18,2.765169434,-0.095565968,-0.094465167,0.053823652,-0.030216662,0.006381324,-0.055014912
1.76966E+18,2.775158203,-0.171568719,-0.082093761,-0.013443565,-0.034037501,0.022373339,-0.027699668
1.76966E+18,2.785145996,-0.180326026,0.044349429,0.004402619,-0.023350669,0.032309178,-0.008300726
1.76966E+18,2.795134277,-0.19458836,0.201603938,-0.036854251,-0.008819665,0.018743036,0.014242666
1.76966E+18,2.805122314,-0.267108968,0.175063721,-0.035040334,0.007711223,0.018892668,0.027554046
1.76966E+18,2.815110107,-0.280111365,0.084639939,-0.057850278,0.01792125,0.037219476,0.032839358
1.76966E+18,2.825099121,-0.2335786,0.081098321,-0.062622168,0.024283109,0.081275992,0.02109883
1.76966E+18,2.835087158,-0.172332397,0.097023035,-0.029256636,0.020365333,0.117911234,-0.000973981
1.76966E+18,2.845075195,-0.11055647,0.083593644,0.032068624,0.020734107,0.12166135,-0.031352967
1.76966E+18,2.855062988,-0.033494419,0.055201663,0.115852823,0.016137224,0.097344555,-0.058441844
1.76966E+18,2.865052246,0.063123688,0.114495563,0.218364372,0.009999705,0.077239022,-0.075459711
1.76966E+18,2.875040283,0.11332462,0.154512516,0.328613676,0.002281331,0.060672563,-0.076014452
1.76966E+18,2.88502832,0.15536358,0.188504218,0.315373086,-0.0091887,0.044974525,-0.079660006
1.76966E+18,2.895015869,0.258430864,0.18556758,0.252692612,-0.014790659,0.029143361,-0.096445113
1.76966E+18,2.90500415,0.342428413,0.089818218,0.136492291,-0.009684698,0.021996012,-0.13868995
1.76966E+18,2.914993164,0.390560868,-0.002124737,0.077517539,0.012946579,0.030045949,-0.17921634
1.76966E+18,2.924981201,0.219904441,-0.079728786,0.037473698,0.015723586,0.024606517,-0.197227836
1.76966E+18,2.934968994,0.024783728,-0.154959091,-0.17728242,0.014713714,0.021377167,-0.187387183
1.76966E+18,2.944957275,-0.196252348,-0.175409174,-0.098616295,0.010379817,0.025464395,-0.16700229
1.76966E+18,2.954946045,-0.254147926,-0.194408473,-0.095655546,-0.005026036,0.05112049,-0.152422279
1.76966E+18,2.964934082,-0.163634711,-0.230613759,-0.094371351,-0.030126603,0.078071676,-0.150415942
1.76966E+18,2.974921875,-0.097718908,-0.281345583,-0.046552931,-0.047360718,0.095576636,-0.169092417
1.76966E+18,2.984910156,0.04235431,-0.241740133,0.007726064,-0.056885779,0.08042831,-0.207268298
1.76966E+18,2.994898193,0.024609248,-0.100188805,0.000258359,-0.056194156,0.047096457,-0.257522136
1.76966E+18,3.004887207,0.038823652,-0.062595865,0.004766045,-0.045144089,0.049451105,-0.329007924
1.76966E+18,3.014875488,-0.086782796,-0.148074592,-0.100757691,-0.050876543,0.119345233,-0.384919673
1.76966E+18,3.024863281,-0.314155674,-0.082605218,-0.184792358,-0.04847214,0.196553051,-0.413171858
1.76966E+18,3.034851074,-0.487151064,0.129012749,-0.047383682,-0.029738402,0.240519449,-0.423957139
1.76966E+18,3.044840088,-0.477388526,0.206645439,0.016502368,-0.012181056,0.26762706,-0.442824066
1.76966E+18,3.054828369,-0.347561392,0.19989538,-0.004011281,0.005205391,0.291511089,-0.476463526
1.76966E+18,3.064816162,-0.25524332,0.15414076,-0.008579028,0.008898404,0.334480941,-0.50892204
1.76966E+18,3.074804199,-0.19873189,0.095803138,-0.01407441,0.016042069,0.398666859,-0.559542596
1.76966E+18,3.084792236,-0.127861825,0.103225981,0.035505905,0.023292845,0.474241823,-0.596482396
1.76966E+18,3.09478125,-0.116411918,0.058414195,0.029768823,0.019800376,0.49677375,-0.606060207
1.76966E+18,3.104769043,-0.079472181,-0.097761871,0.038115503,0.013417339,0.485942394,-0.588871896
1.76966E+18,3.11475708,-0.028516485,0.057458502,0.071737202,-0.000236155,0.459895074,-0.55295676
1.76966E+18,3.124745117,0.022258886,0.142171506,0.02201967,-0.009073756,0.426291138,-0.510024309
1.76966E+18,3.134734375,0.094942137,0.239112708,0.100896223,-0.007184509,0.354654759,-0.452617973
1.76966E+18,3.144722168,0.177469321,0.204412566,0.039108606,-0.029152201,0.287090749,-0.377613276
1.76966E+18,3.154710205,0.214742236,0.158482589,-0.095025431,-0.038725197,0.220593214,-0.282607406
1.76966E+18,3.164697998,0.240511176,0.197781165,0.042517245,-0.028954925,0.149973348,-0.152044296
1.76966E+18,3.174686035,0.204065944,0.178183899,0.059577978,-0.015090774,0.083661698,-0.009711116
1.76966E+18,3.184675049,0.162073015,-0.053851417,-0.004425123,0.002671218,0.05159438,0.109430246
1.76966E+18,3.194663086,0.246703017,-0.119448802,-0.023103374,0.014992866,0.010825912,0.162143528
1.76966E+18,3.204651367,0.375262469,-0.042055765,-0.013294366,0.015377069,-0.034481645,0.161436245
1.76966E+18,3.21463916,0.218374163,-0.034264089,0.038837534,0.002945433,-0.073018916,0.149221659
1.76966E+18,3.22462793,-0.036311961,-0.055288172,0.096279669,-0.011579929,-0.091008112,0.132020712
1.76966E+18,3.234615967,-0.183218971,-0.08889935,0.091898385,-0.029876113,-0.067491338,0.112732776
1.76966E+18,3.244604248,-0.249438579,-0.169341252,0.01187237,-0.03703611,-0.022391235,0.071693256
1.76966E+18,3.254592041,-0.142624218,-0.182394795,-0.063758479,-0.029202422,-0.00241593,0.023878863
1.76966E+18,3.264580078,-0.061780457,-0.109161801,-0.117038818,-0.007369256,-0.004471816,-0.011170139
1.76966E+18,3.274569336,-0.141007723,-0.048217795,-0.130050275,0.014111801,0.006000798,-0.017161187
1.76966E+18,3.284557373,-0.200661689,-0.049368134,-0.113671387,0.026884105,0.018612389,-0.016377274
1.76966E+18,3.294545166,-0.063477324,-0.09643033,-0.068576546,0.02786042,-0.000182871,-0.039426934
1.76966E+18,3.304532959,0.123863403,-0.049311436,0.014495266,0.016303927,-0.014531225,-0.061329592
1.76966E+18,3.314522217,0.076208503,-0.068822192,0.046830579,-0.003962994,-0.002605323,-0.058052838
1.76966E+18,3.324510254,0.00661971,-0.066348495,0.064140902,-0.01624742,0.004701554,-0.042826705
1.76966E+18,3.334498291,0.112137017,-0.060129767,0.083150431,-0.020271722,-0.023366831,-0.032835327
1.76966E+18,3.344486084,0.241027601,-0.108868371,0.052291328,-0.020380307,-0.067782618,-0.028768901
1.76966E+18,3.354474121,0.250839093,-0.205499776,0.010076865,-0.022764634,-0.088884436,-0.025691619
1.76966E+18,3.364463135,0.198180685,-0.256777544,-0.025537615,-0.025721909,-0.102803558,-0.026312422
1.76966E+18,3.374451172,0.162740246,-0.143436411,-0.02499021,-0.023512019,-0.118031248,-0.029779591
1.76966E+18,3.384438965,0.065970602,0.009287468,-0.022900837,-0.015969668,-0.121915624,-0.02615628
1.76966E+18,3.394427246,-0.018125147,0.08245032,-0.060900459,-0.002171032,-0.115191139,-0.024251053
1.76966E+18,3.40441626,-0.037138183,0.090764559,-0.070076576,0.008280583,-0.082547903,-0.034182988
1.76966E+18,3.414404297,-0.019660686,0.036925417,-0.113871878,0.013196246,-0.032137189,-0.049276717
1.76966E+18,3.42439209,0.000166881,-0.015264205,-0.155395291,0.019681944,-0.029018516,-0.054629918
1.76966E+18,3.434380127,0.090195235,-0.047721536,-0.155622962,0.024437817,-0.054972086,-0.063202098
1.76966E+18,3.444369141,0.068317457,-0.063363926,-0.173443573,0.02687929,-0.078037418,-0.064909823
1.76966E+18,3.454357178,-0.015588322,-0.071710899,-0.092001261,0.029387988,-0.045739666,-0.037679266
1.76966E+18,3.464344971,0.047988078,-0.146850019,-0.079806381,0.028727615,0.015044853,-0.010385392
1.76966E+18,3.474333252,0.241230138,-0.127193132,-0.167128398,0.029639214,-0.01616846,-0.033885125
1.76966E+18,3.484321289,0.214558112,-0.011035773,-0.219738145,0.023824859,-0.075733438,-0.03493822
1.76966E+18,3.494310059,0.006178396,-0.008181553,-0.02041355,0.017816503,-0.050416369,-0.001140573
1.76966E+18,3.504298096,0.090996906,-0.023911037,-0.082246468,-0.006924395,-0.010899926,0.000925243
1.76966E+18,3.514286133,0.207826173,-0.082607556,-0.143715228,-0.009586224,-0.002989804,0.00640443
1.76966E+18,3.52427417,0.192462308,-0.11286124,-0.164711985,-0.012933359,-0.012815425,0.012056415
1.76966E+18,3.534263184,0.219119721,0.018726912,-0.209251238,-0.007719423,-0.030554209,0.016104419
1.76966E+18,3.544251221,0.12675591,0.089411975,-0.12145868,0.002030853,-0.03307702,0.0359184
1.76966E+18,3.554239258,0.103415659,0.116746557,-0.112300976,0.004290811,-0.012720082,0.055743769
1.76966E+18,3.564227295,0.09833967,0.079706574,-0.174516317,-0.001192343,0.047652673,0.075415984
1.76966E+18,3.574215088,0.049237786,0.082606972,-0.24222061,0.011512,0.14654091,0.075328104
1.76966E+18,3.584204102,-0.088275373,0.134437112,-0.360796575,0.027433213,0.237948403,0.095712453
1.76966E+18,3.594192139,-0.288965118,0.087283147,-0.386535558,0.062150709,0.314558476,0.088751748
1.76966E+18,3.604180176,-0.279513691,0.044476271,-0.372885657,0.097457118,0.34665066,0.057549462
1.76966E+18,3.614168213,-0.147715404,0.033507717,-0.297657689,0.126905546,0.325034857,0.011167048
1.76966E+18,3.624157227,-0.039555473,0.170679223,-0.160170104,0.120876126,0.30624935,-0.02454138
1.76966E+18,3.63414502,-0.127836106,0.170818339,0.007491963,0.093413346,0.296672612,-0.025640199
1.76966E+18,3.644133057,-0.061377429,0.053209028,0.147166684,0.071235672,0.276661396,-0.027815962
1.76966E+18,3.654121338,0.153636903,-0.088881814,0.090358024,0.058337446,0.247990325,-0.040407922
1.76966E+18,3.664110107,0.228918646,-0.161334471,0.068310443,0.052783653,0.233833581,-0.046581201
1.76966E+18,3.674098145,0.1668319,-0.196273098,0.07471315,0.050796937,0.233649552,-0.047176421
1.76966E+18,3.684086182,-0.013865151,-0.164155374,0.1324927,0.042253032,0.229416251,-0.020464838
1.76966E+18,3.694074463,-0.124080845,-0.098913963,0.156883191,0.030445905,0.213111579,-4.55843E-05
1.76966E+18,3.704062256,-0.024046938,-0.062568977,0.191818895,0.007668577,0.196316913,-0.00963911
1.76966E+18,3.714051025,0.068799395,-0.095706107,0.12786957,-0.016239952,0.175597787,-0.029992318
1.76966E+18,3.724039063,0.045855742,-0.120651748,0.070654522,-0.029354893,0.162830889,-0.064671248
1.76966E+18,3.734027344,0.040797874,-0.021386487,0.026897652,-0.034151513,0.167682633,-0.105113745
1.76966E+18,3.744015137,-0.050577802,0.062433952,-0.03102423,-0.038150996,0.176306412,-0.135404393
1.76966E+18,3.75400415,-0.099915834,0.199200968,-0.02757292,-0.028301295,0.208892584,-0.151297078
1.76966E+18,3.763991943,-0.187808052,0.151388247,0.023441666,-0.014689815,0.246272475,-0.13067919
1.76966E+18,3.773980469,-0.283361307,0.058691258,-0.035340047,0.007296709,0.23286745,-0.10003712
1.76966E+18,3.783968262,-0.132354168,0.076236852,-0.036597792,0.031591743,0.206168354,-0.067126721
1.76966E+18,3.793956299,-0.039148646,0.020220366,-0.035928076,0.048653819,0.214578882,-0.038180821
1.76966E+18,3.803945557,0.038136838,-0.067725629,0.000160305,0.059014857,0.231095403,-0.012561129
1.76966E+18,3.813933594,0.103196463,-0.080839377,0.101560678,0.058297668,0.210905448,0.016403144
1.76966E+18,3.823921387,0.149047529,-0.116862292,0.156007431,0.053027894,0.184165165,0.042151585
1.76966E+18,3.833909424,0.186167592,-0.175091194,0.186917679,0.043104425,0.169925779,0.060812619
1.76966E+18,3.843898438,0.1999626,-0.195235572,0.212768014,0.031643227,0.158681273,0.075043857
1.76966E+18,3.853886475,0.193886495,-0.185882637,0.208289261,0.018503455,0.109321974,0.086615831
1.76966E+18,3.863874268,0.198525846,-0.143477912,0.220623988,0.011166148,0.062858254,0.091436699
1.76966E+18,3.873862305,0.106461602,-0.138383219,0.211458685,-0.001096378,0.033948313,0.097859979
1.76966E+18,3.883850586,0.022983108,-0.138806998,0.189609256,-0.010502426,0.015536321,0.09379708
1.76966E+18,3.893839355,0.025333471,-0.101191845,0.143737294,-0.01968394,-0.000323602,0.080621362
1.76966E+18,3.903827148,-0.030957156,-0.098612934,0.052245736,-0.03047389,-0.004920255,0.068289436
1.76966E+18,3.913815186,-0.09406477,-0.09045827,0.01488485,-0.031235287,-0.002291183,0.053252425
1.76966E+18,3.923803467,-0.10862784,-0.022597032,-0.00309972,-0.026492128,0.010966336,0.033982623
1.76966E+18,3.93379248,-0.153861651,-0.005033903,-0.013740941,-0.025170403,0.021399802,0.011534307
1.76966E+18,3.943780518,-0.139252403,0.045684477,0.005798311,-0.017965924,0.031339899,-0.007936118
1.76966E+18,3.953768555,-0.145997494,0.10533669,-0.026055209,-0.007840851,0.046425641,-0.022992566
1.76966E+18,3.963756592,-0.147203362,0.151936528,-0.057588996,-0.002681254,0.062486786,-0.029964538
1.76966E+18,3.973745361,-0.148984985,0.170632461,-0.029957039,0.005225937,0.078994654,-0.026120266
1.76966E+18,3.983733398,-0.128410107,0.135907185,0.023377807,0.003463282,0.094352044,-0.020633951
1.76966E+18,3.993721436,-0.066549278,0.061971595,0.046476797,0.003508555,0.098411232,-0.018931391
1.76966E+18,4.003709473,0.073084818,0.067638535,0.049640521,0.002329002,0.101579785,-0.022086231
1.76966E+18,4.01369751,0.094924894,0.040937575,0.122676532,-0.013925868,0.094887793,-0.015281588
1.76966E+18,4.023686279,0.079042849,0.015346622,0.164499073,-0.035184234,0.073635422,-0.005241328
1.76966E+18,4.033674316,0.080333181,0.039063598,0.197820035,-0.063929863,0.05129683,-0.001866038
1.76966E+18,4.043662354,0.055615796,-0.013036592,0.167681356,-0.099892378,0.041101832,-0.002288333
1.76966E+18,4.053650391,0.035071313,-0.084458152,0.146878807,-0.142438248,0.01117802,-0.005662559
1.76966E+18,4.063639648,0.032997722,-0.169326639,0.073798373,-0.171270609,-0.023530958,-0.016659612
1.76966E+18,4.073627441,0.059044602,-0.182031807,0.187848092,-0.178855285,-0.114722386,-0.037973423
1.76966E+18,4.083615479,0.139673844,-0.181137488,0.301450213,-0.177818879,-0.196212441,-0.067548029
1.76966E+18,4.093603516,0.045681555,-0.208196176,0.174928258,-0.171040058,-0.189853087,-0.089879699
1.76966E+18,4.103592529,-0.223192669,-0.197876442,0.075014032,-0.143425375,-0.112019159,-0.10746666
1.76966E+18,4.113580322,-0.39125148,-0.086306411,-0.085246672,-0.110985145,-0.043304283,-0.100117669
1.76966E+18,4.123568359,-0.416031994,0.057180269,-0.149169548,-0.0835246,0.001030463,-0.094495036
1.76966E+18,4.133556396,-0.291465411,0.10094167,-0.13236089,-0.059951633,0.01210948,-0.093519792
1.76966E+18,4.143544434,-0.15901918,0.092274964,-0.048703241,-0.040600989,0.027940869,-0.089190185
1.76966E+18,4.153533447,-0.169815884,0.050441316,-0.027435558,-0.027969085,0.046248503,-0.070959516
1.76966E+18,4.16352124,-0.150195238,-0.070460607,0.008833295,-0.037998248,0.071968868,-0.046937823
1.76966E+18,4.173509277,0.081675244,-0.264725872,0.13592019,-0.079899095,-0.02188706,-0.062142611
1.76966E+18,4.183497314,0.467571627,-0.342694663,0.442915032,-0.102079988,-0.201583251,-0.089325435
1.76966E+18,4.193486328,0.448570574,-0.240243757,0.200736361,-0.151537031,-0.300621659,-0.085658528
1.76966E+18,4.203474365,0.244091957,-0.252816823,0.228235047,-0.190264836,-0.297515184,-0.090787157
1.76966E+18,4.213462646,0.093850835,-0.120624275,0.340137233,-0.186283678,-0.266467243,-0.084616885
1.76966E+18,4.223450684,-0.003244096,0.023830957,0.046571051,-0.163000599,-0.211013496,-0.07906846
1.76966E+18,4.233438477,-0.08159721,0.126763509,-0.130137223,-0.13930352,-0.146093622,-0.074737899
1.76966E+18,4.243427246,-0.145249013,0.221060918,-0.251049375,-0.121578202,-0.128492564,-0.038629051
1.76966E+18,4.253415527,-0.106722299,0.223795311,-0.225302355,-0.103095338,-0.098503239,-0.028782815
1.76966E+18,4.263403564,-0.106454003,0.114054249,-0.220828424,-0.091741465,-0.12118873,-0.007368785
1.76966E+18,4.273391357,-0.052073886,0.016048048,-0.088720778,-0.084204718,-0.110264979,-0.016539913
1.76966E+18,4.283380371,-0.058357204,-0.058838558,-0.113992509,-0.089520693,-0.133341342,-0.020156546
1.76966E+18,4.293368408,-0.010307459,-0.062186115,-0.000926175,-0.098295547,-0.125743866,-0.031434767
1.76966E+18,4.303356445,-0.025036242,-0.045531917,-0.060139046,-0.120545298,-0.099835694,-0.031089641
1.76966E+18,4.313344238,0.021032267,-0.061709729,-0.128027245,-0.135032356,-0.066338189,-0.031306956
1.76966E+18,4.323333496,0.082416125,-0.009940379,-0.16464345,-0.132498816,-0.045506373,-0.031302661
1.76966E+18,4.333321533,0.059939505,0.03588789,-0.151527217,-0.149695382,-0.031616926,-0.029362012
1.76966E+18,4.34330957,0.024038463,0.078773092,-0.129654773,-0.143528715,-0.023777833,-0.026952997
1.76966E+18,4.353297363,-0.043592473,0.054579731,-0.036686932,-0.150514722,-0.032168388,-0.022509245
1.76966E+18,4.3632854,-0.01117109,0.011511574,-0.022154695,-0.136454687,-0.042227075,-0.029534936
1.76966E+18,4.373274414,0.053190031,-0.021201778,0.00060856,-0.140245438,-0.053298898,-0.038146801
1.76966E+18,4.383262451,0.028710838,-0.133997552,-0.054087053,-0.124413967,-0.029431306,-0.04309037
1.76966E+18,4.393250244,0.004528876,-0.048023149,-0.02939714,-0.122669332,0.001536464,-0.042412326
1.76966E+18,4.403238281,-0.022548809,0.01188976,-0.085356563,-0.129797623,0.024484884,-0.040822718
1.76966E+18,4.413227539,-0.049337447,-0.018123686,-0.145581972,-0.132855728,0.04111233,-0.038811501
1.76966E+18,4.423215576,-0.056591948,-0.083241762,-0.085664971,-0.125328258,0.066973411,-0.04374513
1.76966E+18,4.433203125,-0.026354923,-0.132217098,-0.069347458,-0.118946254,0.064773113,-0.051270958
1.76966E+18,4.443191406,-0.004208265,-0.14144436,-0.164118038,-0.114306629,0.057904478,-0.064956933
1.76966E+18,4.45318042,-0.058592182,-0.039894203,-0.023151816,-0.069888033,0.079060629,-0.075152315
1.76966E+18,4.463168457,-0.13505729,0.121938865,0.036816038,-0.043313064,0.09097416,-0.076155946
1.76966E+18,4.47315625,-0.098792675,0.153610015,-0.05313019,-0.030097127,0.109420814,-0.079403937
1.76966E+18,4.483144531,-0.055140288,0.069390347,-0.046864043,-0.052119929,0.104676351,-0.08638031
1.76966E+18,4.493132568,0.050593584,-0.017975217,0.063099723,-0.089555718,0.067807287,-0.08269503
1.76966E+18,4.503121338,0.146126965,-0.01294716,0.128431442,-0.089730524,0.039318006,-0.081358671
1.76966E+18,4.513109131,0.143467098,-0.044430093,0.254186139,-0.077825665,-0.012210165,-0.064487547
1.76966E+18,4.523097412,0.117276134,-0.102103699,0.174532902,-0.065406084,-0.051401928,-0.052459694
1.76966E+18,4.533085449,0.111337391,-0.028198505,0.123241326,-0.065778658,-0.073911227,-0.041780416
1.76966E+18,4.543074463,0.088251115,-0.099433019,0.079341759,-0.074567541,-0.065159552,-0.035279512
1.76966E+18,4.5530625,0.065562898,-0.139638772,-0.010151976,-0.084649466,-0.071497343,-0.033311967
1.76966E+18,4.563050537,0.13671061,-0.106845341,-0.029532676,-0.090394542,-0.100166388,-0.033746082
1.76966E+18,4.57303833,0.062618661,-0.087438045,0.041893999,-0.083783783,-0.093953498,-0.031840857
1.76966E+18,4.583026367,-0.01925795,-0.056339142,0.077670976,-0.07922373,-0.096008129,-0.031907301
1.76966E+18,4.593015381,-0.055243164,-0.007871756,0.148148023,-0.070056602,-0.086692393,-0.032784812
1.76966E+18,4.603003418,-0.046745677,-0.023325346,0.14542342,-0.046891779,-0.04521396,-0.037512619
1.76966E+18,4.612991455,0.057023617,-0.041248541,0.003659399,-0.043497313,-0.041613631,-0.06035668
1.76966E+18,4.622979492,0.158705876,-0.040898412,-0.111239996,-0.04751379,-0.0477782,-0.069804758
1.76966E+18,4.632968506,0.1137842,-0.039440615,-0.106113665,-0.044270325,-0.03714633,-0.059965178
1.76966E+18,4.642956299,0.052817398,-0.026628479,-0.147349639,-0.040701751,-0.051043276,-0.043155797
1.76966E+18,4.652944336,0.107898065,-0.065890815,-0.063098334,-0.032154068,-0.03955733,-0.037870754
1.76966E+18,4.662932373,0.063143269,-0.100102296,0.052622752,-0.022801099,-0.034225069,-0.038444541
1.76966E+18,4.672921631,0.093251992,-0.101360772,0.027487873,-0.012426755,-0.030711563,-0.046724044
1.76966E+18,4.682909424,0.120684773,-0.055176528,-0.097082802,-0.016774109,-0.02200607,-0.04418347
1.76966E+18,4.692897461,0.038163142,-0.021582302,-0.059837433,-0.02290071,-0.010461267,-0.039194308
1.76966E+18,4.702885498,0.061035776,0.032968204,-0.09065708,-0.023064977,-0.007985554,-0.033382069
1.76966E+18,4.712873291,0.095682434,0.110140291,-0.061746554,-0.015274164,0.01103927,-0.029150575
1.76966E+18,4.722862305,0.113450146,0.083447514,-0.051169558,-0.005739487,0.042257071,-0.029636089
1.76966E+18,4.732850342,0.096615331,0.021132804,-0.037021863,-0.008258836,0.05587035,-0.033330694
1.76966E+18,4.742838623,0.158862528,0.015473463,-0.01386749,-0.009833626,0.037719004,-0.035416711
1.76966E+18,4.752826416,0.1598115,-0.00119827,-0.04835092,-0.012452045,0.022422075,-0.0265854
1.76966E+18,4.762815186,0.10475889,-0.005814239,-0.076277915,-0.018619031,0.007331656,-0.009025372
1.76966E+18,4.772803223,0.085141166,-0.002773556,-0.105098205,-0.022440668,0.004480476,0.003995622
1.76966E+18,4.782791504,0.06479279,0.009252397,-0.109386623,-0.027499337,-0.003833116,0.00446468
1.76966E+18,4.792779541,0.041104748,-0.012618659,-0.094251817,-0.028688971,-0.013942475,0.000816149
1.76966E+18,4.802767334,-0.018192367,-0.009738719,-0.042494814,-0.030818956,-0.012192398,-0.009846531
1.76966E+18,4.812756592,-0.060424074,0.010430209,-0.014940891,-0.033473596,-0.0016319,-0.022622515
1.76966E+18,4.822744629,-0.094232235,-0.027537411,-0.051082975,-0.031219956,0.013150929,-0.038114347
1.76966E+18,4.832732422,-0.14310411,-0.085937577,-0.06826675,-0.029072115,0.022818204,-0.056153528
1.76966E+18,4.842720459,-0.173532566,-0.099155955,-0.066579089,-0.017827032,0.037264824,-0.074214391
1.76966E+18,4.852709473,-0.221898538,-0.066835402,-0.068197265,-0.005101382,0.067305014,-0.079487987
1.76966E+18,4.86269751,-0.30294016,-0.01387012,-0.043233796,0.006762498,0.093995176,-0.067310438
1.76966E+18,4.872685547,-0.29962709,0.105882633,-0.010764555,0.002926214,0.080818921,-0.059008833
1.76966E+18,4.882673584,-0.122927584,0.152165661,-0.040775297,-0.001061571,0.069833726,-0.048484303
1.76966E+18,4.892662354,-0.085167177,0.155685067,-0.015841566,-0.004708504,0.098003849,-0.043373164
1.76966E+18,4.902650391,0.002375205,0.141366034,-0.027198096,-0.004512127,0.079687797,-0.033897616
1.76966E+18,4.912638428,0.115985217,0.130571669,-0.020969211,-0.007402189,0.053760327,-0.020362101
1.76966E+18,4.922626465,0.103800566,0.071714991,0.002627353,-0.011612555,0.053780034,-0.00580293
1.76966E+18,4.932614502,0.086805885,0.054356444,0.026552053,-0.013630432,0.053781368,0.010537428
1.76966E+18,4.942603516,0.057718322,0.042927288,0.019590909,-0.016475158,0.051296301,0.019886665
1.76966E+18,4.952591553,0.02919833,0.058746788,0.008538623,-0.01386153,0.046403542,0.025431631
1.76966E+18,4.962579834,-0.043057051,0.035348377,-0.028802535,-0.008850569,0.051492613,0.02854003
1.76966E+18,4.972567627,-0.096169341,0.030512627,-0.038528468,-0.000690377,0.05640348,0.023789218
1.76966E+18,4.982556396,-0.153337627,0.007051088,-0.073706311,0.006897627,0.061515231,0.009760402
1.76966E+18,4.992544434,-0.195804312,-0.010461773,-0.04343626,0.014403481,0.06667617,-0.001102366
1.76966E+18,5.002532715,-0.216696585,-0.039018005,-0.006240648,0.014925578,0.072846144,-0.009079417
1.76966E+18,5.012520508,-0.17013591,-0.06477204,0.011246786,0.010643216,0.066589579,-0.014391358
1.76966E+18,5.022509521,-0.097883159,-0.104143096,-0.008110095,0.006057785,0.063853979,-0.024843201
1.76966E+18,5.032497314,-0.03122779,-0.145200498,0.017865765,0.000533057,0.048817769,-0.035284653
1.76966E+18,5.042485596,-0.051347618,-0.148989369,0.042811187,-0.004159269,0.032265045,-0.030449174
1.76966E+18,5.052473389,-0.114198918,-0.10588088,0.020693828,-0.004842903,0.033806212,-0.023885546
1.76966E+18,5.062461426,-0.092968207,-0.112848381,0.003320084,-0.003161915,0.031102573,-0.026742853
1.76966E+18,5.072450439,-0.035135611,-0.090839378,-0.020476386,-0.005894318,0.022516008,-0.038561694
1.76966E+18,5.082438721,-0.009917875,-0.016270167,-0.029820115,-0.007223696,0.018102124,-0.045706924
1.76966E+18,5.092426514,-0.030348084,-0.010189386,-0.058932081,-0.008863138,0.01934156,-0.042166516
1.76966E+18,5.102414551,-0.010969138,-0.002915011,-0.072884473,-0.008480011,0.012111763,-0.046626002
1.76966E+18,5.112403564,0.043124564,-0.005860416,-0.0208488,-0.009349268,-0.004890124,-0.049748823
1.76966E+18,5.122391602,-0.010013152,0.02442074,0.028696956,-0.007220726,-0.009351414,-0.039680652
1.76966E+18,5.132379395,-0.060356854,0.07740648,0.04205445,-0.004463289,-0.005407539,-0.022803666
1.76966E+18,5.142367432,-0.030412674,0.111133978,0.037780645,0.001160395,0.012693206,-0.012674704
1.76966E+18,5.152356689,0.029161797,0.087754271,0.026188115,-0.000119254,0.028074026,-0.014939988
1.76966E+18,5.162344482,0.150587744,0.045212184,-0.013102935,0.000805117,0.014282779,-0.029667195
1.76966E+18,5.172332275,0.18511779,-0.020443069,-0.057712257,-0.00264048,0.013820721,-0.038700905
1.76966E+18,5.182320313,0.051116439,-0.06546236,-0.055636693,-0.007813075,0.007491177,-0.040276363
1.76966E+18,5.192308594,0.002559037,-0.069349431,-0.02385843,-0.01419827,-0.025196197,-0.036917318
1.76966E+18,5.202297607,-0.006344693,-0.054120882,0.017656141,-0.019951189,-0.041322358,-0.036056791
1.76966E+18,5.2122854,-0.017129122,-0.054033203,0.018088468,-0.01762039,-0.034337953,-0.035660245
1.76966E+18,5.222273438,-0.0402984,-0.004980711,-0.031523412,-0.013725937,-0.021423522,-0.035538167
1.76966E+18,5.232261719,-0.065557637,-0.007950667,-0.091578798,-0.011520041,-0.012073964,-0.037563235
1.76966E+18,5.242250488,-0.08562895,-0.036657706,-0.089517189,-0.003880753,-0.010980888,-0.046361703
1.76966E+18,5.252238281,-0.055298401,-0.081914898,-0.061857687,0.003372366,-0.013985999,-0.062589414
1.76966E+18,5.262226318,-0.080348671,-0.069811787,0.004970117,0.008775428,-0.011227688,-0.075562946
1.76966E+18,5.2722146,-0.122100485,-0.043138885,0.045864218,0.015234925,-0.008520318,-0.084725015
1.76966E+18,5.282203613,-0.046331251,-0.025268297,0.01462861,0.010195457,-0.013116971,-0.094875678
1.76966E+18,5.292191406,0.071783087,-0.020664602,-0.006122575,0.007474771,-0.011805098,-0.09517289
1.76966E+18,5.302179443,0.14948066,-0.016979776,-0.006432444,0.009448819,-0.00353469,-0.088364147
1.76966E+18,5.31216748,0.209894504,0.012310031,-0.030964097,0.015309904,-0.00326358,-0.075487226
1.76966E+18,5.322156494,0.148002404,-0.035646483,0.013188787,0.017218757,-0.012809144,-0.061044656
1.76966E+18,5.332144531,0.151816117,-0.1019564,0.03172814,0.007352812,-0.043828849,-0.06219434
1.76966E+18,5.342132568,0.17655133,-0.177068632,0.039841158,-0.006911072,-0.071782984,-0.077026464
1.76966E+18,5.352120605,0.150585406,-0.187919111,0.00472396,-0.0146132,-0.086292155,-0.088221334
1.76966E+18,5.362108643,0.094573011,-0.107664256,-0.0549718,-0.009984492,-0.086354926,-0.08789324
1.76966E+18,5.372097656,0.020136195,-0.069283964,-0.108986664,-0.001194196,-0.073395722,-0.078184687
1.76966E+18,5.382085449,0.0180325,-0.064862641,-0.107781526,0.0065357,-0.067094527,-0.072577357
1.76966E+18,5.392073486,0.04771423,-0.0593921,-0.071463135,0.005132746,-0.066134989,-0.074540377
1.76966E+18,5.402061523,0.061347618,-0.042613399,-0.046917161,0.004528956,-0.076355062,-0.077411667
1.76966E+18,5.412050781,0.059565411,-0.02641396,-0.014571546,0.000619435,-0.086311825,-0.076128289
1.76966E+18,5.422038574,0.066894146,-0.068445175,-0.002058686,0.003178303,-0.088168994,-0.074321851
1.76966E+18,5.432026367,0.091384152,-0.068605334,0.004566212,0.0034843,-0.082960121,-0.07591895
1.76966E+18,5.442014404,0.089060385,-0.052708677,-0.019627661,0.002678919,-0.078843482,-0.077670038
1.76966E+18,5.452003662,0.063336454,-0.021757074,-0.041574558,0.002817936,-0.076345973,-0.077013567
1.76966E+18,5.461991455,0.034274318,0.006869301,-0.079169252,0.004109059,-0.072679102,-0.072085485
1.76966E+18,5.471979492,-0.022465807,0.031188919,-0.081218951,0.006020409,-0.063375615,-0.068508059
1.76966E+18,5.481967529,-0.035043549,0.027812721,-0.040519204,0.007711803,-0.054487199,-0.070603013
1.76966E+18,5.491955566,-0.020231179,0.015210429,0.01207688,0.007067584,-0.048548616,-0.071220867
1.76966E+18,5.501944336,-0.002546177,0.015099954,0.009856793,0.003465822,-0.046833392,-0.073766336
1.76966E+18,5.511932373,0.056904375,0.01338672,-0.02471059,0.000591738,-0.052591678,-0.074598841
1.76966E+18,5.52192041,0.107730599,0.058830959,-0.044023705,-0.001105092,-0.063731067,-0.065942243
1.76966E+18,5.531908447,0.121394383,0.08414894,-0.016169629,-0.003587691,-0.078064732,-0.048392542
1.76966E+18,5.541897461,0.150141462,0.084553429,0.003266893,-0.00902091,-0.090243109,-0.032468177
1.76966E+18,5.551885498,0.199532977,0.013900515,0.045770548,-0.020859193,-0.107709184,-0.032372303
1.76966E+18,5.561873779,0.170419111,-0.040832946,0.049893546,-0.032255691,-0.120479912,-0.036388334
1.76966E+18,5.571861572,0.0298641,-0.066499886,0.020556027,-0.036118075,-0.114292592,-0.0393764
1.76966E+18,5.581850342,-0.044383039,-0.007490648,-0.056444575,-0.030053083,-0.090237319,-0.041560926
1.76966E+18,5.591838379,-0.079504329,0.052526306,-0.13636187,-0.019086985,-0.049951419,-0.039762493
1.76966E+18,5.60182666,-0.092116266,0.082823829,-0.172533911,-0.008181307,-0.019773316,-0.039230954
1.76966E+18,5.611814697,-0.02095511,0.09230419,-0.202723224,0.000943481,-0.003405526,-0.031636681
1.76966E+18,5.62180249,0.034497605,0.092784082,-0.190443077,0.00761179,0.014770776,-0.024384728
1.76966E+18,5.63179126,0.081324238,0.074756258,-0.096747506,0.010752989,0.024737123,-0.011530448
1.76966E+18,5.641779541,0.101949678,0.033323593,-0.029039632,0.006599738,0.028510099,-0.00460291
1.76966E+18,5.651767578,0.116534668,-0.032960605,-0.026883331,0.000959962,0.026217118,-0.002153334
1.76966E+18,5.661755371,0.119048404,-0.047235798,-0.08411533,-0.004096316,0.014596947,-0.005370699
1.76966E+18,5.671744629,0.143715812,-0.010715455,-0.143725895,-0.004186864,-0.002080832,-0.010964402
1.76966E+18,5.681732666,0.0958952,-0.01735387,-0.146208433,0.003346318,-0.002927033,-0.008835224
1.76966E+18,5.691720703,0.073383216,-0.047162149,-0.093352895,0.010922745,0.011749914,-0.004901736
1.76966E+18,5.701708496,0.08019728,-0.116519763,-0.047501464,0.013625384,0.018912679,-0.005206989
1.76966E+18,5.71169751,0.126161451,-0.151086634,-0.012529154,0.009219984,0.019388853,-0.004817103
1.76966E+18,5.721685547,0.146649528,-0.177338681,-0.009656886,0.002259646,0.011620637,-0.003597339
1.76966E+18,5.731673584,0.156204999,-0.161669987,-0.040142991,0.000350958,0.003019692,0.001235233
1.76966E+18,5.741661377,0.155845226,-0.148985862,-0.056608095,0.005985459,0.007393326,0.005633852
1.76966E+18,5.751649414,0.154200089,-0.130433137,-0.072695526,0.01346548,0.017156741,0.00918065
1.76966E+18,5.761638428,0.147348324,-0.122638538,-0.100586938,0.020135645,0.030357499,0.008099742
1.76966E+18,5.771626465,0.149989194,-0.10412556,-0.117751789,0.022236345,0.040652744,0.008214524
1.76966E+18,5.781614258,0.136249422,-0.060644731,-0.1736106,0.025543703,0.042405255,0.010961156
1.76966E+18,5.791602539,0.161378018,-0.027951252,-0.201749557,0.0259762,0.050772108,0.019786872
1.76966E+18,5.801591309,0.164133162,-0.00811784,-0.145667677,0.029091958,0.055201288,0.023134386
1.76966E+18,5.811579346,0.153218385,-0.023258711,-0.064964128,0.027110299,0.073703066,0.018873328
1.76966E+18,5.821567383,0.080993983,-0.068424717,0.009495631,0.025194544,0.064669587,0.01783354
1.76966E+18,5.831555664,0.142733523,-0.104899467,0.051750499,0.017308658,0.052945022,0.005946254
1.76966E+18,5.841544189,0.209921977,-0.128725749,0.026261838,0.010325163,0.054943688,-0.009189984
1.76966E+18,5.851532227,0.201234228,-0.152943075,-0.010225699,0.006169832,0.0584516,-0.015014317
1.76966E+18,5.861520264,0.157808928,-0.143867788,-0.063825406,0.004393135,0.061044872,-0.018099874
1.76966E+18,5.871508545,0.096554541,-0.109652799,-0.080564944,-0.0018605,0.054831453,-0.024173748
1.76966E+18,5.881497559,0.021231004,-0.02462883,-0.065854136,-0.004731888,0.04621689,-0.03443227
1.76966E+18,5.891485352,-0.095936116,0.04586451,-0.023273324,-0.005669587,0.046196647,-0.038911708
1.76966E+18,5.901473389,-0.167459968,0.113932084,0.004786504,-0.00296987,0.061307311,-0.043014791
1.76966E+18,5.911461426,-0.103117845,0.148697108,0.042196562,0.001293584,0.07571581,-0.047272656
1.76966E+18,5.921449219,-0.042220308,0.053263973,0.101168318,0.001569899,0.091688044,-0.048650764
1.76966E+18,5.931438232,0.029538521,-0.053217211,0.146139094,-0.00301713,0.103643239,-0.049345318
1.76966E+18,5.941426514,0.106795072,-0.119910574,0.142138407,-0.007722947,0.097389877,-0.043577515
1.76966E+18,5.951414551,0.162865334,-0.105450087,0.123272817,-0.010458546,0.081963509,-0.036589909
1.76966E+18,5.961402344,0.119392395,0.012058102,0.131653473,-0.009012634,0.064775087,-0.020314151
1.76966E+18,5.971391113,0.02430179,0.089808281,0.12740736,-0.002752608,0.060738269,-0.001052838
1.76966E+18,5.981379395,-0.070469082,0.150290515,0.124202061,0.002159511,0.063347213,0.016689289
1.76966E+18,5.991367432,-0.092481008,0.168986447,0.086419516,0.003827449,0.068001628,0.02001824
1.76966E+18,6.001355225,-0.074874039,0.100808399,0.056056672,0.002887619,0.071344689,0.01864112
1.76966E+18,6.011344482,-0.058167235,-0.032297172,-0.007693769,0.00496089,0.070124164,0.014180592
1.76966E+18,6.02133252,-0.024782559,-0.082684128,-0.023295682,0.01007205,0.06519796,0.011093345
1.76966E+18,6.031320313,-0.055160454,-0.035220366,0.022121815,0.020408845,0.066336989,0.012788979
1.76966E+18,6.041308105,-0.123702075,0.018313655,0.100672351,0.022581123,0.070278168,0.013682242
1.76966E+18,6.051296143,-0.168323307,0.011332126,0.143127272,0.020982428,0.075821005,0.01264574
1.76966E+18,6.0612854,-0.124311732,0.011526187,0.100960594,0.021446882,0.084798515,0.008801467
1.76966E+18,6.071273438,-0.012129706,0.005787351,0.028603286,0.021325443,0.090059057,0.007839267
1.76966E+18,6.08126123,0.08638386,-0.004566285,-0.033325127,0.023079729,0.090667099,0.009494916
1.76966E+18,6.091249512,0.071683426,-0.008868951,0.013701997,0.023380931,0.09060505,0.014926966
1.76966E+18,6.101238281,0.012256547,-0.010407412,0.067040204,0.020400167,0.072184995,0.02206514
1.76966E+18,6.111226318,0.015872107,-0.03681202,0.088310736,0.011253274,0.054803871,0.020783361
1.76966E+18,6.121214111,0.010012568,-0.036277182,0.072624361,0.004382963,0.044998072,0.015470193
1.76966E+18,6.131202393,0.003977379,-0.041806175,0.001412278,0.005345163,0.040716775,0.015123716
1.76966E+18,6.141191406,0.017959143,-0.022595863,-0.035339682,0.009677369,0.036777236,0.016390372
1.76966E+18,6.151179443,-0.012606384,0.019025603,-0.025097032,0.012703786,0.036531959,0.020270865
1.76966E+18,6.161167725,-0.037909752,0.013608839,0.053338426,0.013114291,0.035784371,0.014058081
1.76966E+18,6.171155273,-0.031375089,-0.010561726,0.106017365,0.010054319,0.033471417,0.006255285
1.76966E+18,6.181143311,-0.039311727,-0.03562544,0.08689612,0.001350696,0.030509571,-0.005880926
1.76966E+18,6.191132324,0.029064474,-0.049743397,0.010049466,-0.003572424,0.020405537,-0.014036324
1.76966E+18,6.201120605,0.070056702,-0.072420509,-0.074906188,-0.006042831,0.004530084,-0.015847659
1.76966E+18,6.211108398,0.125762515,-0.09982231,-0.125857573,-0.006256949,-0.006408317,-0.018928669
1.76966E+18,6.221096436,0.135913907,-0.075642978,-0.086511578,-0.007394619,-0.009735974,-0.020813683
1.76966E+18,6.231085205,0.10073095,-0.030894904,-0.018194559,-0.010748072,-0.006805165,-0.018200057
1.76966E+18,6.241073486,0.065396309,-0.015479309,-0.00889825,-0.018186485,-0.012324529,-0.016032016
1.76966E+18,6.251061279,0.093879768,-0.013958383,-0.064135641,-0.023875797,-0.044500574,-0.011410099
1.76966E+18,6.261049316,0.086641926,-0.028408348,-0.100877811,-0.029812178,-0.039779704,-0.006458171
1.76966E+18,6.271038574,0.056636956,-0.048047699,-0.108462201,-0.028090179,-0.042113964,0.003914841
1.76966E+18,6.281026611,0.039716217,-0.035312136,-0.087176618,-0.024263296,-0.04427512,0.010617885
1.76966E+18,6.291014404,0.011773732,-0.053020227,-0.036833574,-0.023499502,-0.038901661,0.010643984
1.76966E+18,6.301002441,-0.005448621,-0.091253804,-0.028088323,-0.024554832,-0.036469925,0.002677004
1.76966E+18,6.310990234,0.024637013,-0.128089204,-0.041421925,-0.022095935,-0.037780203,-0.008018518
1.76966E+18,6.320979492,0.009422493,-0.115688572,-0.030362916,-0.018029401,-0.037021428,-0.015505299
1.76966E+18,6.330967285,0.001631693,-0.059610127,-0.021072014,-0.013080715,-0.030160328,-0.018645167
1.76966E+18,6.340955322,-0.044445875,-0.043269233,0.008397315,-0.008264631,-0.024146259,-0.018581633
1.76966E+18,6.350943604,-0.04305939,-0.033796471,0.001515811,-0.0031479,-0.022135574,-0.017954458
1.76966E+18,6.360932373,0.008260171,-0.03368775,-0.023820801,-0.000237682,-0.011209577,-0.030898068
1.76966E+18,6.370920166,0.012803367,-0.020164252,-0.049542687,0.001752764,-0.002773482,-0.043182697
1.76966E+18,6.380908203,0.009302666,-0.008876549,-0.031407019,0.007909327,-0.01223284,-0.041513685
1.76966E+18,6.390896484,0.037427813,-0.016860534,-0.051388534,0.013454028,-0.009758498,-0.041021533
1.76966E+18,6.400885498,0.073561788,-0.028257542,-0.039675592,0.017223712,-0.001988154,-0.046381049
1.76966E+18,6.410873291,0.062086454,0.022137598,-0.033280704,0.01895823,-0.003565545,-0.035942256
1.76966E+18,6.420861328,0.0267372,-0.014784312,-0.025876273,0.018904423,0.003202765,-0.028569112
1.76966E+18,6.430849609,0.037481589,-0.003837386,-0.009433233,0.015992258,0.014400559,-0.023571691
1.76966E+18,6.440838379,0.019539105,0.005086509,-0.005495456,0.018251888,0.023593223,-0.016590443
1.76966E+18,6.450826172,0.003821896,0.037164486,-0.004491174,0.020040201,0.031243684,-0.013081728
1.76966E+18,6.460814453,0.008953706,0.059936875,-0.024499504,0.02440965,0.050952673,-0.011360793
1.76966E+18,6.47080249,0.008378829,0.060060793,-0.018271789,0.027071478,0.063145421,-0.01588284
1.76966E+18,6.480790527,0.028999008,0.019680852,-0.035476314,0.025601989,0.07129211,-0.014104858
1.76966E+18,6.490779297,0.015896657,-0.030129181,-0.022937954,0.024272539,0.0752232,-0.015118457
1.76966E+18,6.500767334,0.004338029,0.004722937,0.028824601,0.0221847,0.070709147,-0.014488753
1.76966E+18,6.510755371,-0.019527707,0.035287586,0.014814196,0.016985675,0.055240173,-0.01113317
1.76966E+18,6.520743408,-0.029399697,0.056722004,0.004735431,0.010342207,0.045191988,-0.010703725
1.76966E+18,6.530732178,-0.061821081,0.09068448,0.035330184,0.006938953,0.049532145,-0.012018527
1.76966E+18,6.540720459,-0.121349667,0.133453946,0.07385171,0.011691098,0.039420918,-0.001683865
1.76966E+18,6.550708496,-0.086233345,0.074590838,-0.005265592,0.012013873,0.043621786,0.000513776
1.76966E+18,6.560696533,-0.068872461,0.026685178,0.008297873,0.009066924,0.039973222,-0.00288572
1.76966E+18,6.570685303,-0.016824001,0.015649989,-0.012129633,0.002791984,0.026879791,-0.004269499
1.76966E+18,6.58067334,0.002798691,-0.015922376,-0.030554494,-0.002764172,0.024743287,-0.004203995
1.76966E+18,6.590661377,0.020910394,0.019944471,-0.055006067,-0.005982602,0.019197786,0.003751933
1.76966E+18,6.600649414,0.040970016,0.037565468,-0.063071592,-0.011462538,0.012258844,0.016284645
1.76966E+18,6.610638672,0.064999126,-0.003940262,-0.008057415,-0.0191628,-0.001517421,0.025853649
1.76966E+18,6.620626465,0.069353522,-0.037451487,0.029279359,-0.025396708,-0.016905736,0.032518648
1.76966E+18,6.630614258,0.040798459,-0.048372694,0.034502208,-0.033624545,-0.020579834,0.03366993
1.76966E+18,6.640602295,-0.01509557,-0.025120997,0.024680341,-0.033221401,-0.020463759,0.035690777
1.76966E+18,6.650590088,-0.069872285,-0.01720131,-0.052191156,-0.034626219,-0.019538311,0.033360243
1.76966E+18,6.660579346,-0.103371235,-0.033135377,-0.07885193,-0.03473369,-0.018258585,0.029002436
1.76966E+18,6.670567383,-0.069755673,-0.074978376,-0.091425507,-0.032126989,-0.017583741,0.020811884
1.76966E+18,6.68055542,-0.037727089,-0.036316345,-0.073138155,-0.027407577,-0.014793431,0.014832443
1.76966E+18,6.690543457,-0.047754269,-0.022534488,-0.044142874,-0.023853322,-0.011061544,0.009460847
1.76966E+18,6.700532227,-0.030734453,-0.04371347,-0.025296427,-0.025073636,-0.012097437,0.005233468
1.76966E+18,6.710520264,0.012423721,-0.054692544,-0.034042336,-0.02523822,-0.012911032,0.004588451
1.76966E+18,6.720508301,0.068244392,-0.064255322,-0.067638316,-0.026443433,-0.013111912,0.000224869
1.76966E+18,6.730496338,0.096336514,-0.058214873,-0.075750311,-0.020203382,-0.021231625,-0.000151169
1.76966E+18,6.740485352,0.073445468,-0.042459086,-0.043605187,-0.017952528,-0.029409582,0.001478542
1.76966E+18,6.750473389,0.016115853,-0.019544074,-0.019156974,-0.010515917,-0.030124376,-0.001373437
1.76966E+18,6.760461426,-0.013857553,-0.026468905,-0.012268384,-0.010618356,-0.024697652,-0.002304543
1.76966E+18,6.770449219,-0.024308804,-0.05971008,-0.0273896,-0.008583435,-0.021083476,-0.002937843
1.76966E+18,6.780437256,0.045373804,-0.049018006,-0.055395432,-0.00740643,-0.012089676,-0.003158191
1.76966E+18,6.79042627,0.055741176,-0.041877486,-0.071116952,-0.003216479,-0.000935292,0.002597966
1.76966E+18,6.800414307,0.109674719,-0.05785247,-0.059717021,-0.001555527,0.003994714,0.005192989
1.76966E+18,6.810402344,0.125109896,-0.069017422,-0.062890171,-0.000251643,0.005285015,0.001396386
1.76966E+18,6.820390381,0.10266864,-0.05426409,-0.066911244,-0.001261625,0.003169173,-0.003355331
1.76966E+18,6.83037915,0.057777358,-0.039505496,-0.07336115,-0.000470667,0.004963344,-0.000945969
1.76966E+18,6.840367188,0.035765725,0.01172434,-0.071890932,0.00463117,0.010476847,-0.000776954
1.76966E+18,6.850355225,0.007722995,0.01078326,-0.032058468,0.01345875,0.020963842,-0.002451816
1.76966E+18,6.860343262,0.01163637,-0.009442367,-0.017031433,0.02049941,0.02987615,-0.006868973
1.76966E+18,6.87033252,0.04845891,-0.030465865,-0.000158332,0.02006425,0.030920908,-0.013014751
1.76966E+18,6.880320313,0.046951721,-0.038980596,-0.012674992,0.018246694,0.030918967,-0.016247684
1.76966E+18,6.89030835,0.02820172,-0.061779288,-0.032109833,0.014706021,0.033743784,-0.010645194
1.76966E+18,6.900296143,0.027030923,-0.03963526,-0.015486981,0.018486153,0.037992403,0.002143364
1.76966E+18,6.9102854,0.068607965,-0.025907179,-0.020855449,0.019406542,0.041828685,0.010509153
1.76966E+18,6.920273193,0.025843174,-0.055560559,-0.001747501,0.024107175,0.040375698,0.016531253
1.76966E+18,6.93026123,0.002879063,-0.033130701,0.017781448,0.025878444,0.036683228,0.013880344
1.76966E+18,6.940249268,-0.037014264,-0.020194647,0.011101021,0.0231578,0.029575707,0.011171979
1.76966E+18,6.950237549,-0.048774845,-0.077277885,-0.013210414,0.018245598,0.024824895,0.00248821
1.76966E+18,6.960226318,0.005826222,-0.090093528,-0.055539005,0.019018201,0.017548187,-0.003212395
1.76966E+18,6.970214111,0.020804888,-0.032391281,-0.051741951,0.019701835,0.011872457,-0.007491562
1.76966E+18,6.980202148,0.017260639,0.025993104,-0.051208721,0.021388516,0.010151104,-0.005170332
1.76966E+18,6.99019043,-0.045554421,0.044158291,-0.005087021,0.020582646,0.028777253,0.006751042
1.76966E+18,7.000179443,0.000346329,0.02941548,0.003843231,0.016682865,0.016280942,0.006720577
1.76966E+18,7.010167236,0.094402331,0.019854455,0.008654504,0.011749892,0.005747074,0.008288647
1.76966E+18,7.020155273,0.108664081,-0.011890344,-0.004352788,0.006766945,0.00313558,0.012682263
1.76966E+18,7.030143555,0.098784492,-0.016525603,-0.021423531,0.002299227,-0.003366261,0.014099064
1.76966E+18,7.040132324,0.072455872,0.019095161,0.018449191,0.004481911,-0.004649716,0.014146146
1.76966E+18,7.050120117,0.006523849,0.028119595,0.047239525,0.003548473,-0.006036159,0.011379655
1.76966E+18,7.060108398,-0.021408991,0.027034137,0.034705768,0.001020784,-0.010423337,0.009642359
1.76966E+18,7.070096436,-7.30652E-06,0.027169746,0.001902619,-0.001936124,-0.016597342,0.007910771
1.76966E+18,7.080085449,0.013123978,-0.013055881,-0.038742038,-0.01242783,-0.025924379,0.004130796
1.76966E+18,7.090072998,0.057257718,-0.04436755,-0.031556583,-0.015450251,-0.035823613,0.003900699
1.76966E+18,7.100061279,0.074958503,-0.025336101,-0.025818186,-0.018495629,-0.039069664,0.005939739
1.76966E+18,7.110049316,0.063757017,0.002765958,0.020996903,-0.019327067,-0.042288627,0.009348852
1.76966E+18,7.120037109,0.029172611,-0.035893736,0.030095352,-0.021946205,-0.038958345,0.011620391
1.76966E+18,7.130026123,0.0093316,-0.044487377,-0.002286211,-0.019876394,-0.037261114,0.014676103
1.76966E+18,7.140014404,-0.007026245,-0.034056583,-0.055801236,-0.018291628,-0.02832263,0.019331187
1.76966E+18,7.150002441,0.003531389,-0.028715222,-0.099485845,-0.015550702,-0.02629916,0.016411033
1.76966E+18,7.159990234,0.014171441,-0.026641339,-0.06690138,-0.013482515,-0.033854779,0.013310147
1.76966E+18,7.169979248,-0.055226797,-0.017769465,-0.006615253,-0.012675577,-0.027014982,0.013730928
1.76966E+18,7.179967285,-0.072156889,0.016718495,0.029811347,-0.009567576,-0.024344098,0.011496471
1.76966E+18,7.189955322,-0.025070436,0.00626549,0.035978637,-0.008592593,-0.012080241,0.001298428
1.76966E+18,7.199943115,-0.06099106,-0.014233693,0.040104266,-0.009608168,-0.001928499,-0.000958172
1.76966E+18,7.209932373,-0.000893149,-0.016312837,-0.001573314,-0.004751894,-0.022640169,-0.002309993
1.76966E+18,7.21992041,0.045868894,0.009221417,-0.039075069,0.000646969,-0.015610375,0.002863217
1.76966E+18,7.229908203,0.042852469,-0.000114566,-0.017042393,0.003521585,-0.010656362,0.001106063
1.76966E+18,7.23989624,0.043787704,-0.039656303,0.00748093,0.005676952,-0.011284717,-0.003993845
1.76966E+18,7.249885254,0.02216244,-0.034654549,0.058677668,0.004769081,-0.005820177,-0.007290838
1.76966E+18,7.259873291,-0.014977789,-0.056847676,0.019935996,0.007719177,-0.005206622,-0.007788213
1.76966E+18,7.269861328,-0.014515724,-0.052046998,-0.026759047,0.007893348,-0.001298433,-0.00733441
1.76966E+18,7.279849365,-0.009665654,-0.061079615,-0.045297085,0.007468861,0.005204322,-0.012441665
1.76966E+18,7.289837402,0.028015842,-0.088086864,-0.056123454,0.00880337,0.00810051,-0.015302432
1.76966E+18,7.299826172,0.01871493,-0.068738605,-0.032836248,0.00887117,0.007056057,-0.013541123
1.76966E+18,7.309814209,0.046525604,-0.042671852,0.020246012,0.009376105,0.001392578,-0.007178033
1.76966E+18,7.319802246,0.038110535,0.017027123,0.021703298,0.010626408,0.002500263,0.005719515
1.76966E+18,7.329790283,0.02892302,0.057111296,0.023596126,0.010721216,0.010633556,0.017752741
1.76966E+18,7.339779297,0.062664838,0.03479425,0.015765213,0.010315892,0.007214171,0.020651676
1.76966E+18,7.349767334,0.077503803,0.004323708,0.005726707,0.005305155,0.000528838,0.013756754
1.76966E+18,7.359755371,0.041382104,-0.03945815,0.009982319,0.004749963,-0.011591166,0.012509089
1.76966E+18,7.369743164,-0.02383125,-0.018168109,-0.019874913,0.006161438,-0.011882249,0.01569929
1.76966E+18,7.379732178,-0.023084231,0.046214639,0.004447262,0.00925817,-0.002439633,0.019905573
1.76966E+18,7.389720215,-0.015283202,0.047683542,0.0238265,0.009874958,0.001820626,0.020514904
1.76966E+18,7.399708496,0.037615737,0.022416414,0.021969621,0.007715387,-0.000959718,0.009044336
1.76966E+18,7.409696289,0.023174832,-0.020969138,-0.008229703,0.004885778,-0.005469515,0.000687869
1.76966E+18,7.419684326,-0.010676292,-0.019369302,-0.030190702,0.006195216,-0.005439342,-0.008227671
1.76966E+18,7.429673096,-0.040194063,-0.013990531,-0.079182842,0.009177158,-0.001803062,-0.010997358
1.76966E+18,7.439661377,-0.045827977,-0.027623335,-0.106484106,0.016476111,0.025153261,-0.011349437
1.76966E+18,7.44964917,-0.018787118,-0.05124971,-0.091476872,0.022053836,0.041567922,-0.007562156
1.76966E+18,7.459637207,0.040854865,-0.058880644,-0.098251627,0.027593192,0.039533306,-0.008853161
1.76966E+18,7.469626465,0.040791737,-0.047183191,-0.059223831,0.026454158,0.036552165,-0.006652591
1.76966E+18,7.479614502,0.02591244,-0.019827567,-0.047917351,0.022069333,0.029426493,-0.004005628
1.76966E+18,7.489602295,0.031533202,-0.01255553,-0.067070453,0.022458421,0.029084276,-0.000553638
1.76966E+18,7.499590088,0.006627309,-0.064824062,-0.050424,0.020975307,0.031438779,0.000765692
1.76966E+18,7.509579346,0.014209435,-0.050016369,-0.026888518,0.019352909,0.022976052,-0.000578672
1.76966E+18,7.519567383,0.003243804,-0.038901101,0.012881109,0.012345395,0.013451027,-0.004894097
1.76966E+18,7.529555176,-0.008506255,-0.071152681,0.032143589,0.005266979,-0.003346595,-0.012215659
1.76966E+18,7.539543213,0.051157648,-0.075338442,0.014823037,-0.003162918,-0.012776162,-0.009844069
1.76966E+18,7.549532227,0.052981941,-0.052440381,0.002690335,-0.001753041,0.00407925,0.001727632
1.76966E+18,7.559520264,0.057797817,-0.049695467,-0.021951354,0.002467333,0.020983703,0.012303269
1.76966E+18,7.569508057,0.085886139,-0.067433368,-0.033588601,0.003127264,0.01730508,0.010804975
1.76966E+18,7.579496094,0.101060328,-0.052867082,-0.011821955,-0.001331779,0.009843626,0.002926428
1.76966E+18,7.589484375,0.05276859,-0.054283963,0.017500074,-0.009525793,-0.00770128,-0.001028632
1.76966E+18,7.599473389,0.021742753,-0.032650808,-0.003018836,-0.014411618,-0.022287566,-0.008846255
1.76966E+18,7.609461182,-0.000631576,0.029884851,-0.033270913,-0.017226847,-0.028960116,-0.011533651
1.76966E+18,7.619449463,-0.028053836,0.054124973,-0.01772833,-0.01318804,-0.0340291,-0.009835163
1.76966E+18,7.6294375,-0.028203473,0.059817048,-0.006121625,-0.010928349,-0.014758202,-0.003724274
1.76966E+18,7.63942627,-0.064215575,0.05980828,0.024136809,-0.01605434,0.055339698,0.003566889
1.76966E+18,7.649414307,-0.063736559,0.041962242,0.034930371,-0.016684443,0.060266811,0.004006577
1.76966E+18,7.659402344,0.146331548,0.007234043,0.03918927,-0.014066188,0.013990241,0.017398834
1.76966E+18,7.669390381,0.168024032,-0.019466917,0.012111732,-0.014685106,0.001727183,0.013875472
1.76966E+18,7.679379395,0.093485216,0.010199322,0.050612143,-0.019380143,-0.015008269,0.003785372
1.76966E+18,7.689367188,0.002186404,0.000772738,0.054241951,-0.025034565,-0.048729215,0.002413578
1.76966E+18,7.699355225,-0.09198884,0.013843232,0.032912893,-0.024829846,-0.053065948,-0.001115669
1.76966E+18,7.709343262,-0.120510878,0.025634792,-0.017090762,-0.021634851,-0.026853519,-0.010519558
1.76966E+18,7.719332275,-0.150194361,0.055329673,-0.075520009,-0.013183175,0.000304523,-0.014188588
1.76966E+18,7.729320557,-0.125457687,0.066949384,-0.134597709,-0.000851674,0.019236403,-0.02191362
1.76966E+18,7.73930835,-0.078484046,0.05974632,-0.152048903,0.007689474,0.042663127,-0.022052728
1.76966E+18,7.749296387,-0.020584523,0.029937458,-0.113438821,0.01235187,0.055629261,-0.017110169
1.76966E+18,7.759285156,0.078689798,-0.032583588,-0.044268838,0.012192081,0.046496216,-0.00932122
1.76966E+18,7.769273438,0.136680799,-0.079278119,0.039876522,0.008241281,0.032048035,-0.001875555
1.76966E+18,7.779261475,0.147846629,-0.065440733,0.13192586,-0.000469181,0.014298828,0.00429982
1.76966E+18,7.789249268,0.074795129,-0.031959903,0.124002081,-0.006578472,0.001951082,0.008316666
1.76966E+18,7.799237305,0.014789573,0.021367782,0.04996347,-0.010119205,-0.001333165,0.011833941
1.76966E+18,7.809226563,-0.022711014,0.024980712,-0.030062911,-0.003828286,0.009231328,0.008981961
1.76966E+18,7.819214355,-0.054693421,0.01306348,-0.05184468,0.001625757,0.021836642,0.006444662
1.76966E+18,7.829202148,-0.06553221,-0.0159668,-0.065418082,0.007212536,0.029886313,0.002384939
1.76966E+18,7.839190186,-0.049056876,-0.04596271,-0.064014061,0.01213721,0.033077233,-0.000569627
1.76966E+18,7.849179443,-0.019095746,-0.04963643,-0.057072498,0.011244785,0.03175151,0.000301759
1.76966E+18,7.85916748,0.016221651,-0.039856794,-0.028738092,0.009045812,0.028611379,0.007341825
1.76966E+18,7.869155273,0.049039048,-0.039741643,-0.021232904,0.007648985,0.018353948,0.009334669
1.76966E+18,7.879143311,0.072259473,-0.071316931,0.01403817,0.003037442,0.00481763,0.008211279
1.76966E+18,7.889132324,0.035616965,-0.087795188,0.049757572,-0.002998612,-0.014769122,-0.001145737
1.76966E+18,7.899120361,-0.019381577,-0.078798811,0.045660439,-0.008197511,-0.028273247,-0.012038159
1.76966E+18,7.909108154,-0.090775957,-0.059883683,0.008713468,-0.012272947,-0.028725719,-0.01446776
1.76966E+18,7.919096436,-0.052578621,-0.034203883,-0.02832878,-0.012015512,-0.029824808,-0.013351562
1.76966E+18,7.929085449,0.012593232,-0.036072015,-0.062383756,-0.013886116,-0.035970852,-0.013023994
1.76966E+18,7.939073486,0.054795128,-0.063244684,-0.059476491,-0.016028928,-0.047868218,-0.013230097
1.76966E+18,7.949061279,0.060805766,-0.055907765,-0.068361808,-0.021644467,-0.060151782,-0.010182641
1.76966E+18,7.959049316,0.07838234,-0.024502573,-0.061173796,-0.025065981,-0.068170711,-0.013291528
1.76966E+18,7.969037354,0.04696195,-0.023988194,-0.060414283,-0.027113153,-0.065129913,-0.016348837
1.76966E+18,7.979026367,-0.01565525,-0.034198622,-0.0409527,-0.028785875,-0.053381797,-0.016884312
1.76966E+18,7.98901416,-0.01089578,-0.018327684,-0.073358374,-0.030276181,-0.041746181,-0.024243426
1.76966E+18,7.999002441,-0.03112696,0.003605331,-0.061892977,-0.029955681,-0.040254466,-0.021661833
1.76966E+18,8.008990479,-0.010170389,0.028508886,-0.027352848,-0.025222711,-0.056549817,-0.018550729
1.76966E+18,8.018979248,0.008837679,0.042626259,0.01699059,-0.02698398,-0.058623165,-0.019809794
1.76966E+18,8.028967529,0.041255263,-0.01615677,0.005885039,-0.029487086,-0.055610865,-0.024487905
1.76966E+18,8.038955322,0.067306234,-0.032169162,-0.039775034,-0.033373713,-0.060594019,-0.028211357
1.76966E+18,8.048943359,0.109426005,-0.006793898,-0.051520928,-0.035405438,-0.063476622,-0.030752545
1.76966E+18,8.058932373,0.086546649,0.030711949,-0.050092138,-0.040865596,-0.061939903,-0.033683427
1.76966E+18,8.068920654,0.079763857,0.031325697,-0.039006534,-0.036520917,-0.050595902,-0.043039113
1.76966E+18,8.078908447,0.02145546,-0.026576457,-0.012265242,-0.033427857,-0.058528624,-0.032589972
1.76966E+18,8.08889624,-0.059556059,0.014504326,-0.018017741,-0.031604659,-0.065491721,-0.021778069
1.76966E+18,8.098885498,-0.039495852,0.054497314,-0.008095482,-0.02964312,-0.061051361,-0.020382918
1.76966E+18,8.108873535,-0.023101474,0.006994973,-0.004445727,-0.026228948,-0.055429161,-0.019377574
1.76966E+18,8.118861328,-0.015828853,-0.032072132,-0.013804507,-0.02205362,-0.04687364,-0.024469918
1.76966E+18,8.128849365,-0.007379881,-0.06173311,-0.049191097,-0.018565679,-0.038530223,-0.022738066
1.76966E+18,8.138837402,0.005106675,-0.051226329,-0.064877984,-0.015734317,-0.03287949,-0.027215209
1.76966E+18,8.148826416,0.007487725,-0.054299745,-0.076433836,-0.012677275,-0.023499303,-0.024622887
1.76966E+18,8.158814209,0.000563187,-0.061895023,-0.093384094,-0.005098381,-0.016316872,-0.021775123
1.76966E+18,8.168802246,-0.01638181,-0.02320435,-0.068078461,-0.001147049,-0.010108779,-0.020337015
1.76966E+18,8.178790283,-0.016310207,0.009418986,-0.045991424,0.003740834,-0.003322931,-0.015442508
1.76966E+18,8.188779541,-0.017086159,0.045120414,-0.003278583,0.008769948,0.002901143,-0.012315424
1.76966E+18,8.198767334,-0.021919863,0.034936289,0.001233195,0.009716921,0.004821515,-0.008305398
1.76966E+18,8.208755371,-0.0166881,0.037192543,-0.021997824,0.012930823,0.008021569,-0.004349804
1.76966E+18,8.218743652,0.01270283,0.008474983,-0.053597442,0.013112857,0.009782485,0.000711896
1.76966E+18,8.228732422,0.028591596,-0.021611528,-0.046369537,0.013787435,0.011991311,0.004874417
1.76966E+18,8.238720215,0.074492639,-0.040480479,-0.018479733,0.012334036,0.010116749,0.00985469
1.76966E+18,8.248708252,0.092002576,-0.043027825,0.031745603,0.00964957,0.002299307,0.01150878
1.76966E+18,8.258696533,0.075706398,-0.022058687,0.063888608,0.002341169,-0.013507658,0.013850601
1.76966E+18,8.268685547,0.052950669,-0.013678981,0.081961221,-0.00634766,-0.032081608,0.017292205
1.76966E+18,8.278673096,0.00801701,-0.015952771,0.069961717,-0.012432641,-0.044477783,0.020059789
1.76966E+18,8.288661133,-0.004561609,-0.016205285,0.049338251,-0.019606665,-0.04940756,0.026927814
1.76966E+18,8.298649414,0.022982232,-0.05956395,0.034919703,-0.021654617,-0.048317302,0.028574087
1.76966E+18,8.308637451,0.068534315,-0.073764324,0.016354119,-0.023368895,-0.051884338,0.028056635
1.76966E+18,8.318626221,0.094738139,-0.070659344,0.026338556,-0.029009787,-0.061603472,0.032640591
1.76966E+18,8.328614502,0.067160104,-0.077188454,0.030762583,-0.034752361,-0.056072086,0.030130561
1.76966E+18,8.338602539,0.069339494,-0.063542206,0.033187253,-0.041974742,-0.075609334,0.029827334
1.76966E+18,8.348590576,0.045722179,-0.037321138,0.045699237,-0.050115228,-0.094623238,0.033847906
1.76966E+18,8.358579102,0.016375965,-0.027439211,0.0421045,-0.057534151,-0.102212496,0.034567066
1.76966E+18,8.368567383,0.022289865,-0.043507133,0.046306336,-0.061963253,-0.111739419,0.034081038
1.76966E+18,8.37855542,0.038317456,-0.042281975,0.036009544,-0.065937087,-0.118875541,0.032065015
1.76966E+18,8.388543457,0.012485095,-0.079166476,0.018797566,-0.065967448,-0.131930366,0.030488158
1.76966E+18,8.398532471,0.043475277,-0.085068393,0.002988514,-0.067980565,-0.133890688,0.024728568
1.76966E+18,8.408520508,0.028539574,-0.068218965,0.020753011,-0.071992084,-0.13517113,0.020921314
1.76966E+18,8.418508301,0.01998948,-0.04354162,0.022869054,-0.077230111,-0.138041288,0.021178119
1.76966E+18,8.428496338,-0.010166881,-0.034352936,0.003915639,-0.080328695,-0.147400171,0.027836286
1.76966E+18,8.438485596,0.012355331,-0.083669048,-0.045989598,-0.084838353,-0.155695558,0.032848876
1.76966E+18,8.448473389,0.048887073,-0.059011576,-0.088379929,-0.084865518,-0.155624717,0.035497122
1.76966E+18,8.458461426,0.021457506,-0.005170096,-0.078556892,-0.080272436,-0.146832243,0.042097297
1.76966E+18,8.468449463,0.005346037,0.078663202,-0.080198887,-0.073797755,-0.137668312,0.043318089
1.76966E+18,8.478438477,-0.037739948,0.101451957,-0.069967562,-0.066858821,-0.120996445,0.035755184
1.76966E+18,8.48842627,-0.088814886,0.052334583,-0.031369682,-0.064269967,-0.106922969,0.025896693
1.76966E+18,8.498414307,-0.085374975,0.01926175,-0.049643152,-0.059325155,-0.090891473,0.010230308
1.76966E+18,8.508402344,-0.092964699,0.052318216,-0.061184317,-0.053054743,-0.066040985,0.001455992
1.76966E+18,8.518390381,-0.083930621,0.061298811,-0.079534651,-0.046170142,-0.04725527,-0.004098334
1.76966E+18,8.528379395,-0.040611704,0.036988545,-0.067396031,-0.042123735,-0.039155267,-0.008284823
1.76966E+18,8.538367432,-0.019657763,0.044483285,-0.036496305,-0.038948815,-0.024572177,-0.007323974
1.76966E+18,8.548355225,-0.022240181,0.062042322,-0.010238632,-0.037709381,-0.023269892,-0.004331113
1.76966E+18,8.558343262,0.013858722,0.024691958,0.00611388,-0.040780909,-0.027318543,-0.000369147
1.76966E+18,8.568332275,0.011245324,-0.010820669,0.025845439,-0.044843294,-0.032319427,0.007107145
1.76966E+18,8.578320313,0.011033727,-0.005212766,0.030602059,-0.050062548,-0.02916267,0.017490629
1.76966E+18,8.588308594,0.057384267,-0.018361002,0.007410495,-0.054923348,-0.031407185,0.022902971
1.76966E+18,8.598296387,0.089533556,-0.020247838,-0.009887845,-0.054693356,-0.04114994,0.024121616
1.76966E+18,8.608285156,0.065757544,-0.004960253,-0.026318683,-0.052165482,-0.043857843,0.026175443
1.76966E+18,8.618273193,0.018743279,0.019691373,-0.005438246,-0.050419278,-0.041158799,0.021992959
1.76966E+18,8.628261475,0.017601415,-0.003574351,-0.02070793,-0.050639253,-0.053745165,0.020045921
1.76966E+18,8.638249268,-0.004246552,-0.029494975,0.003791647,-0.053917766,-0.061208293,0.022359163
1.76966E+18,8.648238281,-0.007182897,-0.011710312,0.019780951,-0.054442409,-0.062085271,0.026641259
1.76966E+18,8.658226318,0.010473463,-0.012320552,0.009294556,-0.051902793,-0.067605667,0.029247154
1.76966E+18,8.6682146,0.011936229,-0.015728315,0.017732421,-0.048450269,-0.070304245,0.026674541
1.76966E+18,8.678202393,-0.068435531,-0.025869185,-0.01115107,-0.039488014,-0.06516701,0.024364645
1.76966E+18,8.688191162,-0.106865507,-0.024526538,-0.057535366,-0.027202584,-0.04512246,0.015847057
1.76966E+18,8.698179443,-0.094982761,-0.024721184,-0.086010862,-0.016673544,-0.020653032,0.003933437
1.76966E+18,8.70816748,-0.075870649,-0.057639119,-0.081653178,-0.013718501,-0.00689461,-0.005511198
1.76966E+18,8.718155518,-0.059293024,-0.085647654,-0.092391649,-0.013340187,-0.002861593,-0.012296591
1.76966E+18,8.728143311,-0.00937427,-0.090450671,-0.079336425,-0.013967361,-0.003324183,-0.007466681
1.76966E+18,8.738132324,0.069929569,-0.069798343,-0.085189901,-0.014050433,-0.010572017,-0.005876869
1.76966E+18,8.748120361,0.118177467,-0.053892918,-0.049282575,-0.012225369,-0.018440593,-0.000292486
1.76966E+18,8.758108398,0.102537122,-0.03179273,-0.024940599,-0.008997178,-0.021012407,-0.002575016
1.76966E+18,8.768096191,0.090698216,0.004127894,-0.050699967,-0.002864184,-0.016347881,-0.005056283
1.76966E+18,8.778085938,0.06597557,0.027607553,-0.039433966,-0.000580836,-0.005659849,-0.006309465
1.76966E+18,8.788073975,0.035324119,0.054617141,-0.014173414,0.00380619,0.008001368,-0.006461531
1.76966E+18,8.798062012,0.033817222,0.027604046,-0.003662395,0.004679183,0.015859669,-0.004145825
1.76966E+18,8.808049561,0.060618719,-0.018648586,0.010067001,0.002383537,0.021028865,-0.000681053
1.76966E+18,8.818038818,0.087982527,-0.041314592,0.033227951,0.002704569,0.022148265,-0.001225211
1.76966E+18,8.828026855,0.088768125,-0.025477556,0.020644071,0.007979758,0.026894018,-0.001619359
1.76966E+18,8.838014893,0.032283144,0.005840543,-0.025651816,0.011463715,0.041511692,-0.008285698
1.76966E+18,8.84800293,-0.059712126,0.036385319,-0.053406011,0.014343924,0.055645086,-0.011267906
1.76966E+18,8.857991699,-0.055442193,-0.001709142,-0.080479312,0.018510602,0.073029287,-0.018232092
1.76966E+18,8.867979736,-0.017027999,-0.061539634,-0.101020361,0.020245917,0.085035354,-0.025172822
1.76966E+18,8.877967773,0.017285189,-0.05279694,-0.100787283,0.021968484,0.08843191,-0.026364613
1.76966E+18,8.887955811,0.032908582,-0.013611761,-0.085314404,0.024131769,0.08715599,-0.028569978
1.76966E+18,8.897943848,0.036783378,0.015753449,-0.055179816,0.022949141,0.075821579,-0.02885001
1.76966E+18,8.907932861,0.004938918,0.030404491,-0.01084668,0.021045512,0.063542537,-0.026223335
1.76966E+18,8.917921143,-0.022179099,0.016974516,0.021451734,0.018280959,0.058495358,-0.028023072
1.76966E+18,8.927908936,-0.013296704,-0.012958266,-0.003424568,0.016556829,0.058938775,-0.027502157
1.76966E+18,8.937896973,-0.009400573,-0.042750762,-0.051571124,0.012599784,0.063508153,-0.027729783
1.76966E+18,8.947885742,0.028048867,-0.048942018,-0.118334776,0.010985376,0.064147845,-0.024879403
1.76966E+18,8.957874023,0.040429333,-0.035960371,-0.090854722,0.013996768,0.057938457,-0.019792339
1.76966E+18,8.967861816,-0.020098493,0.007214169,-0.034053953,0.01806448,0.057212211,-0.013797029
1.76966E+18,8.977849854,-0.034352351,0.017176176,0.022929771,0.015934991,0.055732436,-0.01713039
1.76966E+18,8.987838867,-0.048224225,-0.035287002,0.051137336,0.012418019,0.06061694,-0.023302
1.76966E+18,8.997826904,-0.050049102,-0.050168345,0.019030571,0.011328795,0.062331863,-0.030340113
1.76966E+18,9.007814941,-0.048582829,-0.021734277,-0.002091273,0.011075262,0.063651197,-0.033985715
1.76966E+18,9.017802734,-0.075083298,-0.007464345,-0.014652502,0.013104565,0.068367586,-0.031792328
1.76966E+18,9.027791992,-0.090840255,-0.024749826,-0.040738472,0.016273992,0.069511943,-0.033370517
1.76966E+18,9.037780029,-0.097303605,-0.049009238,-0.030233956,0.016241264,0.074708372,-0.033511408
1.76966E+18,9.047768066,-0.074049863,-0.017789924,-0.006645722,0.016041793,0.081474133,-0.032013379
1.76966E+18,9.057755859,-0.055285542,-0.027386604,-0.030530236,0.017305478,0.078561977,-0.029108075
1.76966E+18,9.067743896,-0.002976093,-0.01445698,-0.045115153,0.014371742,0.075811997,-0.027783154
1.76966E+18,9.07773291,-0.002589724,-0.001617372,-0.035251858,0.013912997,0.072357684,-0.017545503
1.76966E+18,9.087720947,-0.008348434,0.018658523,-0.022320626,0.014122854,0.068455353,-0.007863313
1.76966E+18,9.09770874,0.000480477,0.008180968,0.016124329,0.013401544,0.064910986,0.001569966
1.76966E+18,9.107696777,-0.026918402,0.024743981,0.050466159,0.011162357,0.057780635,0.010451875
1.76966E+18,9.117686035,-0.040559682,0.020637714,0.076377941,0.007365531,0.049794961,0.011233571
1.76966E+18,9.127673828,-0.042029462,0.018837387,0.102248734,0.001109499,0.040391073,0.012113745
1.76966E+18,9.137661621,-0.060817165,-0.017167992,0.084001641,-0.00423342,0.028561734,0.015885357
1.76966E+18,9.147649902,-0.025567864,-0.039905894,0.017522505,-0.005175913,0.012886634,0.015255253
1.76966E+18,9.157638916,0.025626901,0.013221301,0.006276304,-0.003303952,0.003545401,0.01664675
1.76966E+18,9.167626953,0.00205401,0.054407297,0.024716654,-0.003750831,0.001714744,0.020623114
1.76966E+18,9.177614746,-0.029463118,0.06203297,0.047946577,-0.002778957,0.005724557,0.021829905
1.76966E+18,9.187603027,-0.043633682,0.025891982,0.056465472,-0.005054362,0.01452657,0.025258191
1.76966E+18,9.197591797,-0.052926119,-0.041944122,0.032130438,-0.005475382,0.016983673,0.025929568
1.76966E+18,9.207579834,-0.001824001,-0.030745267,0.007175372,-0.003968832,0.018431634,0.023854433
1.76966E+18,9.217567627,-0.014354689,0.003962474,-0.026627749,-0.002821945,0.016768459,0.02505968
1.76966E+18,9.227555908,-0.076422438,0.051265492,-0.033636166,0.001304357,0.01872162,0.025587518
1.76966E+18,9.237544922,-0.088077512,0.072045246,-0.028139687,0.007976581,0.026535032,0.026009666
1.76966E+18,9.247532959,-0.05945289,0.058151745,-0.015364158,0.015168182,0.040469758,0.019130986
1.76966E+18,9.257520996,-0.055988137,0.053348144,0.005112959,0.023620658,0.053843383,0.01450358
1.76966E+18,9.267508789,-0.022377544,-7.36498E-05,0.013247312,0.025772491,0.059686359,0.010620158
1.76966E+18,9.277497803,0.027602293,-0.054462827,0.039833267,0.023306465,0.058709551,0.010643557
1.76966E+18,9.28748584,0.090778295,-0.086075524,0.025797581,0.018823033,0.044782016,0.008962303
1.76966E+18,9.297473877,0.103257545,-0.069597852,-0.014271906,0.014786729,0.035084687,0.005214795
1.76966E+18,9.307461914,0.033484629,-0.020609073,-0.031891587,0.017534312,0.039499409,0.003298918
1.76966E+18,9.317449951,-0.045987844,0.032762452,-0.043905485,0.019765545,0.050992198,0.000962604
1.76966E+18,9.327438965,-0.086278938,-0.022364392,-0.010860563,0.023575729,0.06604439,-0.00785965
1.76966E+18,9.337426758,-0.071145959,-0.062659578,0.006819763,0.023070388,0.074277513,-0.015713673
1.76966E+18,9.347414795,-0.025997488,-0.116692196,0.005009353,0.020309756,0.06816902,-0.018491084
1.76966E+18,9.357402832,0.027890754,-0.133158178,-0.018852585,0.016167924,0.049973086,-0.021898713
1.76966E+18,9.36739209,0.059990651,-0.102819154,0.000531111,0.013991588,0.035908401,-0.023956005
1.76966E+18,9.377379883,0.042237259,-0.064513681,0.000707783,0.012257748,0.023796801,-0.026809772
1.76966E+18,9.38736792,0.030825639,-0.06282792,-0.001279957,0.006946606,0.012510857,-0.028656939
1.76966E+18,9.397355713,0.00703326,-0.052116556,0.017364538,0.005499178,0.007987479,-0.034981683
1.76966E+18,9.407344971,-0.019845687,-0.001802081,0.053329878,0.004673066,0.003284336,-0.035092205
1.76966E+18,9.417332764,-0.042046998,0.002715104,0.039684214,0.004988109,-0.003738798,-0.035187364
1.76966E+18,9.427320801,0.008275953,-0.051691609,0.010315204,0.00040108,-0.008879232,-0.033812374
1.76966E+18,9.437308838,0.034969022,-0.096914314,-0.021020138,-0.000456019,-0.017707879,-0.036624338
1.76966E+18,9.447297852,0.034221126,-0.116917822,-0.012799787,-0.00584679,-0.020960931,-0.039721861
1.76966E+18,9.457285889,0.010953648,-0.065773326,0.000924202,-0.005910018,-0.020446368,-0.041972335
1.76966E+18,9.467273682,-0.012186989,-0.037696986,-0.029892596,-0.005936384,-0.021009894,-0.04784514
1.76966E+18,9.477261719,-0.015070143,-0.004516601,-0.027453897,-0.007039867,-0.023446765,-0.053585574
1.76966E+18,9.487250977,-0.027831133,0.002458499,-0.049659007,-0.006131995,-0.027036706,-0.05373418
1.76966E+18,9.497239014,-0.00382628,0.007792846,-0.061882602,-0.006973041,-0.032108922,-0.048139047
1.76966E+18,9.507226807,0.023815468,0.039112698,-0.024348186,-0.007929116,-0.032785896,-0.041351449
1.76966E+18,9.517215088,0.016600422,0.046404608,0.001301876,-0.007717048,-0.038508501,-0.033661172
1.76966E+18,9.527203125,0.011823709,0.058442252,0.006847674,-0.007870711,-0.037295431,-0.030443544
1.76966E+18,9.537191895,-0.028033378,0.053088616,-0.001644625,-0.006455649,-0.029257247,-0.032444734
1.76966E+18,9.547179688,-0.052484805,0.022548516,-0.026630525,-0.004445761,-0.014571246,-0.035797387
1.76966E+18,9.557167969,-0.086217271,0.01201777,-0.052163318,0.001838122,0.000467664,-0.037980221
1.76966E+18,9.567156006,-0.052890171,0.043737435,-0.068412223,0.007101327,0.008512275,-0.035963409
1.76966E+18,9.57714502,-0.037125323,0.071564769,-0.064390931,0.007429377,0.012807763,-0.029360777
1.76966E+18,9.587132568,-0.003961597,0.03333996,-0.02947079,0.003993633,0.015299949,-0.023236571
1.76966E+18,9.59712085,0.033103813,-0.017502339,-0.017284678,-0.000357379,0.006147501,-0.020656273
1.76966E+18,9.607108887,0.051685471,-0.016577625,-0.056133902,-0.004180613,-0.004040955,-0.017030379
1.76966E+18,9.6170979,-0.001909925,-0.017680034,-0.060811758,-0.002531841,-0.008476336,-0.015388186
1.76966E+18,9.627085938,-0.062786127,0.011401684,-0.039576443,-0.000807711,-0.0028576,-0.009796081
1.76966E+18,9.637073975,-0.096990594,0.038697103,-0.024849122,0.001908447,0.00300029,-0.00432222
1.76966E+18,9.647062012,-0.065586863,0.057010758,-0.014376024,0.003187031,0.010651818,-0.001997813
1.76966E+18,9.657050781,-0.025792613,0.056609191,0.017555969,0.004116187,0.013188364,-0.002820086
1.76966E+18,9.667038818,-0.008299334,0.0565069,0.055673883,0.002289525,0.016281625,0.000675313
1.76966E+18,9.677026855,0.003106149,0.027937808,0.049110945,-0.000511164,0.014000823,-0.001670522
1.76966E+18,9.687014893,0.009731413,-0.041389995,0.036158451,-0.005720041,0.010596238,-0.003941134
1.76966E+18,9.69700415,0.011707973,-0.051572366,0.012167773,-0.00953992,0.007466486,-0.007072479
1.76966E+18,9.706991943,0.016384149,-0.042907998,-0.021929215,-0.014019622,-0.000548031,-0.006230653
1.76966E+18,9.71697998,-0.00957856,-0.023694179,-0.007377762,-0.016097667,-0.008583206,-0.005090399
1.76966E+18,9.726967773,-0.02648644,-0.003657938,0.027901422,-0.016252929,-0.012942268,-0.003915945
1.76966E+18,9.736957031,-0.03934563,0.014736381,0.056799161,-0.014117924,-0.009284606,-0.001945881
1.76966E+18,9.746944824,-0.03932634,0.006645429,0.050017976,-0.01250245,-0.003200082,-0.001075826
1.76966E+18,9.756932861,-0.031293256,-0.003284428,0.011057766,-0.013637008,-0.001045775,-0.000912984
1.76966E+18,9.766920898,0.009383622,-0.027602877,-0.003023659,-0.015711078,-0.005713764,-0.000926566
1.76966E+18,9.776907959,0.063584291,-0.046705637,0.023884953,-0.018569989,-0.011373361,0.001884048
1.76966E+18,9.786897217,0.073710548,-0.044504328,0.055367302,-0.022014523,-0.021141835,0.001496825
1.76966E+18,9.79688501,0.05193477,-0.034803018,0.043225248,-0.022221124,-0.020773217,-0.0004886
1.76966E+18,9.806873047,-0.006960779,-0.045032151,0.023644422,-0.022425922,-0.016677275,-0.005479896
1.76966E+18,9.81686084,-0.073901395,-0.034737551,-0.013075462,-0.01786896,-0.007734793,-0.010728572
1.76966E+18,9.826850098,-0.079568919,-0.029920506,-0.01772643,-0.016548565,-0.00318425,-0.013215965
1.76966E+18,9.836838135,-0.059225804,-0.044853872,-0.031676337,-0.015894437,-0.007486441,-0.010307543
1.76966E+18,9.846826172,0.007003741,-0.032283728,-0.003254326,-0.018794885,-0.016060222,-0.010888113
1.76966E+18,9.856813965,0.04503069,-0.049448798,-0.00254172,-0.019650416,-0.02219196,-0.014400211
1.76966E+18,9.866802979,0.025360067,-0.035528994,0.018308541,-0.01929941,-0.024136599,-0.017290007
1.76966E+18,9.876791016,0.019391221,-0.021794483,-0.000137655,-0.018030494,-0.017251527,-0.026723057
1.76966E+18,9.886779053,-0.023868367,-0.022055764,-0.013241686,-0.013744403,-0.005652928,-0.036575157
1.76966E+18,9.89676709,-0.092809509,-0.009928104,-0.013150062,-0.008767608,0.006941888,-0.041309915
1.76966E+18,9.906756104,-0.067636489,-0.028054128,-0.006139306,-0.008419266,0.014016841,-0.044919033
1.76966E+18,9.916744141,-0.0076964,-0.057658993,0.012532003,-0.006139892,0.011231322,-0.045169786
1.76966E+18,9.926732178,0.025204584,-0.038257542,0.009069953,-0.00699956,-6.23458E-05,-0.04370052
1.76966E+18,9.936720215,0.023683366,-0.021137481,0.01418072,-0.008181583,-0.010210549,-0.041964773
1.76966E+18,9.946708008,-0.020977322,-0.004712415,0.01741298,-0.010617843,-0.013542696,-0.040534392
1.76966E+18,9.956697021,-0.021660335,0.005669862,0.01352138,-0.009130545,-0.009303205,-0.040249836
1.76966E+18,9.966685303,-0.003949322,-0.030124505,-0.000911123,-0.009358245,-0.005812599,-0.042740423
1.76966E+18,9.97667334,-0.013455109,-0.047770636,-0.025176965,-0.009470931,-0.003215717,-0.046938334
1.76966E+18,9.986661133,-0.021093057,-0.033176293,-0.041970352,-0.010763363,-0.005749183,-0.053021792
1.76966E+18,9.996649902,-0.048818099,0.00062953,-0.01965316,-0.009811867,-0.008824525,-0.055347405
1.76966E+18,10.00663818,-0.061419222,0.021124621,0.013178046,-0.010224657,-0.011960397,-0.052631781
1.76966E+18,10.01662622,-0.048674891,-0.001270166,0.015865312,-0.010388054,-0.016217386,-0.058409587
1.76966E+18,10.02661401,-0.046349663,0.020353052,0.014246698,-0.008505465,-0.019306919,-0.063661605
1.76966E+18,10.03660303,-0.0829571,0.016226328,-0.014611659,-0.008855423,-0.012811961,-0.067215234
1.76966E+18,10.04659131,-0.080232644,-0.007627426,-0.042073374,-0.011416852,-0.011233239,-0.07189627
1.76966E+18,10.05657935,-0.063866323,0.002462006,-0.017552023,-0.009974767,-0.014855097,-0.070622921
1.76966E+18,10.06656714,-0.061335051,0.00685878,-0.025914193,-0.012957507,-0.020455459,-0.064728551
1.76966E+18,10.07655615,-0.033033086,-0.006196517,0.045053048,-0.022378344,-0.030699037,-0.052304175
1.76966E+18,10.08654419,0.018357494,-0.03983166,0.054134837,-0.027791219,-0.041654218,-0.043685917
1.76966E+18,10.09653223,0.072571607,-0.037145197,0.024042116,-0.033182953,-0.047081672,-0.041942477
1.76966E+18,10.10652002,0.074587916,-0.027525136,0.016190014,-0.039410755,-0.052027162,-0.039578125
1.76966E+18,10.11650928,0.036681963,-0.027491234,0.000141527,-0.045133889,-0.054380864,-0.035409745
1.76966E+18,10.12649707,0.036598085,0.010261282,-0.020710341,-0.047093175,-0.05449032,-0.034347676
1.76966E+18,10.13648511,0.050232642,0.011097148,-0.064120005,-0.051768836,-0.064439699,-0.028631061
1.76966E+18,10.1464729,0.094843353,0.00037877,-0.05806392,-0.054521743,-0.070491463,-0.02517827
1.76966E+18,10.15646094,0.107719785,0.041319852,-0.076166125,-0.053551137,-0.074572459,-0.020820912
1.76966E+18,10.1664502,0.070074238,0.014253566,-0.051380351,-0.053706665,-0.07833337,-0.02268113
1.76966E+18,10.17643823,0.120070733,0.04538754,-0.029063159,-0.053752702,-0.074610047,-0.025298249
1.76966E+18,10.18642603,0.078174542,0.014138415,-0.019887042,-0.048718795,-0.069739386,-0.023194086
1.76966E+18,10.19641431,0.051239189,-0.008123685,-0.007827552,-0.04455008,-0.060915649,-0.024451846
1.76966E+18,10.20640308,0.058397828,0.01137655,-0.011657485,-0.042024337,-0.054213274,-0.022753548
1.76966E+18,10.21639111,0.058877136,-0.005209844,-0.032678427,-0.040547889,-0.052732937,-0.023001574
1.76966E+18,10.22637891,0.078421503,-0.019662732,-0.063281655,-0.040554281,-0.051883388,-0.021875057
1.76966E+18,10.23636719,0.05714929,-0.022975217,-0.075540613,-0.039148688,-0.050267499,-0.019061048
1.76966E+18,10.2463562,0.07088117,-0.040309799,-0.089066413,-0.035891645,-0.046032008,-0.01689643
1.76966E+18,10.25634399,0.058665832,-0.033290275,-0.08838223,-0.034495849,-0.042327318,-0.014211725
1.76966E+18,10.26633179,-0.008320669,-0.015991934,-0.064717606,-0.029245425,-0.040135536,-0.013026353
1.76966E+18,10.27632007,-0.064708327,-0.016615619,-0.055772193,-0.023886492,-0.030452477,-0.015439253
1.76966E+18,10.28630908,-0.050294017,-0.015539514,-0.056245034,-0.020021979,-0.020048838,-0.014890376
1.76966E+18,10.29629712,0.002578911,-0.031918987,-0.061973422,-0.017362032,-0.014475069,-0.015997356
1.76966E+18,10.30628516,0.051782502,-0.028718729,-0.031410745,-0.016740717,-0.013160532,-0.015284428
1.76966E+18,10.31627319,0.089097503,-0.02285013,-0.021814759,-0.014802271,-0.019867852,-0.012875648
1.76966E+18,10.32626196,0.108922147,0.002795184,-0.030637386,-0.014273101,-0.028089032,-0.015893009
1.76966E+18,10.33625,0.074193948,0.020803719,-0.050400729,-0.010281065,-0.027579645,-0.014472269
1.76966E+18,10.34623804,0.024217619,0.028580198,-0.084274612,-0.006827211,-0.022774771,-0.011994997
1.76966E+18,10.35622607,0.007381342,0.005065467,-0.092303897,-0.003178526,-0.01492107,-0.014510458
1.76966E+18,10.36621509,0.01288637,-0.026246786,-0.04829108,-0.001297535,-0.01228747,-0.008861094
1.76966E+18,10.37620337,0.049016252,-0.070599138,-0.023377222,-0.004649012,-0.015853481,-0.004175157
1.76966E+18,10.38619141,0.107042032,-0.082937226,-0.017757592,-0.007951864,-0.019664731,0.001141578
1.76966E+18,10.39617896,0.119570675,-0.064130235,-0.035388526,-0.008610352,-0.021594496,0.001559533
1.76966E+18,10.40616699,0.092858901,-0.093342301,-0.082786712,-0.007256135,-0.017780317,-0.000452752
1.76966E+18,10.41615625,0.027160979,-0.092772976,-0.078634634,-0.004382481,-0.007839421,-0.006606233
1.76966E+18,10.42614429,-0.036320437,-0.086620299,-0.069442954,0.000765409,0.001939972,-0.010841192
1.76966E+18,10.43613208,-0.037162148,-0.066176646,-0.103070279,0.006932192,0.009209372,-0.017184015
1.76966E+18,10.44612012,0.010367957,-0.033884734,-0.137073123,0.011713632,0.015615873,-0.025077891
1.76966E+18,10.45610913,0.033088615,-0.039720016,-0.119959235,0.012283815,0.015235839,-0.02468827
1.76966E+18,10.46609717,0.054900049,-0.040297524,-0.049018627,0.010576462,0.006553935,-0.024044584
1.76966E+18,10.47608496,0.074404376,-0.018065818,-0.021400333,0.008738595,-0.005794038,-0.018450253
1.76966E+18,10.486073,0.063748542,-0.004106266,0.008817257,0.010926383,-0.015189404,-0.016205475
1.76966E+18,10.49606226,0.058204936,0.00441314,0.005227672,0.010675881,-0.012438131,-0.016731147
1.76966E+18,10.50605029,0.044101592,-0.017771804,-0.034128553,0.013169931,0.004105159,-0.02334138
1.76966E+18,10.51603809,0.011035481,-0.01800795,-0.069027578,0.012682084,0.019397262,-0.030266888
1.76966E+18,10.52602612,-0.013434067,-0.027616321,-0.088792638,0.018314937,0.034885675,-0.033608623
1.76966E+18,10.53601514,-0.007321721,-0.024703649,-0.073476776,0.019556141,0.039499864,-0.0349942
1.76966E+18,10.54600317,0.02461071,-0.008497779,-0.03886223,0.017544389,0.032052867,-0.030333666
1.76966E+18,10.55599097,0.024651042,-0.032958267,-0.004575272,0.012064342,0.025081206,-0.02705661
1.76966E+18,10.56597925,0.019801848,-0.042245735,-0.005361198,0.00992689,0.015818466,-0.030508867
1.76966E+18,10.57596826,0.00812427,0.000362988,0.003360745,0.00664231,0.014344559,-0.02761749
1.76966E+18,10.58595605,-0.032501171,0.033587797,-0.010241518,0.007590395,0.020381145,-0.024150055
1.76966E+18,10.59594385,-0.062302435,0.061992054,-0.005264241,0.010493344,0.025334742,-0.026030494
1.76966E+18,10.60593213,-0.051779872,0.074292148,-0.007026611,0.011675787,0.03367576,-0.019057006
1.76966E+18,10.61592114,-0.04594985,0.042128831,0.01218319,0.015027815,0.037094992,-0.016515482
1.76966E+18,10.62590918,0.013949615,0.018947277,0.025062801,0.013130045,0.035200417,-0.012844583
1.76966E+18,10.63589697,0.038307811,-0.002777063,-0.003383834,0.007328821,0.027380276,-0.012237079
1.76966E+18,10.64588525,0.001466565,-0.030499183,-0.014301789,0.003762582,0.024581827,-0.013759608
1.76966E+18,10.65587329,-0.03637772,-0.01037994,-0.038806006,0.004887193,0.023520745,-0.018020723
1.76966E+18,10.66586206,-0.092491529,-0.000734744,-0.005458046,0.003094619,0.028600724,-0.017440952
1.76966E+18,10.6758501,-0.106374216,-0.004810031,0.02451978,0.003103622,0.032106053,-0.014935059
1.76966E+18,10.68583813,-0.060956865,0.002936053,0.047055291,-0.000633059,0.025799688,-0.009108329
1.76966E+18,10.69582617,0.019280747,-0.006638415,0.019224779,-0.007402445,0.011848832,-0.009492604
1.76966E+18,10.70581519,0.049935121,-0.031029345,-0.033241504,-0.009888772,0.007399489,-0.016678346
1.76966E+18,10.71580322,-0.026403438,-0.01482932,-0.072460585,-0.013485997,0.001243592,-0.020075407
1.76966E+18,10.72579102,-0.053651511,0.007131752,-0.071920523,-0.011750149,-0.008847925,-0.020933744
1.76966E+18,10.73577905,-0.05513795,0.009281039,0.002747545,-0.012968564,-0.009521398,-0.018078741
1.76966E+18,10.74576831,-0.02935995,-0.003757891,0.055545398,-0.010436697,-0.008294746,-0.017993521
1.76966E+18,10.7557561,0.021537294,-0.014219664,0.046788164,-0.012267534,-0.007912959,-0.013877759
1.76966E+18,10.76574414,0.08710516,-0.004006313,-0.007693258,-0.013129066,-0.017149867,-0.009278746
1.76966E+18,10.77573218,0.06546879,-0.033299628,-0.040393166,-0.011900267,-0.023119915,-0.010989388
1.76966E+18,10.78572217,0.019688743,-0.024847441,-0.059225804,-0.009314604,-0.02193694,-0.009718793
1.76966E+18,10.79570996,-0.034215866,-0.004838088,-0.038494931,-0.005285479,-0.017463023,-0.012581701
1.76966E+18,10.805698,-0.0457365,-0.010595628,-0.008441556,-0.000883274,-0.006928623,-0.018470217
1.76966E+18,10.81568604,-0.035583062,-0.022340427,0.016388679,0.002032095,-0.001572581,-0.018471304
1.76966E+18,10.82567505,-0.001264905,-0.044011576,0.021609226,0.004128269,0.002316433,-0.023206672
1.76966E+18,10.83566284,0.015395138,-0.028376784,0.006007533,0.006341193,0.007254848,-0.024241557
1.76966E+18,10.84565088,0.019829905,-0.025644729,-0.023896862,0.010147117,0.007658317,-0.026266892
1.76966E+18,10.85563916,-0.004800678,-0.001850596,-0.020145255,0.010891272,0.008758618,-0.022227624
1.76966E+18,10.8656272,-0.061573536,-0.018805238,-0.006954167,0.014317694,0.01075732,-0.019157533
1.76966E+18,10.87561597,-0.015880291,0.0039426,0.022505371,0.018997025,0.013927852,-0.01624254
1.76966E+18,10.885604,-0.01628478,-0.021385902,0.043909686,0.021004515,0.016507922,-0.016865455
1.76966E+18,10.89559229,-0.009557517,-0.013996961,0.058617097,0.022544984,0.020967344,-0.018673168
1.76966E+18,10.90558008,-0.021450784,0.025358313,0.029614107,0.026512561,0.023184424,-0.021089721
1.76966E+18,10.91556885,-0.017737901,0.026972763,0.02133198,0.027617857,0.02842408,-0.021604927
1.76966E+18,10.92555688,-0.024427754,0.004227847,0.027470264,0.025886536,0.024744658,-0.022165788
1.76966E+18,10.93554517,-0.007887538,-0.040993105,0.039201216,0.022100063,0.023146875,-0.022525763
1.76966E+18,10.9455332,0.015738544,-0.017716274,0.040389476,0.018929303,0.021663228,-0.022820042
1.76966E+18,10.95552197,-0.002874679,0.009478022,0.057292351,0.012025437,0.016142456,-0.017332494
1.76966E+18,10.96551001,0.000604103,-0.009240122,0.027006226,0.009886652,0.013504595,-0.016448058
1.76966E+18,10.97549805,-0.013970658,-0.027471944,0.009653817,0.003837469,0.011907767,-0.014047353
1.76966E+18,10.98548608,0.012122399,-0.039194531,-0.05118154,-0.000780186,0.006509006,-0.012782351
1.76966E+18,10.99547485,0.074771456,-0.012166823,-0.039214916,-0.003148578,-0.000829678,-0.00987104
1.76966E+18,11.00546313,0.132517542,0.031201778,0.01307254,-0.003642328,-0.014732977,-0.005289604
1.76966E+18,11.01545117,0.126716747,0.026619127,0.040082639,-0.008801292,-0.025408031,-0.005586175
1.76966E+18,11.02543921,0.109351186,0.013304887,0.03081709,-0.012540902,-0.03810465,-0.004276965
1.76966E+18,11.03542798,0.040350131,0.014666239,-0.013242416,-0.012979423,-0.037932761,-0.009132421
1.76966E+18,11.04541602,0.001094809,0.044988312,-0.044472106,-0.010928256,-0.034957211,-0.009373969
1.76966E+18,11.05540405,-0.025158114,0.043055298,-0.0091645,-0.007647526,-0.027306976,-0.009342718
1.76966E+18,11.06539209,-0.029423955,-0.003317162,0.043956046,-0.005798759,-0.021057336,-0.008509681
1.76966E+18,11.07537988,0.021952889,-0.045889645,0.054679904,-0.008029989,-0.018966984,-0.009747755
1.76966E+18,11.08536914,0.087488898,-0.068694182,0.03469057,-0.009390865,-0.021971297,-0.009737102
1.76966E+18,11.09535693,0.134879011,-0.059451137,-0.001404752,-0.010507056,-0.02730165,-0.011186356
1.76966E+18,11.10534497,0.086687811,-0.050525488,-0.040447819,-0.008651897,-0.029916607,-0.017491922
1.76966E+18,11.11533276,-0.020870354,-0.072232293,-0.050065031,-0.005952312,-0.029324358,-0.021950284
1.76966E+18,11.12532202,-0.060367083,-0.089081721,-0.056555562,-0.002194059,-0.024987934,-0.028039068
1.76966E+18,11.13531006,-0.073332363,-0.094302086,-0.063864058,-0.001099891,-0.013771995,-0.029540731
1.76966E+18,11.1452981,-0.04860358,-0.067647887,-0.065422613,0.001762474,-0.007778285,-0.025876753
1.76966E+18,11.15528613,0.00301701,-0.035037411,-0.042557431,5.09532E-05,-0.007477348,-0.017643124
1.76966E+18,11.1652749,0.046034021,-0.01925532,-0.004316037,-0.002680118,-0.017072717,-0.00442186
1.76966E+18,11.17526294,0.076940032,-0.009758593,0.034766339,-0.00642692,-0.03183648,0.00491172
1.76966E+18,11.18525098,0.078885613,-0.044313774,0.043461248,-0.009834434,-0.03779158,0.011044182
1.76966E+18,11.19523901,0.029156829,-0.06070026,-0.011184169,-0.010150896,-0.040364724,0.013595621
1.76966E+18,11.20522803,0.005961831,-0.018758476,-0.045349839,-0.008575637,-0.028673708,0.012902667
1.76966E+18,11.21521606,-0.032369069,0.027209494,-0.036205067,-0.005844608,-0.012623448,0.011023218
1.76966E+18,11.22520386,-0.016219898,0.038114334,-0.003381386,-0.001236274,0.003779227,0.010311889
1.76966E+18,11.23519189,0.044925768,0.060316814,-0.003938582,0.001682396,0.011575059,0.009396665
1.76966E+18,11.24518091,0.075472297,0.054561027,-0.031138796,0.0022113,0.018053465,0.012420684
1.76966E+18,11.25516895,0.06404431,0.047589434,-0.051545771,0.001584074,0.018501218,0.01848376
1.76966E+18,11.26515723,0.044812371,0.016546061,-0.056997606,0.000337715,0.02239769,0.020913627
1.76966E+18,11.27514502,0.026617958,-0.004852701,-0.091634328,0.002575845,0.032221936,0.018180512
1.76966E+18,11.28513379,-0.010027473,0.010626023,-0.0734584,0.003581987,0.047808621,0.018034304
1.76966E+18,11.29512183,-0.029741058,0.047314709,-0.076096494,0.00563849,0.054065831,0.019022955
1.76966E+18,11.30511011,-0.01849135,0.076970427,-0.078828622,0.004254712,0.054847203,0.018555569
1.76966E+18,11.31509814,0.008878595,0.073662033,-0.088919662,0.001942975,0.048871376,0.021327283
1.76966E+18,11.32508594,0.016559505,0.047670098,-0.077671159,0.001127249,0.0438633,0.022360323
1.76966E+18,11.33507495,0.043865445,0.034686698,-0.07958967,0.000115255,0.044479717,0.021877736
1.76966E+18,11.34506323,0.0270733,-0.031303485,-0.015550218,0.000915535,0.039533429,0.016539695
1.76966E+18,11.35505127,0.013298458,0.012005495,0.015142697,0.00661927,0.039268203,0.011597035
1.76966E+18,11.36503906,-0.098052378,-0.023232407,-0.007830913,0.009284297,0.048091523,0.013899337
1.76966E+18,11.37502808,-0.082524262,-0.06238719,-0.029262591,0.009801473,0.054200966,0.008204082
1.76966E+18,11.38501611,-0.056902329,-0.058835051,-0.064908087,0.008603316,0.060718521,0.004379516
1.76966E+18,11.39500415,-0.060944006,-0.075556469,-0.058586373,0.007291864,0.057323296,0.005342145
1.76966E+18,11.40499194,-0.055652621,-0.05189853,-0.009186273,0.010388321,0.063728735,0.004034
1.76966E+18,11.4149812,-0.018742694,-0.067496496,-0.005094291,0.010140217,0.069326811,0.000787359
1.76966E+18,11.42496899,-0.012595862,-0.06586568,-0.01418799,0.008807572,0.073096782,-0.002729612
1.76966E+18,11.43495703,-0.030970892,-0.042045829,-0.011706403,0.00526104,0.069524415,-0.005533921
1.76966E+18,11.44494482,0.021636662,-0.050198155,-0.035220074,0.004971022,0.06206011,-0.006322483
1.76966E+18,11.45493408,0.054635846,-0.052494742,-0.041480267,0.006739197,0.050438456,-0.006881461
1.76966E+18,11.46492212,0.051650108,-0.040052024,0.009786577,0.005446766,0.040364251,-0.001110924
1.76966E+18,11.47491016,0.033108489,-0.012765958,0.063275116,0.003815444,0.034994442,-0.000904785
1.76966E+18,11.48489795,-0.011139234,-0.031421559,0.061525167,0.001870804,0.027225466,-0.001778036
1.76966E+18,11.49488696,-0.030749943,-0.041007133,0.025754656,-0.001450521,0.023330905,-0.005855644
1.76966E+18,11.504875,-0.024702187,-0.006820786,0.004402728,0.000656306,0.026855065,-0.011604875
1.76966E+18,11.51486304,-0.028231238,0.022127661,-0.000188983,-1.749E-05,0.024237173,-0.006128147
1.76966E+18,11.52485083,0.006040449,0.033399581,-0.024102431,0.000711684,0.025304833,-0.00224153
1.76966E+18,11.53484009,0.087203359,0.013108488,-0.03567359,-0.001566875,0.006303256,-0.000508554
1.76966E+18,11.54482813,0.164601949,-0.004367548,-0.052008675,-0.005571204,-0.008679687,-0.000645441
1.76966E+18,11.55481592,0.115491589,-0.014528876,-0.025689043,-0.007614493,-0.017684862,-7.82926E-05
1.76966E+18,11.56480396,0.050225336,-0.001193009,-0.000219305,-0.008081611,-0.0210487,-0.001931054
1.76966E+18,11.57479199,-0.019060674,0.003737433,0.002465148,-0.008813635,-0.009990945,-0.002394421
1.76966E+18,11.58478101,-0.081583474,-0.017727964,-0.002493132,-0.0066634,0.003912621,-0.00561871
1.76966E+18,11.59476904,-0.057843117,-0.004988894,-0.025836854,-0.003067309,0.013429763,-0.005834697
1.76966E+18,11.60475708,-0.022495909,0.005901333,-0.05699304,0.000725032,0.014802889,-0.007240047
1.76966E+18,11.61474512,0.00926701,-0.021440847,-0.035822168,0.002999484,0.013453159,-0.008135829
1.76966E+18,11.62473389,0.028085692,-0.051897945,-0.05706121,0.000332062,0.00563332,-0.012678383
1.76966E+18,11.63472217,0.024210312,-0.075291096,-0.104130237,-0.000672002,0.000632512,-0.018380353
1.76966E+18,11.64470996,0.011874562,-0.061841247,-0.120165243,-0.000791578,-0.003852784,-0.024770342
1.76966E+18,11.654698,0.024005729,-0.043329439,-0.063290642,0.002298471,-0.011802545,-0.028254729
1.76966E+18,11.66468701,0.028198505,-0.045301031,0.030661973,0.004182391,-0.017347779,-0.032955211
1.76966E+18,11.67467529,0.037897477,-0.054447045,0.105106827,0.005079073,-0.021668915,-0.035675872
1.76966E+18,11.68466309,0.069550506,-0.062992755,0.098452629,0.002809793,-0.019173002,-0.038320657
1.76966E+18,11.69465088,0.049614803,-0.052646133,0.041120421,0.004419309,-0.014630139,-0.039836034
1.76966E+18,11.70463989,0.037871758,-0.034521278,-0.04653408,0.004385753,-0.012878044,-0.041801449
1.76966E+18,11.71462817,0.029010406,-0.035043256,-0.059484016,0.008754979,-0.013320849,-0.042470381
1.76966E+18,11.72461621,0.013128069,-0.085741762,-0.034594234,0.010180835,-0.022748707,-0.040775545
1.76966E+18,11.734604,0.047549102,-0.094291564,-0.008167744,0.008243789,-0.029339466,-0.040538423
1.76966E+18,11.74459302,0.082208035,-0.072701664,0.021792876,0.010158602,-0.038005657,-0.041189831
1.76966E+18,11.75458105,0.0588181,-0.05062018,0.023508703,0.01009949,-0.042590443,-0.035117209
1.76966E+18,11.76456909,0.042801908,-0.026900282,0.028188312,0.005929778,-0.04119255,-0.033235151
1.76966E+18,11.77455688,0.07626111,-0.038476738,0.014104257,0.004376286,-0.043503258,-0.029227674
1.76966E+18,11.78454443,0.061933309,-0.048527592,0.003798004,0.00240608,-0.044186357,-0.027045215
1.76966E+18,11.79453369,0.016227497,-0.024776129,0.01328421,0.003192264,-0.03989125,-0.022588242
1.76966E+18,11.80452173,-0.02873685,0.009030863,0.03013656,0.009426991,-0.028676415,-0.021601275
1.76966E+18,11.81450977,-0.043345221,0.042034138,0.006709763,0.01470261,-0.012305232,-0.017325699
1.76966E+18,11.82449756,-0.042225277,0.040898412,-0.024721038,0.018914932,0.002612199,-0.015745115
1.76966E+18,11.83448657,0.014310849,0.026863457,-0.047350036,0.018589139,0.0074044,-0.014986222
1.76966E+18,11.84447461,0.069182257,-0.011484102,-0.037592685,0.014278812,0.002972101,-0.012331317
1.76966E+18,11.85446265,0.08120938,-0.019248306,-0.035804377,0.014339242,-0.005272098,-0.00454039
1.76966E+18,11.86445044,0.063587214,0.008591303,-0.032107532,0.014124858,-0.008470022,0.00305388
1.76966E+18,11.8744397,0.04334639,0.047961775,0.017247487,0.014007926,-0.009671867,0.010033853
1.76966E+18,11.88442773,0.004886018,0.093325349,0.027543914,0.01408569,-0.003870703,0.014636062
1.76966E+18,11.89441553,0.039875499,0.097860655,0.016904885,0.009235069,-0.003549755,0.021510176
1.76966E+18,11.90440356,0.083943189,0.060374681,-0.007177783,0.008456361,-0.0086814,0.02145345
1.76966E+18,11.91439258,0.095854868,0.026987376,-0.002414148,0.000539092,-0.015177038,0.026289541
1.76966E+18,11.92438062,0.057696402,-0.002608137,-0.015633988,0.000872254,-0.020242104,0.029306635
1.76966E+18,11.93436865,0.027841654,-0.016213468,0.005493191,-0.001261857,-0.014470309,0.031050548
1.76966E+18,11.94435669,0.04151216,-0.010130933,0.015201515,-0.001129498,-0.012654565,0.033790141
1.76966E+18,11.95434546,0.002397709,-0.004237199,0.011499738,-0.000314845,0.002048635,0.0321104
1.76966E+18,11.9643335,-0.031412206,0.022920272,-0.032128976,4.73447E-05,0.011012303,0.031337284
1.76966E+18,11.97432178,-0.046357847,0.023333529,-0.06931604,0.000641814,0.016258387,0.034250658
1.76966E+18,11.98430957,-0.000765139,0.038453357,-0.081576459,0.00174596,0.017845633,0.036712751
1.76966E+18,11.99429858,0.030709319,0.029323125,-0.048864423,0.002354028,0.013127724,0.043552596
1.76966E+18,12.00428662,0.064296823,-0.008656185,-0.006315394,0.000800073,0.006988339,0.048450951
1.76966E+18,12.0142749,0.042685003,-0.022437457,0.030129035,-0.000593094,0.004229155,0.052891988
1.76966E+18,12.0242627,0.025504444,-0.006332126,0.018578517,-0.00175583,0.00641348,0.05018089
1.76966E+18,12.03425146,-0.038668753,0.017080314,0.014250571,0.002770264,0.019712698,0.046476573
1.76966E+18,12.0442395,-0.081156773,0.035984337,0.006292013,0.009250268,0.034697507,0.043043759
1.76966E+18,12.05422778,-0.074784315,0.028406595,0.001020137,0.012286725,0.045832936,0.040652215
1.76966E+18,12.06421558,-0.015910686,0.00331307,0.026284342,0.015041766,0.048732851,0.038516894
1.76966E+18,12.07420361,0.018015549,-0.014238953,0.046599912,0.012539864,0.042941622,0.039965373
1.76966E+18,12.08419263,0.036700376,-0.013000936,0.039106706,0.008882278,0.029408503,0.041354477
1.76966E+18,12.09418066,0.023761984,-0.020551205,0.01306885,0.003440041,0.020845447,0.04306509
1.76966E+18,12.10416846,-0.007851883,-0.045182373,-0.012039069,-0.001676158,0.015379308,0.04150128
1.76966E+18,12.11415649,-0.038510056,-0.056681672,-0.004341682,-0.002100057,0.022920359,0.041456033
1.76966E+18,12.12414575,-0.059580901,-0.040825347,-0.02261033,-0.002118167,0.02700964,0.040386241
1.76966E+18,12.13413379,-0.038003275,-0.03329612,-0.028857225,-0.002571214,0.031157704,0.039330777
1.76966E+18,12.14412158,-0.037380467,-0.04141396,0.001613463,-0.004596548,0.030220537,0.038935564
1.76966E+18,12.15410962,-0.015514965,-0.009884265,0.018478016,-0.00717916,0.029236838,0.040861752
1.76966E+18,12.16409863,0.014492051,0.005092939,0.027309666,-0.003534891,0.030332729,0.043948356
1.76966E+18,12.17408667,0.019637013,0.025500352,0.034025458,-0.002547688,0.033553328,0.045858935
1.76966E+18,12.18407446,-0.000526362,0.0203437,0.046839748,0.002872111,0.035161611,0.044546794
1.76966E+18,12.1940625,-0.019762685,0.022498248,0.072945701,0.004979372,0.039982505,0.039080616
1.76966E+18,12.20405176,-0.05438567,-0.013022563,0.045513505,0.003516498,0.038967043,0.034112491
1.76966E+18,12.21403955,-0.05762626,-0.053507134,-0.018704408,0.005140159,0.041507017,0.026333878
