time,seconds_elapsed,z,y,x
1769658985623384800,0.063384765625,-0.007581102778762579,-0.042103111714124675,0.04146612898483872
1769658985633373000,0.073373046875,0.06709916741326451,-0.06610884120166301,0.06720292004868388
1769658985643361000,0.083361083984375,0.149228438436985,-0.1258797115534544,0.09244505946338176
1769658985653348900,0.093348876953125,0.04313581576272845,-0.11315934619009495,0.015443214455991982
1769658985663337000,0.1033369140625,0.1675029307961464,-0.07048749467730522,0.0955129226014018
1769658985673325000,0.113324951171875,0.1483614463441074,-0.18626666797697544,0.18736629978194833
1769658985683311900,0.123311767578125,0.11132277841269969,-0.17561609462499617,0.2760578519307077
1769658985693300000,0.133300048828125,0.2632242354512215,0.08943360268771648,0.21634192663654683
1769658985703288000,0.1432880859375,0.33678339265882967,0.11007423965632915,0.05113485169261694
1769658985713276000,0.15327587890625,0.3057476184040308,0.06156359898746013,-0.0541603369936347
1769658985723264000,0.163263916015625,0.1770399899482727,0.010245499682426452,-0.044638475410640234
1769658985733252000,0.173252197265625,0.10794424189031124,-0.04103577474355698,-0.021403145773708818
1769658985743239000,0.183239013671875,0.003884001826494932,-0.156574709546566,-0.014544365920126437
1769658985753227000,0.19322705078125,0.06892039149105549,-0.15521920328438282,0.11539251206964253
1769658985763215000,0.203215087890625,0.10484408391788601,-0.18199673557281493,0.008986293401569128
1769658985773203000,0.213202880859375,-0.02819163687005639,-0.202903330001235,-0.049196430975943804
1769658985783191000,0.22319091796875,-0.16487594329342245,-0.10568623383045196,-0.06434007796347141
1769658985793179100,0.23317919921875,-0.1978618287026882,-0.004299743020534515,-0.06982333168014884
1769658985803166000,0.243166015625,-0.19700477348193526,-0.01269815353155136,-0.0793472390897572
1769658985813154000,0.253154052734375,-0.14795885689258576,-0.05260170937478542,-0.13662863071337342
1769658985823142100,0.26314208984375,-0.06588073153421282,-0.056875733432173725,-0.005951309619843959
1769658985833130200,0.273130126953125,0.00036649522483348846,-0.003852583774924278,0.004377776692807674
1769658985843118000,0.2831181640625,0.006154504041746258,0.00578442862033844,0.006158230368793011
1769658985853106000,0.29310595703125,-0.0853846195578575,-0.09592121114134788,-0.003523497951030731
1769658985863094000,0.303093994140625,-0.08144844915270805,-0.07325988200008869,0.13865414519160985
1769658985873081000,0.3130810546875,-0.02256254494190216,-0.017279051581025124,0.05189209980070591
1769658985883069000,0.32306884765625,-0.06185936706364154,0.019051321950554846,0.004058043219149113
1769658985893057000,0.33305712890625,-0.0050648821741342545,0.003663198682665825,-0.039670623870193954
1769658985903044900,0.343044921875,0.006263590439409017,-0.010481062003970145,-0.09118833740055561
1769658985913033000,0.353032958984375,0.02105513605363667,0.044025604209303855,-0.12187179108634591
1769658985923021000,0.36302099609375,-0.0010462211173027753,-0.002343348255753517,-0.11614333043694496
1769658985933008000,0.3730078125,-0.051342064702510834,-0.06846154180765152,-0.07189999182373284
1769658985942996000,0.382995849609375,-0.13173128712587057,-0.010864508363604544,0.0032047873906791207
1769658985952984000,0.392984130859375,-0.11865611697547138,0.04869827219545841,0.054369595830142496
1769658985962972000,0.402971923828125,-0.08106383374929428,-0.014651041164994239,0.014537643918395042
1769658985972960000,0.4129599609375,-0.06622925271093845,-0.09463526298403739,0.062017626365274185
1769658985982948000,0.422947998046875,-0.06931311713568866,-0.06509001954793929,0.03607786007523536
1769658985992935000,0.432934814453125,-0.1443704770117998,-0.03983341321647167,0.016584785706549882
1769658986002923000,0.442923095703125,-0.19400749136209486,-0.020958032354712487,0.001044248355925083
1769658986012911000,0.4529111328125,-0.20882227172143755,0.003252279794216156,-0.025157237610220907
1769658986022899000,0.46289892578125,-0.17628018455691635,0.05030804547965526,-0.0513499557480216
1769658986032887000,0.472886962890625,-0.13066058915443718,0.04460252731442451,-0.021323943057656287
1769658986042875100,0.482875244140625,-0.07317578391321003,-0.012680617874860764,-0.026438071200996636
1769658986052862000,0.492862060546875,0.0032049335211515426,-0.006881576207280159,-0.009488543835282325
1769658986062850000,0.50285009765625,0.08089435893390327,0.009568623334169387,-0.0015045593440532684
1769658986072838100,0.512838134765625,0.13160747808311135,0.0026619126856327053,-0.0073122227095067495
1769658986082826000,0.522825927734375,0.1683306868571788,-0.04218319121301174,-0.014162673126161098
1769658986092814000,0.53281396484375,0.14762863855753094,-0.04575461995899677,0.0015313012205064296
1769658986102802000,0.542802001953125,0.12402911525070666,-0.05448796151280403,-0.0072658993497490875
1769658986112789000,0.5527890625,0.09380991807579994,-0.07156593756377697,-0.025760756461322306
1769658986122777000,0.562777099609375,0.05636014859285205,-0.08814356287717819,-0.033914398431032895
1769658986132765000,0.572764892578125,0.024738098882697523,-0.07261807696521282,-0.03332110871300101
1769658986142752800,0.582752685546875,0.04842701750602573,-0.027318215036392212,-0.007030775419622659
1769658986152740900,0.592740966796875,0.0658001771112904,-0.06913783363401889,-0.037648470392823215
1769658986162729000,0.60272900390625,0.028682489126920698,-0.12989128528237343,-0.048263680170476435
1769658986172715800,0.6127158203125,0.0004968070736154913,-0.15833821208775042,-0.015290946503728628
1769658986182703900,0.622703857421875,-0.03665421692477539,-0.1404191090375185,-0.021153993318229914
1769658986192692000,0.63269189453125,-0.016720230388175696,-0.06528758794665336,-0.05323489271178841
1769658986202680000,0.64268017578125,0.01747135928273201,0.03515840714275837,-0.025068974804878234
1769658986212668000,0.65266796875,0.04432138141863979,0.0668546911329031,-0.014345628477632998
1769658986222656000,0.662656005859375,0.07325403678119183,0.04214695085585117,-0.04864698039963841
1769658986232642800,0.672642822265625,-0.029152444726228712,-0.11372574790120124,-0.06174056298956274
1769658986242631000,0.682630859375,-0.10892390057742594,-0.14605506909787655,-0.02592792972177267
1769658986252619000,0.692618896484375,-0.07086392677426338,-0.13054828788638115,-0.0024541151538491246
1769658986262607000,0.702607177734375,-0.011099486163258551,-0.16065934851169586,0.03225347948148846
1769658986272595000,0.712594970703125,0.013123690033820457,-0.20204408282339573,0.06951908803656696
1769658986282583000,0.7225830078125,-0.005492158542340621,-0.14432839143574236,0.11642901551052927
1769658986292570000,0.732570068359375,-0.029843349599838254,-0.06427402698993682,0.1404420515216887
1769658986302558200,0.74255810546875,-0.05216740961074829,-0.0071866966336965555,0.09572948796153068
1769658986312546000,0.752546142578125,-0.09736846907390281,0.06652034461200237,0.05733209889754653
1769658986322534100,0.7625341796875,-0.11445174235450103,0.11878069320321083,0.0029978666417300698
1769658986332522200,0.772522216796875,-0.11388824498653412,0.1679775625705719,0.01834784985631704
1769658986342510000,0.782510009765625,-0.06897709011435509,0.12609540013074874,0.01625789183974266
1769658986352498200,0.792498291015625,-0.04795770122753456,0.05618541308045387,0.038047844973951576
1769658986362485200,0.8024853515625,-0.006206453424692154,-0.04447042536735534,0.024156536135077476
1769658986372473000,0.81247314453125,-0.004378032421134412,-0.07602993123531342,-0.0026668811216950415
1769658986382461200,0.822461181640625,-0.0030184345057234167,-0.09787760590612887,-0.005942834052443504
1769658986392449000,0.832448974609375,-0.04338789082765579,-0.061410454252362245,0.011647329304367304
1769658986402436900,0.842436767578125,-0.0827273830473423,-0.04798924714326858,0.008568944772332906
1769658986412424200,0.852424072265625,-0.05174768636133521,0.00589899491071701,-0.009952800346165894
1769658986422412000,0.862412109375,-0.03704465928077698,0.1332031863093376,-0.015409896708279847
1769658986432400000,0.87239990234375,0.10673026299066841,0.1322977619022131,-0.020577216343581676
1769658986442388000,0.882387939453125,0.27168577432632446,0.09518938973546028,0.021749913384765385
1769658986452376000,0.8923759765625,0.26593988761808723,-0.022530980759859084,-0.030165859552472828
1769658986462364200,0.9023642578125,0.3128279320538044,0.0028290859460830685,-0.029884996784478424
1769658986472351000,0.91235107421875,0.30615042705126105,0.002982230681180954,-0.013928425978869199
1769658986482339000,0.922339111328125,0.20407069328017532,-0.06616320173740387,-0.04526230639740825
1769658986492327000,0.932326904296875,0.19423903509564697,0.006917816564440727,0.062076078554242846
1769658986502315000,0.94231494140625,0.23952771804332731,0.033439912787079806,0.09637377721443771
1769658986512303000,0.95230322265625,0.2380546498160809,-0.0010065466940402984,0.10534005074128508
1769658986522291200,0.962291259765625,0.16260697544813155,-0.026508067697286603,0.07176511339768767
1769658986532279000,0.972279052734375,0.045806642407178876,-0.030720716956257818,-0.036589170598238706
1769658986542266000,0.98226611328125,0.031712650603055954,0.04386719877719879,0.003998129725456237
1769658986552254200,0.992254150390625,0.0957025999546051,-0.17046353416740892,-0.06507979041486978
1769658986562242000,1.002241943359375,-0.21920381887368856,-0.7139695228546857,0.07662877391129731
1769658986572230100,1.012230224609375,-0.8556826902907341,0.3344248468339443,0.23376345542818305
1769658986582218200,1.02221826171875,-0.7266776132583618,0.7980150027632713,-0.35015593832060693
1769658986592206000,1.0322060546875,0.19904022483229636,-0.017338088291883467,-0.28479104735404254
1769658986602193200,1.042193115234375,1.0165151303470135,-0.5008171860396862,-0.1463444074332714
1769658986612181200,1.05218115234375,0.48673722276091574,-0.11034954946637153,-0.3753805420786142
1769658986622169000,1.062169189453125,-0.1517734467446804,0.17288988453149795,-0.1441544961735606
1769658986632157200,1.0721572265625,-0.25155250235795973,0.14111235199868677,0.03651332888305187
1769658986642145300,1.082145263671875,-0.012345102310180663,-0.03512450487315655,0.1382819508783519
1769658986652132900,1.0921328125,0.24634448538608847,-0.08064706964194775,0.23744755076840518
1769658986662120200,1.1021201171875,0.2688731280583888,-0.15710428637862203,0.2473478902749717
1769658986672108300,1.1121083984375,0.11858195576071738,-0.1056359649479389,0.253153069422394
1769658986682096000,1.12209619140625,0.007309957687184214,-0.009017419192194938,0.19678952329605817
1769658986692084000,1.132083984375,-0.02245148578286171,0.06174655433893203,0.17612360575571656
1769658986702072000,1.142072021484375,0.02079261265993118,0.0766711517482996,0.15445669447928667
1769658986712060000,1.152059814453125,0.036351416319608684,0.08922492837309837,0.12472601147368549
1769658986722047000,1.162046875,-0.003385550785064697,0.0915367124468088,0.11602160375341772
1769658986732035000,1.17203515625,-0.005364741903543472,0.033252281260490416,0.0894182589881122
1769658986742023000,1.18202294921875,0.057606970316171645,0.02000409263074398,0.06309387729465961
1769658986752011000,1.192010986328125,0.03914535788707435,-0.029652210941910742,0.037950668209791184
1769658986761999000,1.2019990234375,-0.006596914047002792,-0.05954232229292392,0.005040186124294996
1769658986771987200,1.2119873046875,-0.08512165777273475,-0.055882046219706535,0.006596621786057948
1769658986781974000,1.22197412109375,-0.11857961767315864,0.019704817423224448,0.015164982036501169
1769658986791962000,1.231962158203125,-0.11847440373301506,0.1190127483934164,0.006170066937059164
1769658986801950000,1.241949951171875,-0.1156792200565338,0.17910861291587352,-0.01330357207879424
1769658986811938000,1.25193798828125,-0.12478015281371771,0.1691974597543478,-0.024660978525876998
1769658986821926100,1.261926025390625,-0.05142974298596382,0.18581190994679928,-0.10809358723312616
1769658986831914200,1.271914306640625,-0.03986797307319939,0.18214520413279534,-0.05833426167741418
1769658986841901000,1.281901123046875,0.0018435455074533819,0.18371990610361097,-0.014643442380428313
1769658986851889200,1.29188916015625,0.024769663064740596,0.24515023410022257,-0.01322378484085202
1769658986861877200,1.301877197265625,0.007999730049632489,0.23199381540715694,-0.0983989994317293
1769658986871865000,1.311864990234375,0.013939678025245665,0.32064415876269337,-0.2804359208844602
1769658986881853200,1.321853271484375,-0.14940613309144973,0.14673837518692015,-0.007666735235601663
1769658986891841300,1.33184130859375,-0.17319968113303183,0.12514847466945647,0.2320179269351065
1769658986901828000,1.341828125,0.08876900129914284,0.26535131060779094,0.07257175360545516
1769658986911816200,1.351816162109375,0.2803319855859503,0.32050153542160986,-0.1958933051086962
1769658986921804300,1.36180419921875,0.0873193870127201,0.2647989374220371,-0.12292670696675777
1769658986931792100,1.371792236328125,-0.15906356722023338,0.08460837448835372,0.18303265449181197
1769658986941780000,1.381780029296875,0.03621467473004013,0.18095979374051094,-0.007073299387097358
1769658986951767300,1.391767333984375,0.21975454809162764,0.11688158158361911,-0.08221884900331497
1769658986961755100,1.401755126953125,0.09296707404348999,-0.020997195321321487,0.07866787852346897
1769658986971743200,1.4117431640625,-0.07969608906004577,-0.22053017210662362,0.35731589307785033
1769658986981731000,1.42173095703125,-0.395506215262413,-0.44843233428597445,0.33018574795946476
1769658986991719000,1.431718994140625,-0.24425295646693557,-0.24902561422884462,0.11747487130165099
1769658987001707000,1.44170703125,-0.21008063775207847,-0.07566285148859024,0.11814371047392487
1769658987011695000,1.451695068359375,0.022954211140610276,0.1909685620576143,-0.046872664203494785
1769658987021682000,1.461681884765625,0.2673439457297325,0.18666472738385198,-0.04164966885820031
1769658987031670000,1.471669921875,0.5068178877592087,0.2628133165627718,-0.4865485683210194
1769658987041658000,1.481658203125,0.3104442152550444,-0.15000819063782692,-0.2046484201028943
1769658987051646000,1.49164599609375,0.11808861928582191,-0.34966508606374264,0.009477876310795545
1769658987061634000,1.501634033203125,0.19831775577664373,-0.40586043601632116,-0.0057211541257798666
1769658987071622100,1.5116220703125,0.07340086137335747,-0.4834796822696924,0.05767126772403717
1769658987081609000,1.52160888671875,0.027390695750713345,-0.44246027413904665,-0.004958353059738874
1769658987091597000,1.53159716796875,0.08779752591848373,-0.44339550916254516,0.03776142924800515
1769658987101585200,1.541585205078125,0.21495324875712393,-0.3119178314715624,-0.2383285713866353
1769658987111573000,1.551572998046875,0.23417583562135694,-0.19992577549517154,-0.29356399026587604
1769658987121561000,1.56156103515625,0.07518003640770912,-0.1888555154263973,-0.09529504206702112
1769658987131549200,1.571549072265625,-0.09450783721208572,-0.13462065189182756,-0.12394611314237117
1769658987141536000,1.581535888671875,-0.17973576837088912,-0.14410568859577177,-0.02460077277123928
1769658987151524000,1.591524169921875,-0.15623221625182776,-0.16208032122552393,0.08994228286221623
1769658987161512200,1.60151220703125,-0.053864897711016234,-0.12553835076987743,-0.06778218124136329
1769658987171500300,1.611500244140625,-0.023065233767032622,-0.06859539732038974,0.017013240251690147
1769658987181488000,1.621488037109375,-0.13199322599768637,-0.04619242685437202,0.0927342516683042
1769658987191476200,1.631476318359375,-0.033663748138211665,0.11074410174190998,0.06865370337888597
1769658987201463000,1.641463134765625,-0.08808741224315017,0.05163140303790569,0.08693447934836149
1769658987211451100,1.651451171875,-0.23359712241794914,-0.19039280799627303,0.049464142001420255
1769658987221439200,1.661439208984375,-0.1983060288062319,-0.3280979818999767,0.030780045928061005
1769658987231427000,1.671427001953125,-0.03935819692015648,-0.3201958304733038,-0.022515052538365124
1769658987241415000,1.681414794921875,-0.07334810827281325,-0.26725042222738266,-0.009065788378566503
1769658987251403000,1.691403076171875,-0.10324994659423828,-0.11123743821680546,-0.05018354231715202
1769658987261390000,1.70139013671875,-0.14166235056426374,0.05945756661891937,-0.016665157466381787
1769658987271378000,1.7113779296875,-0.21339728801939636,0.07333411628007888,0.03296294292509556
1769658987281366000,1.721365966796875,-0.16158406214118004,0.048556817898154254,0.09939444020986557
1769658987291353900,1.731353759765625,-0.09710430171238257,-0.02253156528174877,0.143486095392704
1769658987301342000,1.741342041015625,-0.0541127167259343,-0.1583908190578222,0.1339982822097838
1769658987311330000,1.751330078125,-0.02223990712510422,-0.2662766087591648,0.10683832647502421
1769658987321316900,1.76131689453125,0.004987104230187833,-0.26850831333398817,0.06138897307291626
1769658987331305000,1.771304931640625,0.04820080753471702,-0.19584113653004168,-0.039594928285479544
1769658987341292800,1.781292724609375,0.07120758911278098,-0.12015899581909179,-0.15979118737503886
1769658987351281000,1.791281005859375,0.029762612513825296,-0.06324877559542656,-0.1692299007192254
1769658987361269000,1.80126904296875,0.06950896850135177,-0.008501286363601684,-0.19520342314839362
1769658987371257000,1.811257080078125,0.05066748990919441,0.03194645935893058,-0.10781535481363534
1769658987381244000,1.821243896484375,-0.061453087817691265,0.06849135242402553,-0.04399477067962289
1769658987391232000,1.83123193359375,-0.15163195591475814,0.05336860209405422,-0.04124459518864751
1769658987401219800,1.8412197265625,-0.19737079378273337,0.038218379235267635,-0.025964754600822926
1769658987411208000,1.8512080078125,-0.13959321614000947,0.030293431454896925,0.016080781707167625
1769658987421196000,1.861196044921875,-0.052168615187145766,0.04942950907945633,0.04223711335733533
1769658987431184100,1.87118408203125,0.008060520326159894,0.02834989617168903,0.01638400243744254
1769658987441171000,1.8811708984375,0.09505608221199363,-0.002221183180809021,0.03042348757535219
1769658987451159000,1.891158935546875,0.14418050739765167,0.026802082207798957,0.05267287491485476
1769658987461147100,1.901147216796875,0.1328945952842012,0.09179331755638122,0.0553802341774106
1769658987471135000,1.911135009765625,0.030648820763826367,0.138702368247509,0.07356295659989118
1769658987481123000,1.921123046875,-0.08942830545809119,0.04608136769533157,0.10933993403241038
1769658987491111200,1.931111083984375,-0.10155950928926467,-0.069150693115592,0.15379107017740606
1769658987501098000,1.941097900390625,-0.015365874903462827,-0.0885480520248413,0.17096987625434995
1769658987511086000,1.951086181640625,-0.01468432238008827,-0.07227320905029773,0.06912044410780072
1769658987521074200,1.96107421875,-0.05664137668702751,-0.07191255904436111,-0.03592968377619982
1769658987531061800,1.971061767578125,-0.07542319751381873,-0.08004910374879837,-0.11470613724067806
1769658987541049900,1.9810498046875,-0.04064761567618698,-0.10988134743273258,-0.16262772597521544
1769658987551038000,1.991037841796875,0.03649988487958908,-0.11803601231575012,-0.1077184703104198
1769658987561025000,2.00102490234375,0.05032850374579429,-0.1827560295075178,-0.08776566947549581
1769658987571012900,2.011012939453125,0.0796807818930596,-0.10551087726354598,-0.18232026843875646
1769658987581001000,2.0210009765625,0.010314436732791364,-0.009923428121209143,-0.1789760725773871
1769658987590988800,2.03098876953125,-0.12240246389694512,0.006119359663128853,-0.1397305422514677
1769658987600977000,2.040976806640625,-0.15501403610110281,0.04889350250661373,-0.17015402982681987
1769658987610965000,2.050965087890625,-0.23006434518191962,0.01286415774822235,-0.11290960921272634
1769658987620951800,2.060951904296875,-0.17576109258625655,-0.00336626156270504,-0.12122618665918707
1769658987630940000,2.07093994140625,-0.08110708836913108,0.07135726324915885,-0.12268193842545151
1769658987640928000,2.080927978515625,-0.011052139890193938,0.2083756239324808,-0.10492913185283541
1769658987650915800,2.090915771484375,0.0027343568673357365,0.315419117590785,-0.0375032167032361
1769658987660904000,2.100904052734375,0.004166472029685974,0.3577829260677099,0.010901917764544486
1769658987670892000,2.11089208984375,-0.04316233844347298,0.31262393391430376,0.03666910396665334
1769658987680878800,2.12087890625,-0.05730418797731399,0.11621698019504546,0.03953530705273151
1769658987690867000,2.130866943359375,0.09305361981578171,-0.055745268097519875,0.07867153178527951
1769658987700855000,2.14085498046875,0.22974640180654823,-0.2355249121427536,0.0907467311128974
1769658987710843000,2.1508427734375,0.3127496061205864,-0.3912444661647081,0.11023542156741023
1769658987720831000,2.1608310546875,0.3903027648678049,-0.4018593836814165,0.10476999576836823
1769658987730819000,2.170819091796875,0.3660790087154135,-0.3227536982625723,0.1072115437015891
1769658987740806000,2.180805908203125,0.26322891162633894,-0.23982582420706747,0.06976984792724251
1769658987750794000,2.1907939453125,0.13946816498823464,-0.2055868699967861,0.02786065135002136
1769658987760782000,2.200781982421875,0.10255677669830619,-0.1899193452656269,-0.07402852828502654
1769658987770770200,2.210770263671875,0.08769823026247323,-0.1880798548787832,-0.15683964409306644
1769658987780758000,2.220758056640625,0.023545783825591204,-0.16914134565293787,-0.18920359821170568
1769658987790745900,2.230745849609375,-0.03427987074255943,-0.12103811674118041,-0.17290625114440916
1769658987800733000,2.24073291015625,-0.05785597664117813,-0.09295067089796066,-0.11746171955913305
1769658987810721000,2.250720947265625,-0.1182674099188298,-0.13070493975281713,-0.10662643729001282
1769658987820708900,2.260708984375,-0.15768296304941176,-0.13559972605705262,-0.04040419884175062
1769658987830697000,2.270697021484375,-0.16017653343081473,-0.045488662499189376,0.02152151145637035
1769658987840684800,2.280684814453125,-0.24051548697166145,-0.024204466930031775,0.06300239961892366
1769658987850673000,2.2906728515625,-0.3407294999361038,-0.043052959784865376,0.04269976243302226
1769658987860660000,2.300659912109375,-0.3358276993691921,-0.05660042362213134,0.031886399734765286
1769658987870647800,2.310647705078125,-0.22841372843068092,-0.033733342775702474,0.006938713221997022
1769658987880636000,2.320635986328125,-0.03454064057059586,0.07870061174929141,0.06069514558985829
1769658987890624000,2.3306240234375,-0.017486593384481965,0.07277531335353851,0.13926935448050498
1769658987900611800,2.34061181640625,0.018071078741550443,0.03062836249768734,0.08154182652458548
1769658987910600000,2.350599853515625,-0.04233925855755806,0.006734276691079139,0.09970686715990304
1769658987920587000,2.3605869140625,-0.10839373922348022,-0.021132219877839087,0.056034314171969885
1769658987930574800,2.370574951171875,-0.1302010088186711,0.002406476619839668,0.07614917370080948
1769658987940563000,2.38056298828125,-0.06796228704862296,0.08626900117695331,0.017417729399353266
1769658987950551000,2.390551025390625,-0.026800328642129896,0.25158991175889966,0.009868775324523448
1769658987960539000,2.400538818359375,-0.05736848538517952,0.24603929189443588,0.07224851300045848
1769658987970527000,2.41052685546875,0.03959660878591239,0.291726107314229,-0.003960281933099032
1769658987980514000,2.42051416015625,0.04900390407852828,0.31291911746859546,0.09236249574646353
1769658987990502000,2.430501953125,-0.07028181603737176,0.17742928152680396,0.15604264849647878
1769658988000490000,2.440489990234375,-0.13003624671101568,0.009410217902064323,0.11000804255232215
1769658988010478000,2.45047802734375,-0.14231347141675652,-0.13621230499744413,0.09743190796524286
1769658988020466000,2.4604658203125,0.02618650759272277,-0.20103227543234825,-0.029364041650295256
1769658988030454000,2.4704541015625,0.14631043209843336,-0.1276262629598379,-0.10144070521518588
1769658988040441000,2.480441162109375,0.17286306958980857,-0.06010463235080242,-0.1663844481602311
1769658988050429000,2.490428955078125,0.20798925496339796,-0.04572013316750526,-0.17242884289100766
1769658988060417000,2.5004169921875,0.2604243755996227,-0.06218903740942478,-0.1571547013916075
1769658988070405000,2.510405029296875,0.25860541654415425,-0.10479834508001803,-0.1421824654482305
1769658988080393000,2.52039306640625,0.22984803555011749,-0.11462474256753921,-0.10402926040366291
1769658988090380800,2.530380859375,0.18887531610541045,-0.11136661755442619,-0.060672349236160515
1769658988100368100,2.5403681640625,0.1329237117808312,-0.08116670960187912,-0.03328194574639201
1769658988110356000,2.55035595703125,0.03386018402576446,-0.050742345243692394,0.007292348965257406
1769658988120343800,2.56034375,-0.0557657263636589,-0.031333295896649356,-0.010697773494571447
1769658988130332000,2.570331787109375,-0.12006773733906448,-0.0541711506485939,-0.03783113348335027
1769658988140320000,2.580320068359375,-0.06613857875280083,0.0788578481376171,0.012389087582379579
1769658988150307800,2.590307861328125,-0.026074352455139158,0.05765080945789813,-0.03214563519284129
1769658988160295000,2.600294921875,0.06310132994875312,0.009932780471444129,-0.021034604722261426
1769658988170283000,2.610282958984375,0.2039536427717656,-0.03057867813706398,0.08737886211499571
1769658988180270800,2.620270751953125,0.29277174390964206,-0.10929974815249442,0.1122862166173756
1769658988190259000,2.630259033203125,0.3127998750030994,-0.1611105994105339,0.03480243331193924
1769658988200247000,2.6402470703125,0.4389993930954486,-0.24823709419965742,0.11418825084641575
1769658988210235000,2.65023486328125,0.06600077771730721,-0.1480126329064369,0.11654475084468721
1769658988220223000,2.660222900390625,-0.0830791921596974,-0.05485621030330658,0.09684051794335245
1769658988230210000,2.6702099609375,0.02465871350355446,0.05443067836761474,-0.007009294240176677
1769658988240198000,2.680197998046875,0.022978724527359006,0.033308979883790016,-0.03166983437463641
1769658988250186000,2.69018603515625,-0.15082177204303443,0.018009119421243665,-0.03741875329017639
1769658988260174000,2.700174072265625,-0.35453006175160406,-0.03166530432999134,0.027909020536392926
1769658988270162000,2.710161865234375,-0.3734042735695839,-0.10833061085939406,0.03621683015450835
1769658988280150000,2.72014990234375,-0.20479546389076858,-0.10656243214309215,0.1006530619688332
1769658988290137000,2.73013720703125,-0.0829014975052327,-0.0830056154668331,0.16175854192525146
1769658988300125000,2.740125,0.06137604052610695,-0.00006312836408615112,0.1402795544363558
1769658988310113000,2.750113037109375,0.08657244110293685,-0.016170213556289673,0.15442001573070882
1769658988320100900,2.760100830078125,0.0978500603120774,-0.06124737264513969,0.1176186636865139
1769658988330089000,2.7700888671875,0.1869604589274153,-0.03351648515462875,0.20122472926452756
1769658988340076800,2.780076904296875,0.21770751590132711,-0.03874795606732368,0.18322744641155003
1769658988350063900,2.79006396484375,0.132872346919775,0.12124737557768821,0.11632935452833772
1769658988360052000,2.800052001953125,-0.14380400223545728,0.19638707997500895,0.05560395993068814
1769658988370040000,2.8100400390625,-0.4399883310675621,0.20272972699999808,0.056649377330392596
1769658988380027600,2.820027587890625,-0.22406364346239716,0.057953591796755785,-0.008900660944730044
1769658988390015700,2.830015625,0.011356091272830963,-0.08602759363651274,-0.09029708764925598
1769658988400003800,2.84000390625,0.17517770320773124,-0.07322656425237656,-0.14463935708105563
1769658988409991000,2.849990966796875,0.016513875894807278,-0.03699614396393299,-0.1462944308117032
1769658988419978800,2.859978759765625,-0.15610709203481674,0.008625789526104927,-0.036306115873157976
1769658988429966800,2.869966796875,-0.11381452216319739,0.0418757326990366,0.03826704068258405
1769658988439955000,2.879954833984375,-0.06844985136985779,-0.004752747485041618,0.05050912100970745
1769658988449942800,2.88994287109375,-0.024502025104500353,-0.07083586972355842,0.0630411241941154
1769658988459931000,2.899930908203125,-0.025390534909442066,-0.11147826123535633,0.04105667140111327
1769658988469917700,2.909917724609375,0.07164017184376716,-0.125095283177495,0.008209902201592921
1769658988479905800,2.91990576171875,0.11497662474513053,-0.08084288447499274,-0.046404023778438566
1769658988489894000,2.929893798828125,0.07262907328326254,-0.04343757518827915,-0.08527648300826549
1769658988499882000,2.939882080078125,0.03832355664279312,-0.032298926058411594,-0.10228095543161034
1769658988509869800,2.949869873046875,0.05300440842416137,0.011177812096476555,-0.14832009142041205
1769658988519858000,2.95985791015625,0.04265950348787009,0.022427520385384557,-0.1539108971647918
1769658988529844700,2.9698447265625,0.027879319517873227,-0.015962708285450933,-0.1799596767872572
1769658988539832800,2.979832763671875,-0.025625512709096073,-0.011850596791505814,-0.14065321005433798
1769658988549821000,2.989821044921875,-0.005847593517042696,-0.022592355558276177,-0.11281374762281775
1769658988559809000,2.99980908203125,0.02662840614132583,-0.05294599276781082,-0.02919832969456911
1769658988569796900,3.009796875,0.020633586173318324,-0.07989128283858299,0.017462153062969447
1769658988579785000,3.019784912109375,0.030564576546475288,-0.0716430944532156,0.05199731374084949
1769658988589773000,3.02977294921875,0.022257424515485763,-0.05823883847892284,0.04820478959009051
1769658988599760000,3.039759765625,-0.023010288709402082,-0.053629298856854433,0.012179098093509673
1769658988609748000,3.049748046875,-0.0926350290775299,-0.10754209083020687,0.032062779214978215
1769658988619736000,3.059736083984375,-0.0430254141908139,-0.10941022278964518,0.0928355200856924
1769658988629724000,3.069723876953125,0.07554360902309418,-0.1139805994451046,-0.005453004708886146
1769658988639711700,3.079711669921875,0.06424596993923187,-0.09469079256355761,-0.009187953453510998
1769658988649699800,3.089699951171875,0.03787935653924942,-0.051748891937732695,-0.013147066342830657
1769658988659687000,3.09968701171875,0.010547186042740941,-0.00973930372595787,-0.02989873304888606
1769658988669674800,3.1096748046875,-0.04294942634515464,0.023223639199137686,-0.02645619137957692
1769658988679662800,3.119662841796875,-0.01130699143409729,0.05951309619843959,0.029452596716582773
1769658988689650700,3.129650634765625,0.0003998129725456238,0.06754968765974044,0.05512742846012115
1769658988699638800,3.139638671875,-0.0049777884125709534,0.13305062609612942,0.02257686572819948
1769658988709627000,3.149626953125,0.017824410504102706,0.15171733264327047,0.03509089486449957
1769658988719613700,3.15961376953125,0.08324760752916335,0.07459843712747097,0.05222717697396874
1769658988729601800,3.169601806640625,0.20280096560530364,0.012484803041815757,0.06973594565764069
1769658988739590000,3.17958984375,0.21772855868935584,-0.04983458274900913,0.07766790770068764
1769658988749577700,3.18957763671875,0.14539163675308225,-0.07105857256352902,0.022997429227828978
1769658988759565800,3.19956591796875,0.07715104421973228,-0.03229074275195598,0.03497968957498669
1769658988769554000,3.209553955078125,0.06074819095134735,0.033815760362148284,0.03335442646071315
1769658988779540700,3.219540771484375,0.05349661238789558,0.0024029694885015487,0.04808920038640499
1769658988789528800,3.22952880859375,0.058691842943429946,-0.03531564353108406,0.06479629729837179
1769658988799517000,3.239516845703125,0.07903788087964057,-0.10654080483317374,0.0835145879022777
1769658988809505000,3.249505126953125,0.062390770526602864,-0.13261632633209228,0.12172566061392426
1769658988819492900,3.259492919921875,0.015175357300043105,-0.12759002260267735,0.08311609010398388
1769658988829481000,3.26948095703125,-0.014289149050042032,-0.1305851127654314,0.07472133285477757
1769658988839467800,3.2794677734375,0.043866029733419416,-0.11972118892371654,0.055685354603826995
1769658988849455900,3.289455810546875,0.09202245013713836,-0.09728782331943511,0.04547580301761627
1769658988859444000,3.29944384765625,0.1113303041320294,-0.1243412499397993,0.023448972387611865
1769658988869432000,3.30943212890625,0.11721190951652824,-0.11701835970580578,0.04004091848731041
1769658988879420000,3.319419921875,0.08296009582467377,-0.08300853807628154,-0.012211831319332123
1769658988889408000,3.329407958984375,0.09602299101538955,-0.0599134936928749,-0.01982654410675168
1769658988899395800,3.339395751953125,0.0920996800918132,-0.06180792913734912,-0.03884425604864955
1769658988909383000,3.3493828125,0.08544314481206237,-0.02370703880190849,-0.05247004581913352
1769658988919371000,3.35937109375,0.018053506552241742,-0.031045126605033873,-0.053900224752724164
1769658988929358800,3.36935888671875,-0.040938744109869,-0.005409750089049339,-0.03151464381292462
1769658988939346700,3.3793466796875,-0.05939564383123069,0.005786766707897186,-0.008095043650269508
1769658988949334800,3.389334716796875,-0.04910572048518806,0.012280220380425453,0.026465835990756748
1769658988959323000,3.399322998046875,-0.020183613916113972,0.015611995151638984,0.05588438430726528
1769658988969309700,3.409309814453125,0.0031867402773350477,-0.019110358661413192,0.05446852615997195
1769658988979297800,3.4192978515625,0.03633504970669746,0.00031330373287200925,0.06100333475619554
1769658988989286000,3.429285888671875,0.05152432593423873,0.0442196654766798,0.06041881286650896
1769658988999273700,3.439273681640625,0.012674772655963897,0.045132104146480556,0.05850041202455759
1769658989009261800,3.44926171875,-0.048635728353261944,0.009194529324769973,0.03009031009823084
1769658989019250000,3.45925,-0.08279168045520782,-0.0493348165333271,0.03481631570681929
1769658989029236700,3.46923681640625,-0.0732978028576821,-0.06833879221081733,0.018228461260348557
1769658989039224800,3.479224853515625,-0.0958545756459236,-0.053531683701276776,0.01201367839872837
1769658989049213000,3.489212890625,-0.0831797299247235,0.0030067806005477904,0.013013064699620007
1769658989059200800,3.49920068359375,-0.06687047322392463,0.029316110855340957,0.04328676854074001
1769658989069188900,3.50918896484375,-0.09192666161246597,-0.033166356542706485,0.051136459127813574
1769658989079177000,3.519177001953125,-0.10083236405849456,-0.0360936421662569,0.076915628028661
1769658989089163800,3.529163818359375,-0.03284786517806351,-0.016516835036873817,0.05774798622205853
1769658989099152000,3.53915185546875,-0.06112111591696739,-0.05832125606536865,0.009855477451533078
1769658989109140000,3.549139892578125,-0.07674892969224602,-0.08064239346683025,-0.026835546085983514
1769658989119128000,3.559128173828125,-0.08025010621361434,-0.05046586638987064,-0.12028174541592597
1769658989129116000,3.569115966796875,-0.11920271800756453,-0.020122166052460668,-0.16615590010136366
1769658989139104000,3.57910400390625,-0.14492043904475868,0.02296469600200653,-0.11697481282502412
1769658989149090800,3.5890908203125,-0.057577744221687314,-0.030804888108372685,-0.12462927310094236
1769658989159079000,3.599078857421875,0.021532690437510608,-0.11334230154156684,-0.0379163275487721
1769658989169067000,3.60906689453125,0.032631519013643265,-0.1392389593422413,-0.02454027475565672
1769658989179054800,3.619054931640625,0.049722939068078995,-0.002245148578286171,0.037985008870810265
1769658989189042700,3.629042724609375,0.07062774339821189,0.10309271020591258,-0.049681584144383666
1769658989199030800,3.63903076171875,-0.013916297149658202,0.11659107420444488,-0.05028510299548507
1769658989209019000,3.649018798828125,0.022838439273834228,0.12216390590071677,0.0012687047615647315
1769658989219005700,3.659005615234375,0.05724931598491966,0.15013327832221984,0.026993951518088578
1769658989228993800,3.668993896484375,0.009872538184188305,0.11835633031129836,0.07436360545828938
1769658989238982000,3.67898193359375,-0.040057285100221635,0.02513970195353031,0.03283171776086092
1769658989248969700,3.6889697265625,-0.018916224328801034,-0.0004933364748954773,-0.01419569861292839
1769658989258957800,3.698957763671875,0.04439093039035797,-0.052880526316165924,-0.06569850683510303
1769658989268946000,3.70894580078125,0.10594451944045721,-0.13461422215104102,-0.1456065946780145
1769658989278932700,3.7189326171875,0.13753807370848953,-0.154901807898283,-0.16290420482903717
1769658989288920800,3.7289208984375,0.13417228706981987,-0.08793781117200851,-0.19029957675486803
1769658989298909000,3.738908935546875,0.10548983447551727,-0.0657300710171461,-0.17052578574866056
1769658989308896800,3.748896728515625,0.09314115196876227,-0.07584113066494465,-0.15317732219323515
1769658989318884900,3.758884765625,0.07980477359890938,-0.06563654751479625,-0.18428192390054463
1769658989328873000,3.768873046875,0.048999374033883214,-0.07114099014997483,-0.1835917496792972
1769658989338861000,3.778861083984375,0.03510284103062004,-0.08838087876439094,-0.19390344646573066
1769658989348847900,3.788847900390625,-0.00008888385985046624,-0.05018938753604889,-0.1784150776937604
1769658989358836000,3.7988359375,-0.0010322656571865082,-0.005464695146679878,-0.10308481916040181
1769658989368823800,3.80882373046875,0.044118579722382124,-0.03653670975863933,-0.06528846472948789
1769658989378812000,3.81881201171875,0.04756959695909172,-0.09216331991255283,-0.008734218336641788
1769658989388800000,3.828800048828125,-0.04146134321186691,-0.040083588585257526,0.017903613220155237
1769658989398788000,3.8387880859375,-0.07434775030203163,0.008465046006441115,0.002471212419122457
1769658989408775000,3.84877490234375,0.02976034749150276,-0.07148702710866928,-0.013557108448445796
1769658989418763000,3.858762939453125,0.1178103868663311,-0.07640402524471282,-0.054690206086635586
1769658989428751000,3.868751220703125,-0.032066870868206025,-0.026665304085612296,-0.06123655899018049
1769658989438739000,3.878739013671875,-0.25571192359235134,0.057035307908058164,0.00820785637497902
1769658989448726800,3.888726806640625,-0.33717673935797066,0.08250000403225421,0.0408833606608212
1769658989458715000,3.89871484375,-0.21323471786882728,0.08838087876439094,0.06492562276646495
1769658989468702000,3.908701904296875,-0.003677775197289884,0.06012918227016925,0.017158347810804844
1769658989478689800,3.918689697265625,0.08043134453203529,-0.0024988310784101486,0.00640139147490263
1769658989488678000,3.928677978515625,0.08620758984591811,-0.06802841108739376,0.05844269048795104
1769658989498665700,3.938665771484375,0.05843348426818847,-0.07417991945445537,0.09333163303956389
1769658989508653800,3.94865380859375,0.002009549724124372,-0.10981412741541861,0.13887436381354928
1769658989518642000,3.958641845703125,-0.030159064485505222,-0.145794956856966,0.17193272993713615
1769658989528629800,3.968629638671875,-0.0711901265213266,-0.1901853027254343,0.2039768044516444
1769658989538616800,3.978616943359375,-0.061104785836674266,-0.18020517598092556,0.15865765330046414
1769658989548605000,3.98860498046875,-0.0952280047127977,-0.1706388907343149,0.09387523839697241
1769658989558592800,3.9985927734375,-0.13768182956073433,-0.13800152650177477,0.05272592027634382
1769658989568580900,4.008580810546875,-0.10437113264389336,-0.131620885553956,-0.0048075464121997355
1769658989578569000,4.01856884765625,-0.05787705596182495,-0.14635083717405795,-0.04805559037774801
1769658989588556800,4.028556884765625,-0.02767364087793976,-0.15097031366825103,-0.0888848827637732
1769658989598545000,4.038544921875,-0.015411577208712696,-0.12258885331451892,-0.10438070418983697
1769658989608532000,4.048531982421875,-0.03961545961685478,-0.09076689711809158,-0.07427446587011217
1769658989618519800,4.058519775390625,-0.030633696259930728,-0.0454787256270647,-0.06255816298276186
1769658989628508000,4.0685078125,-0.0987257471680641,-0.009015081104636192,-0.03132335902452469
1769658989638496000,4.07849609375,-0.15277173706702887,0.05944996783435345,0.017043050868064163
1769658989648484000,4.088484130859375,-0.20285021157450972,0.09822364286482334,0.06089680564180016
1769658989658472000,4.098471923828125,-0.1988299430824816,0.0969920552432537,0.07330722827315331
1769658989668459000,4.108458984375,-0.16843823888488113,0.022719196808338164,0.06205503576621413
1769658989678446800,4.11844677734375,-0.12513685729689894,-0.02018354085087776,0.047621875135600567
1769658989688435000,4.12843505859375,-0.052587169392779465,0.02237199080586433,0.05357274636402726
1769658989698422800,4.1384228515625,-0.08201543538570404,0.03341945452094078,0.0807487764507532
1769658989708411000,4.148410888671875,-0.11156776614971459,0.08199906877279281,0.03527750347778201
1769658989718398700,4.158398681640625,-0.13778006577081978,0.1896539723277092,0.0929496479846537
1769658989728386000,4.168385986328125,-0.09903905090093612,0.18290157545804978,0.07073898522034287
1769658989738374000,4.178373779296875,0.019761589111760257,0.07213409284055232,-0.011577478938549756
1769658989748361700,4.18836181640625,0.07847330579943955,0.01144727668762207,0.009474661440402269
1769658989758349800,4.198349853515625,0.07530044791698455,-0.017116554495692254,0.017807605499774216
1769658989768338000,4.208337890625,0.006585150543972849,-0.01616144572794437,0.031173136898875235
1769658989778325800,4.21832568359375,-0.05679448488950729,0.010311550655961036,0.06884235781878233
1769658989788313900,4.22831396484375,-0.049567529310658574,0.010600304469466209,0.020235271038115024
1769658989798301000,4.238301025390625,-0.013232406538724898,-0.03520867602527141,0.0676607468187809
1769658989808288800,4.248288818359375,0.03865552854351699,-0.10107377159893512,0.09287249109521507
1769658989818276900,4.25827685546875,0.07354454416036606,-0.1314659872531891,0.06686769674494862
1769658989828265000,4.268264892578125,0.039595512807369226,-0.11411328591406344,0.05565466720461845
1769658989838252800,4.278252685546875,0.0015524901390075682,-0.15563947452306748,0.0032828210629522797
1769658989848241000,4.288240966796875,-0.03551452710404992,-0.11460077717006206,-0.02743526554480195
1769658989858228000,4.29822802734375,-0.07123451365232467,-0.039832244172692294,-0.0353685427621007
1769658989868215800,4.3082158203125,-0.035061961030960084,-0.02874035679399967,-0.05515840812027454
1769658989878204000,4.318203857421875,0.0112928898435086,-0.05299216999709606,-0.09534297286197542
1769658989888192000,4.32819189453125,0.054697293414548036,-0.07140519404411315,-0.13474734701141713
1769658989898179800,4.338179931640625,0.04199665566496551,-0.020415011519193647,-0.07987170135527849
1769658989908168000,4.34816796875,0.07722228282503783,0.06421674384474754,-0.03592559212297201
1769658989918156000,4.358156005859375,0.09907288010530173,0.10861994919478893,-0.0027262100934982297
1769658989928142800,4.368142822265625,0.07794599398970603,0.14599895499646662,0.017271160535514352
1769658989938131000,4.378130859375,0.05007737852893769,0.14421908584237098,0.049800388218462464
1769658989948119000,4.388119140625,0.054817558793351054,0.095367084389925,0.07515460970550775
1769658989958107000,4.39810693359375,0.11373042407631874,-0.0034101007044315336,0.14375643676668404
1769658989968094700,4.4080947265625,0.1521441066879779,-0.05725859526991844,0.20886253066658972
1769658989978082800,4.418082763671875,0.0970879168331623,-0.03877893572747707,0.2541803666435182
1769658989988071000,4.42807080078125,0.031902108760550614,-0.036140988439321516,0.25746011896654963
1769658989998057700,4.4380576171875,0.003238251268863678,-0.005945756661891937,0.22114655043929815
1769658990008045800,4.4480458984375,0.03448094627261162,-0.0011509236007928847,0.15030468936637043
1769658990018034000,4.458033935546875,0.08321129410676657,-0.02571779410243034,0.0734536510065198
1769658990028021800,4.468021728515625,0.12047573361806571,-0.04704349072575569,0.049843204446882006
1769658990038009900,4.478009765625,0.08983049305081367,-0.0993541081994772,0.01447626911997795
1769658990047998000,4.487998046875,0.018248773396015164,-0.1246329263627529,-0.03896247560083866
1769658990057984800,4.49798486328125,-0.09890461086630821,-0.09736147307753562,-0.02992109101116657
1769658990067972900,4.507972900390625,-0.171492877215147,-0.07577274160385132,-0.0032722996689379213
1769658990077961000,4.5179609375,-0.09492752392888068,-0.11068038885593413,-0.04071019605100155
1769658990087948800,4.52794873046875,-0.10843940499611199,-0.10048048188090324,-0.07018807333931326
1769658990097937000,4.53793701171875,-0.11428221274018287,-0.13226912032961843,-0.10379793586581945
1769658990107925000,4.547925048828125,-0.03395714159421623,-0.16702829902172087,-0.21586115738227962
1769658990117912800,4.557912841796875,0.06332834363766014,-0.14372691841125487,-0.14856062217801808
1769658990127900000,4.56789990234375,0.12156645146422088,-0.17147008086144924,-0.20939663754329085
1769658990137888000,4.577887939453125,0.09050612729005515,-0.141499890011549,-0.10829568567648529
1769658990147875800,4.587875732421875,0.11236264285445213,-0.11896949377357958,-0.1950162300132215
1769658990157864000,4.597864013671875,0.15772855575680733,-0.09313304172754287,-0.18480521712228654
1769658990167852000,4.60785205078125,0.06680149964094162,-0.08447101184427738,-0.2023309369407594
1769658990177839900,4.61783984375,0.12328143868856131,-0.05628945797681808,-0.2266651677303016
1769658990187827000,4.627826904296875,0.1031913482747972,-0.04110650189220905,-0.13951806854456664
1769658990197815000,4.63781494140625,0.06723170775175094,-0.01673018552660942,-0.1345782740548253
1769658990207803000,4.647802978515625,0.05204246805682778,0.04093056080341339,-0.12827610517069696
1769658990217790700,4.657790771484375,0.019284546184539793,0.07044599362313747,-0.13057605267614125
1769658990227778800,4.66777880859375,0.04267820818834007,0.0935936449766159,-0.06566489682644605
1769658990237767000,4.677766845703125,0.045375265252590176,0.11088146438598633,-0.06336553384289145
1769658990247754800,4.687754638671875,0.040024551874399183,0.0672732088059187,0.005882336036860942
1769658990257741800,4.697741943359375,0.06608838293552398,0.03215454915165901,0.07064020102098584
1769658990267730000,4.70772998046875,0.0997356548629701,-0.034089901128411294,0.04580971114709973
1769658990277717800,4.7177177734375,0.06593399609141051,-0.04390110104680061,0.09926920639500021
1769658990287705900,4.727705810546875,0.0855951935686171,-0.034816461837291715,0.09331745838373899
1769658990297694500,4.737694580078125,0.07552738854065537,-0.013046528577804565,0.05597118580788374
1769658990307682300,4.747682373046875,0.06266776083707809,-0.03687105627954006,0.010483692352473735
1769658990317670400,4.75767041015625,0.0870269799374044,-0.05370002600550651,0.0031352292858064174
1769658990327657200,4.7676572265625,0.12781257931217552,-0.05716507176756858,-0.03735869366601109
1769658990337645300,4.777645263671875,0.1825029315292835,-0.07411269943714141,-0.010815846916288136
1769658990347633400,4.78763330078125,0.18531426262296735,-0.05617898333966732,0.006076251173764467
1769658990357621500,4.79762158203125,0.13034969657436013,-0.026235680496692657,0.03852203835695982
1769658990367609300,4.807609375,0.11788286758065224,-0.037811552000045774,0.08878200691118836
1769658990377597400,4.817597412109375,0.10300189011730253,-0.13377309515178204,0.0450689757823944
1769658990387584500,4.82758447265625,0.08972893237248063,-0.23872049331367015,0.007575403690338134
1769658990397572400,4.837572265625,0.11829787812232971,-0.3046539779484272,-0.05781184523850679
1769658990407560400,4.847560546875,0.11600406809672713,-0.34202187783420085,-0.058012043985724446
1769658990417548500,4.857548583984375,0.02301701071113348,-0.40476153486371036,-0.14299392796158789
1769658990427536100,4.8675361328125,-0.07455693607330321,-0.3285235138356685,-0.2410674948312342
1769658990437524200,4.877524169921875,-0.10417349117994308,-0.3254723095715046,-0.30491774345114825
1769658990447512300,4.88751220703125,-0.1371266433633864,-0.3413607835769653,-0.28497473335787654
1769658990457499400,4.89749951171875,-0.20017887347340582,-0.2893196306943893,-0.41497605488598344
1769658990467487200,4.9074873046875,-0.06330956587195397,0.03408171782195568,-0.3452452237948775
1769658990477475300,4.917475341796875,0.0015700257956981658,0.23224574434161185,-0.12212620423883198
1769658990487463200,4.927463134765625,0.03283376358747482,0.2508797176629305,-0.051305093692988156
1769658990497451300,4.937451171875,-0.0034980712488293644,0.23754268170595166,-0.09565759176909923
1769658990507439400,4.947439453125,0.017796207322925327,0.3183475722581148,0.05835559672638774
1769658990517427500,4.957427490234375,-0.027775311154127118,0.2822135980814695,0.21142375945672393
1769658990527414300,4.967414306640625,0.09000701866149902,0.21623802787065505,0.16109949349462985
1769658990537402400,4.97740234375,0.20139234091639518,0.15734277130961416,0.08595292096510529
1769658990547390200,4.98739013671875,0.2877295850239694,0.09559855505824089,0.03364902549311519
1769658990557378300,4.99737841796875,0.37517990493997927,0.07210778935551643,-0.022895722419023514
1769658990567366400,5.007366455078125,0.39793534210547804,0.16570552598536015,-0.12639730568677185
1769658990577354500,5.0173544921875,0.18668007108345627,0.2120142726957798,-0.17399010085836053
1769658990587341300,5.02734130859375,0.08210325979962944,0.1811924334526062,-0.23687618062123655
1769658990597329400,5.037329345703125,-0.0298119315482676,0.18850655585825443,-0.2542161686092615
1769658990607317500,5.0473173828125,-0.22461334976702926,0.3034691520780325,-0.1168261981345713
1769658990617305300,5.057305419921875,-0.334792803363502,0.29393618457913395,0.02115750044956803
1769658990627293400,5.06729345703125,-0.348909006999433,0.26515198864340783,0.13763386223316193
1769658990637281500,5.077281494140625,-0.2661564895108342,0.1766781708985567,0.15988105761557816
1769658990647269400,5.087269287109375,-0.19678996168747542,-0.004601940837502479,0.19162483400925992
1769658990657256400,5.09725634765625,-0.18929010745137928,-0.17384031712412834,0.18044088443294168
1769658990667244500,5.10724462890625,-0.05562894824147224,-0.21706278825700281,0.1906834615059197
1769658990677232400,5.117232421875,0.06704349170327187,-0.20166765072643755,0.1872029259137809
1769658990687220200,5.12722021484375,0.07836319648846983,-0.16156126578748226,0.1328324533008039
1769658990697208300,5.137208251953125,0.09394903428554534,-0.06332184083163737,0.06863777515739201
1769658990707196200,5.147196044921875,0.16597995901256798,0.02101180836856365,0.08407996670007706
1769658990717184300,5.157184326171875,0.14534019882678983,-0.01600654742717743,0.0019255612351000307
1769658990727171300,5.16717138671875,-0.005602934573590755,0.131835405087471,0.06792451232150197
1769658990737159200,5.1771591796875,-0.038894963322579856,0.09361293419897555,0.07178790975138545
1769658990747147300,5.187147216796875,-0.0447577178761363,-0.049340661752223965,0.16161474954038857
1769658990757135400,5.19713525390625,-0.05359831919670105,-0.17343991962969302,0.1639541522733867
1769658990767123200,5.207123291015625,-0.018273615576326847,-0.252480723118782,0.2000597771383822
1769658990777111300,5.217111328125,-0.03655526832863688,-0.2981365588784218,0.26116715679094193
1769658990787099400,5.227099365234375,0.05430515229180455,-0.28827801268696784,0.3047844724602997
1769658990797086200,5.237086181640625,0.19160189152508972,-0.22297931882441044,0.6027472822070121
1769658990807074300,5.24707421875,0.39216143487915395,-0.13231763564646243,0.6562072158463299
1769658990817062400,5.2570625,0.5109280995570122,-0.10030570983588695,0.5010499718822539
1769658990827050500,5.267050537109375,0.3936624870918691,0.05706161139309406,0.4197257336311042
1769658990837038300,5.277038330078125,0.26992168726325033,0.09543839606046677,0.10724413079693913
1769658990847026400,5.2870263671875,0.10598930843025445,0.10553542718291282,-0.08800020888373256
1769658990857013200,5.29701318359375,0.03452726963236928,0.050941082686185836,-0.15285685806721447
1769658990867001300,5.30700146484375,0.1000042426712811,-0.01617898138463497,-0.14154884371981025
1769658990876989400,5.316989501953125,0.14481632108315826,-0.06852583921551704,-0.08812485817670822
1769658990886977500,5.3269775390625,0.1346924019537866,-0.13481003698408603,-0.10748100829273462
1769658990896965400,5.33696533203125,0.11538374424129724,-0.165310389187932,-0.1390831842586398
1769658990906953200,5.346953125,0.08467384093999862,-0.11029401988685131,-0.16614128705412148
1769658990916941300,5.35694140625,-0.017949644318968058,-0.03638648763298988,-0.1257021630294621
1769658990926928400,5.366928466796875,-0.09648658993914723,0.013486673560738563,-0.06077332539260387
1769658990936916200,5.376916259765625,-0.13620149134248494,0.07585340562462806,0.0215488378547132
1769658990946904300,5.386904296875,-0.1329568103328347,0.07188157938420772,0.07649608744233846
1769658990956892200,5.39689208984375,-0.0896038446880877,-0.003700608083605766,0.07668868740499019
1769658990966880300,5.40688037109375,-0.035561288855224846,-0.06573240910470485,0.07937105835676193
1769658990976868400,5.416868408203125,0.06602993074655532,-0.027936639195680617,0.08732289414405822
1769658990986856200,5.426856201171875,0.15373627125024794,0.10958324126899242,0.08176496775597333
1769658990996843300,5.43684326171875,0.1730522354863584,0.21162381207346914,0.14836334604024887
1769658991006831400,5.446831298828125,0.1759834666326642,0.28266426445841786,0.13938099816143512
1769658991016819200,5.456819091796875,0.20428367844372985,0.2812333548724651,0.016702420736849306
1769658991026807300,5.466807373046875,0.1313242406949401,0.22306348997652528,0.02963525980710983
1769658991036795400,5.47679541015625,0.15036942516565321,0.27428280508220193,0.07452186475992202
1769658991046783500,5.486783447265625,0.2642448106706142,0.2477759064286947,0.1429851601332426
1769658991056771300,5.496771240234375,0.3619651801884174,0.11259762065410614,0.25385537247285245
1769658991066758400,5.50675830078125,0.39669074887186284,0.07801905922591686,0.1848487640030682
1769658991076746200,5.516746337890625,0.38109760455116626,0.037139936348795886,0.13674378152564168
1769658991086734300,5.526734375,0.381763959505409,-0.042057519006729126,0.02861687654480338
1769658991096722400,5.536722412109375,0.40869522105082867,-0.20024492444694042,0.05501278910450637
1769658991106710500,5.54671044921875,0.38397111416086555,-0.33369828612506386,-0.025367154033854603
1769658991116698400,5.556698486328125,0.2698708338588476,-0.2971107229620218,-0.04638385777324438
1769658991126686200,5.566686279296875,0.1809434271275997,-0.18539923749268053,-0.08321151330247521
1769658991136673500,5.576673583984375,0.0958417161643505,-0.12811200065016745,-0.19429916778504847
1769658991146661400,5.586661376953125,-0.022072861728817224,-0.1544055488139391,-0.2345318825174123
1769658991156649500,5.5966494140625,-0.09516133268475532,-0.19570202032029627,-0.2501972152914852
1769658991166637300,5.60663720703125,-0.12542115413099528,-0.24011574706435201,-0.19058212002329528
1769658991176625200,5.616625244140625,-0.12241028187721967,-0.20391338382661342,-0.1458851924236864
1769658991186613200,5.62661328125,-0.06393938820809125,-0.19936346543729305,-0.09606010815538465
1769658991196600300,5.636600341796875,-0.06289689341783523,-0.17086919235885142,-0.042760479644313454
1769658991206588200,5.646588134765625,-0.02655570623129606,-0.12770809602439404,-0.029201763760671018
1769658991216576300,5.656576171875,0.05497574502974748,-0.15735329270362852,-0.10278956254087387
1769658991226564400,5.666564453125,0.1291688162267208,-0.2186100176990032,-0.1496205064944923
1769658991236552200,5.67655224609375,0.1939785575285554,-0.15750468387305736,-0.13185557109266519
1769658991246540300,5.686540283203125,0.123747814091295,-0.11451602149605751,-0.07573533220291137
1769658991256528400,5.6965283203125,-0.012827917391061781,-0.12268413038253784,0.03108560474589467
1769658991266515200,5.70651513671875,-0.05452317895665765,-0.14350655365884304,0.024309242478758094
1769658991276503300,5.71650341796875,-0.13590601552724837,-0.24424773230254648,-0.009639496613293885
1769658991286491400,5.726491455078125,-0.16382745715379715,-0.3063870853513479,0.0036884792543947693
1769658991296479000,5.73647900390625,-0.19803747753053902,-0.3428483917862177,0.06417977283522486
1769658991306467000,5.746467041015625,-0.24058701783791184,-0.27451427575051784,0.029951924540847538
1769658991316455000,5.756454833984375,-0.33013343325033784,-0.15321896937787532,-0.003835632640123367
1769658991326443000,5.766443115234375,-0.33963264461010695,0.004682604858279228,-0.1208240355990827
1769658991336430000,5.77643017578125,-0.32404695294350383,0.07621931632757187,-0.14406111880168318
1769658991346418000,5.78641796875,-0.2799649423718452,0.054573886230587954,-0.13727715774998067
1769658991356406000,5.796406005859375,-0.2342611758172512,0.035602643778920175,-0.059605450657010076
1769658991366394000,5.80639404296875,-0.07468669993281364,0.14782792398929595,0.05249298830330371
1769658991376382000,5.8163818359375,0.011437924337387084,0.19074995087087154,0.12860869812592862
1769658991386370000,5.8263701171875,0.044916123308241365,0.23450609048902987,0.23763547455593942
1769658991396358000,5.83635791015625,0.0351896790638566,0.23461247347295283,0.26574016379490495
1769658991406345000,5.846344970703125,0.018689356770366428,0.16372575034499168,0.3290015066109597
1769658991416333000,5.8563330078125,0.25835750619769093,0.29659049848020075,0.3351654360681772
1769658991426321200,5.866321044921875,0.2030592512153089,0.149463416236639,0.13839943977817892
1769658991436308700,5.876308837890625,0.013948884245008229,-0.06438274806141853,0.17665990458950398
1769658991446296800,5.886296875,0.006069675302505493,-0.21553192542791366,0.010323679485172033
1769658991456285000,5.896284912109375,0.04200359686240553,-0.28474633142948147,-0.17756401382237672
1769658991466273000,5.90627294921875,-0.018123685711622237,-0.2409878537237644,-0.36929946859925983
1769658991476259800,5.916259765625,0.014058043707907199,-0.1767921526670456,-0.5949409923702478
1769658991486248000,5.926248046875,-0.02000321584790945,-0.06296937413215636,-0.6805263221319764
1769658991496235800,5.93623583984375,-0.07058423305004835,0.11990239070951939,-0.7047283048439771
1769658991506223900,5.946223876953125,-0.16304653590917587,0.19071371051371097,-0.45543366441540417
1769658991516212000,5.9562119140625,-0.1298695118419826,0.14421674775481222,-0.23295345421954988
1769658991526200000,5.966199951171875,0.02179126830846071,0.08293138118684291,-0.18541823445409536
1769658991536188000,5.97618798828125,0.02997179828509688,-0.029597265884280202,-0.164439451572299
1769658991546175000,5.986175048828125,0.06705474374964833,-0.0807709882825613,-0.1852186202287674
1769658991556163000,5.9961630859375,0.07936433635503053,-0.05913198792636394,-0.08326360881589352
1769658991566151000,6.00615087890625,0.06187383398041129,0.06374620372354983,-0.004046791172772646
1769658991576139000,6.016138916015625,-0.03589826572462916,0.11767536230981349,0.014736235230416058
1769658991586127000,6.026127197265625,-0.07902151426672935,0.14373568623960017,-0.044508127029240126
1769658991596115000,6.036114990234375,-0.029287323152273892,0.1912093850761652,-0.1532823169376701
1769658991606102000,6.04610205078125,-0.07812339638322591,0.2038128460615873,-0.2168454191792756
1769658991616090000,6.056090087890625,-0.021888591203093527,0.24429800118505954,-0.18045491295829413
1769658991626078000,6.066077880859375,0.006597790829837322,0.1254687926650047,-0.15892324543409048
1769658991636066000,6.076066162109375,0.006487900714576244,0.0548334139496088,-0.09821743231974542
1769658991646054100,6.08605419921875,0.0126768184825778,0.06595628098845481,-0.040314328601211306
1769658991656042000,6.0960419921875,-0.04057721732109785,-0.03614566461443901,0.03181976423934102
1769658991666029800,6.10602978515625,-0.14657792392820118,-0.17585750216543675,0.036961145715788006
1769658991676017200,6.11601708984375,-0.17426906393021344,-0.2261883439987898,0.01435293500125408
1769658991686005000,6.1260048828125,-0.20110504840761423,-0.23133681280314922,0.031050752628222107
1769658991695992800,6.135992919921875,-0.18502397443950175,-0.19686989505589006,0.05142448228895664
1769658991705981000,6.14598095703125,-0.1293517715781927,-0.15476795238554478,0.05043313316404819
1769658991715968800,6.15596875,-0.03915799817293882,-0.1099374615341425,0.061918038448318835
1769658991725956900,6.165956787109375,0.04992401459813118,-0.061729018682241434,0.09464870698750019
1769658991735945000,6.175945068359375,0.10354834501892328,-0.12375146735310553,0.048955973283573984
1769658991745931800,6.185931884765625,0.27059417969733474,-0.06955868939459324,0.00901844210550189
1769658991755920000,6.195919921875,0.34940468156188725,-0.10330430712997912,-0.010552373674511908
1769658991765908000,6.205907958984375,0.29878596269786356,-0.161964585891366,0.02353197449594736
1769658991775896000,6.21589599609375,0.2589931737527251,-0.1395470023781061,0.0540813534732908
1769658991785884000,6.2258837890625,0.1693488509237766,-0.13276947106719017,0.0783784671228379
1769658991795872000,6.2358720703125,0.05102291575074196,-0.1737275043994188,0.11162205362021922
1769658991805860000,6.245860107421875,0.045750528305768964,-0.13307576053738593,0.10579298214055598
1769658991815847000,6.255846923828125,0.029110359150171277,-0.20369009646475314,0.047471872205659744
1769658991825835000,6.2658349609375,0.06265197874605655,-0.24698797092139718,-0.03451280271559953
1769658991835823000,6.275822998046875,0.09349836790859699,-0.2721820334106684,-0.11440423168465494
1769658991845811000,6.28581103515625,0.07394932556897402,-0.24330723658204076,-0.1506054989438504
1769658991855799000,6.295799072265625,0.19903671770095824,-0.14675766440927981,-0.210008047439903
1769658991865787100,6.305787109375,0.3034723669484258,0.05227729972600936,-0.21958996864706276
1769658991875775000,6.31577490234375,0.19927900202423332,0.1316688163489103,-0.22528934933245182
1769658991885762000,6.325761962890625,0.12952625136226414,0.15105506934225557,-0.16882314654923974
1769658991895750100,6.335750244140625,0.03144844670891762,0.12475158430635928,-0.12994601114429533
1769658991905738000,6.345738037109375,0.028310440944135186,0.03848492121696472,-0.0382113649725914
1769658991915725800,6.355725830078125,0.048126902048289774,-0.13172317688465118,-0.02930748915746808
1769658991925714000,6.3657138671875,0.08453472473025321,-0.25467969446778294,-0.0646377457357943
1769658991935701800,6.37570166015625,0.06450637444108724,-0.27327158221304415,-0.003743132051080465
1769658991945689900,6.38568994140625,-0.012119476860761641,-0.17438333795964717,0.10206899318136274
1769658991955677000,6.395677001953125,-0.07590951972603797,-0.08195055345594883,0.2661313550695777
1769658991965664800,6.405664794921875,-0.04432517167776823,0.07568564784228801,0.34064262537024914
1769658991975652900,6.41565283203125,-0.04015110086351633,0.21945348278582094,0.3628339989122003
1769658991985641000,6.425640869140625,-0.00639700756072998,0.26086159797310826,0.29406982089616357
1769658991995629000,6.435629150390625,0.02047200240343809,0.22588731522560118,0.2272219978954643
1769658992005617000,6.445616943359375,0.09619389060288668,0.060628948485851285,0.0943780733525753
1769658992015605000,6.45560498046875,0.21242723741084335,-0.01590484061837196,0.00010864800624549389
1769658992025591800,6.465591796875,0.28182752137333156,0.1107908634930849,-0.06156432963982224
1769658992035580000,6.475579833984375,0.1349158354461193,0.003139467069506645,-0.0997598394561559
1769658992045568000,6.485568115234375,0.14060937091261147,-0.07703647792935371,-0.12391308765560388
1769658992055556000,6.49555615234375,0.2115843568459153,0.0070101710230112075,-0.15109686265736819
1769658992065544000,6.5055439453125,0.17981968379467725,-0.005866261684894561,-0.12098792092390358
1769658992075532000,6.515531982421875,0.185730369143188,-0.11592296568453311,-0.13382588478494434
1769658992085520100,6.52552001953125,0.15318389806449412,-0.2834907784104347,-0.12745097945816813
1769658992095507000,6.5355068359375,0.10821078387200832,-0.38065117595791814,-0.14712247913368046
1769658992105495000,6.5454951171875,0.08283230472654103,-0.34670915886759757,-0.1595269104156643
1769658992115483100,6.555483154296875,-0.027681495390832422,-0.23546996708512305,-0.1402747321307659
1769658992125471000,6.565470947265625,-0.13527268605977297,-0.10698796407878398,-0.18467289597950876
1769658992135459000,6.575458984375,-0.1164002278074622,0.027075638452172278,-0.15330025445315987
1769658992145447000,6.585447021484375,-0.06292378142476081,0.2263835743099451,-0.09899258141070603
1769658992155434800,6.595434814453125,-0.10557254432290791,0.22489187444746492,-0.040842955585196614
1769658992165422000,6.605422119140625,0.016570318789780138,0.2367927401214838,-0.020432729838974772
1769658992175410000,6.615409912109375,0.1017784127369523,0.3038900078386068,-0.014379676877707243
1769658992185397800,6.625397705078125,0.05864654249697923,0.31610651533305645,0.05229969422090798
1769658992195385900,6.6353857421875,0.04533639454692602,0.2820294736862182,0.08658847892228513
1769658992205374000,6.6453740234375,0.02071165637820959,0.16994272516369818,0.11694807094857096
1769658992215362000,6.655362060546875,0.013902268624305724,0.12706804455518722,0.12743673173710704
1769658992225350000,6.665349853515625,-0.0651379503428936,0.07415536953508854,0.14006171043459326
1769658992235337000,6.6753369140625,-0.09537263734787702,0.044054830303788185,0.09594079262465238
1769658992245324800,6.68532470703125,-0.1214370529308915,0.028595979887247085,0.07101213960591703
1769658992255313000,6.69531298828125,-0.1682414742037654,-0.03286357420384884,0.06207202343363315
1769658992265301000,6.705301025390625,-0.1531587636232376,-0.15468085862398145,0.08945935818348079
1769658992275289000,6.7152890625,0.013422960674762724,-0.24638415980935097,0.1211433672139421
1769658992285277000,6.72527685546875,0.08083470116853714,-0.19304244572222232,0.16743118073418736
1769658992295264300,6.73526416015625,0.0450385806441307,-0.03505027059316635,0.16333083274327218
1769658992305252400,6.74525244140625,-0.16206073974221943,0.10204466245770454,0.18082370973806827
1769658992315240200,6.755240234375,-0.34401685104370117,0.0978068787574768,0.2058927576081827
1769658992325228300,6.765228271484375,-0.33083266756087537,0.0011813187390565872,0.22834157650992273
1769658992335216400,6.77521630859375,-0.31395021408200263,-0.13028642207980154,0.19187113692052662
1769658992345204500,6.78520458984375,-0.23605127410441637,-0.19819442165791987,0.1266418915649876
1769658992355192000,6.795192138671875,-0.14119272375851868,-0.13257540979981422,0.08513999714702367
1769658992365180200,6.80518017578125,-0.11021890882402657,-0.028626959547400473,0.058288413241691886
1769658992375167500,6.81516748046875,-0.11699585561305284,0.06115618723034858,0.04098112194687128
1769658992385155300,6.8251552734375,-0.09595569793283938,0.0594037906050682,0.07525058089327066
1769658992395143200,6.83514306640625,0.002659282337129116,0.004545242214202881,0.07341364778969436
1769658992405131300,6.84513134765625,0.052610477203130716,-0.03250935393869877,0.05922953001670539
1769658992415119000,6.855119140625,0.10045096352547407,-0.01397474933862686,0.10275438162963836
1769658992425107200,6.865107177734375,0.09799830967634916,-0.006150339323282242,0.14425145374201237
1769658992435094300,6.87509423828125,0.02178659213334322,-0.0407382531017065,0.20742877153642475
1769658992445082000,6.88508203125,0.021929215474426746,-0.03375438556373119,0.22941757171098143
1769658992455070200,6.8950703125,0.031868425686657424,-0.05891103865206241,0.21427147703804075
1769658992465058300,6.905058349609375,0.0733484370663762,-0.1660948175638914,0.11079071736261248
1769658992475046100,6.915046142578125,0.059987143450975416,-0.1851139908105135,-0.019234204236790536
1769658992485034200,6.9250341796875,0.005765431658923625,-0.0812193165719509,-0.1451123448876664
1769658992495022300,6.935022216796875,-0.1291524496138096,-0.09643792849183082,-0.18750026489254087
1769658992505010400,6.945010498046875,-0.16107903522849082,-0.17106909884512422,-0.24376975779356433
1769658992514997200,6.954997314453125,-0.13490209918171167,-0.09819558581411839,-0.24431782013038172
1769658992524985300,6.9649853515625,-0.1526119433954358,-0.013235329148173332,-0.15491996460948138
1769658992534973200,6.97497314453125,-0.18204817349910735,-0.012915011152625083,-0.04574587039696052
1769658992544961300,6.984961181640625,-0.15985212378203867,-0.05833119293749332,0.07352574812835082
1769658992554949400,6.994949462890625,-0.08400017946213484,-0.06729951229095459,0.09269335340233519
1769658992564937500,7.0049375,0.028638649985194206,-0.06174187816381454,0.09232057456718758
1769658992574924300,7.01492431640625,0.12985972110033034,-0.0038689503878355023,0.06201495948415249
1769658992584912400,7.024912353515625,0.17549509859383106,0.0782563751131296,-0.0043662323854863645
1769658992594900500,7.034900390625,0.12790244955271482,0.1041115318596363,-0.01971172208804637
1769658992604888300,7.044888427734375,0.050447746211290355,0.07443827812969685,-0.06756968926815315
1769658992614876200,7.054876220703125,-0.01874269439280033,-0.009774375039339065,-0.09619845718014985
1769658992624864300,7.0648642578125,-0.07615911057293415,-0.1199801321208477,-0.08863194918232038
1769658992634852000,7.07485205078125,-0.16875293085724113,-0.29808161382079124,-0.020759532374236733
1769658992644840200,7.084840087890625,-0.1878773180440068,-0.42116205004453655,0.011697461189562454
1769658992654827300,7.0948271484375,-0.1406020643889904,-0.33723230547010896,0.0010330693747848273
1769658992664815000,7.104815185546875,-0.20576748726069927,-0.2754272989422083,-0.02777443437129259
1769658992674803200,7.11480322265625,-0.17142887206822632,-0.18792612562179564,-0.030449380068434402
1769658992684791300,7.124791259765625,-0.10655424883663654,-0.08092647110521793,-0.014999763271119444
1769658992694779100,7.134779052734375,-0.01317220078408718,-0.14153613036870955,0.010761742108874022
1769658992704767200,7.144767333984375,0.12229483880400657,-0.20234686516225336,0.08390569697855971
1769658992714755300,7.15475537109375,0.15567045418322084,-0.1724205134540796,0.06995059305531903
1769658992724742100,7.1647421875,0.15153671537935734,-0.027969372421503064,0.059799584989622234
1769658992734730200,7.174730224609375,0.05108721315860748,-0.014341244563460349,-0.03549916513813659
1769658992744718300,7.18471826171875,-0.0026256723284721374,-0.051752399069070816,-0.059993271797662596
1769658992754706200,7.1947060546875,0.021408406470716,-0.15176234082877635,-0.05221094735837541
1769658992764694300,7.2046943359375,0.07501783158332109,-0.2177946096628904,-0.05309598656459711
1769658992774682400,7.214682373046875,0.1010351931542158,-0.15033844550549982,-0.03223346873992122
1769658992784670500,7.22467041015625,0.0078080434024333945,-0.08435995268523692,-0.07577489702831953
1769658992794657300,7.2346572265625,-0.05404898557364941,0.07223638417124748,-0.11002727697575464
1769658992804645400,7.244645263671875,-0.05945902792364358,0.11901216387152672,-0.08156923512131907
1769658992814633500,7.254633544921875,0.017566928611695766,0.10601064347922802,-0.04688228141521104
1769658992824621300,7.264621337890625,0.14572306066453455,0.13923194507956504,-0.018258860965189524
1769658992834609200,7.274609130859375,0.13555997856855392,0.17877543543875216,-0.10217339427075348
1769658992844597200,7.28459716796875,0.09792202956974506,0.27011048783361913,-0.15811592937288804
1769658992854585000,7.294585205078125,0.19128595744371413,0.3844885621637106,-0.10188202837505378
1769658992864572200,7.304572265625,0.31626316719949243,0.3515437394171953,-0.08940596576211973
1769658992874560300,7.314560302734375,0.3106622784525156,0.17098142056167126,0.053815957702486775
1769658992884548000,7.324548095703125,0.3482517121344805,-0.07046586736738682,0.03087145510513801
1769658992894536200,7.3345361328125,0.26623452318310736,-0.14734803151786327,0.054931695825466885
1769658992904524300,7.344524169921875,0.4694008880347013,0.15498481000661848,-0.06371039262465202
1769658992914512100,7.35451220703125,0.33089725722968577,0.11331132188141345,-0.19869639809699727
1769658992924500200,7.364500244140625,0.1279489190429449,-0.01408113232254982,-0.23130639939857645
1769658992934487300,7.3744873046875,0.060465866878628725,-0.05108487507104873,-0.17171466673966496
1769658992944475100,7.38447509765625,-0.03344809609353542,-0.1063122567743063,-0.10542546400241554
1769658992954463200,7.394463134765625,-0.07868103026598691,-0.02557224815189838,-0.05350063097588718
1769658992964451300,7.404451416015625,-0.070099956664443,0.006633738926053047,-0.08897875332599506
1769658992974439200,7.414439208984375,-0.08895429473817348,-0.12007657823264598,-0.1529784751528874
1769658992984427300,7.42442724609375,0.010227379503846168,-0.18483166673779486,-0.1258443297128193
1769658992994415400,7.434415283203125,0.062167994621396064,-0.2580880416065454,-0.020986180736962706
1769658993004402200,7.444402099609375,0.0007078560084104537,-0.25527415322959424,0.07839501639883965
1769658993014390300,7.454390380859375,-0.1653723485082388,-0.17254209400713444,0.27012004111325366
1769658993024378400,7.46437841796875,-0.39064240861833094,-0.10177344430088996,0.287083085547667
1769658993034366500,7.474366455078125,-0.3736813369452953,-0.08891337820589541,0.2010225577559322
1769658993044354300,7.484354248046875,-0.19416472775042057,-0.16012860263586043,0.13526210986683143
1769658993054342100,7.494342041015625,-0.06703443161398172,-0.19870120213627815,0.13562243107920513
1769658993064330200,7.504330322265625,-0.05959025308787822,-0.20361177053153515,0.15512012682408094
1769658993074317300,7.5143173828125,-0.11705898397713899,-0.1854185267150402,0.13912959894994273
1769658993084305400,7.524305419921875,-0.17337386865615845,-0.15531857200562954,0.10559797102510929
1769658993094293200,7.534293212890625,-0.1925251438498497,-0.16176701749265193,0.11136961322911083
1769658993104281000,7.544281005859375,-0.24395780944526194,-0.12078969493806362,0.018661701578460633
1769658993114269200,7.554269287109375,-0.17490327018052337,0.011875731232762336,0.033808563436381514
1769658993124257300,7.56425732421875,-0.059983344058692455,0.14917700051069258,0.07368157801087945
1769658993134245000,7.5742451171875,0.014800094246864319,0.2260603337049484,0.04264755732174962
1769658993144232200,7.584232177734375,0.030781799493730066,0.27510931903421876,-0.09458028139378875
1769658993154220300,7.59422021484375,0.051858197531104086,0.27574586337208745,-0.11668529182653874
1769658993164208000,7.6042080078125,0.11537117702066897,0.22661972115337847,-0.11005995540264993
1769658993174196200,7.6141962890625,0.20973346828222272,0.16665829666554927,-0.007973901488631963
1769658993184184300,7.624184326171875,0.29011984116137024,0.10942542035877705,0.1427779471233487
1769658993194172200,7.634172119140625,0.24820874488800762,0.08512509183883667,0.3401780400658026
1769658993204160300,7.64416015625,0.0872498289078474,-0.041650107249617575,0.3603274594513699
1769658993214147300,7.654147216796875,-0.0416901469990611,-0.13831132310330868,0.47680747449677435
1769658993224135200,7.66413525390625,-0.08242518523037433,-0.2558306180685758,0.4144843258462846
1769658993234123300,7.674123291015625,-0.03698533030897379,-0.3147954327344894,0.46950851312763986
1769658993244111400,7.684111328125,-0.016918109314143656,-0.3012807021230459,0.44215252336412664
1769658993254099500,7.694099365234375,0.046185412591695785,-0.18371172279715536,0.2120088658683002
1769658993264087300,7.70408740234375,0.05292670354545116,-0.08852584019303321,0.043526166787184774
1769658993274075400,7.714075439453125,0.05344254411309957,-0.08037818957269191,-0.17617115295818075
1769658993284062200,7.724062255859375,0.25611878736019134,0.10948737967908381,-0.4310260030634701
1769658993294050300,7.73405029296875,0.4442448194682598,0.3834270704120397,-0.6298929171554744
1769658993304038400,7.744038330078125,0.48610886172950263,0.6561860269278288,-0.6170568895231932
1769658993314026200,7.754026123046875,0.479927542746067,0.7707149079054594,-0.46769039432238785
1769658993324014300,7.764014404296875,0.6048837097138166,0.7617951038688421,-0.26555775643270463
1769658993334002400,7.77400244140625,0.7077949258729815,0.5453419719427823,-0.022182313452661036
1769658993343990500,7.783990478515625,0.5802262383192778,0.2765998498529196,0.23890575022008267
1769658993353977300,7.793977294921875,0.2565215229421854,0.020535423028469085,0.5218417442919686
1769658993363965400,7.80396533203125,0.04695639696419239,-0.09884498963356017,0.587952448657155
1769658993373953500,7.81395361328125,-0.045476387539505954,-0.014707155266404152,0.33777306128330525
1769658993383941400,7.82394140625,-0.16906214293688535,0.040142625296115876,0.09805650613699107
1769658993393929500,7.833929443359375,-0.22290450002253054,0.08352408638298511,-0.02389854278601706
1769658993403917600,7.84391748046875,-0.17880290796756743,0.09354220705032348,-0.1919837304495275
1769658993413905400,7.853905517578125,-0.148978555329144,0.09028525108098984,-0.3026969986617565
1769658993423892500,7.863892578125,-0.14152180958241223,0.08058160319030284,-0.4447195243079215
1769658993433880600,7.873880615234375,-0.15864567060172557,0.022283143478631973,-0.5163595500212163
1769658993443868400,7.883868408203125,-0.16861615273505448,0.0009229600638151168,-0.5125034591149539
1769658993453856500,7.8938564453125,-0.22800679159760473,-0.031059739652276038,-0.36886202703006565
1769658993463844600,7.9038447265625,-0.2611459678724408,-0.14095277752280236,-0.19821385701075195
1769658993473832400,7.91383251953125,-0.2197130105048418,-0.21674890000224112,-0.04327759885359555
1769658993483820500,7.923820556640625,-0.17792261800169945,-0.20298399402201175,0.004665690256096423
1769658993493808400,7.933808349609375,-0.12015227381736039,-0.14427753803133964,-0.02651807763464749
1769658993503795500,7.94379541015625,-0.0981774656355381,-0.059682023024559015,-0.00891501826364547
1769658993513783600,7.953783447265625,-0.11090806013196707,-0.017296002715826035,0.06652114832960068
1769658993523771600,7.963771728515625,-0.04172258796393871,0.010222703328728676,0.09912355084661394
1769658993533759200,7.97375927734375,-0.050320612700283526,-0.06782324390411376,0.06431669708788394
1769658993543747300,7.983747314453125,-0.08096241920143366,-0.12422960625886917,0.014717238269001245
1769658993553735400,7.9937353515625,-0.062119479304552076,-0.006827800193428993,-0.08521350077465176
1769658993563723500,8.0037236328125,-0.025526363183557985,0.0993535236775875,-0.1635795102747157
1769658993573710300,8.01371044921875,0.020461188748478888,0.16248597941696644,-0.2595770380552858
1769658993583698400,8.023698486328126,0.1350859313160181,0.18967150798439977,-0.2472647785687819
1769658993593686500,8.0336865234375,0.18857085326611994,0.19096563944816589,-0.18623484806660562
1769658993603674400,8.04367431640625,0.16912673260569572,0.07880757925510407,-0.05301076509971171
1769658993613662500,8.053662353515625,0.12434504933208226,-0.1037368533283472,0.07960563429761677
1769658993623650600,8.063650634765626,0.08967822509855032,-0.2187140625953674,0.2582066630175337
1769658993633638400,8.073638427734375,-0.005514671768248081,-0.2713344766706228,0.34634514786079523
1769658993643625500,8.08362548828125,-0.14509382285028696,-0.2779360668927431,0.3531660799220204
1769658993653613600,8.093613525390625,-0.15992811162769793,-0.19413959330916403,0.22011158136837183
1769658993663601400,8.103601318359376,-0.11654080532193183,-0.10432838948071002,-0.07711728808060288
1769658993673589500,8.113589599609375,-0.07761106294691562,-0.008349310672283172,-0.3345143517483026
1769658993683577600,8.12357763671875,-0.03833323778659105,0.05310848985314369,-0.4461331174328923
1769658993693565400,8.1335654296875,-0.011388239976763725,0.07542436655759811,-0.4496355725958943
1769658993703553500,8.143553466796876,0.03194967422932386,0.051422144201397894,-0.36390089749135074
1769658993713540600,8.15354052734375,0.03763502638936043,0.03666588909626007,-0.20783063033558427
1769658993723528400,8.163528564453125,0.08306114504635334,0.08881927018165588,-0.017898717849329112
1769658993733516500,8.1735166015625,0.09206979641020298,0.07221241877377033,0.16526362743675707
1769658993743504600,8.183504638671875,0.11221826594769954,-0.04014437886178493,0.29725729182586075
1769658993753492500,8.193492431640625,-0.05019581727683544,-0.2053822873353958,0.39733262697197497
1769658993763480300,8.203480224609375,-0.035572833162546155,-0.2688923442155123,0.4691909716110676
1769658993773468400,8.213468505859375,0.030074235746264454,-0.250757552587986,0.4965156163882464
1769658993783455500,8.22345556640625,0.05462532415688037,-0.1714279952853918,0.4874081077598035
1769658993793443300,8.233443359375,0.04696136540025472,-0.033579613518714906,0.4701971529789269
1769658993803431400,8.243431396484375,-0.015479308682680128,-0.0016278934627771376,0.4435742267303169
1769658993813419500,8.25341943359375,-0.00942512321025133,-0.0521972202271223,0.38678997097387907
1769658993823407400,8.263407470703125,0.038894671061635015,-0.02443652212023735,0.27538207156099376
1769658993833395500,8.2733955078125,0.0661687546953559,0.061598670300841325,0.1783133708849549
1769658993843383600,8.283383544921875,0.035978491353988645,0.058819853237271305,0.045658393042907114
1769658993853371400,8.293371337890624,0.06915887642204761,0.005265957704186439,-0.024919191070646045
1769658993863358500,8.3033583984375,0.09360767350196837,-0.05607727653086185,0.03456869762130081
1769658993873346600,8.3133466796875,0.10062778139710425,-0.08363222293257713,0.15107216660752892
1769658993883334400,8.32333447265625,0.16187983021736144,-0.11759762089848518,0.2657830530885607
1769658993893322500,8.333322509765624,0.1529541809618473,-0.09976794969737529,0.3935708632856607
1769658993903310600,8.343310546875,0.08964549187272787,-0.1364022746115923,0.3796780200768262
1769658993913298400,8.35329833984375,0.09258476019501685,-0.129683195489645,0.2720305691760033
1769658993923286500,8.36328662109375,0.11979863807410002,-0.08966273526847363,0.16347389447577296
1769658993933273600,8.373273681640624,0.06178221017420291,0.02257774251103401,0.0644722895083949
1769658993943261400,8.383261474609375,0.04344312814623117,0.1624959162890911,-0.0992252211228013
1769658993953249500,8.39324951171875,0.046991468277573584,0.246160287925601,-0.2720881811147556
1769658993963237600,8.403237548828125,0.06722323218435049,0.22902269064188002,-0.36342885953281073
1769658993973225500,8.4132255859375,0.1307128307983279,0.2100695683687925,-0.3080471640506759
1769658993983213300,8.42321337890625,0.0968853799983859,0.16325930187702178,-0.21990308971684425
1769658993993201400,8.433201416015624,0.05062748669236898,0.09074059363305569,-0.10088869735561311
1769658994003188500,8.4431884765625,0.08183949429690837,0.0670113429993391,-0.0015532938566058874
1769658994013176300,8.45317626953125,0.01191781680881977,0.07046878997683524,0.009019099692627788
1769658994023164400,8.463164306640625,-0.04162906446158886,0.0005307458758354186,-0.034060090512037275
1769658994033152500,8.473152587890626,-0.031032851645350454,-0.08804185606837273,-0.04792582651823759
1769658994043140400,8.483140380859375,-0.014686112478375434,-0.101422731167078,-0.013169680033437907
1769658994053128400,8.49312841796875,0.0624625936537981,-0.006430325308442115,-0.08081026084702461
1769658994063116500,8.503116455078125,0.14292203176915644,0.07572188819944858,-0.17644428907744586
1769658994073103400,8.513103271484376,0.18228636616915464,0.10495908859968185,-0.25340287946499884
1769658994083091500,8.523091552734375,0.1536509310543537,0.039265842461585994,-0.256531094488129
1769658994093079600,8.53307958984375,0.21185119108855724,-0.05171498966813087,-0.22358261847980318
1769658994103067400,8.5430673828125,0.3074205200523138,-0.1239233167886734,-0.06994918654952198
1769658994113055500,8.553055419921876,0.2968734070748091,-0.15751754335463047,0.03437503821272403
1769658994123043600,8.563043701171875,0.14890198296159504,-0.1058545761346817,0.054531216132640836
1769658994133031400,8.573031494140626,-0.04238426674306393,-0.021832477101683616,0.008473338910751044
1769658994143018500,8.5830185546875,-0.16152356412559746,0.006467734709382057,-0.045903125051595266
1769658994153006600,8.593006591796875,-0.18353665849119424,-0.06272036780714989,-0.06871737973224372
1769658994162994400,8.602994384765625,-0.12647007866203785,-0.11085691446661948,-0.09706617992538959
1769658994172982500,8.612982421875,-0.03570376606583595,-0.13600363068282603,-0.15557941489890217
1769658994182970600,8.622970703125,0.03231909206360578,-0.12463467992842196,-0.16837890991307794
1769658994192958500,8.63295849609375,0.07193330957144499,-0.1478431215584278,-0.14312449553869663
1769658994202946300,8.6429462890625,0.11945260111540555,-0.1370861652225256,-0.12695877549443393
1769658994212934400,8.652934326171875,0.15861527546346188,-0.07969780609309673,-0.046380204511433834
1769658994222921500,8.66292138671875,0.1138274547100067,-0.03152501907646656,0.03165346776172519
1769658994232909600,8.67290966796875,0.06062193422317504,0.02264262444078922,0.016769786884635686
1769658994242897400,8.6828974609375,0.01826221739947796,0.022022446715831756,-0.04716613072473556
1769658994252885500,8.692885498046875,0.03668020988255739,-0.04503682707846164,-0.05558467070832848
1769658994262873300,8.702873291015624,0.093048870575428,-0.09223112445175648,-0.007969919433258473
1769658994272861400,8.712861328125,0.10758125379681586,-0.06691898854076862,0.05205032256972045
1769658994282849500,8.722849609375,0.10776187106072901,-0.014233108013868331,0.07584025388211012
1769658994292836400,8.73283642578125,0.12707564333975313,0.010079495465755463,0.06742565942127257
1769658994302823700,8.74282373046875,0.16286241151392458,0.03226093213558197,0.021598010758683082
1769658994312811500,8.7528115234375,0.13780892653912305,0.0039770869374275205,-0.025476130833663044
1769658994322799600,8.762799560546876,0.07068973925113678,-0.004307926326990127,-0.08207436249870806
1769658994332787700,8.77278759765625,0.041165538603067396,-0.015238485664129256,-0.1540059550371021
1769658994342775800,8.78277587890625,0.04374620274603366,-0.04921323598027229,-0.2194828915433958
1769658994352763600,8.792763671875,0.035872985152900216,-0.10391045632958412,-0.2163598276194185
1769658994362750700,8.802750732421876,0.0503846178472042,-0.12340776848196983,-0.14334391044303774
1769658994372738600,8.812738525390625,0.09020283349454403,-0.11003390764594077,-0.054689402369037264
1769658994382726700,8.8227265625,0.13210720776617527,-0.07119651972949505,0.008164017233252524
1769658994392714800,8.83271484375,0.13782383184731006,-0.04485445624887943,0.01439816238246858
1769658994402702800,8.842702880859376,0.09553279634565115,-0.04134147969186306,0.034891499834880234
1769658994412690700,8.852690673828125,0.031871056035161015,-0.066000704652071,0.023921119944006204
1769658994422678800,8.8626787109375,0.007753098344802856,-0.07415186240375042,0.016071210161224005
1769658994432667000,8.8726669921875,0.014692542219161987,-0.04203706074059009,0.01932524352110922
1769658994442653700,8.88265380859375,-0.03792670281231403,-0.021557167291641234,0.01682341676801443
1769658994452641800,8.892641845703125,-0.08836918832659721,-0.011881576451659203,0.0323475144404918
1769658994462630000,8.9026298828125,-0.09298486542850733,-0.024959084689617154,0.06252952141016721
1769658994472617700,8.91261767578125,-0.07849310647845267,-0.020941081219911575,0.07001337435953318
1769658994482605600,8.92260546875,-0.02825637266933918,-0.003503624206781387,0.07092354800701141
1769658994492593700,8.93259375,0.007190203765034675,0.00400631303191185,0.05822678271494806
1769658994502581500,8.94258154296875,0.041587271146476264,0.0038432314246892928,0.07974252201765775
1769658994512568800,8.95256884765625,0.07533055079430341,0.012832009044289588,0.10162271071858703
1769658994522556700,8.962556640625,0.11498480805158615,0.012552023059129714,0.09739077223725616
1769658994532544500,8.97254443359375,0.07575754403471946,0.030817163068056104,0.05605309193767607
1769658994542532600,8.98253271484375,0.03448737601339817,0.0315799641340971,0.0008547901984304189
1769658994552520700,8.992520751953125,0.02461597034037113,0.05203355409801006,-0.04123436605557799
1769658994562508800,9.0025087890625,0.05545563750118017,0.07614449752569198,-0.007191592004522681
1769658994572496600,9.01249658203125,0.08294307162463664,0.11196341440379619,0.05798822471871972
1769658994582483700,9.022483642578125,0.1272284958139062,0.07352467041611671,0.16245923754051328
1769658994592471600,9.032471435546874,0.15594371816664934,0.012118892338871956,0.21278891033008693
1769658994602459600,9.042459716796875,0.11964286299049853,-0.027297172248363494,0.1620003147918731
1769658994612447700,9.05244775390625,0.038220132800936696,-0.03236322346627712,0.03557261396683752
1769658994622435800,9.062435791015625,-0.005456511840224266,-0.04355097243487835,-0.04338372610919177
1769658994632423700,9.072423583984374,0.0036047464936971663,-0.06723579940497874,-0.023177535035088657
1769658994642411800,9.082411865234375,0.043318917244672774,-0.06974047570228577,0.07963299722857772
1769658994652399900,9.09239990234375,0.10239186846017836,-0.06361936247348784,0.15022329469323156
1769658994662386700,9.10238671875,0.0952381973132491,-0.034573885253071784,0.1570837550472468
1769658994672374800,9.112374755859374,0.02935907321423292,-0.04093699054419994,0.09170527394674718
1769658994682363000,9.12236279296875,-0.002687339387834072,-0.03656827394068241,-0.03228314396739006
1769658994692350700,9.132350830078124,-0.02005728412270546,-0.016296470284461975,-0.12469218226931988
1769658994702338800,9.1423388671875,0.032277883270382876,-0.02157470294833183,-0.13259974052347243
1769658994712326700,9.15232666015625,0.12038637483417987,-0.03334288215339184,-0.07637633352018892
1769658994722314500,9.162314453125,0.11695406229794025,-0.08672960442602634,0.0035009207930415866
1769658994732301800,9.1723017578125,0.09761574009954929,-0.13326748371720312,0.04314794459193945
1769658994742289700,9.18228955078125,0.04662438853085041,-0.17271102083325385,0.0342675227176398
1769658994752277500,9.192277587890626,-0.013602408894896506,-0.18037410280704497,-0.003777984168753028
1769658994762265600,9.202265625,-0.0026087211936712262,-0.12698095079362393,-0.046830067170783876
1769658994772253700,9.212253662109376,0.05897358249425888,-0.04614683414697647,-0.1276944328252226
1769658994782241800,9.22224169921875,0.07703764697313309,0.05160509955286979,-0.18908333283290266
1769658994792229600,9.232229736328126,0.09643880527466535,0.10015431866645813,-0.19208324530124662
1769658994802216700,9.242216796875,0.06026128421723842,0.09823942495584487,-0.16911533442884683
1769658994812204500,9.25220458984375,0.09490297400951385,0.05404957009553909,-0.11230156031697988
1769658994822192600,9.262192626953125,0.1407443954691291,0.015223288094997406,-0.04388013132400811
1769658994832180700,9.2721806640625,0.19501199222952126,0.05723462987244129,-0.002019669259339571
1769658994842168800,9.2821689453125,0.16757453472763298,0.08748188409805298,0.038429318572208285
1769658994852156700,9.29215673828125,0.10563275007754563,0.08998831396102905,0.028454890916123986
1769658994862144800,9.302144775390625,0.0561100097566843,0.04474515065550804,0.005770619290694594
1769658994872132900,9.3121328125,0.03183627698272466,-0.02525426824390888,-0.018429755986109374
1769658994882119700,9.32211962890625,-0.022416998991370198,-0.07890987058579921,-0.05467098992951214
1769658994892107800,9.332107666015625,-0.01783726998567581,-0.06870119578242302,-0.08709266558475792
1769658994902096000,9.342095947265625,0.002994505640864372,-0.05594108293056488,-0.09270429492145776
1769658994912083700,9.352083740234375,0.017352993600070477,-0.0338935017734766,-0.07177833820544183
1769658994922071800,9.36207177734375,0.03768646431565285,-0.018024316990375516,-0.03355031435899436
1769658994932059600,9.3720595703125,0.06155073950588703,-0.021104747349023817,0.03890811506509781
1769658994942047500,9.382047607421875,0.11202420468032359,-0.04262275167405605,0.07924516695477068
1769658994952034800,9.392034912109375,0.145017250482738,-0.05303951627016067,0.09683306528925895
1769658994962022700,9.402022705078124,0.09232347891032695,-0.05249474186897277,0.08664009951166808
1769658994972010500,9.412010498046875,0.04264087185263633,-0.07733107696175574,0.05326105006635189
1769658994981998600,9.42199853515625,0.012990122215449809,-0.1273737495034933,0.014868483307957649
1769658994991986700,9.431986572265625,0.02716185543090105,-0.16484277167618275,0.016882526544108985
1769658995001974800,9.441974853515624,0.07097907758653163,-0.17369886282682417,0.038104908923432226
1769658995011962600,9.451962646484375,0.07444996856749057,-0.16895020699501037,0.062127516480535265
1769658995021950700,9.46195068359375,0.039516017830371855,-0.1118716444671154,0.04185308247581124
1769658995031937500,9.4719375,-0.017760405357182023,-0.10481471169292926,-0.025869988989457488
1769658995041925600,9.481925537109374,-0.016921324184536932,-0.1109691426694393,-0.07709478398784994
1769658995051913700,9.491913818359375,0.014847148258984089,-0.12046937694251536,-0.05978504500761628
1769658995061901800,9.50190185546875,0.07026070018410682,-0.12406126395463943,0.009701602064073086
1769658995071889700,9.5118896484375,0.08767068466842173,-0.10032207644879818,0.044206659864634276
1769658995081877800,9.521877685546874,0.1096148054510355,-0.04181318885684013,0.03129895523563027
1769658995091865900,9.531865966796875,0.07599895157516003,0.004095744881033897,-0.021609335870295763
1769658995101852700,9.541852783203124,0.0553714663490653,-0.0075683894276618955,-0.07070698264688254
1769658995111840800,9.5518408203125,0.05902385137677192,0.00426291814148426,-0.09648695526532829
1769658995121828900,9.561828857421874,0.05506780722737312,0.009351765713095664,-0.09465257944501936
1769658995131816700,9.571816650390625,0.07374035899341105,-0.002422258710861206,-0.0524010722361505
1769658995141804800,9.5818046875,0.08630173440277576,0.012016601008176803,-0.014930954084917902
1769658995151792600,9.591792724609375,0.084973408408463,0.04700549680292606,-0.02713796309866011
1769658995161780500,9.601780517578124,0.07206044308245181,0.061385319811105725,-0.07161065348833799
1769658995171767800,9.611767822265625,0.06382540643960237,0.04665010749399662,-0.07994790839664638
1769658995181756000,9.621755859375,0.08961948064863681,0.014905308187007903,-0.016391528156772254
1769658995191743500,9.631743408203125,0.09486439556479453,-0.04990063372254371,0.03840564543567598
1769658995201731600,9.641731689453126,0.07708850037753581,-0.04303834673762321,0.058201721338927745
1769658995211719700,9.6517197265625,0.0129360539406538,-0.006465981143712997,0.013520868091285228
1769658995221707800,9.661707763671876,-0.03394669326543808,0.013674889609217642,-0.07053542547225952
1769658995231695600,9.671695556640625,-0.03617372166514397,-0.00009586158990859984,-0.13071151562407612
1769658995241682700,9.6816826171875,0.022105156563222407,-0.018508885636925695,-0.06288564137145876
1769658995251670500,9.69167041015625,0.11270458815991878,-0.024383915150165556,0.04603014896474778
1769658995261658600,9.70165869140625,0.1739171817526221,0.03134498633444309,0.10243760729804634
1769658995271646700,9.711646728515625,0.1463093361198902,0.09219254600703716,0.07159063361361623
1769658995281634800,9.721634765625,0.03669833006113767,0.07343991474211216,0.06182071555368602
1769658995291622700,9.73162255859375,-0.09376607893407345,0.038135961648821826,0.05500738227702677
1769658995301610800,9.74161083984375,-0.14988573330193758,0.021193010154366494,0.07914389853738248
1769658995311598800,9.751598876953125,-0.11229016214013099,-0.01539864466190338,0.09438676811568439
1769658995321585700,9.761585693359375,-0.0038385552495718,0.09891513226032257,0.07659604068547486
1769658995331573800,9.77157373046875,-0.001301145726442337,0.16203355947434903,0.10746011163517832
1769658995341561900,9.781561767578125,-0.031759996876120564,0.0873714094609022,0.15884849969744683
1769658995351550000,9.791550048828125,-0.07917261317521333,-0.0851502262800932,0.22071875348128378
1769658995361537800,9.801537841796875,-0.030434301230311392,-0.1884463501036167,0.2536023475598544
1769658995371526000,9.81152587890625,0.024870237362384796,-0.1413601892799139,0.28945816238224503
1769658995381513700,9.821513671875,-0.04239245004951954,-0.14942834492325782,0.2666238147616386
1769658995391501600,9.83150146484375,-0.057279930318891996,-0.12807868290245533,0.16218487757854164
1769658995401489000,9.841489013671875,-0.03432955510318279,-0.08392448387742042,0.10996774707455187
1769658995411476700,9.851476806640624,0.002467266896367073,-0.06555120731890202,-0.0014467647422105074
1769658995421464600,9.861464599609375,-0.05292641128450632,-0.06413432625830173,-0.09812051128391176
1769658995431452700,9.87145263671875,-0.10612053359448909,-0.03264145588576794,-0.167621333011426
1769658995441440800,9.881440673828125,-0.13880875123143196,-0.0036859950363636014,-0.19002689729332922
1769658995451428600,9.8914287109375,-0.1386450851023197,-0.038539866274595255,-0.20886614739578216
1769658995461416700,9.901416748046875,-0.14365852935016155,-0.058742696347832676,-0.09776040926724672
1769658995471403800,9.91140380859375,-0.11909633502364157,-0.10879355219602584,0.05986022913567721
1769658995481391600,9.9213916015625,-0.06484335131049156,-0.1510620836049318,0.057994873655214906
1769658995491379700,9.931379638671874,-0.07778700403571129,-0.1452811621159315,-0.028401626358926294
1769658995501367800,9.941367919921875,-0.05323825371265411,-0.10722644900977611,-0.10791377368681132
1769658995511355600,9.951355712890624,0.03612053017318249,-0.0914455270320177,-0.13555800580717622
1769658995521343700,9.96134375,0.05092909998744726,-0.09732464819848537,-0.10991722246371209
1769658995531331800,9.971331787109374,0.06682867990881204,-0.08125847953855991,-0.08136628729458897
1769658995541318700,9.981318603515625,0.10698562599122524,-0.010926467683911322,-0.11488353963419794
1769658995551306800,9.991306640625,0.10549100351929663,0.04659750052392483,-0.16398191706314683
1769658995561294800,10.001294921875,0.10806582244336604,0.0775379977107048,-0.17152911757230757
1769658995571283000,10.011282958984374,0.11737491805851459,0.057984571456909176,-0.11992200872544198
1769658995581270800,10.021270751953125,0.10620967318266629,0.08826923508346081,-0.07169245002027601
1769658995591259000,10.0312587890625,0.10352817901372909,0.11678805808126926,-0.021806538942828774
1769658995601246700,10.041246826171875,0.09083703974485396,0.08814590096473693,-0.02356594983078539
1769658995611234600,10.051234619140626,0.14595979202985762,0.1684527788668871,-0.002248801840096712
1769658995621222000,10.061221923828125,0.1843672640964389,0.19943302354216574,0.008544504450820386
1769658995631209700,10.071209716796876,0.20862112312614917,0.21112404585778713,0.009525880170986056
1769658995641197600,10.081197509765625,0.22102117049396036,0.2388005728125572,-0.008974785626865923
1769658995651185700,10.091185546875,0.1656754231080413,0.27141747877895833,-0.06444357487056404
1769658995661173800,10.101173828125,0.11616612679064273,0.262467864125967,-0.18845047828946263
1769658995671161600,10.11116162109375,0.1106558389365673,0.2620499309748411,-0.25473946183100343
1769658995681149700,10.121149658203125,0.12211977449804544,0.1943465140581131,-0.24570889089629053
1769658995691136800,10.13113671875,0.08503069155365228,0.026321605214476584,-0.15400014635082335
1769658995701124600,10.14112451171875,0.08736001128405332,-0.11490998924970626,-0.04697159453332424
1769658995711112700,10.15111279296875,0.08723346229493617,-0.18585633361041545,0.11449143504407257
1769658995721100800,10.161100830078125,-0.00881692818403244,-0.22625088784098624,0.22900274383239447
1769658995731088600,10.171088623046876,-0.09787000712156295,-0.27973756335675715,0.2716408392060548
1769658995741076700,10.18107666015625,-0.11682312939465045,-0.27592881872355934,0.2223162518057972
1769658995751064800,10.19106494140625,-0.15813509073108434,-0.2116477774709463,0.1012147144395858
1769658995761053000,10.201052978515625,-0.16004092435240744,-0.1513461612433195,-0.031116219079867002
1769658995771039700,10.211039794921875,-0.08130641033351421,-0.07591478042304516,-0.0724484925519675
1769658995781027800,10.22102783203125,-0.029096622885763642,-0.03276888165771961,-0.0633981940034777
1769658995791016000,10.231015869140625,0.02826689406335354,-0.045430210310220716,0.0060400838818401095
1769658995801003800,10.241003662109375,0.02631166834235191,-0.15455869354903698,0.1084361901257187
1769658995810991900,10.250991943359375,0.016899112352728844,-0.2523112117707729,0.17317871141023933
1769658995820979700,10.260979736328125,-0.0040653497427701945,-0.24079788410961628,0.1664539331998676
1769658995830967600,10.270967529296875,-0.038894671061635015,-0.16992343594133852,0.12270919175855814
1769658995840955000,10.280954833984374,-0.11752601696699858,-0.09637421560585498,0.10223309770189225
1769658995850943000,10.29094287109375,-0.11250935784876345,-0.03933423152267933,0.05568016697205603
1769658995860930600,10.3009306640625,-0.025725977408885953,0.005753448960185051,-0.020430939740687607
1769658995870918700,10.310918701171875,0.026227497190237044,0.0005944587618112564,-0.039086394241452216
1769658995880906800,10.32090673828125,0.05588438430726528,0.005299275451898574,-0.03905965236499905
1769658995890894600,10.33089453125,0.10350713622570037,-0.007928454911708831,-0.03672171093672514
1769658995900882700,10.340882568359374,0.095083591273427,-0.04282148911654949,-0.03676445409990847
1769658995910869800,10.350869873046875,0.11117255628705024,-0.05133855757117271,-0.05965206627771258
1769658995920857600,10.360857666015624,0.11936463057100773,-0.0440063149869442,-0.042774069778248665
1769658995930845700,10.370845703125,0.12881342691779135,-0.011512158617377281,-0.061581426905095576
1769658995940833800,10.380833740234374,0.09391220940649508,0.07341945647597313,-0.037838951463624836
1769658995950821600,10.390821533203125,0.0451432100623846,0.09368892204463482,-0.029105025387927887
1769658995960809700,10.400809814453124,0.07005436395704746,0.07396130826771259,-0.0007598053913563489
1769658995970797800,10.4107978515625,0.09898644393086432,0.03869827170670032,0.018020371467620134
1769658995980786000,10.420785888671874,0.039250644892454147,0.055607905453443525,0.030313816655799745
1769658995990772700,10.430772705078125,-0.06103869833052158,0.0690764588356018,0.039032033705711365
1769658996000760800,10.4407607421875,-0.11360299830436706,0.07768763531446457,0.033692572373896834
1769658996010749000,10.4507490234375,-0.14241700485646724,0.041968087157607074,0.04532214682586491
1769658996020736800,10.46073681640625,-0.12071312257051467,-0.03389174820780754,0.058555064821243286
1769658996030724900,10.470724853515625,-0.06147416713833809,-0.032037060251832006,0.0027070670016109944
1769658996040713000,10.480712890625,-0.04514671719372272,0.08324410039782523,-0.08568594059199094
1769658996050700500,10.490700439453125,-0.051041620451211925,0.175816001111269,-0.19105996666811406
1769658996060688600,10.500688720703126,-0.02972293809056282,0.18910919792652128,-0.25063114972934125
1769658996070676000,10.510676025390625,-0.043103228667378424,0.14500409874022005,-0.17609123785607517
1769658996080663800,10.520663818359376,-0.04846621700525283,0.0348825128108263,-0.01621003411002457
1769658996090651600,10.530651611328125,0.031851182290911675,-0.03785188401043415,0.1072290793582797
1769658996100639700,10.5406396484375,0.08910130199342965,-0.028142390900850293,0.12015285833925007
1769658996110627600,10.550627685546875,0.05605272661149501,0.034653964751958845,0.05821436162479222
1769658996120615700,10.56061572265625,-0.010034195019304751,0.06656301470994949,-0.007531710679084062
1769658996130603800,10.570603759765625,-0.037383681976795195,0.0314841025441885,-0.040718671618402
1769658996140590600,10.580590576171875,-0.03957914619445801,-0.03189034525752067,-0.07469174143411218
1769658996150578700,10.59057861328125,-0.016678455339372157,-0.06417173565924167,-0.06754588826745749
1769658996160566800,10.60056689453125,-0.04711684822291135,-0.00808101512491703,-0.015032514763250945
1769658996170554600,10.6105546875,-0.08653612768054007,0.0706973380357027,-0.007929404759779572
1769658996180542700,10.620542724609376,-0.04400280785560608,0.15737141288220882,-0.043257761641964314
1769658996190530800,10.63053076171875,0.009239829771220684,0.20071254195868968,-0.06799962338432669
1769658996200519000,10.640518798828126,0.1225131577298045,0.15455635546147822,-0.06966762966178357
1769658996210506800,10.6505068359375,0.21218436856567857,0.08757365403473377,-0.05484400840885937
1769658996220493800,10.660493896484375,0.2103536460071802,0.004615384840965271,-0.04203603782728314
1769658996230482000,10.67048193359375,0.14338731119334697,-0.048207273808121676,-0.08974836772531271
1769658996240469800,10.6804697265625,0.07514671865999699,-0.04979074360728263,-0.1253594140063971
1769658996250457900,10.690457763671875,0.007580079865455627,-0.04784077858328819,-0.17456410135403275
1769658996260446000,10.700446044921875,0.013637480208277701,-0.08165595442354678,-0.1985666159711778
1769658996270433800,10.710433837890625,0.08350129002928733,-0.05778408044874668,-0.17457075029052793
1769658996280421600,10.720421630859375,0.061062371467053886,-0.0835024590730667,-0.12290858678817748
1769658996290409000,10.730408935546874,-0.010370879627764224,-0.13101765896379947,-0.10229586073979735
1769658996300397300,10.740397216796875,-0.012959434816241264,-0.17431962507367132,-0.12265125102624297
1769658996310385400,10.750385498046874,-0.00793722274005413,-0.2163105085849762,-0.15453209780305624
1769658996320373500,10.76037353515625,0.0068324763685464855,-0.24110943427681922,-0.1674908750321716
1769658996330361300,10.770361328125,0.05484539664834737,-0.2640875742822885,-0.12071955231130123
1769658996340349400,10.780349365234375,0.09161240803152322,-0.22907062143683432,-0.06785597712993621
1769658996350337500,10.790337646484375,0.09560381575524807,-0.13367606451809405,-0.07068805875070393
1769658996360324400,10.800324462890625,0.07813421003818512,-0.0785877990245819,-0.10098477814123034
1769658996370312400,10.8103125,0.058361588075757025,-0.08980828121900558,-0.11062785495109856
1769658996380300500,10.820300537109375,0.010582768812775612,-0.1432335819363594,-0.10270699882395565
1769658996390288400,10.830288330078124,-0.006153261932730674,-0.1642471438705921,-0.07309570441432296
1769658996400276500,10.8402763671875,-0.0002712181568145752,-0.15722762049734593,-0.03960062737390399
1769658996410264600,10.8502646484375,0.024461072039604185,-0.12765139740109444,-0.029730609940364954
1769658996420252700,10.860252685546875,0.06566343552172184,-0.06904664821922779,-0.015070435620844364
1769658996430240500,10.870240478515624,0.07029518697559833,-0.022737901508808136,-0.0011719663888216018
1769658996440227600,10.8802275390625,0.063682490837574,0.024819968479871748,0.02494710199087858
1769658996450215700,10.890215576171874,0.04595131157487631,0.06892156053483486,0.05562756000198424
1769658996460203500,10.90020361328125,0.0678261665135622,0.07369476628601551,0.131113155227527
1769658996470191400,10.91019140625,0.07480828048586845,0.007387772163748741,0.1667360380768776
1769658996480179500,10.920179443359375,0.0695382311284542,-0.06296937413215636,0.1064810374699533
1769658996490167300,10.930167236328124,0.004786065232753754,-0.02103928089737892,0.10187595482729375
1769658996500155400,10.9401552734375,0.05475567253828048,0.05358429067134857,0.021310572119429706
1769658996510143500,10.9501435546875,0.008524667239189147,0.07493219912648201,-0.1312379506509751
1769658996520130300,10.96013037109375,-0.05321954901218414,0.08010112619698047,-0.1630575687598437
1769658996530118400,10.970118408203126,0.03585457271337509,0.033546880292892454,-0.09683664548583328
1769658996540106500,10.9801064453125,0.06987666930258274,0.018467969104647635,0.026885303511843085
1769658996550094300,10.99009423828125,0.09679214875698089,0.007898644295334815,0.10144085134565829
1769658996560082400,11.00008251953125,0.09068009561747312,0.012228782454133034,0.12239815304800868
1769658996570070500,11.010070556640626,0.05634381851255894,0.019253566524386406,0.14227474684156477
1769658996580058600,11.02005859375,0.03683364687860012,0.02103051306903362,0.14119520797654986
1769658996590045400,11.03004541015625,0.04775543838739395,0.015627777242660523,0.11179653340429067
1769658996600033500,11.040033447265625,0.019423077872395514,-0.0015337854385375975,0.04944236856102943
1769658996610021400,11.050021484375,-0.04157528844773769,0.008079846081137657,0.008343246257677673
1769658996620009500,11.060009521484375,-0.09146978469043969,0.00783960758447647,-0.015896657311916352
1769658996629997600,11.06999755859375,-0.09424889401495457,-0.0254191034168005,-0.02008585263006389
1769658996639985700,11.079985595703125,0.0025467618733644483,-0.05019289466738701,-0.04603190253041684
1769658996649973500,11.089973388671876,0.14014029209613799,0.005070142871141433,-0.08318067977279424
1769658996659961300,11.09996142578125,0.16309651253074406,0.03622983576655388,-0.07852138272486626
1769658996669948700,11.10994873046875,0.14216273783445357,0.02845803272128105,-0.037131095455214376
1769658996679936500,11.1199365234375,0.18783932412117718,0.039976621079444885,0.05934804182983935
1769658996689924400,11.12992431640625,0.2058522429347038,0.02515489952266216,0.1918461486097425
1769658996699912400,11.139912353515625,0.09130202690809965,0.02678630011677742,0.20984971507303415
1769658996709900300,11.149900390625,-0.005987549977004528,0.05983809036910533,0.10078421406783163
1769658996719888400,11.159888427734375,-0.046998482540249825,0.11078034209907055,-0.000170534261316061
1769658996729876500,11.16987646484375,-0.02238426576554775,0.05673369461297988,-0.03320383900888264
1769658996739863300,11.17986328125,0.0020510873109102247,-0.022052257332205772,0.013775646569952367
1769658996749851400,11.189851318359375,-0.01446457868218422,-0.07272445994913578,0.057237990873306985
1769658996759839500,11.199839599609374,0.02080138048827648,-0.12019289808869361,0.049242242879047986
1769658996769827300,11.209827392578125,0.025009353572130202,-0.18027824121713637,0.027445567743107673
1769658996779815400,11.2198154296875,-0.0036719665110111236,-0.16785832010507581,0.0329484029430896
1769658996789803500,11.229803466796875,-0.019019173246622084,-0.13583295029103756,0.023637115370854733
1769658996799791600,11.23979150390625,0.002097264540195465,-0.07582067239880562,0.05853372977226972
1769658996809779500,11.249779541015625,0.023995208093523977,-0.04603694403171539,0.09612206747569144
1769658996819766500,11.2597666015625,0.03357143021225929,-0.06008183599710464,0.06862338130585849
1769658996829754400,11.26975439453125,0.002717442265152931,-0.048208442851901054,0.021564254619553684
1769658996839742500,11.279742431640624,-0.012781740161776542,-0.011591653594374656,-0.012497370262444019
1769658996849730600,11.28973046875,-0.018923311656713484,0.028258710756897926,-0.0661094257235527
1769658996859718700,11.29971875,-0.01450461843162775,0.08975333616137504,-0.05508950760252773
1769658996869706500,11.30970654296875,0.09261486307233571,0.10969079329669475,-0.018574352088570594
1769658996879694300,11.3196943359375,0.1624304498374462,0.10346621969342232,0.04234656508117914
1769658996889681700,11.329681640625,0.17461890028119087,0.07644085012376307,0.12572430179603397
1769658996899669500,11.33966943359375,0.1818283932685852,0.028766660279035565,0.16139643061459064
1769658996909657600,11.34965771484375,0.157337510612607,-0.016164952859282492,0.13757212210856376
1769658996919645400,11.3596455078125,-0.002286357371509075,-0.0652297202795744,0.043146117961034174
1769658996929633300,11.36963330078125,-0.11549918731451034,-0.07011106258034706,-0.03882752410955727
1769658996939621400,11.379621337890624,-0.12805062585175037,-0.07935352270007133,-0.09465615964159368
1769658996949609500,11.389609375,-0.09240531197488308,-0.054476271075010296,-0.09646839669533074
1769658996959597300,11.399597412109374,0.023739772027730942,-0.01734627159833908,-0.07004844567291438
1769658996969584400,11.40958447265625,0.09145137225091457,0.041162031471729275,0.02883205366544425
1769658996979572500,11.419572509765626,0.0728062930136919,0.009675006318092346,0.06760448658689856
1769658996989560300,11.429560302734375,0.03640343876779079,-0.03712941495478153,0.03533084110021591
1769658996999548400,11.43954833984375,0.010876783323287963,-0.04049976817071438,0.014605521522834897
1769658997009536500,11.44953662109375,-0.04104571161568164,-0.03796060508191585,0.01777772181816399
1769658997019524600,11.459524658203126,-0.005158405676484108,-0.03372983564436435,-0.013202888183295725
1769658997029512400,11.469512451171875,0.09476385779976844,-0.0034703064590692516,-0.03934402226433158
1769658997039499500,11.47949951171875,0.12689327251017093,0.019128478839993475,-0.04443966490291059
1769658997049487400,11.4894873046875,0.0932581294119358,0.041885669571161264,-0.03319711700715124
1769658997059475500,11.499475341796876,0.05105740254223346,0.03650689914226532,-0.007336845694109797
1769658997069463600,11.509463623046875,0.015144962161779402,0.03885843070447444,0.003694032212346792
1769658997079451600,11.51945166015625,0.002405307576060295,0.00893500160574913,-0.0030653058547526596
1769658997089439500,11.529439453125,0.03866203134953976,-0.0238373871833086,0.008067644186690448
1769658997099427600,11.539427490234376,0.07443886265158653,-0.06022796646952629,0.018558423867076634
1769658997109415400,11.54941552734375,0.07389934894740581,-0.07327040339410304,0.05351714371927082
1769658997119402500,11.559402587890625,0.06375438703000545,-0.09277999050617218,0.04761237665489316
1769658997129390600,11.569390625,0.05305237575173378,-0.11060615457594394,0.009217764069885014
1769658997139378400,11.57937841796875,0.018576105654239655,-0.10798165129125117,-0.01647263056896627
1769658997149366300,11.5893662109375,-0.08454699968993663,-0.1320358960956335,-0.07613741019777953
1769658997159354400,11.599354248046875,-0.060549161247909065,-0.10840250705182551,-0.1858966656208038
1769658997169342500,11.609342529296875,0.010262450817227363,-0.09655775547921656,-0.26804193793125447
1769658997179330300,11.619330322265625,0.05159340911507606,-0.0686450816810131,-0.34217765291780233
1769658997189317400,11.6293173828125,0.0541232198536396,-0.01358136610686779,-0.31193923958577213
1769658997199305500,11.639305419921875,0.08675824599862098,-0.010549451065063477,-0.14462781277373432
1769658997209293300,11.649293212890624,0.1672229448109865,-0.0853723445981741,0.054936070606485005
1769658997219281400,11.659281494140625,0.1586310575544834,-0.11765665760934352,0.13649360615685582
1769658997229269500,11.66926953125,0.0977811597943306,-0.066362523701787,0.068838777622208
1769658997239257600,11.679257568359375,0.043836803638935086,-0.04223521366119384,-0.06776983321644366
1769658997249245400,11.689245361328124,-0.041055648487806316,-0.01703647499680519,-0.14885807075463234
1769658997259233500,11.699233642578125,-0.048398120205104346,-0.006281272226572036,-0.16981478793509303
1769658997269220400,11.709220458984374,0.0068944356888532635,0.005640051713585853,-0.1261314943574369
1769658997279208400,11.71920849609375,0.05165682974010705,-0.03237374486029148,-0.02121587957330048
1769658997289196500,11.729196533203124,0.11177519835531712,-0.07493512173593044,0.020247838258743284
1769658997299184600,11.7391845703125,0.06631283934116364,-0.0468120200574398,0.042798838893324136
1769658997309172000,11.749171875,-0.02766191390752792,-0.031658874589204786,-0.018129019473865627
1769658997319159800,11.759159912109375,-0.03488075924515724,-0.006945873615145683,-0.08502082774676382
1769658997329148000,11.76914794921875,-0.01329202777147293,0.021091887867450712,-0.08363492634631693
1769658997339136000,11.779135986328125,0.029437106886506078,-0.027170915520191193,-0.07972162536010145
1769658997349122800,11.789122802734376,0.0760264241039753,-0.0757645582973957,-0.0604170593008399
1769658997359111000,11.79911083984375,0.07269231124520302,-0.121387660831213,-0.018477029193937778
1769658997369099000,11.80909912109375,0.01866729106903076,-0.09997896209955215,0.005124430341646075
1769658997379086800,11.8190869140625,0.005814823758602142,-0.025101123508810996,-0.032394568452611565
1769658997389074700,11.82907470703125,-0.000996317560970783,0.012170330265164375,-0.04979227797724306
1769658997399062800,11.839062744140625,0.06997662254571914,-0.0001467149943113327,-0.01893178722411394
1769658997409051000,11.84905078125,0.14168606023341415,-0.042855975908041,0.020781506744027137
1769658997419037700,11.85903759765625,0.16164689824432132,-0.09555237782895565,0.04061499204821884
1769658997429025800,11.86902587890625,0.13916092566996813,-0.08028817320168018,0.03859700328931212
1769658997439013600,11.879013671875,0.09967471845597028,0.0018675474375486373,0.0337645416315645
1769658997449001700,11.889001708984376,0.006796820533275604,0.04401391377151012,0.05119717633910477
1769658997458989800,11.89898974609375,0.01632452733516693,0.06089256785809993,0.06699556090831756
1769658997468978000,11.90897802734375,0.06635960109233856,0.09193243376612663,0.031130539866164327
1769658997478965800,11.9189658203125,0.05254705657809972,0.08051964386999606,-0.014710297071561216
1769658997488953900,11.928953857421876,0.09496201072037219,0.04901449853777885,-0.028963899884186683
1769658997498941000,11.93894091796875,0.09707739543914794,0.019137246668338773,0.008927841212600469
1769658997508928800,11.9489287109375,0.07979074507355689,0.01435819569826126,0.044932416855916375
1769658997518916900,11.958916748046875,0.03385492332875729,0.06355506506562232,0.0509030522307381
1769658997528905000,11.968905029296875,-0.01549713660031557,0.11826806750595568,0.011546937669813632
1769658997538892800,11.978892822265625,-0.021035189244151115,0.06879004310965538,0.04032649396304041
1769658997548881000,11.988880859375,0.02320727258622646,0.02603109783530235,0.059607752211950714
1769658997558869000,11.998868896484375,0.007926993606984616,-0.049234863290190695,0.15130082426425068
1769658997568856800,12.00885693359375,0.05496902302801609,-0.08358078500628471,0.15482198412772266
1769658997578844000,12.018843994140624,-0.0259592016428709,-0.11100538302659987,0.22519030940476803
1769658997588832000,12.02883203125,-0.08515256436765194,-0.1546709217518568,0.24177443752419203
1769658997598819800,12.03881982421875,-0.08917290592491627,-0.05730301893353462,0.2577630109032616
1769658997608807700,12.0488076171875,-0.1455389362692833,-0.03610767069160938,0.27916582788340744
1769658997618795800,12.058795654296874,-0.18972849886864424,-0.053175709870457645,0.3298469444591552
1769658997628783900,12.068783935546875,-0.24008535192608832,-0.18074995038211344,0.32659776993747797
1769658997638771700,12.078771728515624,-0.2338555176258087,-0.23245967935323714,0.2581807979239151
1769658997648758800,12.0887587890625,-0.2522565589740872,-0.1376268479704857,0.15395364032797515
1769658997658746600,12.09874658203125,-0.22988223008066413,-0.11196867510080337,0.09438596439808607
1769658997668734700,12.108734619140625,-0.13159282850325107,-0.12113748546242713,-0.016316928550601004
1769658997678722800,12.118722900390624,0.001977437552809715,-0.06537994240522384,-0.12095602794829756
1769658997688711000,12.1287109375,0.10695289276540279,0.0365904857724905,-0.20543193516340105
1769658997698698800,12.13869873046875,0.1387456228673458,0.1444493874669075,-0.28958978940527885
1769658997708686800,12.148686767578125,0.07352759302556515,0.1780991436123848,-0.3418339905792847
1769658997718675000,12.158675048828124,0.04412497293055057,0.17071897023320198,-0.33192813464738424
