time,seconds_elapsed,acc_z,acc_y,acc_x,gyro_z,gyro_y,gyro_x
1.76966E+18,0.063384766,-0.007581103,-0.042103112,0.041466129,0.023019541,0.239443913,-0.27606982
1.76966E+18,0.073373047,0.067099167,-0.066108841,0.06720292,0.015453499,0.197949737,-0.277737468
1.76966E+18,0.083361084,0.149228438,-0.125879712,0.092445059,0.013233179,0.204296663,-0.283920288
1.76966E+18,0.093348877,0.043135816,-0.113159346,0.015443214,-0.004472581,0.189955816,-0.271570146
1.76966E+18,0.103336914,0.167502931,-0.070487495,0.095512923,-0.019558325,0.173079655,-0.275093138
1.76966E+18,0.113324951,0.148361446,-0.186266668,0.1873663,-0.040072121,0.153093696,-0.234437585
1.76966E+18,0.123311768,0.111322778,-0.175616095,0.276057852,-0.033725098,0.122551732,-0.186698943
1.76966E+18,0.133300049,0.263224235,0.089433603,0.216341927,-0.017559446,0.081893519,-0.155239016
1.76966E+18,0.143288086,0.336783393,0.11007424,0.051134852,-0.012511823,0.033979975,-0.121589959
1.76966E+18,0.153275879,0.305747618,0.061563599,-0.054160337,-0.00358251,0.011932994,-0.085603729
1.76966E+18,0.163263916,0.17703999,0.0102455,-0.044638475,-0.000632748,0.001294881,-0.071569756
1.76966E+18,0.173252197,0.107944242,-0.041035775,-0.021403146,-0.005609664,-0.002794669,-0.073398545
1.76966E+18,0.183239014,0.003884002,-0.15657471,-0.014544366,-0.026737673,-0.012527695,-0.066660374
1.76966E+18,0.193227051,0.068920391,-0.155219203,0.115392512,-0.030310037,-0.028543413,-0.102326229
1.76966E+18,0.203215088,0.104844084,-0.181996736,0.008986293,-0.036483381,-0.036594398,-0.151623681
1.76966E+18,0.213202881,-0.028191637,-0.20290333,-0.049196431,-0.036593102,-0.018089956,-0.188945487
1.76966E+18,0.223190918,-0.164875943,-0.105686234,-0.064340078,-0.036403041,0.021443203,-0.201581255
1.76966E+18,0.233179199,-0.197861829,-0.004299743,-0.069823332,-0.016322272,0.056498926,-0.198463753
1.76966E+18,0.243166016,-0.197004773,-0.012698154,-0.079347239,-0.008416991,0.065053694,-0.18168062
1.76966E+18,0.253154053,-0.147958857,-0.052601709,-0.136628631,-0.003192402,0.071341947,-0.161984414
1.76966E+18,0.26314209,-0.065880732,-0.056875733,-0.00595131,-0.001514076,0.067319199,-0.157618508
1.76966E+18,0.273130127,0.000366495,-0.003852584,0.004377777,0.004370977,0.05805406,-0.160135463
1.76966E+18,0.283118164,0.006154504,0.005784429,0.00615823,-0.004066983,0.048204031,-0.1772044
1.76966E+18,0.293105957,-0.08538462,-0.095921211,-0.003523498,-0.001523132,0.042346142,-0.179282993
1.76966E+18,0.303093994,-0.081448449,-0.073259882,0.138654145,-0.005506511,0.051185247,-0.187342852
1.76966E+18,0.313081055,-0.022562545,-0.017279052,0.0518921,-0.013542067,0.051205218,-0.1933797
1.76966E+18,0.323068848,-0.061859367,0.019051322,0.004058043,-0.011278514,0.046734758,-0.20091325
1.76966E+18,0.333057129,-0.005064882,0.003663199,-0.039670624,-0.004831267,0.050471172,-0.216505527
1.76966E+18,0.343044922,0.00626359,-0.010481062,-0.091188337,0.00299674,0.061903555,-0.235301942
1.76966E+18,0.353032959,0.021055136,0.044025604,-0.121871791,0.010283681,0.072008647,-0.254081249
1.76966E+18,0.363020996,-0.001046221,-0.002343348,-0.11614333,0.014262047,0.070887871,-0.270105004
1.76966E+18,0.373007813,-0.051342065,-0.068461542,-0.071899992,0.0169055,0.068240419,-0.28245008
1.76966E+18,0.38299585,-0.131731287,-0.010864508,0.003204787,0.023179952,0.067487329,-0.290561646
1.76966E+18,0.392984131,-0.118656117,0.048698272,0.054369596,0.020717593,0.063613765,-0.29313001
1.76966E+18,0.402971924,-0.081063834,-0.014651041,0.014537644,0.013850188,0.06431777,-0.303350031
1.76966E+18,0.412959961,-0.066229253,-0.094635263,0.062017626,0.007906545,0.061084423,-0.319873065
1.76966E+18,0.422947998,-0.069313117,-0.06509002,0.03607786,0.001007801,0.057519633,-0.331778169
1.76966E+18,0.432934814,-0.144370477,-0.039833413,0.016584786,-0.002108896,0.065318167,-0.343108594
1.76966E+18,0.442923096,-0.194007491,-0.020958032,0.001044248,0.001696631,0.067314401,-0.354738504
1.76966E+18,0.452911133,-0.208822272,0.00325228,-0.025157238,0.006115082,0.070689961,-0.376374841
1.76966E+18,0.462898926,-0.176280185,0.050308045,-0.051349956,0.014706617,0.06780263,-0.390914679
1.76966E+18,0.472886963,-0.130660589,0.044602527,-0.021323943,0.018850762,0.067160279,-0.395205557
1.76966E+18,0.482875244,-0.073175784,-0.012680618,-0.026438071,0.015819905,0.060149007,-0.371692955
1.76966E+18,0.492862061,0.003204934,-0.006881576,-0.009488544,0.011171359,0.066899583,-0.342680216
1.76966E+18,0.502850098,0.080894359,0.009568623,-0.001504559,0.005780277,0.070896044,-0.319747657
1.76966E+18,0.512838135,0.131607478,0.002661913,-0.007312223,-3.84205E-06,0.060696933,-0.305633426
1.76966E+18,0.522825928,0.168330687,-0.042183191,-0.014162673,-0.0021879,0.035171665,-0.28979221
1.76966E+18,0.532813965,0.147628639,-0.04575462,0.001531301,-0.007037516,0.008322209,-0.269310385
1.76966E+18,0.542802002,0.124029115,-0.054487962,-0.007265899,-0.009705117,0.000863032,-0.251770854
1.76966E+18,0.552789063,0.093809918,-0.071565938,-0.025760756,-0.014424771,-0.001185205,-0.245761976
1.76966E+18,0.5627771,0.056360149,-0.088143563,-0.033914398,-0.01612178,-0.006171096,-0.240978152
1.76966E+18,0.572764893,0.024738099,-0.072618077,-0.033321109,-0.011369635,-0.01125294,-0.24232091
1.76966E+18,0.582752686,0.048427018,-0.027318215,-0.007030775,-0.004309596,-0.024375731,-0.241920844
1.76966E+18,0.592740967,0.065800177,-0.069137834,-0.03764847,-0.002755109,-0.038394079,-0.242628708
1.76966E+18,0.602729004,0.028682489,-0.129891285,-0.04826368,-0.004234849,-0.030917753,-0.23915638
1.76966E+18,0.61271582,0.000496807,-0.158338212,-0.015290947,-0.012336985,-0.0016853,-0.242126614
1.76966E+18,0.622703857,-0.036654217,-0.140419109,-0.021153993,-0.012646977,0.01526076,-0.241535619
1.76966E+18,0.632691895,-0.01672023,-0.065287588,-0.053234893,-0.009473022,0.020669106,-0.249126941
1.76966E+18,0.642680176,0.017471359,0.035158407,-0.025068975,0.000396208,0.018904837,-0.269713253
1.76966E+18,0.652667969,0.044321381,0.066854691,-0.014345628,0.014395113,0.007235399,-0.295696646
1.76966E+18,0.662656006,0.073254037,0.042146951,-0.04864698,0.013342013,-0.015318988,-0.308614254
1.76966E+18,0.672642822,-0.029152445,-0.113725748,-0.061740563,0.014369193,0.004102913,-0.303916156
1.76966E+18,0.682630859,-0.108923901,-0.146055069,-0.02592793,0.012703387,0.038724542,-0.301363796
1.76966E+18,0.692618896,-0.070863927,-0.130548288,-0.002454115,0.018011333,0.061920941,-0.306389987
1.76966E+18,0.702607178,-0.011099486,-0.160659349,0.032253479,0.019858634,0.063552678,-0.313826799
1.76966E+18,0.712594971,0.01312369,-0.202044083,0.069519088,0.017182689,0.060315073,-0.319548339
1.76966E+18,0.722583008,-0.005492159,-0.144328391,0.116429016,0.014451884,0.052557386,-0.316214293
1.76966E+18,0.732570068,-0.02984335,-0.064274027,0.140442052,0.008284269,0.055412561,-0.302404493
1.76966E+18,0.742558105,-0.05216741,-0.007186697,0.095729488,-0.000222488,0.057660766,-0.286728412
1.76966E+18,0.752546143,-0.097368469,0.066520345,0.057332099,8.91017E-05,0.057362225,-0.274277329
1.76966E+18,0.76253418,-0.114451742,0.118780693,0.002997867,0.005295849,0.061064687,-0.263740152
1.76966E+18,0.772522217,-0.113888245,0.167977563,0.01834785,0.018788755,0.06576623,-0.254451036
1.76966E+18,0.78251001,-0.06897709,0.1260954,0.016257892,0.022296716,0.086177379,-0.246062949
1.76966E+18,0.792498291,-0.047957701,0.056185413,0.038047845,0.024358535,0.115238592,-0.247909859
1.76966E+18,0.802485352,-0.006206453,-0.044470425,0.024156536,0.024732795,0.119419128,-0.257212311
1.76966E+18,0.812473145,-0.004378032,-0.076029931,-0.002666881,0.029014893,0.106925435,-0.269124895
1.76966E+18,0.822461182,-0.003018435,-0.097877606,-0.005942834,0.025081092,0.10359633,-0.281329811
1.76966E+18,0.832448975,-0.043387891,-0.061410454,0.011647329,0.028720303,0.111174092,-0.286577046
1.76966E+18,0.842436768,-0.082727383,-0.047989247,0.008568945,0.03089118,0.113071308,-0.280682176
1.76966E+18,0.852424072,-0.051747686,0.005898995,-0.0099528,0.032996673,0.097182892,-0.257387251
1.76966E+18,0.862412109,-0.037044659,0.133203186,-0.015409897,0.033727046,0.091502383,-0.205934659
1.76966E+18,0.872399902,0.106730263,0.132297762,-0.020577216,0.025814528,0.07253775,-0.15883559
1.76966E+18,0.882387939,0.271685774,0.09518939,0.021749913,0.021798968,0.062051833,-0.11074578
1.76966E+18,0.892375977,0.265939888,-0.022530981,-0.03016586,0.023456253,0.063561313,-0.063953772
1.76966E+18,0.902364258,0.312827932,0.002829086,-0.029884997,0.028051451,0.074425519,-0.035454191
1.76966E+18,0.912351074,0.306150427,0.002982231,-0.013928426,0.028321229,0.061616782,-0.010231124
1.76966E+18,0.922339111,0.204070693,-0.066163202,-0.045262306,0.022796988,0.024096811,0.010288219
1.76966E+18,0.932326904,0.194239035,0.006917817,0.062076079,0.014738796,-0.028205808,0.028416356
1.76966E+18,0.942314941,0.239527718,0.033439913,0.096373777,-7.33054E-05,-0.09096837,0.042286813
1.76966E+18,0.952303223,0.23805465,-0.001006547,0.105340051,-0.011050322,-0.112057947,0.048147898
1.76966E+18,0.96229126,0.162606975,-0.026508068,0.071765113,-0.010342322,-0.091012567,0.051006589
1.76966E+18,0.972279053,0.045806642,-0.030720717,-0.036589171,-0.016807145,-0.070623673,0.055800546
1.76966E+18,0.982266113,0.031712651,0.043867199,0.00399813,-0.009550519,-0.037912715,0.001926576
1.76966E+18,0.99225415,0.0957026,-0.170463534,-0.06507979,-0.051123261,0.021082962,-0.386822224
1.76966E+18,1.002241943,-0.219203819,-0.713969523,0.076628774,-0.052455466,-0.330191553,-0.410111368
1.76966E+18,1.012230225,-0.85568269,0.334424847,0.233763455,-0.025459001,-0.395607293,-0.209456265
1.76966E+18,1.022218262,-0.726677613,0.798015003,-0.350155938,-0.016200656,-0.140132904,0.004098393
1.76966E+18,1.032206055,0.199040225,-0.017338088,-0.284791047,0.012690114,0.070628598,0.000963054
1.76966E+18,1.042193115,1.01651513,-0.500817186,-0.146344407,0.062109638,0.183611661,-0.070907257
1.76966E+18,1.052181152,0.486737223,-0.110349549,-0.375380542,0.080677196,0.146888793,-0.025405018
1.76966E+18,1.062169189,-0.151773447,0.172889885,-0.144154496,0.092378907,0.146346793,0.046572357
1.76966E+18,1.072157227,-0.251552502,0.141112352,0.036513329,0.073798828,0.136194557,0.070510983
1.76966E+18,1.082145264,-0.012345102,-0.035124505,0.138281951,0.059486646,0.045330465,0.070082039
1.76966E+18,1.092132813,0.246344485,-0.08064707,0.237447551,0.042673048,-0.055507731,0.051017273
1.76966E+18,1.102120117,0.268873128,-0.157104286,0.24734789,0.022896325,-0.095728226,0.021271329
1.76966E+18,1.112108398,0.118581956,-0.105635965,0.253153069,0.004766856,-0.117158152,0.005249752
1.76966E+18,1.122096191,0.007309958,-0.009017419,0.196789523,-0.009281453,-0.138716578,0.00604079
1.76966E+18,1.132083984,-0.022451486,0.061746554,0.176123606,-0.018147117,-0.155731529,0.010441664
1.76966E+18,1.142072021,0.020792613,0.076671152,0.154456694,-0.027952254,-0.175961554,0.014585137
1.76966E+18,1.152059814,0.036351416,0.089224928,0.124726011,-0.031489998,-0.198596284,0.017203823
1.76966E+18,1.162046875,-0.003385551,0.091536712,0.116021604,-0.034763552,-0.207314029,0.019602409
1.76966E+18,1.172035156,-0.005364742,0.033252281,0.089418259,-0.037762802,-0.210483983,0.01325503
1.76966E+18,1.182022949,0.05760697,0.020004093,0.063093877,-0.044307612,-0.196880758,0.000484042
1.76966E+18,1.192010986,0.039145358,-0.029652211,0.037950668,-0.049171876,-0.179340646,-0.007629811
1.76966E+18,1.201999023,-0.006596914,-0.059542322,0.005040186,-0.048336178,-0.170390561,-0.010597904
1.76966E+18,1.211987305,-0.085121658,-0.055882046,0.006596622,-0.041309427,-0.164632529,-0.002203621
1.76966E+18,1.221974121,-0.118579618,0.019704817,0.015164982,-0.034057949,-0.165992826,0.007366595
1.76966E+18,1.231962158,-0.118474404,0.119012748,0.006170067,-0.038920883,-0.167002171,0.02139879
1.76966E+18,1.241949951,-0.11567922,0.179108613,-0.013303572,-0.043918435,-0.155093059,0.037972659
1.76966E+18,1.251937988,-0.124780153,0.16919746,-0.024660979,-0.061962683,-0.139037132,0.048200794
1.76966E+18,1.261926025,-0.051429743,0.18581191,-0.108093587,-0.085202754,-0.114567913,0.050296471
1.76966E+18,1.271914307,-0.039867973,0.182145204,-0.058334262,-0.089112014,-0.096480787,0.053524222
1.76966E+18,1.281901123,0.001843546,0.183719906,-0.014643442,-0.088717163,-0.101092778,0.049448453
1.76966E+18,1.29188916,0.024769663,0.245150234,-0.013223785,-0.088549644,-0.102830224,0.047802884
1.76966E+18,1.301877197,0.00799973,0.231993815,-0.098398999,-0.095773779,-0.09010759,0.042602815
1.76966E+18,1.31186499,0.013939678,0.320644159,-0.280435921,-0.096508279,-0.040408213,0.057510924
1.76966E+18,1.321853271,-0.149406133,0.146738375,-0.007666735,-0.071581617,-0.02761019,0.097976923
1.76966E+18,1.331841309,-0.173199681,0.125148475,0.232017927,-0.039762441,-0.049416952,0.11957702
1.76966E+18,1.341828125,0.088769001,0.265351311,0.072571754,-0.064307198,-0.091357209,0.102768213
1.76966E+18,1.351816162,0.280331986,0.320501535,-0.195893305,-0.136391237,-0.112635329,0.056632943
1.76966E+18,1.361804199,0.087319387,0.264798937,-0.122926707,-0.160910115,-0.081607118,0.038518868
1.76966E+18,1.371792236,-0.159063567,0.084608374,0.183032654,-0.171618953,-0.044057615,0.023234988
1.76966E+18,1.381780029,0.036214675,0.180959794,-0.007073299,-0.17712602,-0.050626844,-0.019723393
1.76966E+18,1.391767334,0.219754548,0.116881582,-0.082218849,-0.190226912,-0.059279986,-0.070728786
1.76966E+18,1.401755127,0.092967074,-0.020997195,0.078667879,-0.173717752,-0.028935876,-0.09267921
1.76966E+18,1.411743164,-0.079696089,-0.220530172,0.357315893,-0.117242232,-0.018524781,-0.071508415
1.76966E+18,1.421730957,-0.395506215,-0.448432334,0.330185748,-0.086631015,-0.012039771,-0.041448664
1.76966E+18,1.431718994,-0.244252956,-0.249025614,0.117474871,-0.070904516,-0.05431772,-0.018732963
1.76966E+18,1.441707031,-0.210080638,-0.075662851,0.11814371,-0.060877889,-0.043148819,-0.00188967
1.76966E+18,1.451695068,0.022954211,0.190968562,-0.046872664,-0.061563656,-0.061852999,0.012207507
1.76966E+18,1.461681885,0.267343946,0.186664727,-0.041649669,-0.089184493,-0.149376735,0.023916312
1.76966E+18,1.471669922,0.506817888,0.262813317,-0.486548568,-0.13868627,-0.180566341,0.005540502
1.76966E+18,1.481658203,0.310444215,-0.150008191,-0.20464842,-0.170266032,-0.160340235,0.005816202
1.76966E+18,1.491645996,0.118088619,-0.349665086,0.009477876,-0.186134741,-0.17558524,0.004625769
1.76966E+18,1.501634033,0.198317756,-0.405860436,-0.005721154,-0.170314685,-0.240063667,0.031972408
1.76966E+18,1.51162207,0.073400861,-0.483479682,0.057671268,-0.155325606,-0.245585993,0.054299019
1.76966E+18,1.521608887,0.027390696,-0.442460274,-0.004958353,-0.133976325,-0.22289221,0.07739263
1.76966E+18,1.531597168,0.087797526,-0.443395509,0.037761429,-0.118021332,-0.248553112,0.092114054
1.76966E+18,1.541585205,0.214953249,-0.311917831,-0.238328571,-0.120550767,-0.250205219,0.077660523
1.76966E+18,1.551572998,0.234175836,-0.199925775,-0.29356399,-0.116515279,-0.196117491,0.068375148
1.76966E+18,1.561561035,0.075180036,-0.188855515,-0.095295042,-0.105018541,-0.114331983,0.071529485
1.76966E+18,1.571549072,-0.094507837,-0.134620652,-0.123946113,-0.106676623,-0.054506999,0.085945979
1.76966E+18,1.581535889,-0.179735768,-0.144105689,-0.024600773,-0.093156017,-0.042997617,0.101323597
1.76966E+18,1.59152417,-0.156232216,-0.162080321,0.089942283,-0.079670042,-0.06426163,0.107971385
1.76966E+18,1.601512207,-0.053864898,-0.125538351,-0.067782181,-0.072077326,-0.047446877,0.087487668
1.76966E+18,1.611500244,-0.023065234,-0.068595397,0.01701324,-0.059900288,-0.003867712,0.063564487
1.76966E+18,1.621488037,-0.131993226,-0.046192427,0.092734252,-0.051367652,-0.023171019,0.045044318
1.76966E+18,1.631476318,-0.033663748,0.110744102,0.068653703,-0.046131078,-0.043289337,0.023892161
1.76966E+18,1.641463135,-0.088087412,0.051631403,0.086934479,-0.058467593,-0.04249493,0.024564024
1.76966E+18,1.651451172,-0.233597122,-0.190392808,0.049464142,-0.067623541,-0.00855827,0.028283661
1.76966E+18,1.661439209,-0.198306029,-0.328097982,0.030780046,-0.057703048,-0.01285413,0.018825166
1.76966E+18,1.671427002,-0.039358197,-0.32019583,-0.022515053,-0.030681016,-0.020763451,0.008819669
1.76966E+18,1.681414795,-0.073348108,-0.267250422,-0.009065788,0.004919899,0.011274824,-0.000809242
1.76966E+18,1.691403076,-0.103249947,-0.111237438,-0.050183542,0.027420148,0.042531282,-0.002182367
1.76966E+18,1.701390137,-0.141662351,0.059457567,-0.016665157,0.047647346,0.074105561,0.005553667
1.76966E+18,1.71137793,-0.213397288,0.073334116,0.032962943,0.057326872,0.082446583,0.019026332
1.76966E+18,1.721365967,-0.161584062,0.048556818,0.09939444,0.065809838,0.099173002,0.018100586
1.76966E+18,1.73135376,-0.097104302,-0.022531565,0.143486095,0.065447912,0.116022557,-0.001556739
1.76966E+18,1.741342041,-0.054112717,-0.158390819,0.133998282,0.058417391,0.121010147,-0.033476274
1.76966E+18,1.751330078,-0.022239907,-0.266276609,0.106838326,0.053394135,0.116080098,-0.065795064
1.76966E+18,1.761316895,0.004987104,-0.268508313,0.061388973,0.04620529,0.117564306,-0.093212478
1.76966E+18,1.771304932,0.048200808,-0.195841137,-0.039594928,0.03694734,0.104954243,-0.110652186
1.76966E+18,1.781292725,0.071207589,-0.120158996,-0.159791187,0.043259829,0.099422634,-0.108668298
1.76966E+18,1.791281006,0.029762613,-0.063248776,-0.169229901,0.051482871,0.091909319,-0.084693193
1.76966E+18,1.801269043,0.069508969,-0.008501286,-0.195203423,0.058563109,0.072579041,-0.069400735
1.76966E+18,1.81125708,0.05066749,0.031946459,-0.107815355,0.061305098,0.048359726,-0.05525136
1.76966E+18,1.821243896,-0.061453088,0.068491352,-0.043994771,0.061934404,0.043156441,-0.041123558
1.76966E+18,1.831231934,-0.151631956,0.053368602,-0.041244595,0.060888849,0.074678145,-0.033693869
1.76966E+18,1.841219727,-0.197370794,0.038218379,-0.025964755,0.063764878,0.113294922,-0.029708318
1.76966E+18,1.851208008,-0.139593216,0.030293431,0.016080782,0.069735691,0.127872795,-0.026802545
1.76966E+18,1.861196045,-0.052168615,0.049429509,0.042237113,0.069964238,0.123591438,-0.021717384
1.76966E+18,1.871184082,0.00806052,0.028349896,0.016384002,0.055184223,0.107482515,-0.020985281
1.76966E+18,1.881170898,0.095056082,-0.002221183,0.030423488,0.04487082,0.0817784,-0.02694835
1.76966E+18,1.891158936,0.144180507,0.026802082,0.052672875,0.032504965,0.038257558,-0.025708381
1.76966E+18,1.901147217,0.132894595,0.091793318,0.055380234,0.031463359,0.017367769,-0.021560624
1.76966E+18,1.91113501,0.030648821,0.138702368,0.073562957,0.020803791,0.009364171,0.003340731
1.76966E+18,1.921123047,-0.089428305,0.046081368,0.109339934,0.013720048,0.031573705,0.023038832
1.76966E+18,1.931111084,-0.101559509,-0.069150693,0.15379107,0.003420273,0.019031281,0.025797335
1.76966E+18,1.9410979,-0.015365875,-0.088548052,0.170969876,-0.005281961,0.012372177,0.013201252
1.76966E+18,1.951086182,-0.014684322,-0.072273209,0.069120444,-0.016995609,0.005602156,0.002861529
1.76966E+18,1.961074219,-0.056641377,-0.071912559,-0.035929684,-0.015448934,0.002962333,5.34558E-05
1.76966E+18,1.971061768,-0.075423198,-0.080049104,-0.114706137,-0.015825504,0.00888547,0.006147034
1.76966E+18,1.981049805,-0.040647616,-0.109881347,-0.162627726,-0.011933206,0.031902838,0.009298421
1.76966E+18,1.991037842,0.036499885,-0.118036012,-0.10771847,0.001335994,0.0679892,-0.001378192
1.76966E+18,2.001024902,0.050328504,-0.18275603,-0.087765669,0.018501086,0.090997107,-0.02010433
1.76966E+18,2.011012939,0.079680782,-0.105510877,-0.182320268,0.026080709,0.103469223,-0.043832563
1.76966E+18,2.021000977,0.010314437,-0.009923428,-0.178976073,0.037778515,0.139652506,-0.051006097
1.76966E+18,2.03098877,-0.122402464,0.00611936,-0.139730542,0.037293818,0.168899074,-0.053373914
1.76966E+18,2.040976807,-0.155014036,0.048893503,-0.17015403,0.040978123,0.172608569,-0.042350665
1.76966E+18,2.050965088,-0.230064345,0.012864158,-0.112909609,0.055614322,0.160930067,-0.029595459
1.76966E+18,2.060951904,-0.175761093,-0.003366262,-0.121226187,0.072696902,0.175331607,-0.031053362
1.76966E+18,2.070939941,-0.081107088,0.071357263,-0.122681938,0.080014206,0.185393021,-0.051128007
1.76966E+18,2.080927979,-0.01105214,0.208375624,-0.104929132,0.083907254,0.176952988,-0.074972466
1.76966E+18,2.090915771,0.002734357,0.315419118,-0.037503217,0.085340038,0.147639036,-0.093416989
1.76966E+18,2.100904053,0.004166472,0.357782926,0.010901918,0.091242664,0.126054153,-0.097711511
1.76966E+18,2.11089209,-0.043162338,0.312623934,0.036669104,0.090626143,0.13658376,-0.078182817
1.76966E+18,2.120878906,-0.057304188,0.11621698,0.039535307,0.093335114,0.167259559,-0.053446602
1.76966E+18,2.130866943,0.09305362,-0.055745268,0.078671532,0.085885987,0.189463928,-0.039926268
1.76966E+18,2.14085498,0.229746402,-0.235524912,0.090746731,0.074510023,0.197404191,-0.031148937
1.76966E+18,2.150842773,0.312749606,-0.391244466,0.110235422,0.062616348,0.180849716,-0.032856554
1.76966E+18,2.160831055,0.390302765,-0.401859384,0.104769996,0.043800142,0.148426145,-0.039869472
1.76966E+18,2.170819092,0.366079009,-0.322753698,0.107211544,0.02711384,0.100092687,-0.041979764
1.76966E+18,2.180805908,0.263228912,-0.239825824,0.069769848,0.016620852,0.059617255,-0.027615488
1.76966E+18,2.190793945,0.139468165,-0.20558687,0.027860651,0.009779991,0.043322973,-0.00869932
1.76966E+18,2.200781982,0.102556777,-0.189919345,-0.074028528,0.004279541,0.04012876,0.002143421
1.76966E+18,2.210770264,0.08769823,-0.188079855,-0.156839644,0.004836408,0.059975967,0.009797079
1.76966E+18,2.220758057,0.023545784,-0.169141346,-0.189203598,0.009504618,0.097103156,0.010367139
1.76966E+18,2.23074585,-0.034279871,-0.121038117,-0.172906251,0.016632035,0.13372694,0.008155118
1.76966E+18,2.24073291,-0.057855977,-0.092950671,-0.11746172,0.023856925,0.166806504,-0.004930354
1.76966E+18,2.250720947,-0.11826741,-0.13070494,-0.106626437,0.02964584,0.183880568,-0.021284826
1.76966E+18,2.260708984,-0.157682963,-0.135599726,-0.040404199,0.039731719,0.189286247,-0.053556692
1.76966E+18,2.270697021,-0.160176533,-0.045488662,0.021521511,0.046729438,0.190248191,-0.087701619
1.76966E+18,2.280684814,-0.240515487,-0.024204467,0.0630024,0.046537161,0.186150745,-0.098629601
1.76966E+18,2.290672852,-0.3407295,-0.04305296,0.042699762,0.045993876,0.189641088,-0.086007014
1.76966E+18,2.300659912,-0.335827699,-0.056600424,0.0318864,0.049968287,0.208282977,-0.066504583
1.76966E+18,2.310647705,-0.228413728,-0.033733343,0.006938713,0.040970799,0.222643286,-0.064801224
1.76966E+18,2.320635986,-0.034540641,0.078700612,0.060695146,0.032575984,0.211410165,-0.088222362
1.76966E+18,2.330624023,-0.017486593,0.072775313,0.139269354,0.028040087,0.158529907,-0.103242055
1.76966E+18,2.340611816,0.018071079,0.030628362,0.081541827,0.036346532,0.132147878,-0.114306539
1.76966E+18,2.350599854,-0.042339259,0.006734277,0.099706867,0.039427809,0.13205041,-0.11285565
1.76966E+18,2.360586914,-0.108393739,-0.02113222,0.056034314,0.047040634,0.152045235,-0.100367621
1.76966E+18,2.370574951,-0.130201009,0.002406477,0.076149174,0.058699686,0.157210171,-0.089153051
1.76966E+18,2.380562988,-0.067962287,0.086269001,0.017417729,0.057252035,0.135418192,-0.076208577
1.76966E+18,2.390551025,-0.026800329,0.251589912,0.009868775,0.063332833,0.135158271,-0.05368036
1.76966E+18,2.400538818,-0.057368485,0.246039292,0.072248513,0.070188954,0.155834377,-0.034293752
1.76966E+18,2.410526855,0.039596609,0.291726107,-0.003960282,0.070152469,0.165836424,-0.039423
1.76966E+18,2.42051416,0.049003904,0.312919117,0.092362496,0.073259629,0.142616168,-0.046377487
1.76966E+18,2.430501953,-0.070281816,0.177429282,0.156042648,0.058042329,0.107109308,-0.058894347
1.76966E+18,2.44048999,-0.130036247,0.009410218,0.110008043,0.041511156,0.107139848,-0.069769882
1.76966E+18,2.450478027,-0.142313471,-0.136212305,0.097431908,0.023731094,0.124290869,-0.079979911
1.76966E+18,2.46046582,0.026186508,-0.201032275,-0.029364042,0.013453242,0.093962073,-0.096335255
1.76966E+18,2.470454102,0.146310432,-0.127626263,-0.101440705,0.011916066,0.042529244,-0.089263499
1.76966E+18,2.480441162,0.17286307,-0.060104632,-0.166384448,0.016715392,0.020564068,-0.06461712
1.76966E+18,2.490428955,0.207989255,-0.045720133,-0.172428843,0.021148756,0.010452044,-0.028955527
1.76966E+18,2.500416992,0.260424376,-0.062189037,-0.157154701,0.025639378,0.007823717,0.011326438
1.76966E+18,2.510405029,0.258605417,-0.104798345,-0.142182465,0.019850997,0.011952681,0.043429244
1.76966E+18,2.520393066,0.229848036,-0.114624743,-0.10402926,0.014172296,0.012462582,0.066620342
1.76966E+18,2.530380859,0.188875316,-0.111366618,-0.060672349,0.007562065,0.000546267,0.073989041
1.76966E+18,2.540368164,0.132923712,-0.08116671,-0.033281946,0.000200778,-0.011761887,0.07316988
1.76966E+18,2.550355957,0.033860184,-0.050742345,0.007292349,-0.004382522,-0.020914905,0.070398062
1.76966E+18,2.56034375,-0.055765726,-0.031333296,-0.010697773,-0.009756915,-0.01248678,0.06931074
1.76966E+18,2.570331787,-0.120067737,-0.054171151,-0.037831133,-0.010289813,-0.001369414,0.068905406
1.76966E+18,2.580320068,-0.066138579,0.078857848,0.012389088,-0.006653135,0.016578078,0.063082419
1.76966E+18,2.590307861,-0.026074352,0.057650809,-0.032145635,-0.007309071,0.005007977,0.071071371
1.76966E+18,2.600294922,0.06310133,0.00993278,-0.021034605,-0.013764439,-0.033007339,0.101963989
1.76966E+18,2.610282959,0.203953643,-0.030578678,0.087378862,-0.021130743,-0.037709415,0.120937683
1.76966E+18,2.620270752,0.292771744,-0.109299748,0.112286217,-0.02792638,-0.025181103,0.132682949
1.76966E+18,2.630259033,0.312799875,-0.161110599,0.034802433,-0.03396856,-0.011496717,0.157649025
1.76966E+18,2.64024707,0.438999393,-0.248237094,0.114188251,-0.033998735,-0.065020211,0.198579758
1.76966E+18,2.650234863,0.066000778,-0.148012633,0.116544751,-0.034550276,-0.093141332,0.21343407
1.76966E+18,2.6602229,-0.083079192,-0.05485621,0.096840518,-0.027847545,-0.046754189,0.203669131
1.76966E+18,2.670209961,0.024658714,0.054430678,-0.007009294,-0.01421296,-0.001838383,0.181806967
1.76966E+18,2.680197998,0.022978725,0.03330898,-0.031669834,-0.004267165,-0.010285769,0.168324098
1.76966E+18,2.690186035,-0.150821772,0.018009119,-0.037418753,0.001504704,-0.015864827,0.151442587
1.76966E+18,2.700174072,-0.354530062,-0.031665304,0.027909021,0.005315866,0.004690274,0.133286059
1.76966E+18,2.710161865,-0.373404274,-0.108330611,0.03621683,-0.002616093,0.034965623,0.108093888
1.76966E+18,2.720149902,-0.204795464,-0.106562432,0.100653062,-0.005535361,0.049788546,0.087859824
1.76966E+18,2.730137207,-0.082901498,-0.083005615,0.161758542,-0.001654603,0.048443649,0.065346256
1.76966E+18,2.740125,0.061376041,-6.31284E-05,0.140279554,0.000323194,0.039147168,0.04975903
1.76966E+18,2.750113037,0.086572441,-0.016170214,0.154420016,-0.00358393,0.044270288,0.043944549
1.76966E+18,2.76010083,0.09785006,-0.061247373,0.117618664,-0.011673325,0.032577798,0.040879335
1.76966E+18,2.770088867,0.186960459,-0.033516485,0.201224729,-0.015908284,-0.011144383,0.018933821
1.76966E+18,2.780076904,0.217707516,-0.038747956,0.183227446,-0.009769964,0.015505504,-0.053156648
1.76966E+18,2.790063965,0.132872347,0.121247376,0.116329355,-0.011440565,0.016085805,-0.074571662
1.76966E+18,2.800052002,-0.143804002,0.19638708,0.05560396,-0.023680676,-0.022370953,-0.035285261
1.76966E+18,2.810040039,-0.439988331,0.202729727,0.056649377,-0.026655162,-7.7364E-05,0.000988324
1.76966E+18,2.820027588,-0.224063643,0.057953592,-0.008900661,-0.018788273,0.010616466,0.011945329
1.76966E+18,2.830015625,0.011356091,-0.086027594,-0.090297088,0.002358824,0.006565533,-0.015123307
1.76966E+18,2.840003906,0.175177703,-0.073226564,-0.144639357,0.018646937,0.006587327,-0.037934236
1.76966E+18,2.849990967,0.016513876,-0.036996144,-0.146294431,0.023178572,0.009792175,-0.028696528
1.76966E+18,2.85997876,-0.156107092,0.00862579,-0.036306116,0.022193071,0.013233059,-0.012378822
1.76966E+18,2.869966797,-0.113814522,0.041875733,0.038267041,0.024514813,0.011137684,-0.006375791
1.76966E+18,2.879954834,-0.068449851,-0.004752747,0.050509121,0.019169675,0.011826468,-0.011980106
1.76966E+18,2.889942871,-0.024502025,-0.07083587,0.063041124,0.004485536,0.012294118,-0.018666504
1.76966E+18,2.899930908,-0.025390535,-0.111478261,0.041056671,-0.004768637,-0.001212423,-0.025732283
1.76966E+18,2.909917725,0.071640172,-0.125095283,0.008209902,-0.009470182,-0.02500244,-0.034255464
1.76966E+18,2.919905762,0.114976625,-0.080842884,-0.046404024,-0.013281299,-0.022383632,-0.035308134
1.76966E+18,2.929893799,0.072629073,-0.043437575,-0.085276483,-0.018209212,-0.008050764,-0.027150339
1.76966E+18,2.93988208,0.038323557,-0.032298926,-0.102280955,-0.018831104,-0.001401638,-0.013246987
1.76966E+18,2.949869873,0.053004408,0.011177812,-0.148320091,-0.014479765,-0.006798801,-0.008615749
1.76966E+18,2.95985791,0.042659503,0.02242752,-0.153910897,-0.008835817,-0.008398863,-0.004974509
1.76966E+18,2.969844727,0.02787932,-0.015962708,-0.179959677,-0.006041894,0.003656469,-0.001123045
1.76966E+18,2.979832764,-0.025625513,-0.011850597,-0.14065321,-0.007533176,0.013881444,0.005824176
1.76966E+18,2.989821045,-0.005847594,-0.022592356,-0.112813748,-0.00556004,0.013844959,0.009187216
1.76966E+18,2.999809082,0.026628406,-0.052945993,-0.02919833,-0.007650001,0.007739002,0.003484451
1.76966E+18,3.009796875,0.020633586,-0.079891283,0.017462153,-0.00708115,0.011943068,0.000115552
1.76966E+18,3.019784912,0.030564577,-0.071643094,0.051997314,-0.007217107,0.012065177,-0.00876682
1.76966E+18,3.029772949,0.022257425,-0.058238838,0.04820479,-0.000899823,0.005613669,-0.014126698
1.76966E+18,3.039759766,-0.023010289,-0.053629299,0.012179098,-0.004705742,0.00722962,-0.009073699
1.76966E+18,3.049748047,-0.092635029,-0.107542091,0.032062779,-0.012111727,0.023064245,-0.005731964
1.76966E+18,3.059736084,-0.043025414,-0.109410223,0.09283552,-0.014070128,0.014121223,-0.01083046
1.76966E+18,3.069723877,0.075543609,-0.113980599,-0.005453005,-0.018344769,0.015428303,-0.019447651
1.76966E+18,3.07971167,0.06424597,-0.094690793,-0.009187953,-0.013626578,0.01751923,-0.02338941
1.76966E+18,3.089699951,0.037879357,-0.051748892,-0.013147066,-0.00402535,0.0214663,-0.019128352
1.76966E+18,3.099687012,0.010547186,-0.009739304,-0.029898733,0.002748443,0.030163111,-0.014303293
1.76966E+18,3.109674805,-0.042949426,0.023223639,-0.026456191,0.009569331,0.038816255,-0.010829465
1.76966E+18,3.119662842,-0.011306991,0.059513096,0.029452597,0.009898723,0.037201114,-0.014317676
1.76966E+18,3.129650635,0.000399813,0.067549688,0.055127428,0.012047893,0.010298127,-0.007816633
1.76966E+18,3.139638672,-0.004977788,0.133050626,0.022576866,0.01477577,0.001932339,0.007343943
1.76966E+18,3.149626953,0.017824411,0.151717333,0.035090895,0.007460066,0.011884306,0.022620901
1.76966E+18,3.15961377,0.083247608,0.074598437,0.052227177,-2.13759E-05,0.003223346,0.025994554
1.76966E+18,3.169601807,0.202800966,0.012484803,0.069735946,-0.006410566,-0.013005158,0.016244454
1.76966E+18,3.179589844,0.217728559,-0.049834583,0.077667908,-0.011014149,-0.020104539,0.007476787
1.76966E+18,3.189577637,0.145391637,-0.071058573,0.022997429,-0.015077334,-0.025009016,0.007780387
1.76966E+18,3.199565918,0.077151044,-0.032290743,0.03497969,-0.014025299,-0.032547016,0.018748276
1.76966E+18,3.209553955,0.060748191,0.03381576,0.033354426,-0.0144538,-0.031759255,0.032381527
1.76966E+18,3.219540771,0.053496612,0.002402969,0.0480892,-0.016278068,-0.026546167,0.043505609
1.76966E+18,3.229528809,0.058691843,-0.035315644,0.064796297,-0.018439757,-0.017263986,0.034512382
1.76966E+18,3.239516846,0.079037881,-0.106540805,0.083514588,-0.020549463,-0.024975708,0.023820922
1.76966E+18,3.249505127,0.062390771,-0.132616326,0.121725661,-0.020093797,-0.037169255,0.012980258
1.76966E+18,3.25949292,0.015175357,-0.127590023,0.08311609,-0.025205605,-0.037423085,0.014637643
1.76966E+18,3.269480957,-0.014289149,-0.130585113,0.074721333,-0.029634174,-0.041360304,0.016295461
1.76966E+18,3.279467773,0.04386603,-0.119721189,0.055685355,-0.030256689,-0.05037513,0.010883077
1.76966E+18,3.289455811,0.09202245,-0.097287823,0.045475803,-0.030232986,-0.04638385,-0.002359757
1.76966E+18,3.299443848,0.111330304,-0.12434125,0.023448972,-0.030359397,-0.042560689,-0.012472243
1.76966E+18,3.309432129,0.11721191,-0.11701836,0.040040918,-0.026457598,-0.040978502,-0.015091995
1.76966E+18,3.319419922,0.082960096,-0.083008538,-0.012211831,-0.024647625,-0.039174017,-0.01292358
1.76966E+18,3.329407959,0.096022991,-0.059913494,-0.019826544,-0.025447905,-0.035410702,-0.014522009
1.76966E+18,3.339395752,0.09209968,-0.061807929,-0.038844256,-0.025557142,-0.035427954,-0.022746241
1.76966E+18,3.349382813,0.085443145,-0.023707039,-0.052470046,-0.022985592,-0.030282995,-0.027933547
1.76966E+18,3.359371094,0.018053507,-0.031045127,-0.053900225,-0.019839333,-0.017170494,-0.024352156
1.76966E+18,3.369358887,-0.040938744,-0.00540975,-0.031514644,-0.011204034,-0.009421759,-0.015746417
1.76966E+18,3.37934668,-0.059395644,0.005786767,-0.008095044,-0.003846608,-0.009182004,-0.005447244
1.76966E+18,3.389334717,-0.04910572,0.01228022,0.026465836,0.003979091,-0.011948496,0.003670088
1.76966E+18,3.399322998,-0.020183614,0.015611995,0.055884384,0.00166254,-0.012247116,0.00383362
1.76966E+18,3.409309814,0.00318674,-0.019110359,0.054468526,-0.00361478,-0.023070203,-0.00751331
1.76966E+18,3.419297852,0.03633505,0.000313304,0.061003335,-0.010637091,-0.03518549,-0.020502444
1.76966E+18,3.429285889,0.051524326,0.044219665,0.060418813,-0.015876329,-0.037672084,-0.026795227
1.76966E+18,3.439273682,0.012674773,0.045132104,0.058500412,-0.01647434,-0.035596974,-0.026849866
1.76966E+18,3.449261719,-0.048635728,0.009194529,0.03009031,-0.018147338,-0.023486516,-0.021640988
1.76966E+18,3.45925,-0.08279168,-0.049334817,0.034816316,-0.015892837,-0.015745424,-0.022064446
1.76966E+18,3.469236816,-0.073297803,-0.068338792,0.018228461,-0.016854772,-0.019322315,-0.019797031
1.76966E+18,3.479224854,-0.095854576,-0.053531684,0.012013678,-0.015123679,-0.030665895,-0.006538963
1.76966E+18,3.489212891,-0.08317973,0.003006781,0.013013065,-0.010163009,-0.035296332,0.009827759
1.76966E+18,3.499200684,-0.066870473,0.029316111,0.043286769,-0.004753235,-0.035240479,0.025859386
1.76966E+18,3.509188965,-0.091926662,-0.033166357,0.051136459,-0.006239811,-0.028436102,0.041684423
1.76966E+18,3.519177002,-0.100832364,-0.036093642,0.076915628,-0.000201406,-0.028304487,0.036673296
1.76966E+18,3.529163818,-0.032847865,-0.016516835,0.057747986,-0.004033961,-0.034563977,0.027459826
1.76966E+18,3.539151855,-0.061121116,-0.058321256,0.009855477,-0.011220278,-0.035584919,0.009308603
1.76966E+18,3.549139893,-0.07674893,-0.080642393,-0.026835546,-0.013715927,-0.046695359,-0.020158209
1.76966E+18,3.559128174,-0.080250106,-0.050465866,-0.120281745,-0.014852609,-0.052296672,-0.038733672
1.76966E+18,3.569115967,-0.119202718,-0.020122166,-0.1661559,-0.011161733,-0.032038804,-0.030804377
1.76966E+18,3.579104004,-0.144920439,0.022964696,-0.116974813,-0.007290652,-0.0043376,-0.009178781
1.76966E+18,3.58909082,-0.057577744,-0.030804888,-0.124629273,-0.001921187,0.017928291,-0.002909434
1.76966E+18,3.599078857,0.02153269,-0.113342302,-0.037916328,0.003128654,0.007716622,-0.008122993
1.76966E+18,3.609066895,0.032631519,-0.139238959,-0.024540275,0.006865069,-0.020362951,-0.007832708
1.76966E+18,3.619054932,0.049722939,-0.002245149,0.037985009,0.014752863,-0.042509004,-0.006072416
1.76966E+18,3.629042725,0.070627743,0.10309271,-0.049681584,0.005230996,-0.046215594,0.006986395
1.76966E+18,3.639030762,-0.013916297,0.116591074,-0.050285103,-0.003425516,-0.032183357,0.021167148
1.76966E+18,3.649018799,0.022838439,0.122163906,0.001268705,-0.003752286,-0.047362044,0.021873685
1.76966E+18,3.659005615,0.057249316,0.150133278,0.026993952,0.004865299,-0.057683472,0.019017868
1.76966E+18,3.668993896,0.009872538,0.11835633,0.074363605,0.009184413,-0.056403026,0.02500492
1.76966E+18,3.678981934,-0.040057285,0.025139702,0.032831718,0.008659552,-0.05717285,0.029314816
1.76966E+18,3.688969727,-0.018916224,-0.000493336,-0.014195699,0.004551893,-0.065240361,0.032215264
1.76966E+18,3.698957764,0.04439093,-0.052880526,-0.065698507,-0.009528905,-0.069100104,0.025971439
1.76966E+18,3.708945801,0.105944519,-0.134614222,-0.145606595,-0.017763399,-0.070281215,0.015224785
1.76966E+18,3.718932617,0.137538074,-0.154901808,-0.162904205,-0.017142352,-0.067946374,0.022165069
1.76966E+18,3.728920898,0.134172287,-0.087937811,-0.190299577,-0.013939369,-0.058822919,0.035375413
1.76966E+18,3.738908936,0.105489834,-0.065730071,-0.170525786,-0.011130664,-0.050372094,0.050270192
1.76966E+18,3.748896729,0.093141152,-0.075841131,-0.153177322,-0.010382051,-0.059687566,0.054732051
1.76966E+18,3.758884766,0.079804774,-0.065636548,-0.184281924,-0.013518858,-0.066609778,0.051213015
1.76966E+18,3.768873047,0.048999374,-0.07114099,-0.18359175,-0.012159049,-0.062716499,0.040345985
1.76966E+18,3.778861084,0.035102841,-0.088380879,-0.193903446,-0.009996559,-0.05223985,0.031304237
1.76966E+18,3.7888479,-8.88839E-05,-0.050189388,-0.178415078,0.00129631,-0.042752072,0.044859994
1.76966E+18,3.798835938,-0.001032266,-0.005464695,-0.103084819,0.008931591,-0.01380926,0.053101972
1.76966E+18,3.80882373,0.04411858,-0.03653671,-0.065288465,0.012657087,0.014611195,0.03461697
1.76966E+18,3.818812012,0.047569597,-0.09216332,-0.008734218,0.011429682,-0.000328031,0.015832786
1.76966E+18,3.828800049,-0.041461343,-0.040083589,0.017903613,0.006105224,-0.028174043,0.031393103
1.76966E+18,3.838788086,-0.07434775,0.008465046,0.002471212,-0.007281111,-0.019427272,0.03888822
1.76966E+18,3.848774902,0.029760347,-0.071487027,-0.013557108,-0.012093443,-0.013608797,0.015178896
1.76966E+18,3.858762939,0.117810387,-0.076404025,-0.054690206,0.000241385,-0.021082662,-0.026090208
1.76966E+18,3.868751221,-0.032066871,-0.026665304,-0.061236559,0.015318072,-0.003669316,-0.049811516
1.76966E+18,3.878739014,-0.255711924,0.057035308,0.008207856,0.024171133,0.033750772,-0.051619954
1.76966E+18,3.888726807,-0.337176739,0.082500004,0.040883361,0.034338281,0.052989714,-0.042703956
1.76966E+18,3.898714844,-0.213234718,0.088380879,0.064925623,0.045276776,0.057007022,-0.041948877
1.76966E+18,3.908701904,-0.003677775,0.060129182,0.017158348,0.045620058,0.063118711,-0.053274505
1.76966E+18,3.918689697,0.080431345,-0.002498831,0.006401391,0.043061644,0.06121267,-0.070338294
1.76966E+18,3.928677979,0.08620759,-0.068028411,0.05844269,0.0488162,0.035511833,-0.08195287
1.76966E+18,3.938665771,0.058433484,-0.074179919,0.093331633,0.055311963,0.031330232,-0.075746804
1.76966E+18,3.948653809,0.00200955,-0.109814127,0.138874364,0.054456025,0.056396704,-0.075395264
1.76966E+18,3.958641846,-0.030159064,-0.145794957,0.17193273,0.048493207,0.061210476,-0.083654761
1.76966E+18,3.968629639,-0.071190127,-0.190185303,0.203976804,0.041350339,0.036865719,-0.101237752
1.76966E+18,3.978616943,-0.061104786,-0.180205176,0.158657653,0.035434749,0.022267213,-0.125594631
1.76966E+18,3.98860498,-0.095228005,-0.170638891,0.093875238,0.030024271,0.028745087,-0.136128768
1.76966E+18,3.998592773,-0.13768183,-0.138001527,0.05272592,0.031904154,0.040248085,-0.138668567
1.76966E+18,4.008580811,-0.104371133,-0.131620886,-0.004807546,0.034210183,0.038287465,-0.134230673
1.76966E+18,4.018568848,-0.057877056,-0.146350837,-0.04805559,0.030605016,0.016583303,-0.127821386
1.76966E+18,4.028556885,-0.027673641,-0.150970314,-0.088884883,0.023491979,-0.002802379,-0.126791
1.76966E+18,4.038544922,-0.015411577,-0.122588853,-0.104380704,0.021544281,-0.009702873,-0.125356719
1.76966E+18,4.048531982,-0.03961546,-0.090766897,-0.074274466,0.022334708,-0.007474873,-0.121106312
1.76966E+18,4.058519775,-0.030633696,-0.045478726,-0.062558163,0.021224389,0.005716891,-0.124231927
1.76966E+18,4.068507813,-0.098725747,-0.009015081,-0.031323359,0.023588477,0.00752784,-0.120693378
1.76966E+18,4.078496094,-0.152771737,0.059449968,0.017043051,0.025318023,0.004558877,-0.113185324
1.76966E+18,4.088484131,-0.202850212,0.098223643,0.060896806,0.024391776,0.008518998,-0.105099969
1.76966E+18,4.098471924,-0.198829943,0.096992055,0.073307228,0.022673814,0.020729583,-0.101309016
1.76966E+18,4.108458984,-0.168438239,0.022719197,0.062055036,0.02076699,0.027597874,-0.102607839
1.76966E+18,4.118446777,-0.125136857,-0.020183541,0.047621875,0.014170118,0.025876669,-0.110682338
1.76966E+18,4.128435059,-0.052587169,0.022371991,0.053572746,0.011817481,0.01969574,-0.119420163
1.76966E+18,4.138422852,-0.082015435,0.033419455,0.080748776,0.011998306,0.012511556,-0.128923342
1.76966E+18,4.148410889,-0.111567766,0.081999069,0.035277503,0.003618404,0.006398269,-0.12706925
1.76966E+18,4.158398682,-0.137780066,0.189653972,0.092949648,0.001985183,-0.011025179,-0.099326067
1.76966E+18,4.168385986,-0.099039051,0.182901575,0.070738985,-0.002764299,-0.020343579,-0.073101923
1.76966E+18,4.178373779,0.019761589,0.072134093,-0.011577479,-0.005217384,-0.011432045,-0.067243628
1.76966E+18,4.188361816,0.078473306,0.011447277,0.009474661,-0.006264539,-0.013610777,-0.065643065
1.76966E+18,4.198349854,0.075300448,-0.017116554,0.017807605,-0.009890164,-0.024479246,-0.059314359
1.76966E+18,4.208337891,0.006585151,-0.016161446,0.031173137,-0.016245799,-0.033681531,-0.047668356
1.76966E+18,4.218325684,-0.056794485,0.010311551,0.068842358,-0.006785454,-0.040826041,-0.025502814
1.76966E+18,4.228313965,-0.049567529,0.010600304,0.020235271,-0.008581757,-0.030672472,-0.007702777
1.76966E+18,4.238301025,-0.013232407,-0.035208676,0.067660747,-0.018248454,-0.031048626,-0.006749983
1.76966E+18,4.248288818,0.038655529,-0.101073772,0.092872491,-0.033441521,-0.052713443,-0.018993599
1.76966E+18,4.258276855,0.073544544,-0.131465987,0.066867697,-0.045882698,-0.068683319,-0.03373244
1.76966E+18,4.268264893,0.039595513,-0.114113286,0.055654667,-0.053714789,-0.069168814,-0.051786277
1.76966E+18,4.278252686,0.00155249,-0.155639475,0.003282821,-0.051670104,-0.05950987,-0.063239515
1.76966E+18,4.288240967,-0.035514527,-0.114600777,-0.027435266,-0.04628253,-0.05439527,-0.065503471
1.76966E+18,4.298228027,-0.071234514,-0.039832244,-0.035368543,-0.041013204,-0.061570626,-0.051393773
1.76966E+18,4.30821582,-0.035061961,-0.028740357,-0.055158408,-0.037953764,-0.063842833,-0.040264424
1.76966E+18,4.318203857,0.01129289,-0.05299217,-0.095342973,-0.027876712,-0.057645541,-0.038842682
1.76966E+18,4.328191895,0.054697293,-0.071405194,-0.134747347,-0.021046504,-0.026815988,-0.038099393
1.76966E+18,4.338179932,0.041996656,-0.020415012,-0.079871701,-0.011960112,-0.01264417,-0.040164541
1.76966E+18,4.348167969,0.077222283,0.064216744,-0.035925592,-0.001902151,-0.025201773,-0.042845815
1.76966E+18,4.358156006,0.09907288,0.108619949,-0.00272621,0.005210487,-0.028206274,-0.051406823
1.76966E+18,4.368142822,0.077945994,0.145998955,0.017271161,0.012196491,-0.031346675,-0.057857532
1.76966E+18,4.378130859,0.050077379,0.144219086,0.049800388,0.012370443,-0.035361461,-0.053093806
1.76966E+18,4.388119141,0.054817559,0.095367084,0.07515461,0.006422539,-0.035306863,-0.049476698
1.76966E+18,4.398106934,0.113730424,-0.003410101,0.143756437,-0.002961998,-0.049450044,-0.056488875
1.76966E+18,4.408094727,0.152144107,-0.057258595,0.208862531,-0.008519482,-0.064518474,-0.056682754
1.76966E+18,4.418082764,0.097087917,-0.038778936,0.254180367,-0.014262674,-0.075753115,-0.04790169
1.76966E+18,4.428070801,0.031902109,-0.036140988,0.257460119,-0.017533569,-0.081121512,-0.038002189
1.76966E+18,4.438057617,0.003238251,-0.005945757,0.22114655,-0.021252768,-0.091295347,-0.03059963
1.76966E+18,4.448045898,0.034480946,-0.001150924,0.150304689,-0.025602242,-0.106627166,-0.023102833
1.76966E+18,4.458033936,0.083211294,-0.025717794,0.073453651,-0.02290339,-0.117043123,-0.022022998
1.76966E+18,4.468021729,0.120475734,-0.047043491,0.049843204,-0.016216991,-0.1113341,-0.028593281
1.76966E+18,4.478009766,0.089830493,-0.099354108,0.014476269,-0.005974834,-0.090643972,-0.051388364
1.76966E+18,4.487998047,0.018248773,-0.124632926,-0.038962476,-0.002018708,-0.073545143,-0.074407659
1.76966E+18,4.497984863,-0.098904611,-0.097361473,-0.029921091,0.005199882,-0.053346053,-0.076605521
1.76966E+18,4.5079729,-0.171492877,-0.075772742,-0.0032723,0.010281726,-0.03116432,-0.091204971
1.76966E+18,4.517960938,-0.094927524,-0.110680389,-0.040710196,0.013509163,-0.013323998,-0.110004626
1.76966E+18,4.52794873,-0.108439405,-0.100480482,-0.070188073,0.006054975,-0.013647305,-0.121726528
1.76966E+18,4.537937012,-0.114282213,-0.13226912,-0.103797936,-0.010345035,-0.011472148,-0.130087003
1.76966E+18,4.547925049,-0.033957142,-0.167028299,-0.215861157,-0.013044149,-0.014010406,-0.135337695
1.76966E+18,4.557912842,0.063328344,-0.143726918,-0.148560622,-0.004410936,-0.003773863,-0.144430086
1.76966E+18,4.567899902,0.121566451,-0.171470081,-0.209396638,0.001171316,-0.00918514,-0.14520213
1.76966E+18,4.577887939,0.090506127,-0.14149989,-0.108295686,0.012340261,0.014644678,-0.140613094
1.76966E+18,4.587875732,0.112362643,-0.118969494,-0.19501623,0.005928701,0.012187911,-0.14642252
1.76966E+18,4.597864014,0.157728556,-0.093133042,-0.184805217,0.00827894,0.007305538,-0.140048772
1.76966E+18,4.607852051,0.0668015,-0.084471012,-0.202330937,0.001598667,0.006430424,-0.132015347
1.76966E+18,4.617839844,0.123281439,-0.056289458,-0.226665168,0.006724276,0.013135392,-0.125163227
1.76966E+18,4.627826904,0.103191348,-0.041106502,-0.139518069,0.009807417,0.031493094,-0.120172992
1.76966E+18,4.637814941,0.067231708,-0.016730186,-0.134578274,0.01547418,0.056830287,-0.117575228
1.76966E+18,4.647802979,0.052042468,0.040930561,-0.128276105,0.022326225,0.07369715,-0.108064279
1.76966E+18,4.657790771,0.019284546,0.070445994,-0.130576053,0.021678148,0.063642092,-0.099807188
1.76966E+18,4.667778809,0.042678208,0.093593645,-0.065664897,0.024577796,0.05934215,-0.090687729
1.76966E+18,4.677766846,0.045375265,0.110881464,-0.063365534,0.024173217,0.074933425,-0.085331172
1.76966E+18,4.687754639,0.040024552,0.067273209,0.005882336,0.021568645,0.0894394,-0.077139825
1.76966E+18,4.697741943,0.066088383,0.032154549,0.070640201,0.018225046,0.09932106,-0.079644792
1.76966E+18,4.70772998,0.099735655,-0.034089901,0.045809711,0.01297489,0.114698149,-0.084990822
1.76966E+18,4.717717773,0.065933996,-0.043901101,0.099269206,0.012372175,0.115021624,-0.090378635
1.76966E+18,4.727705811,0.085595194,-0.034816462,0.093317458,0.012440619,0.100155592,-0.092570946
1.76966E+18,4.73769458,0.075527389,-0.013046529,0.055971186,0.008933812,0.088300675,-0.091901779
1.76966E+18,4.747682373,0.062667761,-0.036871056,0.010483692,0.000942465,0.080698684,-0.081880033
1.76966E+18,4.75767041,0.08702698,-0.053700026,0.003135229,-0.00322512,0.073840313,-0.07501673
1.76966E+18,4.767657227,0.127812579,-0.057165072,-0.037358694,-0.010179166,0.07419984,-0.077566966
1.76966E+18,4.777645264,0.182502932,-0.074112699,-0.010815847,-0.009331483,0.08161366,-0.092492901
1.76966E+18,4.787633301,0.185314263,-0.056178983,0.006076251,-0.007920275,0.098338842,-0.104818806
1.76966E+18,4.797621582,0.130349697,-0.02623568,0.038522038,-0.00387067,0.119256526,-0.115211554
1.76966E+18,4.807609375,0.117882868,-0.037811552,0.088782007,-0.000445046,0.128673747,-0.125130236
1.76966E+18,4.817597412,0.10300189,-0.133773095,0.045068976,-0.003104211,0.148716316,-0.141911104
1.76966E+18,4.827584473,0.089728932,-0.238720493,0.007575404,-0.018225374,0.171143055,-0.175536171
1.76966E+18,4.837572266,0.118297878,-0.304653978,-0.057811845,-0.032037858,0.187355697,-0.21739918
1.76966E+18,4.847560547,0.116004068,-0.342021878,-0.058012044,-0.022660337,0.190008208,-0.262142152
1.76966E+18,4.857548584,0.023017011,-0.404761535,-0.142993928,-0.02099227,0.199560732,-0.294618815
1.76966E+18,4.867536133,-0.074556936,-0.328523514,-0.241067495,-0.02368659,0.201360762,-0.309986055
1.76966E+18,4.87752417,-0.104173491,-0.32547231,-0.304917743,-0.016252641,0.196451232,-0.323106647
1.76966E+18,4.887512207,-0.137126643,-0.341360784,-0.284974733,-0.007788582,0.174911574,-0.322070152
1.76966E+18,4.897499512,-0.200178873,-0.289319631,-0.414976055,-0.011280826,0.155030429,-0.316189051
1.76966E+18,4.907487305,-0.063309566,0.034081718,-0.345245224,-0.000718729,0.163164526,-0.322921515
1.76966E+18,4.917475342,0.001570026,0.232245744,-0.122126204,0.013958662,0.150522575,-0.319802791
1.76966E+18,4.927463135,0.032833764,0.250879718,-0.051305094,0.014114722,0.100670062,-0.290631056
1.76966E+18,4.937451172,-0.003498071,0.237542682,-0.095657592,0.007025787,0.080378979,-0.270163327
1.76966E+18,4.947439453,0.017796207,0.318347572,0.058355597,0.003758621,0.085930072,-0.254462391
1.76966E+18,4.95742749,-0.027775311,0.282213598,0.211423759,-0.000229152,0.107881598,-0.237912536
1.76966E+18,4.967414307,0.090007019,0.216238028,0.161099493,-0.011850654,0.121208861,-0.238996446
1.76966E+18,4.977402344,0.201392341,0.157342771,0.085952921,-0.041936964,0.118695743,-0.255091161
1.76966E+18,4.987390137,0.287729585,0.095598555,0.033649025,-0.05938546,0.095090553,-0.27760765
1.76966E+18,4.997378418,0.375179905,0.072107789,-0.022895722,-0.083171085,0.065807685,-0.310397297
1.76966E+18,5.007366455,0.397935342,0.165705526,-0.126397306,-0.100966327,0.047068886,-0.323229462
1.76966E+18,5.017354492,0.186680071,0.212014273,-0.173990101,-0.10865207,0.045823134,-0.306337297
1.76966E+18,5.027341309,0.08210326,0.181192433,-0.236876181,-0.104344942,0.011280606,-0.26946345
1.76966E+18,5.037329346,-0.029811932,0.188506556,-0.254216169,-0.07777223,-0.021409582,-0.20841971
1.76966E+18,5.047317383,-0.22461335,0.303469152,-0.116826198,-0.037594192,-0.015651828,-0.13634339
1.76966E+18,5.05730542,-0.334792803,0.293936185,0.0211575,-0.020784764,0.027745446,-0.080305286
1.76966E+18,5.067293457,-0.348909007,0.265151989,0.137633862,-0.014523407,0.030469861,-0.042996794
1.76966E+18,5.077281494,-0.26615649,0.176678171,0.159881058,-0.021360274,0.015536834,-0.044951536
1.76966E+18,5.087269287,-0.196789962,-0.004601941,0.191624834,-0.027981959,0.021483673,-0.063313499
1.76966E+18,5.097256348,-0.189290107,-0.173840317,0.180440884,-0.039542034,0.029038873,-0.092125781
1.76966E+18,5.107244629,-0.055628948,-0.217062788,0.190683462,-0.048773348,0.043697178,-0.130510718
1.76966E+18,5.117232422,0.067043492,-0.201667651,0.187202926,-0.047531381,0.044091664,-0.161540017
1.76966E+18,5.127220215,0.078363196,-0.161561266,0.132832453,-0.04615932,0.047478408,-0.182234913
1.76966E+18,5.137208252,0.093949034,-0.063321841,0.068637775,-0.041736785,0.044802003,-0.197106734
1.76966E+18,5.147196045,0.165979959,0.021011808,0.084079967,-0.041810289,0.028273094,-0.212268919
1.76966E+18,5.157184326,0.145340199,-0.016006547,0.001925561,-0.054328382,0.011177164,-0.199459612
1.76966E+18,5.167171387,-0.005602935,0.131835405,0.067924512,-0.053800277,-0.006911026,-0.17326583
1.76966E+18,5.17715918,-0.038894963,0.093612934,0.07178791,-0.040576488,-0.002484438,-0.151077107
1.76966E+18,5.187147217,-0.044757718,-0.049340662,0.16161475,-0.028195187,0.006595077,-0.128816545
1.76966E+18,5.197135254,-0.053598319,-0.17343992,0.163954152,-0.02905192,0.004660487,-0.120636195
1.76966E+18,5.207123291,-0.018273616,-0.252480723,0.200059777,-0.025978632,0.021467431,-0.112601705
1.76966E+18,5.217111328,-0.036555268,-0.298136559,0.261167157,-0.026255339,0.051720362,-0.108278014
1.76966E+18,5.227099365,0.054305152,-0.288278013,0.304784472,-0.058778126,0.05433106,-0.097960129
1.76966E+18,5.237086182,0.191601892,-0.222979319,0.602747282,-0.082575917,0.005555379,-0.069179788
1.76966E+18,5.247074219,0.392161435,-0.132317636,0.656207216,-0.101533093,-0.067914583,-0.056065321
1.76966E+18,5.2570625,0.5109281,-0.10030571,0.501049972,-0.106860839,-0.114842862,-0.029929664
1.76966E+18,5.267050537,0.393662487,0.057061611,0.419725734,-0.105249889,-0.119119368,-0.016686032
1.76966E+18,5.27703833,0.269921687,0.095438396,0.107244131,-0.094528571,-0.120276198,-0.004566242
1.76966E+18,5.287026367,0.105989308,0.105535427,-0.088000209,-0.087184109,-0.109993465,0.004791306
1.76966E+18,5.297013184,0.03452727,0.050941083,-0.152856858,-0.075848103,-0.09516678,0.008464681
1.76966E+18,5.307001465,0.100004243,-0.016178981,-0.141548844,-0.071190238,-0.085583396,0.00026028
1.76966E+18,5.316989502,0.144816321,-0.068525839,-0.088124858,-0.067189991,-0.063035019,-0.01313547
1.76966E+18,5.326977539,0.134692402,-0.134810037,-0.107481008,-0.073365062,-0.043442141,-0.027531188
1.76966E+18,5.336965332,0.115383744,-0.165310389,-0.139083184,-0.083378546,-0.035900034,-0.04010082
1.76966E+18,5.346953125,0.084673841,-0.11029402,-0.166141287,-0.083908252,-0.031408612,-0.049435467
1.76966E+18,5.356941406,-0.017949644,-0.036386488,-0.125702163,-0.078625828,-0.016402079,-0.046815265
1.76966E+18,5.366928467,-0.09648659,0.013486674,-0.060773325,-0.062282272,0.016795289,-0.046039488
1.76966E+18,5.37691626,-0.136201491,0.075853406,0.021548838,-0.046142675,0.060593221,-0.049069941
1.76966E+18,5.386904297,-0.13295681,0.071881579,0.076496087,-0.031851888,0.094297387,-0.047452603
1.76966E+18,5.39689209,-0.089603845,-0.003700608,0.076688687,-0.027026948,0.117988788,-0.043118764
1.76966E+18,5.406880371,-0.035561289,-0.065732409,0.079371058,-0.029748965,0.135536626,-0.05283371
1.76966E+18,5.416868408,0.066029931,-0.027936639,0.087322894,-0.028868433,0.147473648,-0.072261401
1.76966E+18,5.426856201,0.153736271,0.109583241,0.081764968,-0.037466712,0.151734427,-0.095729709
1.76966E+18,5.436843262,0.173052235,0.211623812,0.148363346,-0.03944185,0.152340382,-0.094225295
1.76966E+18,5.446831299,0.175983467,0.282664264,0.139380998,-0.037748076,0.153310299,-0.095380045
1.76966E+18,5.456819092,0.204283678,0.281233355,0.016702421,-0.032618918,0.153760746,-0.085862026
1.76966E+18,5.466807373,0.131324241,0.22306349,0.02963526,-0.022845913,0.158131272,-0.066309102
1.76966E+18,5.47679541,0.150369425,0.274282805,0.074521865,-0.018644333,0.158644408,-0.036563549
1.76966E+18,5.486783447,0.264244811,0.247775906,0.14298516,-0.007292342,0.178970993,-0.021172345
1.76966E+18,5.49677124,0.36196518,0.112597621,0.253855372,-0.00458462,0.200579241,-0.016782003
1.76966E+18,5.506758301,0.396690749,0.078019059,0.184848764,-0.022090375,0.198793858,-0.003166324
1.76966E+18,5.516746338,0.381097605,0.037139936,0.136743782,-0.04662719,0.171709731,0.029162694
1.76966E+18,5.526734375,0.38176396,-0.042057519,0.028616877,-0.060791209,0.143583834,0.065639213
1.76966E+18,5.536722412,0.408695221,-0.200244924,0.055012789,-0.055195644,0.103015624,0.094328113
1.76966E+18,5.546710449,0.383971114,-0.333698286,-0.025367154,-0.033328429,0.07217329,0.120535217
1.76966E+18,5.556698486,0.269870834,-0.297110723,-0.046383858,-0.009531041,0.082254268,0.143828437
1.76966E+18,5.566686279,0.180943427,-0.185399237,-0.083211513,0.00196982,0.078140214,0.163567513
1.76966E+18,5.576673584,0.095841716,-0.128112001,-0.194299168,0.008953334,0.048917655,0.176969588
1.76966E+18,5.586661377,-0.022072862,-0.154405549,-0.234531883,0.008486481,0.032453991,0.176226303
1.76966E+18,5.596649414,-0.095161333,-0.19570202,-0.250197215,0.020317758,0.044616535,0.161433324
1.76966E+18,5.606637207,-0.125421154,-0.240115747,-0.19058212,0.041330367,0.076826669,0.140166119
1.76966E+18,5.616625244,-0.122410282,-0.203913384,-0.145885192,0.05805812,0.109691449,0.115058884
1.76966E+18,5.626613281,-0.063939388,-0.199363465,-0.096060108,0.068176262,0.129139453,0.090502672
1.76966E+18,5.636600342,-0.062896893,-0.170869192,-0.04276048,0.072300442,0.161213309,0.072440222
1.76966E+18,5.646588135,-0.026555706,-0.127708096,-0.029201764,0.069377355,0.18151325,0.058872215
1.76966E+18,5.656576172,0.054975745,-0.157353293,-0.102789563,0.06279929,0.192374423,0.054021757
1.76966E+18,5.666564453,0.129168816,-0.218610018,-0.149620506,0.064293861,0.194789901,0.05022116
1.76966E+18,5.676552246,0.193978558,-0.157504684,-0.131855571,0.072378606,0.19439964,0.051889472
1.76966E+18,5.686540283,0.123747814,-0.114516021,-0.075735332,0.088946663,0.190734863,0.06796138
1.76966E+18,5.69652832,-0.012827917,-0.12268413,0.031085605,0.099060945,0.194462106,0.077642292
1.76966E+18,5.706515137,-0.054523179,-0.143506554,0.024309242,0.097460382,0.200069666,0.072857127
1.76966E+18,5.716503418,-0.135906016,-0.244247732,-0.009639497,0.09178701,0.208138108,0.059101142
1.76966E+18,5.726491455,-0.163827457,-0.306387085,0.003688479,0.068242274,0.214045018,0.024787908
1.76966E+18,5.736479004,-0.198037478,-0.342848392,0.064179773,0.060207732,0.212412298,-0.010454106
1.76966E+18,5.746467041,-0.240587018,-0.274514276,0.029951925,0.055110708,0.227277532,-0.04354335
1.76966E+18,5.756454834,-0.330133433,-0.153218969,-0.003835633,0.049792644,0.248859301,-0.07183335
1.76966E+18,5.766443115,-0.339632645,0.004682605,-0.120824036,0.040210325,0.267285436,-0.091085345
1.76966E+18,5.776430176,-0.324046953,0.076219316,-0.144061119,0.033839867,0.270521224,-0.09505789
1.76966E+18,5.786417969,-0.279964942,0.054573886,-0.137277158,0.03737681,0.255818695,-0.083443843
1.76966E+18,5.796406006,-0.234261176,0.035602644,-0.059605451,0.050794389,0.236763924,-0.073239453
1.76966E+18,5.806394043,-0.0746867,0.147827924,0.052492988,0.065725937,0.227950722,-0.075909801
1.76966E+18,5.816381836,0.011437924,0.190749951,0.128608698,0.074620984,0.217434347,-0.08439669
1.76966E+18,5.826370117,0.044916123,0.23450609,0.237635475,0.069681883,0.2049862,-0.097407565
1.76966E+18,5.83635791,0.035189679,0.234612473,0.265740164,0.058373038,0.196288198,-0.09503258
1.76966E+18,5.846344971,0.018689357,0.16372575,0.329001507,0.064129733,0.167800099,-0.105611451
1.76966E+18,5.856333008,0.258357506,0.296590498,0.335165436,0.050357815,0.122422569,-0.125999227
1.76966E+18,5.866321045,0.203059251,0.149463416,0.13839944,0.012325745,0.107351214,-0.130549237
1.76966E+18,5.876308838,0.013948884,-0.064382748,0.176659905,-0.023008591,0.085002303,-0.136670649
1.76966E+18,5.886296875,0.006069675,-0.215531925,0.010323679,-0.063362673,0.066381216,-0.15162909
1.76966E+18,5.896284912,0.042003597,-0.284746331,-0.177564014,-0.097207688,0.087638423,-0.166833922
1.76966E+18,5.906272949,-0.018123686,-0.240987854,-0.369299469,-0.120825931,0.09008906,-0.174987718
1.76966E+18,5.916259766,0.014058044,-0.176792153,-0.594940992,-0.120300964,0.068741925,-0.18516624
1.76966E+18,5.926248047,-0.020003216,-0.062969374,-0.680526322,-0.111822262,0.046717044,-0.184495389
1.76966E+18,5.93623584,-0.070584233,0.119902391,-0.704728305,-0.100268312,0.05365302,-0.172069788
1.76966E+18,5.946223877,-0.163046536,0.190713711,-0.455433664,-0.095181674,0.066997319,-0.15104039
1.76966E+18,5.956211914,-0.129869512,0.144216748,-0.232953454,-0.095328413,0.057960264,-0.143915609
1.76966E+18,5.966199951,0.021791268,0.082931381,-0.185418234,-0.108515859,0.071698442,-0.14362292
1.76966E+18,5.976187988,0.029971798,-0.029597266,-0.164439452,-0.122842237,0.074659847,-0.137172729
1.76966E+18,5.986175049,0.067054744,-0.080770988,-0.18521862,-0.133562788,0.086117566,-0.130130529
1.76966E+18,5.996163086,0.079364336,-0.059131988,-0.083263609,-0.141099587,0.12200214,-0.140530571
1.76966E+18,6.006150879,0.061873834,0.063746204,-0.004046791,-0.141431674,0.141178235,-0.140086353
1.76966E+18,6.016138916,-0.035898266,0.117675362,0.014736235,-0.138300702,0.1478993,-0.130993292
1.76966E+18,6.026127197,-0.079021514,0.143735686,-0.044508127,-0.130014539,0.129878744,-0.13288787
1.76966E+18,6.03611499,-0.029287323,0.191209385,-0.153282317,-0.12348824,0.142506003,-0.142065346
1.76966E+18,6.046102051,-0.078123396,0.203812846,-0.216845419,-0.11370565,0.202601567,-0.152020767
1.76966E+18,6.056090088,-0.021888591,0.244298001,-0.180454913,-0.102792412,0.252907425,-0.154809907
1.76966E+18,6.066077881,0.006597791,0.125468793,-0.158923245,-0.088396966,0.255263269,-0.140668795
1.76966E+18,6.076066162,0.006487901,0.054833414,-0.098217432,-0.073537104,0.234885395,-0.115462951
1.76966E+18,6.086054199,0.012676818,0.065956281,-0.040314329,-0.063402176,0.228913262,-0.098729782
1.76966E+18,6.096041992,-0.040577217,-0.036145665,0.031819764,-0.059244711,0.213602096,-0.070897639
1.76966E+18,6.106029785,-0.146577924,-0.175857502,0.036961146,-0.055650242,0.192421451,-0.049483698
1.76966E+18,6.11601709,-0.174269064,-0.226188344,0.014352935,-0.051198415,0.191123724,-0.033505697
1.76966E+18,6.126004883,-0.201105048,-0.231336813,0.031050753,-0.046687022,0.210673451,-0.025139377
1.76966E+18,6.13599292,-0.185023974,-0.196869895,0.051424482,-0.03718961,0.228559405,-0.021143386
1.76966E+18,6.145980957,-0.129351772,-0.154767952,0.050433133,-0.022835439,0.241116732,-0.024039308
1.76966E+18,6.15596875,-0.039157998,-0.109937462,0.061918038,-0.008975292,0.252552032,-0.033444442
1.76966E+18,6.165956787,0.049924015,-0.061729019,0.094648707,-0.001283283,0.242353961,-0.045591384
1.76966E+18,6.175945068,0.103548345,-0.123751467,0.048955973,-0.004176669,0.228277683,-0.049822401
1.76966E+18,6.185931885,0.27059418,-0.069558689,0.009018442,-0.010530971,0.233290806,-0.077893183
1.76966E+18,6.195919922,0.349404682,-0.103304307,-0.010552374,-0.016708218,0.255300373,-0.094433457
1.76966E+18,6.205907959,0.298785963,-0.161964586,0.023531974,-0.020017462,0.260012567,-0.097385302
1.76966E+18,6.215895996,0.258993174,-0.139547002,0.054081353,-0.020898441,0.241824985,-0.093491726
1.76966E+18,6.225883789,0.169348851,-0.132769471,0.078378467,-0.023145083,0.20981966,-0.078806527
1.76966E+18,6.23587207,0.051022916,-0.173727504,0.111622054,-0.02203529,0.182359383,-0.069453172
1.76966E+18,6.245860107,0.045750528,-0.133075761,0.105792982,-0.024849985,0.17364338,-0.064406745
1.76966E+18,6.255846924,0.029110359,-0.203690096,0.047471872,-0.029823439,0.17109032,-0.075282268
1.76966E+18,6.265834961,0.062651979,-0.246987971,-0.034512803,-0.042163994,0.160915449,-0.095009901
1.76966E+18,6.275822998,0.093498368,-0.272182033,-0.114404232,-0.052551664,0.150934115,-0.107174598
1.76966E+18,6.285811035,0.073949326,-0.243307237,-0.150605499,-0.051542059,0.154837236,-0.11560297
1.76966E+18,6.295799072,0.199036718,-0.146757664,-0.210008047,-0.052645754,0.178983092,-0.14370963
1.76966E+18,6.305787109,0.303472367,0.0522773,-0.219589969,-0.052950151,0.202319846,-0.156648055
1.76966E+18,6.315774902,0.199279002,0.131668816,-0.225289349,-0.056363754,0.20921272,-0.165194675
1.76966E+18,6.325761963,0.129526251,0.151055069,-0.168823147,-0.050857402,0.194481179,-0.141242206
1.76966E+18,6.335750244,0.031448447,0.124751584,-0.129946011,-0.046007648,0.180387184,-0.114812806
1.76966E+18,6.345738037,0.028310441,0.038484921,-0.038211365,-0.043071512,0.161386862,-0.076529332
1.76966E+18,6.35572583,0.048126902,-0.131723177,-0.029307489,-0.045332227,0.136013865,-0.047612522
1.76966E+18,6.365713867,0.084534725,-0.254679694,-0.064637746,-0.051814895,0.120529443,-0.026215354
1.76966E+18,6.37570166,0.064506374,-0.273271582,-0.003743132,-0.053255841,0.102961406,-0.016608436
1.76966E+18,6.385689941,-0.012119477,-0.174383338,0.102068993,-0.037691262,0.102933705,-0.009864247
1.76966E+18,6.395677002,-0.07590952,-0.081950553,0.266131355,-0.014698369,0.127478242,-0.022190144
1.76966E+18,6.405664795,-0.044325172,0.075685648,0.340642625,0.000952496,0.164500177,-0.040474877
1.76966E+18,6.415652832,-0.040151101,0.219453483,0.362833999,-0.001745692,0.182535365,-0.058001053
1.76966E+18,6.425640869,-0.006397008,0.260861598,0.294069821,-0.018680999,0.179928139,-0.072288118
1.76966E+18,6.43562915,0.020472002,0.225887315,0.227221998,-0.038575873,0.171938002,-0.092812054
1.76966E+18,6.445616943,0.096193891,0.060628948,0.094378073,-0.049049288,0.17794396,-0.122569688
1.76966E+18,6.45560498,0.212427237,-0.015904841,0.000108648,-0.06027567,0.200686082,-0.159946918
1.76966E+18,6.465591797,0.281827521,0.110790863,-0.06156433,-0.065100521,0.228359252,-0.179535002
1.76966E+18,6.475579834,0.134915835,0.003139467,-0.099759839,-0.068964541,0.218106642,-0.173304513
1.76966E+18,6.485568115,0.140609371,-0.077036478,-0.123913088,-0.072228506,0.186844587,-0.155083165
1.76966E+18,6.495556152,0.211584357,0.007010171,-0.151096863,-0.078922421,0.149996728,-0.12917842
1.76966E+18,6.505543945,0.179819684,-0.005866262,-0.120987921,-0.086451709,0.121067069,-0.092035562
1.76966E+18,6.515531982,0.185730369,-0.115922966,-0.133825885,-0.092886783,0.108053565,-0.069145612
1.76966E+18,6.52552002,0.153183898,-0.283490778,-0.127450979,-0.100048825,0.109298058,-0.057101194
1.76966E+18,6.535506836,0.108210784,-0.380651176,-0.147122479,-0.099074513,0.12528491,-0.058577597
1.76966E+18,6.545495117,0.082832305,-0.346709159,-0.15952691,-0.093583338,0.15882954,-0.065612607
1.76966E+18,6.555483154,-0.027681495,-0.235469967,-0.140274732,-0.084744036,0.197614416,-0.071089193
1.76966E+18,6.565470947,-0.135272686,-0.106987964,-0.184672896,-0.069787458,0.226511046,-0.073415734
1.76966E+18,6.575458984,-0.116400228,0.027075638,-0.153300254,-0.056265522,0.239585564,-0.084774382
1.76966E+18,6.585447021,-0.062923781,0.226383574,-0.098992581,-0.043101519,0.244546503,-0.096983641
1.76966E+18,6.595434814,-0.105572544,0.224891874,-0.040842956,-0.025483645,0.2424234,-0.101287797
1.76966E+18,6.605422119,0.016570319,0.23679274,-0.02043273,-0.009914007,0.254660875,-0.122389361
1.76966E+18,6.615409912,0.101778413,0.303890008,-0.014379677,0.004767691,0.285188168,-0.135378331
1.76966E+18,6.625397705,0.058646542,0.316106515,0.052299694,0.016188657,0.295958251,-0.140356839
1.76966E+18,6.635385742,0.045336395,0.282029474,0.086588479,0.022952866,0.30583781,-0.135686025
1.76966E+18,6.645374023,0.020711656,0.169942725,0.116948071,0.02072593,0.316307485,-0.133405834
1.76966E+18,6.655362061,0.013902269,0.127068045,0.127436732,0.010236537,0.321122617,-0.127542332
1.76966E+18,6.665349854,-0.06513795,0.07415537,0.14006171,-0.001467523,0.303793937,-0.11015375
1.76966E+18,6.675336914,-0.095372637,0.04405483,0.095940793,-0.009367441,0.25895378,-0.085591808
1.76966E+18,6.685324707,-0.121437053,0.02859598,0.07101214,-0.009296867,0.218285725,-0.059961814
1.76966E+18,6.695312988,-0.168241474,-0.032863574,0.062072023,-0.008294898,0.204854652,-0.035356507
1.76966E+18,6.705301025,-0.153158764,-0.154680859,0.089459358,-0.005827213,0.207921013,-0.025203736
1.76966E+18,6.715289063,0.013422961,-0.24638416,0.121143367,-0.004132421,0.214756921,-0.027998105
1.76966E+18,6.725276855,0.080834701,-0.193042446,0.167431181,0.000800286,0.220290437,-0.03697136
1.76966E+18,6.73526416,0.045038581,-0.035050271,0.163330833,0.001459465,0.216184407,-0.043882102
1.76966E+18,6.745252441,-0.16206074,0.102044662,0.18082371,0.000644804,0.206854284,-0.034922965
1.76966E+18,6.755240234,-0.344016851,0.097806879,0.205892758,0.004189865,0.193924278,-0.039429516
1.76966E+18,6.765228271,-0.330832668,0.001181319,0.228341577,0.01899278,0.205644041,-0.057874568
1.76966E+18,6.775216309,-0.313950214,-0.130286422,0.191871137,0.035035096,0.229804307,-0.082898982
1.76966E+18,6.78520459,-0.236051274,-0.198194422,0.126641892,0.051419396,0.2525056,-0.114733614
1.76966E+18,6.795192139,-0.141192724,-0.13257541,0.085139997,0.062966637,0.272238821,-0.149464712
1.76966E+18,6.805180176,-0.110218909,-0.02862696,0.058288413,0.074457645,0.275391996,-0.176583946
1.76966E+18,6.81516748,-0.116995856,0.061156187,0.040981122,0.07998392,0.262754589,-0.198726937
1.76966E+18,6.825155273,-0.095955698,0.059403791,0.075250581,0.083446562,0.252254814,-0.219938219
1.76966E+18,6.835143066,0.002659282,0.004545242,0.073413648,0.084059857,0.248055488,-0.243058756
1.76966E+18,6.845131348,0.052610477,-0.032509354,0.05922953,0.079162568,0.25135088,-0.258557588
1.76966E+18,6.855119141,0.100450964,-0.013974749,0.102754382,0.076671615,0.258076429,-0.272290915
1.76966E+18,6.865107178,0.09799831,-0.006150339,0.144251454,0.067217663,0.258017033,-0.268714041
1.76966E+18,6.875094238,0.021786592,-0.040738253,0.207428772,0.054117177,0.242235526,-0.26779291
1.76966E+18,6.885082031,0.021929215,-0.033754386,0.229417572,0.038353391,0.227558583,-0.267251998
1.76966E+18,6.895070313,0.031868426,-0.058911039,0.214271477,0.023018423,0.222130403,-0.277154803
1.76966E+18,6.90505835,0.073348437,-0.166094818,0.110790717,-0.000393693,0.223407656,-0.293791562
1.76966E+18,6.915046143,0.059987143,-0.185113991,-0.019234204,-0.024515318,0.229070455,-0.301701874
1.76966E+18,6.92503418,0.005765432,-0.081219317,-0.145112345,-0.056154206,0.239760652,-0.29660511
1.76966E+18,6.935022217,-0.12915245,-0.096437928,-0.187500265,-0.077010885,0.252872765,-0.268701553
1.76966E+18,6.945010498,-0.161079035,-0.171069099,-0.243769758,-0.089455038,0.253109246,-0.235958517
1.76966E+18,6.954997314,-0.134902099,-0.098195586,-0.24431782,-0.086926192,0.245023325,-0.205051571
1.76966E+18,6.964985352,-0.152611943,-0.013235329,-0.154919965,-0.065207846,0.241203547,-0.169962823
1.76966E+18,6.974973145,-0.182048173,-0.012915011,-0.04574587,-0.03574241,0.243663624,-0.151745379
1.76966E+18,6.984961182,-0.159852124,-0.058331193,0.073525748,-0.009296953,0.260366172,-0.15244472
1.76966E+18,6.994949463,-0.084000179,-0.067299512,0.092693353,-0.000909369,0.273113638,-0.167494982
1.76966E+18,7.0049375,0.02863865,-0.061741878,0.092320575,-0.001038532,0.282201409,-0.191668764
1.76966E+18,7.014924316,0.129859721,-0.00386895,0.062014959,0.00865986,0.287986755,-0.210937217
1.76966E+18,7.024912354,0.175495099,0.078256375,-0.004366232,0.017741771,0.287111908,-0.227029637
1.76966E+18,7.034900391,0.12790245,0.104111532,-0.019711722,0.021352746,0.281657428,-0.230636001
1.76966E+18,7.044888428,0.050447746,0.074438278,-0.067569689,0.022523738,0.278438985,-0.228980049
1.76966E+18,7.054876221,-0.018742694,-0.009774375,-0.096198457,0.020580389,0.281805396,-0.222648874
1.76966E+18,7.064864258,-0.076159111,-0.119980132,-0.088631949,0.028853765,0.289415091,-0.221254706
1.76966E+18,7.074852051,-0.168752931,-0.298081614,-0.020759532,0.045090564,0.309115261,-0.213993892
1.76966E+18,7.084840088,-0.187877318,-0.42116205,0.011697461,0.066809177,0.325517118,-0.214989111
1.76966E+18,7.094827148,-0.140602064,-0.337232305,0.001033069,0.077877313,0.341414243,-0.22070381
1.76966E+18,7.104815186,-0.205767487,-0.275427299,-0.027774434,0.07780727,0.342169523,-0.215225413
1.76966E+18,7.114803223,-0.171428872,-0.187926126,-0.03044938,0.082474202,0.32701987,-0.207824007
1.76966E+18,7.12479126,-0.106554249,-0.080926471,-0.014999763,0.086769886,0.307270139,-0.199969277
1.76966E+18,7.134779053,-0.013172201,-0.14153613,0.010761742,0.089719072,0.290983856,-0.199403897
1.76966E+18,7.144767334,0.122294839,-0.202346865,0.083905697,0.08207766,0.277897865,-0.201355189
1.76966E+18,7.154755371,0.155670454,-0.172420513,0.069950593,0.069101803,0.261281818,-0.200217485
1.76966E+18,7.164742188,0.151536715,-0.027969372,0.059799585,0.048106775,0.243942767,-0.187595159
1.76966E+18,7.174730225,0.051087213,-0.014341245,-0.035499165,0.024098553,0.236366153,-0.160628602
1.76966E+18,7.184718262,-0.002625672,-0.051752399,-0.059993272,0.007156054,0.241015494,-0.134190604
1.76966E+18,7.194706055,0.021408406,-0.151762341,-0.052210947,9.5662E-05,0.240024105,-0.11534512
1.76966E+18,7.204694336,0.075017832,-0.21779461,-0.053095987,-0.003800276,0.258223355,-0.120682895
1.76966E+18,7.214682373,0.101035193,-0.150338446,-0.032233469,-0.002914018,0.287050486,-0.124916203
1.76966E+18,7.22467041,0.007808043,-0.084359953,-0.075774897,-0.003552378,0.285339653,-0.120725445
1.76966E+18,7.234657227,-0.054048986,0.072236384,-0.110027277,-0.013742751,0.272551745,-0.116894051
1.76966E+18,7.244645264,-0.059459028,0.119012164,-0.081569235,-0.019009151,0.268935174,-0.119979858
1.76966E+18,7.254633545,0.017566929,0.106010643,-0.046882281,-0.020090045,0.271107256,-0.135458291
1.76966E+18,7.264621338,0.145723061,0.139231945,-0.018258861,-0.021907654,0.246191263,-0.152120367
1.76966E+18,7.274609131,0.135559979,0.178775435,-0.102173394,-0.036235977,0.226155996,-0.152070418
1.76966E+18,7.284597168,0.09792203,0.270110488,-0.158115929,-0.046324033,0.216833875,-0.151076257
1.76966E+18,7.294585205,0.191285957,0.384488562,-0.101882028,-0.055988114,0.19050023,-0.160676122
1.76966E+18,7.304572266,0.316263167,0.351543739,-0.089405966,-0.056332994,0.169693217,-0.165688992
1.76966E+18,7.314560303,0.310662278,0.170981421,0.053815958,-0.060975995,0.163620651,-0.17006658
1.76966E+18,7.324548096,0.348251712,-0.070465867,0.030871455,-0.068927392,0.164045691,-0.153696135
1.76966E+18,7.334536133,0.266234523,-0.147348032,0.054931696,-0.070639096,0.180344194,-0.156284824
1.76966E+18,7.34452417,0.469400888,0.15498481,-0.063710393,-0.09200085,0.208130553,-0.180304408
1.76966E+18,7.354512207,0.330897257,0.113311322,-0.198696398,-0.104683354,0.21992889,-0.174447045
1.76966E+18,7.364500244,0.127948919,-0.014081132,-0.231306399,-0.104759254,0.227157235,-0.152947083
1.76966E+18,7.374487305,0.060465867,-0.051084875,-0.171714667,-0.090832293,0.227303416,-0.138157114
1.76966E+18,7.384475098,-0.033448096,-0.106312257,-0.105425464,-0.072128914,0.213188663,-0.121014878
1.76966E+18,7.394463135,-0.07868103,-0.025572248,-0.053500631,-0.065426223,0.239128545,-0.120560095
1.76966E+18,7.404451416,-0.070099957,0.006633739,-0.088978753,-0.06267678,0.238655567,-0.105243988
1.76966E+18,7.414439209,-0.088954295,-0.120076578,-0.152978475,-0.048991729,0.196653709,-0.069320865
1.76966E+18,7.424427246,0.01022738,-0.184831667,-0.12584433,-0.027617997,0.168745115,-0.049990576
1.76966E+18,7.434415283,0.062167995,-0.258088042,-0.020986181,-0.012239436,0.15865168,-0.043087959
1.76966E+18,7.4444021,0.000707856,-0.255274153,0.078395016,-0.006294994,0.162138551,-0.049965307
1.76966E+18,7.454390381,-0.165372349,-0.172542094,0.270120041,-0.005095025,0.166597158,-0.044454552
1.76966E+18,7.464378418,-0.390642409,-0.101773444,0.287083086,-0.012430968,0.171887264,-0.025449967
1.76966E+18,7.474366455,-0.373681337,-0.088913378,0.201022558,-0.012158964,0.1931981,-0.015403686
1.76966E+18,7.484354248,-0.194164728,-0.160128603,0.13526211,-0.007626263,0.218935415,-0.017890012
1.76966E+18,7.494342041,-0.067034432,-0.198701202,0.135622431,0.01251221,0.256110191,-0.024442064
1.76966E+18,7.504330322,-0.059590253,-0.203611771,0.155120127,0.028830996,0.297552973,-0.024235137
1.76966E+18,7.514317383,-0.117058984,-0.185418527,0.139129599,0.044346698,0.304123014,-0.013997336
1.76966E+18,7.52430542,-0.173373869,-0.155318572,0.105597971,0.053650185,0.30948928,-0.007444096
1.76966E+18,7.534293213,-0.192525144,-0.161767017,0.111369613,0.06196662,0.322204798,-0.002455025
1.76966E+18,7.544281006,-0.243957809,-0.120789695,0.018661702,0.066520892,0.301325321,0.0124917
1.76966E+18,7.554269287,-0.17490327,0.011875731,0.033808563,0.063572764,0.269979268,0.01714582
1.76966E+18,7.564257324,-0.059983344,0.149177001,0.073681578,0.063353859,0.250446856,0.009721993
1.76966E+18,7.574245117,0.014800094,0.226060334,0.042647557,0.062716164,0.214417264,0.004042033
1.76966E+18,7.584232178,0.030781799,0.275109319,-0.094580281,0.068369254,0.169929147,0.009701516
1.76966E+18,7.594220215,0.051858198,0.275745863,-0.116685292,0.072772972,0.136059716,0.026224717
1.76966E+18,7.604208008,0.115371177,0.226619721,-0.110059955,0.080850333,0.113056116,0.034162004
1.76966E+18,7.614196289,0.209733468,0.166658297,-0.007973901,0.087843396,0.088248938,0.03395699
1.76966E+18,7.624184326,0.290119841,0.10942542,0.142777947,0.096686155,0.059891336,0.022338947
1.76966E+18,7.634172119,0.248208745,0.085125092,0.34017804,0.098344423,0.034397297,0.014232929
1.76966E+18,7.644160156,0.087249829,-0.041650107,0.360327459,0.097671442,0.043821163,0.00848849
1.76966E+18,7.654147217,-0.041690147,-0.138311323,0.476807474,0.093728937,0.073839486,0.008862639
1.76966E+18,7.664135254,-0.082425185,-0.255830618,0.414484326,0.104005545,0.097779438,-0.005115228
1.76966E+18,7.674123291,-0.03698533,-0.314795433,0.469508513,0.121478148,0.127408698,-0.027899174
1.76966E+18,7.684111328,-0.016918109,-0.301280702,0.442152523,0.132745713,0.145553604,-0.056643739
1.76966E+18,7.694099365,0.046185413,-0.183711723,0.212008866,0.113583252,0.139723048,-0.099639229
1.76966E+18,7.704087402,0.052926704,-0.08852584,0.043526167,0.080506265,0.152924865,-0.131628841
1.76966E+18,7.714075439,0.053442544,-0.08037819,-0.176171153,0.039260551,0.136913642,-0.160483092
1.76966E+18,7.724062256,0.256118787,0.10948738,-0.431026003,0.010101865,0.096027985,-0.181486115
1.76966E+18,7.734050293,0.444244819,0.38342707,-0.629892917,0.013677297,0.099217765,-0.175812304
1.76966E+18,7.74403833,0.486108862,0.656186027,-0.61705689,0.054787982,0.179938704,-0.130226701
1.76966E+18,7.754026123,0.479927543,0.770714908,-0.467690394,0.108784236,0.308139473,-0.051323626
1.76966E+18,7.764014404,0.60488371,0.761795104,-0.265557756,0.139630556,0.393851995,0.02051834
1.76966E+18,7.774002441,0.707794926,0.545341972,-0.022182313,0.132702693,0.374803871,0.071703121
1.76966E+18,7.783990479,0.580226238,0.27659985,0.23890575,0.087820716,0.312907755,0.105972677
1.76966E+18,7.793977295,0.256521523,0.020535423,0.521841744,0.025842613,0.263018906,0.121365361
1.76966E+18,7.803965332,0.046956397,-0.09884499,0.587952449,-0.014967402,0.217294574,0.106471367
1.76966E+18,7.813953613,-0.045476388,-0.014707155,0.337773061,-0.045990516,0.201611936,0.082128875
1.76966E+18,7.823941406,-0.169062143,0.040142625,0.098056506,-0.078487739,0.214451298,0.052485764
1.76966E+18,7.833929443,-0.2229045,0.083524086,-0.023898543,-0.106322795,0.235750973,0.024059426
1.76966E+18,7.84391748,-0.178802908,0.093542207,-0.19198373,-0.122891389,0.248749584,0.006767254
1.76966E+18,7.853905518,-0.148978555,0.090285251,-0.302696999,-0.119367264,0.25731045,0.010955654
1.76966E+18,7.863892578,-0.14152181,0.080581603,-0.444719524,-0.10122022,0.247496709,0.033066284
1.76966E+18,7.873880615,-0.158645671,0.022283143,-0.51635955,-0.071183093,0.227698416,0.057785261
1.76966E+18,7.883868408,-0.168616153,0.00092296,-0.512503459,-0.034765966,0.233914495,0.068817399
1.76966E+18,7.893856445,-0.228006792,-0.03105974,-0.368862027,-0.009406366,0.255425751,0.067765608
1.76966E+18,7.903844727,-0.261145968,-0.140952778,-0.198213857,-0.018655259,0.243356302,0.06604068
1.76966E+18,7.91383252,-0.219713011,-0.2167489,-0.043277599,-0.037827134,0.181933805,0.073046207
1.76966E+18,7.923820557,-0.177922618,-0.202983994,0.00466569,-0.050766632,0.115300439,0.085583307
1.76966E+18,7.93380835,-0.120152274,-0.144277538,-0.026518078,-0.052054495,0.085583039,0.09324462
1.76966E+18,7.94379541,-0.098177466,-0.059682023,-0.008915018,-0.050058454,0.080305718,0.102053031
1.76966E+18,7.953783447,-0.11090806,-0.017296003,0.066521148,-0.040508978,0.056773104,0.10528595
1.76966E+18,7.963771729,-0.041722588,0.010222703,0.099123551,-0.034597293,0.01882359,0.096411228
1.76966E+18,7.973759277,-0.050320613,-0.067823244,0.064316697,-0.024946406,0.007096226,0.082790844
1.76966E+18,7.983747314,-0.080962419,-0.124229606,0.014717238,-0.025365055,0.015275593,0.065858729
1.76966E+18,7.993735352,-0.062119479,-0.0068278,-0.085213501,-0.029442348,0.03294158,0.051217154
1.76966E+18,8.003723633,-0.025526363,0.099353524,-0.16357951,-0.040821765,0.041712701,0.048607521
1.76966E+18,8.013710449,0.020461189,0.162485979,-0.259577038,-0.053338584,0.049356125,0.052342251
1.76966E+18,8.023698486,0.135085931,0.189671508,-0.247264779,-0.052979056,0.058144554,0.06628523
1.76966E+18,8.033686523,0.188570853,0.190965639,-0.186234848,-0.034493875,0.07884112,0.083477721
1.76966E+18,8.043674316,0.169126733,0.078807579,-0.053010765,-0.013577942,0.114187397,0.108608909
1.76966E+18,8.053662354,0.124345049,-0.103736853,0.079605634,-0.010292977,0.159703061,0.125519007
1.76966E+18,8.063650635,0.089678225,-0.218714063,0.258206663,-0.022662295,0.178517222,0.136680052
1.76966E+18,8.073638428,-0.005514672,-0.271334477,0.346345148,-0.049781889,0.173291773,0.143635094
1.76966E+18,8.083625488,-0.145093823,-0.277936067,0.35316608,-0.085003793,0.167526558,0.15001151
1.76966E+18,8.093613525,-0.159928112,-0.194139593,0.220111581,-0.100339159,0.154959723,0.148669466
1.76966E+18,8.103601318,-0.116540805,-0.104328389,-0.077117288,-0.099334352,0.154900864,0.143550068
1.76966E+18,8.1135896,-0.077611063,-0.008349311,-0.334514352,-0.089501068,0.174488083,0.125032082
1.76966E+18,8.123577637,-0.038333238,0.05310849,-0.446133117,-0.076528281,0.177109435,0.107327923
1.76966E+18,8.13356543,-0.01138824,0.075424367,-0.449635573,-0.064812019,0.152616292,0.088441193
1.76966E+18,8.143553467,0.031949674,0.051422144,-0.363900897,-0.055032626,0.118499868,0.069757521
1.76966E+18,8.153540527,0.037635026,0.036665889,-0.20783063,-0.046307702,0.079970837,0.061730687
1.76966E+18,8.163528564,0.083061145,0.08881927,-0.017898718,-0.03249149,0.049600147,0.05469355
1.76966E+18,8.173516602,0.092069796,0.072212419,0.165263627,-0.012469,0.004600865,0.037491571
1.76966E+18,8.183504639,0.112218266,-0.040144379,0.297257292,0.009976921,-0.010055842,0.031489871
1.76966E+18,8.193492432,-0.050195817,-0.205382287,0.397332627,0.021752708,0.016851977,0.040124737
1.76966E+18,8.203480225,-0.035572833,-0.268892344,0.469190972,0.026029479,0.028435398,0.038138814
1.76966E+18,8.213468506,0.030074236,-0.250757553,0.496515616,0.031525306,0.009355756,0.033370454
1.76966E+18,8.223455566,0.054625324,-0.171427995,0.487408108,0.045178004,-0.010099168,0.019083396
1.76966E+18,8.233443359,0.046961365,-0.033579614,0.470197153,0.061867721,-0.007933784,-9.4723E-05
1.76966E+18,8.243431396,-0.015479309,-0.001627893,0.443574227,0.071847387,0.000989669,-0.018409548
1.76966E+18,8.253419434,-0.009425123,-0.05219722,0.386789971,0.076660201,-0.017899485,-0.036938939
1.76966E+18,8.263407471,0.038894671,-0.024436522,0.275382072,0.08123818,-0.036985297,-0.061971318
1.76966E+18,8.273395508,0.066168755,0.06159867,0.178313371,0.088460714,-0.037877422,-0.086945221
1.76966E+18,8.283383545,0.035978491,0.058819853,0.045658393,0.10047397,-0.027433304,-0.112170681
1.76966E+18,8.293371338,0.069158876,0.005265958,-0.024919191,0.109497197,-0.023514401,-0.137514174
1.76966E+18,8.303358398,0.093607674,-0.056077277,0.034568698,0.125177354,-0.009909112,-0.136272609
1.76966E+18,8.31334668,0.100627781,-0.083632223,0.151072167,0.142025054,-0.000564563,-0.122883625
1.76966E+18,8.323334473,0.16187983,-0.117597621,0.265783053,0.150678203,0.004284521,-0.109277003
1.76966E+18,8.33332251,0.152954181,-0.09976795,0.393570863,0.145964578,0.010210399,-0.098693945
1.76966E+18,8.343310547,0.089645492,-0.136402275,0.37967802,0.125267819,0.012713769,-0.088659689
1.76966E+18,8.35329834,0.09258476,-0.129683195,0.272030569,0.100582674,-0.004501401,-0.096661933
1.76966E+18,8.363286621,0.119798638,-0.089662735,0.163473894,0.074165717,-0.020019908,-0.110526085
1.76966E+18,8.373273682,0.06178221,0.022577743,0.06447229,0.04555919,-0.016714273,-0.118936449
1.76966E+18,8.383261475,0.043443128,0.162495916,-0.099225221,0.023464009,-0.014920101,-0.111304894
1.76966E+18,8.393249512,0.046991468,0.246160288,-0.272088181,0.018533921,-0.027917013,-0.087622389
1.76966E+18,8.403237549,0.067223232,0.229022691,-0.36342886,0.029688837,-0.037800007,-0.063133024
1.76966E+18,8.413225586,0.130712831,0.210069568,-0.308047164,0.061005399,-0.035888392,-0.044410605
1.76966E+18,8.423213379,0.09688538,0.163259302,-0.21990309,0.083151713,-0.020458836,-0.027570104
1.76966E+18,8.433201416,0.050627487,0.090740594,-0.100888697,0.085117035,-0.011449701,-0.026529925
1.76966E+18,8.443188477,0.081839494,0.067011343,-0.001553294,0.07005313,-0.014964542,-0.030955566
1.76966E+18,8.45317627,0.011917817,0.07046879,0.0090191,0.05032745,-0.019363362,-0.029285956
1.76966E+18,8.463164307,-0.041629064,0.000530746,-0.034060091,0.03887213,-0.010228453,-0.033206131
1.76966E+18,8.473152588,-0.031032852,-0.088041856,-0.047925827,0.027976785,0.018373478,-0.043598168
1.76966E+18,8.483140381,-0.014686112,-0.101422731,-0.01316968,0.019567322,0.04076267,-0.054983448
1.76966E+18,8.493128418,0.062462594,-0.006430325,-0.080810261,0.006509394,0.04590657,-0.06044279
1.76966E+18,8.503116455,0.142922032,0.075721888,-0.176444289,-0.005193334,0.044071652,-0.069489546
1.76966E+18,8.513103271,0.182286366,0.104959089,-0.253402879,-0.005100124,0.039268643,-0.060880348
1.76966E+18,8.523091553,0.153650931,0.039265842,-0.256531094,0.001724493,0.03852189,-0.04372932
1.76966E+18,8.53307959,0.211851191,-0.05171499,-0.223582618,0.002890649,0.035497338,-0.025609644
1.76966E+18,8.543067383,0.30742052,-0.123923317,-0.069949187,-0.008953227,0.024971992,-0.017409503
1.76966E+18,8.55305542,0.296873407,-0.157517543,0.034375038,-0.024823226,0.012823869,-0.009926639
1.76966E+18,8.563043701,0.148901983,-0.105854576,0.054531216,-0.036190663,0.009435795,0.008132521
1.76966E+18,8.573031494,-0.042384267,-0.021832477,0.008473339,-0.036584191,0.005089672,0.02749595
1.76966E+18,8.583018555,-0.161523564,0.006467735,-0.045903125,-0.028573139,0.012800056,0.03429367
1.76966E+18,8.593006592,-0.183536658,-0.062720368,-0.06871738,-0.022262819,0.033120506,0.025262155
1.76966E+18,8.602994385,-0.126470079,-0.110856914,-0.09706618,-0.016020635,0.051229734,0.006494859
1.76966E+18,8.612982422,-0.035703766,-0.136003631,-0.155579415,-0.018256627,0.052482337,-0.008452645
1.76966E+18,8.622970703,0.032319092,-0.12463468,-0.16837891,-0.020610329,0.038867459,-0.013669245
1.76966E+18,8.632958496,0.07193331,-0.147843122,-0.143124496,-0.011473821,0.023769613,-0.010522207
1.76966E+18,8.642946289,0.119452601,-0.137086165,-0.126958775,0.00017458,0.008254303,-0.00607313
1.76966E+18,8.652934326,0.158615275,-0.079697806,-0.046380205,-0.000868845,-0.007349006,-0.007670517
1.76966E+18,8.662921387,0.113827455,-0.031525019,0.031653468,-0.006039372,-0.023400677,-0.013396845
1.76966E+18,8.672909668,0.060621934,0.022642624,0.016769787,-0.005799208,-0.023700496,-0.014648633
1.76966E+18,8.682897461,0.018262217,0.022022447,-0.047166131,-0.00161405,-0.004464218,-0.017868394
1.76966E+18,8.692885498,0.03668021,-0.045036827,-0.055584671,0.003131039,0.01303229,-0.022283124
1.76966E+18,8.702873291,0.093048871,-0.092231124,-0.007969919,0.005641866,0.027121743,-0.027360708
1.76966E+18,8.712861328,0.107581254,-0.066918989,0.052050323,0.000685638,0.042542089,-0.029767256
1.76966E+18,8.722849609,0.107761871,-0.014233108,0.075840254,-0.007832749,0.056266952,-0.029875644
1.76966E+18,8.732836426,0.127075643,0.010079495,0.067425659,-0.0124844,0.063735597,-0.026330391
1.76966E+18,8.74282373,0.162862412,0.032260932,0.021598011,-0.014143815,0.078676991,-0.031033799
1.76966E+18,8.752811523,0.137808927,0.003977087,-0.025476131,-0.022316668,0.095860109,-0.040041588
1.76966E+18,8.762799561,0.070689739,-0.004307926,-0.082074362,-0.028821439,0.107663512,-0.0438326
1.76966E+18,8.772787598,0.041165539,-0.015238486,-0.154005955,-0.035632163,0.112558551,-0.043308046
1.76966E+18,8.782775879,0.043746203,-0.049213236,-0.219482892,-0.039087616,0.109106027,-0.036901809
1.76966E+18,8.792763672,0.035872985,-0.103910456,-0.216359828,-0.045890301,0.094651133,-0.025955644
1.76966E+18,8.802750732,0.050384618,-0.123407768,-0.14334391,-0.048134014,0.072551958,-0.012051811
1.76966E+18,8.812738525,0.090202833,-0.110033908,-0.054689402,-0.047607947,0.047028676,-0.001658218
1.76966E+18,8.822726563,0.132107208,-0.07119652,0.008164017,-0.048432462,0.02093742,0.003265701
1.76966E+18,8.832714844,0.137823832,-0.044854456,0.014398162,-0.047069415,-0.005463436,0.002996408
1.76966E+18,8.842702881,0.095532796,-0.04134148,0.0348915,-0.042530056,-0.022270113,0.004995643
1.76966E+18,8.852690674,0.031871056,-0.066000705,0.02392112,-0.038714454,-0.023334658,0.009319629
1.76966E+18,8.862678711,0.007753098,-0.074151862,0.01607121,-0.030845881,-0.015885796,0.009663442
1.76966E+18,8.872666992,0.014692542,-0.042037061,0.019325244,-0.023350323,-0.005260929,0.008324482
1.76966E+18,8.882653809,-0.037926703,-0.021557167,0.016823417,-0.016238086,0.000851824,0.00715855
1.76966E+18,8.892641846,-0.088369188,-0.011881576,0.032347514,-0.007840387,0.001582562,0.005805235
1.76966E+18,8.902629883,-0.092984865,-0.024959085,0.062529521,0.000838855,0.006657748,-0.000375961
1.76966E+18,8.912617676,-0.078493106,-0.020941081,0.070013374,0.015360805,0.020281682,-0.012384687
1.76966E+18,8.922605469,-0.028256373,-0.003503624,0.070923548,0.027377788,0.037884377,-0.020783231
1.76966E+18,8.93259375,0.007190204,0.004006313,0.058226783,0.040643524,0.050533447,-0.023617085
1.76966E+18,8.942581543,0.041587271,0.003843231,0.079742522,0.044692326,0.052052248,-0.029241946
1.76966E+18,8.952568848,0.075330551,0.012832009,0.101622711,0.036187924,0.04401771,-0.033107817
1.76966E+18,8.962556641,0.114984808,0.012552023,0.097390772,0.020660631,0.029264595,-0.033965621
1.76966E+18,8.972544434,0.075757544,0.030817163,0.056053092,0.007805022,0.016171046,-0.025583077
1.76966E+18,8.982532715,0.034487376,0.031579964,0.00085479,0.004974348,0.014840798,-0.017654845
1.76966E+18,8.992520752,0.02461597,0.052033554,-0.041234366,0.016865177,0.028889375,-0.01022075
1.76966E+18,9.002508789,0.055455638,0.076144498,-0.007191592,0.027807573,0.047366653,-0.007143733
1.76966E+18,9.012496582,0.082943072,0.111963414,0.057988225,0.031294543,0.053054161,-0.002706047
1.76966E+18,9.022483643,0.127228496,0.07352467,0.162459238,0.035248537,0.054197989,-0.00158246
1.76966E+18,9.032471436,0.155943718,0.012118892,0.21278891,0.031531114,0.05819222,-0.002661712
1.76966E+18,9.042459717,0.119642863,-0.027297172,0.162000315,0.027374718,0.062669531,-0.004349091
1.76966E+18,9.052447754,0.038220133,-0.032363223,0.035572614,0.024471527,0.062545814,-0.000918286
1.76966E+18,9.062435791,-0.005456512,-0.043550972,-0.043383726,0.022738077,0.064825751,-0.001769166
1.76966E+18,9.072423584,0.003604746,-0.067235799,-0.023177535,0.025001634,0.076785311,-0.01139335
1.76966E+18,9.082411865,0.043318917,-0.069740476,0.079632997,0.0221406,0.074054509,-0.017391589
1.76966E+18,9.092399902,0.102391868,-0.063619362,0.150223295,0.017168028,0.063033402,-0.022593649
1.76966E+18,9.102386719,0.095238197,-0.034573885,0.157083755,0.005018421,0.05616245,-0.027285339
1.76966E+18,9.112374756,0.029359073,-0.040936991,0.091705274,-0.004831501,0.043682378,-0.033932161
1.76966E+18,9.122362793,-0.002687339,-0.036568274,-0.032283144,-0.016534762,0.032459285,-0.036935143
1.76966E+18,9.13235083,-0.020057284,-0.01629647,-0.124692182,-0.024082871,0.020779498,-0.03976652
1.76966E+18,9.142338867,0.032277883,-0.021574703,-0.132599741,-0.028229147,0.021782178,-0.043832634
1.76966E+18,9.15232666,0.120386375,-0.033342882,-0.076376334,-0.030434594,0.022536112,-0.048458416
1.76966E+18,9.162314453,0.116954062,-0.086729604,0.003500921,-0.037591841,0.018150685,-0.046466369
1.76966E+18,9.172301758,0.09761574,-0.133267484,0.043147945,-0.048825897,-0.002674472,-0.041147664
1.76966E+18,9.182289551,0.046624389,-0.172711021,0.034267523,-0.058822073,-0.013301284,-0.033381354
1.76966E+18,9.192277588,-0.013602409,-0.180374103,-0.003777984,-0.065085828,-0.014583179,-0.025225712
1.76966E+18,9.202265625,-0.002608721,-0.126980951,-0.046830067,-0.069115989,-0.011090443,-0.021453079
1.76966E+18,9.212253662,0.058973582,-0.046146834,-0.127694433,-0.07266181,-0.0098612,-0.012583207
1.76966E+18,9.222241699,0.077037647,0.0516051,-0.189083333,-0.073899649,-0.020902932,0.001279611
1.76966E+18,9.232229736,0.096438805,0.100154319,-0.192083245,-0.071830109,-0.03708205,0.014303553
1.76966E+18,9.242216797,0.060261284,0.098239425,-0.169115334,-0.06837599,-0.053446643,0.027161563
1.76966E+18,9.25220459,0.094902974,0.05404957,-0.11230156,-0.065289915,-0.061546233,0.032165889
1.76966E+18,9.262192627,0.140744395,0.015223288,-0.043880131,-0.062591337,-0.065934859,0.031609554
1.76966E+18,9.272180664,0.195011992,0.05723463,-0.002019669,-0.057976436,-0.062861755,0.029020088
1.76966E+18,9.282168945,0.167574535,0.087481884,0.038429319,-0.051338505,-0.060028952,0.026401134
1.76966E+18,9.292156738,0.10563275,0.089988314,0.028454891,-0.043928079,-0.054326627,0.024213517
1.76966E+18,9.302144775,0.05611001,0.044745151,0.005770619,-0.031620547,-0.034360379,0.017138032
1.76966E+18,9.312132813,0.031836277,-0.025254268,-0.018429756,-0.016719099,-0.002927235,0.009151231
1.76966E+18,9.322119629,-0.022416999,-0.078909871,-0.05467099,-0.006046481,0.024925435,0.008536573
1.76966E+18,9.332107666,-0.01783727,-0.068701196,-0.087092666,0.005464058,0.044421826,0.009051172
1.76966E+18,9.342095947,0.002994506,-0.055941083,-0.092704295,0.015186459,0.063035727,0.007587765
1.76966E+18,9.35208374,0.017352994,-0.033893502,-0.071778338,0.019043421,0.070002608,0.006693699
1.76966E+18,9.362071777,0.037686464,-0.018024317,-0.033550314,0.026372707,0.063704237,0.012182474
1.76966E+18,9.37205957,0.06155074,-0.021104747,0.038908115,0.02925998,0.053142644,0.017857874
1.76966E+18,9.382047607,0.112024205,-0.042622752,0.079245167,0.034941301,0.049757767,0.013098007
1.76966E+18,9.392034912,0.14501725,-0.053039516,0.096833065,0.036718033,0.050427631,0.009416176
1.76966E+18,9.402022705,0.092323479,-0.052494742,0.0866401,0.040323421,0.050779432,0.010419922
1.76966E+18,9.412010498,0.042640872,-0.077331077,0.05326105,0.04705748,0.062322054,0.012464769
1.76966E+18,9.421998535,0.012990122,-0.12737375,0.014868483,0.054269318,0.076006971,0.011584595
1.76966E+18,9.431986572,0.027161855,-0.164842772,0.016882527,0.056560043,0.082625553,0.003636348
1.76966E+18,9.441974854,0.070979078,-0.173698863,0.038104909,0.053760529,0.065891847,-0.002728874
1.76966E+18,9.451962646,0.074449969,-0.168950207,0.062127516,0.045428913,0.047900759,-0.012578995
1.76966E+18,9.461950684,0.039516018,-0.111871644,0.041853082,0.037093751,0.039555743,-0.018534355
1.76966E+18,9.4719375,-0.017760405,-0.104814712,-0.025869989,0.03557393,0.029847736,-0.015178842
1.76966E+18,9.481925537,-0.016921324,-0.110969143,-0.077094784,0.033078279,0.021520562,-0.010364646
1.76966E+18,9.491913818,0.014847148,-0.120469377,-0.059785045,0.0319301,0.010797835,-0.007154034
1.76966E+18,9.501901855,0.0702607,-0.124061264,0.009701602,0.026888205,0.007608167,-0.007227004
1.76966E+18,9.511889648,0.087670685,-0.100322076,0.04420666,0.025182055,0.008010254,-0.007457925
1.76966E+18,9.521877686,0.109614805,-0.041813189,0.031298955,0.026627885,0.012914732,-0.00694793
1.76966E+18,9.531865967,0.075998952,0.004095745,-0.021609336,0.027863367,0.0209985,-0.00721032
1.76966E+18,9.541852783,0.055371466,-0.007568389,-0.070706983,0.028993612,0.02603374,-0.005941058
1.76966E+18,9.55184082,0.059023851,0.004262918,-0.096486955,0.030107925,0.029315583,-0.008388339
1.76966E+18,9.561828857,0.055067807,0.009351766,-0.094652579,0.029359311,0.027626073,-0.014669139
1.76966E+18,9.57181665,0.073740359,-0.002422259,-0.052401072,0.028493078,0.026796034,-0.020683829
1.76966E+18,9.581804688,0.086301734,0.012016601,-0.014930954,0.02617879,0.020200182,-0.026549974
1.76966E+18,9.591792725,0.084973408,0.047005497,-0.027137963,0.023729919,0.015316534,-0.023515876
1.76966E+18,9.601780518,0.072060443,0.06138532,-0.071610653,0.023043357,0.013602789,-0.022132898
1.76966E+18,9.611767822,0.063825406,0.046650107,-0.079947908,0.022273172,0.01188626,-0.02169003
1.76966E+18,9.621755859,0.089619481,0.014905308,-0.016391528,0.021807386,0.003129786,-0.025048809
1.76966E+18,9.631743408,0.094864396,-0.049900634,0.038405645,0.018399164,-0.006178961,-0.031890143
1.76966E+18,9.641731689,0.0770885,-0.043038347,0.058201721,0.014513346,-0.004251897,-0.03877202
1.76966E+18,9.651719727,0.012936054,-0.006465981,0.013520868,0.014431587,0.002273912,-0.034794852
1.76966E+18,9.661707764,-0.033946693,0.01367489,-0.070535425,0.020715581,-0.004139512,-0.027642936
1.76966E+18,9.671695557,-0.036173722,-9.58616E-05,-0.130711516,0.02695355,-0.015898664,-0.017713711
1.76966E+18,9.681682617,0.022105157,-0.018508886,-0.062885641,0.030119518,-0.02991914,-0.009388138
1.76966E+18,9.69167041,0.112704588,-0.024383915,0.046030149,0.02393969,-0.043970264,-0.010096569
1.76966E+18,9.701658691,0.173917182,0.031344986,0.102437607,0.017313479,-0.050047599,-0.009496825
1.76966E+18,9.711646729,0.146309336,0.092192546,0.071590634,0.021404756,-0.053415239,-0.012228154
1.76966E+18,9.721634766,0.03669833,0.073439915,0.061820716,0.030377746,-0.059895508,-0.010784721
1.76966E+18,9.731622559,-0.093766079,0.038135962,0.055007382,0.038938656,-0.051830433,-0.016248291
1.76966E+18,9.74161084,-0.149885733,0.02119301,0.079143899,0.04646688,-0.025738377,-0.026555257
1.76966E+18,9.751598877,-0.112290162,-0.015398645,0.094386768,0.051187515,0.004960662,-0.043764468
1.76966E+18,9.761585693,-0.003838555,0.098915132,0.076596041,0.058172718,0.034269016,-0.053152643
1.76966E+18,9.77157373,-0.001301146,0.162033559,0.107460112,0.069486454,0.046608545,-0.042698577
1.76966E+18,9.781561768,-0.031759997,0.087371409,0.1588485,0.083663255,0.03848777,-0.023465225
1.76966E+18,9.791550049,-0.079172613,-0.085150226,0.220718753,0.087232552,0.000294892,-0.006487546
1.76966E+18,9.801537842,-0.030434301,-0.18844635,0.253602348,0.083831966,-0.028341547,-0.013494058
1.76966E+18,9.811525879,0.024870237,-0.141360189,0.289458162,0.080560416,-0.022972098,-0.020689987
1.76966E+18,9.821513672,-0.04239245,-0.149428345,0.266623815,0.072243892,-0.023056254,-0.021733413
1.76966E+18,9.831501465,-0.05727993,-0.128078683,0.162184878,0.049415838,-0.024394659,-0.007353684
1.76966E+18,9.841489014,-0.034329555,-0.083924484,0.109967747,0.021852124,-0.060083415,-0.002116578
1.76966E+18,9.851476807,0.002467267,-0.065551207,-0.001446765,0.005068666,-0.109254517,0.000656185
1.76966E+18,9.8614646,-0.052926411,-0.064134326,-0.098120511,0.001492041,-0.128566682,-0.002172625
1.76966E+18,9.871452637,-0.106120534,-0.032641456,-0.167621333,0.01630437,-0.10702496,-0.006575062
1.76966E+18,9.881440674,-0.138808751,-0.003685995,-0.190026897,0.042808417,-0.090240389,-0.003221876
1.76966E+18,9.891428711,-0.138645085,-0.038539866,-0.208866147,0.065329708,-0.067703925,-0.002631453
1.76966E+18,9.901416748,-0.143658529,-0.058742696,-0.097760409,0.066452496,-0.048709191,-0.001690026
1.76966E+18,9.911403809,-0.119096335,-0.108793552,0.059860229,0.052153263,-0.076935254,-0.003913593
1.76966E+18,9.921391602,-0.064843351,-0.151062084,0.057994874,0.032661054,-0.098850399,-0.000714604
1.76966E+18,9.931379639,-0.077787004,-0.145281162,-0.028401626,0.024642687,-0.094912641,0.006700325
1.76966E+18,9.94136792,-0.053238254,-0.107226449,-0.107913774,0.021548893,-0.092546687,0.020338371
1.76966E+18,9.951355713,0.03612053,-0.091445527,-0.135558006,0.018246124,-0.102575615,0.031253748
1.76966E+18,9.96134375,0.0509291,-0.097324648,-0.109917222,0.007394009,-0.116060801,0.037885286
1.76966E+18,9.971331787,0.06682868,-0.08125848,-0.081366287,-0.008350253,-0.129666492,0.038466536
1.76966E+18,9.981318604,0.106985626,-0.010926468,-0.11488354,-0.019270012,-0.133671358,0.038222056
1.76966E+18,9.991306641,0.105491004,0.046597501,-0.163981917,-0.026914388,-0.11985527,0.039765675
1.76966E+18,10.00129492,0.108065822,0.077537998,-0.171529118,-0.024268271,-0.089436114,0.040255163
1.76966E+18,10.01128296,0.117374918,0.057984571,-0.119922009,-0.019015009,-0.049843196,0.038962636
1.76966E+18,10.02127075,0.106209673,0.088269235,-0.07169245,-0.021719715,-0.017147036,0.036145546
1.76966E+18,10.03125879,0.103528179,0.116788058,-0.021806539,-0.028804932,0.003385963,0.035395924
1.76966E+18,10.04124683,0.09083704,0.088145901,-0.02356595,-0.038868219,0.022036346,0.031530615
1.76966E+18,10.05123462,0.145959792,0.168452779,-0.002248802,-0.046693023,0.0494643,0.023731342
1.76966E+18,10.06122192,0.184367264,0.199433024,0.008544504,-0.048003834,0.065995611,0.021899886
1.76966E+18,10.07120972,0.208621123,0.211124046,0.00952588,-0.048554301,0.08192838,0.008063149
1.76966E+18,10.08119751,0.22102117,0.238800573,-0.008974786,-0.051581517,0.092965849,-0.004271282
1.76966E+18,10.09118555,0.165675423,0.271417479,-0.064443575,-0.054130204,0.100885816,-0.011434054
1.76966E+18,10.10117383,0.116166127,0.262467864,-0.188450478,-0.05381462,0.10909421,-0.015021065
1.76966E+18,10.11116162,0.110655839,0.262049931,-0.254739462,-0.0475819,0.119571649,-0.014335772
1.76966E+18,10.12114966,0.122119774,0.194346514,-0.245708891,-0.042456646,0.124601297,-0.009478433
1.76966E+18,10.13113672,0.085030692,0.026321605,-0.154000146,-0.03177679,0.126559421,-0.002593481
1.76966E+18,10.14112451,0.087360011,-0.114909989,-0.046971595,-0.026612921,0.118627727,-0.001476285
1.76966E+18,10.15111279,0.087233462,-0.185856334,0.114491435,-0.023386674,0.09557201,-0.001309248
1.76966E+18,10.16110083,-0.008816928,-0.226250888,0.229002744,-0.029428588,0.070784643,0.004915092
1.76966E+18,10.17108862,-0.097870007,-0.279737563,0.271640839,-0.032956615,0.055802811,0.000230621
1.76966E+18,10.18107666,-0.116823129,-0.275928819,0.222316252,-0.039952207,0.05422169,-0.006903456
1.76966E+18,10.19106494,-0.158135091,-0.211647777,0.101214714,-0.044883188,0.061206684,-0.014386913
1.76966E+18,10.20105298,-0.160040924,-0.151346161,-0.031116219,-0.046730623,0.053634781,-0.02681189
1.76966E+18,10.21103979,-0.08130641,-0.07591478,-0.072448493,-0.043246273,0.040834758,-0.040279757
1.76966E+18,10.22102783,-0.029096623,-0.032768882,-0.063398194,-0.0314514,0.016243929,-0.049693231
1.76966E+18,10.23101587,0.028266894,-0.04543021,0.006040084,-0.018631477,-4.07684E-05,-0.058058221
1.76966E+18,10.24100366,0.026311668,-0.154558694,0.10843619,-0.00931787,-0.006915186,-0.066279128
1.76966E+18,10.25099194,0.016899112,-0.252311212,0.173178711,-0.000987804,0.003971564,-0.071927123
1.76966E+18,10.26097974,-0.00406535,-0.240797884,0.166453933,0.005766239,0.020195276,-0.077183671
1.76966E+18,10.27096753,-0.038894671,-0.169923436,0.122709192,0.010902403,0.043383248,-0.07969711
1.76966E+18,10.28095483,-0.117526017,-0.096374216,0.102233098,0.011553812,0.06756901,-0.07868591
1.76966E+18,10.29094287,-0.112509358,-0.039334232,0.055680167,0.00700997,0.087802269,-0.081901766
1.76966E+18,10.30093066,-0.025725977,0.005753449,-0.02043094,0.004659198,0.087878965,-0.090748787
1.76966E+18,10.3109187,0.026227497,0.000594459,-0.039086394,-0.000828374,0.103413664,-0.093136601
1.76966E+18,10.32090674,0.055884384,0.005299275,-0.039059652,-0.001563407,0.115485512,-0.095180579
1.76966E+18,10.33089453,0.103507136,-0.007928455,-0.036721711,-0.005570624,0.110861734,-0.084699512
1.76966E+18,10.34088257,0.095083591,-0.042821489,-0.036764454,-0.010423169,0.09456186,-0.067763142
1.76966E+18,10.35086987,0.111172556,-0.051338558,-0.059652066,-0.016702766,0.085287079,-0.053310189
1.76966E+18,10.36085767,0.119364631,-0.044006315,-0.04277407,-0.024924476,0.064739995,-0.038159996
1.76966E+18,10.3708457,0.128813427,-0.011512159,-0.061581427,-0.032814052,0.030711735,-0.023283117
1.76966E+18,10.38083374,0.093912209,0.073419456,-0.037838951,-0.037133966,0.001551187,-0.000141311
1.76966E+18,10.39082153,0.04514321,0.093688922,-0.029105025,-0.034986295,-0.021274436,0.020199174
1.76966E+18,10.40080981,0.070054364,0.073961308,-0.000759805,-0.032223798,-0.036281351,0.022125972
1.76966E+18,10.41079785,0.098986444,0.038698272,0.018020371,-0.029567165,-0.0401976,0.016742665
1.76966E+18,10.42078589,0.039250645,0.055607905,0.030313817,-0.025400117,-0.035872895,0.004746458
1.76966E+18,10.43077271,-0.061038698,0.069076459,0.039032034,-0.017325325,-0.016272254,-0.003158243
1.76966E+18,10.44076074,-0.113602998,0.077687635,0.033692572,-0.004409793,0.01088826,-0.010079267
1.76966E+18,10.45074902,-0.142417005,0.041968087,0.045322147,0.007318013,0.037194587,-0.018518111
1.76966E+18,10.46073682,-0.120713123,-0.033891748,0.058555065,0.015516021,0.059255145,-0.030022169
1.76966E+18,10.47072485,-0.061474167,-0.03203706,0.002707067,0.01405395,0.07297723,-0.044230416
1.76966E+18,10.48071289,-0.045146717,0.0832441,-0.085685941,0.015723752,0.074831858,-0.051394317
1.76966E+18,10.49070044,-0.05104162,0.175816001,-0.191059967,0.012814289,0.063527279,-0.049927518
1.76966E+18,10.50068872,-0.029722938,0.189109198,-0.25063115,0.011385769,0.038490903,-0.041691691
1.76966E+18,10.51067603,-0.043103229,0.145004099,-0.176091238,0.011237388,0.01572711,-0.032367349
1.76966E+18,10.52066382,-0.048466217,0.034882513,-0.016210034,0.007839726,-0.006388311,-0.023051877
1.76966E+18,10.53065161,0.031851182,-0.037851884,0.107229079,0.001037706,-0.031564247,-0.016652763
1.76966E+18,10.54063965,0.089101302,-0.028142391,0.120152858,-0.00678027,-0.045880869,-0.008118931
1.76966E+18,10.55062769,0.056052727,0.034653965,0.058214362,-0.010412648,-0.052465066,0.001153337
1.76966E+18,10.56061572,-0.010034195,0.066563015,-0.007531711,-0.012671541,-0.052297551,0.009333503
1.76966E+18,10.57060376,-0.037383682,0.031484103,-0.040718672,-0.010527431,-0.040140223,0.011180937
1.76966E+18,10.58059058,-0.039579146,-0.031890345,-0.074691741,-0.012713886,-0.025057409,0.003964836
1.76966E+18,10.59057861,-0.016678455,-0.064171736,-0.067545888,-0.010532708,-0.013603775,-0.007713513
1.76966E+18,10.60056689,-0.047116848,-0.008081015,-0.015032515,-0.015047831,0.017725119,-0.019273762
1.76966E+18,10.61055469,-0.086536128,0.070697338,-0.007929405,-0.020410286,0.031532437,-0.025245255
1.76966E+18,10.62054272,-0.044002808,0.157371413,-0.043257762,-0.027601887,0.045272484,-0.024081187
1.76966E+18,10.63053076,0.00923983,0.200712542,-0.067999623,-0.030891379,0.059472617,-0.016234802
1.76966E+18,10.6405188,0.122513158,0.154556355,-0.06966763,-0.034687184,0.066950507,-0.014173781
1.76966E+18,10.65050684,0.212184369,0.087573654,-0.054844008,-0.038460258,0.075867638,-0.019642523
1.76966E+18,10.6604939,0.210353646,0.004615385,-0.042036038,-0.045122955,0.07740134,-0.02093176
1.76966E+18,10.67048193,0.143387311,-0.048207274,-0.089748368,-0.050415143,0.075267769,-0.009688512
1.76966E+18,10.68046973,0.075146719,-0.049790744,-0.125359414,-0.057485301,0.073742047,0.007649731
1.76966E+18,10.69045776,0.00758008,-0.047840779,-0.174564101,-0.063686207,0.08155603,0.025351496
1.76966E+18,10.70044604,0.01363748,-0.081655954,-0.198566616,-0.070598714,0.078389794,0.036027044
1.76966E+18,10.71043384,0.08350129,-0.05778408,-0.17457075,-0.077062383,0.069897816,0.041398469
1.76966E+18,10.72042163,0.061062371,-0.083502459,-0.122908587,-0.080745533,0.060314432,0.049802605
1.76966E+18,10.73040894,-0.01037088,-0.131017659,-0.102295861,-0.090962134,0.050509084,0.054470204
1.76966E+18,10.74039722,-0.012959435,-0.174319625,-0.122651251,-0.095064737,0.041423179,0.059313428
1.76966E+18,10.7503855,-0.007937223,-0.216310509,-0.154532098,-0.098413073,0.034283437,0.064519227
1.76966E+18,10.76037354,0.006832476,-0.241109434,-0.167490875,-0.101532161,0.016514558,0.065785289
1.76966E+18,10.77036133,0.054845397,-0.264087574,-0.120719552,-0.104689911,-0.014735626,0.068858355
1.76966E+18,10.78034937,0.091612408,-0.229070621,-0.067855977,-0.108916618,-0.044295117,0.066593334
1.76966E+18,10.79033765,0.095603816,-0.133676065,-0.070688059,-0.111067079,-0.064825155,0.063216917
1.76966E+18,10.80032446,0.07813421,-0.078587799,-0.100984778,-0.103736199,-0.07681071,0.060960956
1.76966E+18,10.8103125,0.058361588,-0.089808281,-0.110627855,-0.093188353,-0.085924417,0.056804076
1.76966E+18,10.82030054,0.010582769,-0.143233582,-0.102706999,-0.080679752,-0.08477819,0.053353682
1.76966E+18,10.83028833,-0.006153262,-0.164247144,-0.073095704,-0.063239463,-0.073766641,0.048370786
1.76966E+18,10.84027637,-0.000271218,-0.15722762,-0.039600627,-0.047455437,-0.061727025,0.043346997
1.76966E+18,10.85026465,0.024461072,-0.127651397,-0.02973061,-0.034236081,-0.065639094,0.042232554
1.76966E+18,10.86025269,0.065663436,-0.069046648,-0.015070436,-0.024159215,-0.079849191,0.045736741
1.76966E+18,10.87024048,0.070295187,-0.022737902,-0.001171966,-0.013584523,-0.089189693,0.042179979
1.76966E+18,10.88022754,0.063682491,0.024819968,0.024947102,-0.000476977,-0.087641329,0.036509577
1.76966E+18,10.89021558,0.045951312,0.068921561,0.05562756,0.018430721,-0.073894583,0.023014944
1.76966E+18,10.90020361,0.067826167,0.073694766,0.131113155,0.035892002,-0.053555217,0.008065289
1.76966E+18,10.91019141,0.07480828,0.007387772,0.166736038,0.051695239,-0.053246282,-0.019748835
1.76966E+18,10.92017944,0.069538231,-0.062969374,0.106481037,0.059154753,-0.028649593,-0.033554662
1.76966E+18,10.93016724,0.004786065,-0.021039281,0.101875955,0.056654889,-0.004269797,-0.046919025
1.76966E+18,10.94015527,0.054755673,0.053584291,0.021310572,0.058958523,-0.000518735,-0.058446519
1.76966E+18,10.95014355,0.008524667,0.074932199,-0.131237951,0.06842158,0.020614956,-0.054747503
1.76966E+18,10.96013037,-0.053219549,0.080101126,-0.163057569,0.074368417,0.031137371,-0.049551945
1.76966E+18,10.97011841,0.035854573,0.03354688,-0.096836645,0.080065764,0.035119604,-0.049429774
1.76966E+18,10.98010645,0.069876669,0.018467969,0.026885304,0.081081495,0.037276234,-0.04590508
1.76966E+18,10.99009424,0.096792149,0.007898644,0.101440851,0.080630749,0.033870775,-0.041947879
1.76966E+18,11.00008252,0.090680096,0.012228782,0.122398153,0.079489052,0.033285413,-0.038567796
1.76966E+18,11.01007056,0.056343819,0.019253567,0.142274747,0.077273309,0.041364789,-0.032602333
1.76966E+18,11.02005859,0.036833647,0.021030513,0.141195208,0.077921525,0.056737356,-0.037072714
1.76966E+18,11.03004541,0.047755438,0.015627777,0.111796533,0.075997561,0.064893365,-0.040657941
1.76966E+18,11.04003345,0.019423078,-0.001533785,0.049442369,0.067002997,0.056711338,-0.04564764
1.76966E+18,11.05002148,-0.041575288,0.008079846,0.008343246,0.059884287,0.060113363,-0.047792926
1.76966E+18,11.06000952,-0.091469785,0.007839608,-0.015896657,0.055184074,0.06396509,-0.048955396
1.76966E+18,11.06999756,-0.094248894,-0.025419103,-0.020085853,0.050424248,0.0702696,-0.047095247
1.76966E+18,11.0799856,0.002546762,-0.050192895,-0.046031903,0.037398193,0.06516166,-0.051115822
1.76966E+18,11.08997339,0.140140292,0.005070143,-0.08318068,0.021849636,0.0318892,-0.047913443
1.76966E+18,11.09996143,0.163096513,0.036229836,-0.078521383,0.013431651,0.00744085,-0.028100852
1.76966E+18,11.10994873,0.142162738,0.028458033,-0.037131095,0.013384604,-0.012471954,-0.007091895
1.76966E+18,11.11993652,0.187839324,0.039976621,0.059348042,0.013893001,-0.039662298,0.000586264
1.76966E+18,11.12992432,0.205852243,0.0251549,0.191846149,0.009077567,-0.057422854,-0.000748985
1.76966E+18,11.13991235,0.091302027,0.0267863,0.209849715,0.005845288,-0.063186198,0.001561574
1.76966E+18,11.14990039,-0.00598755,0.05983809,0.100784214,0.004364831,-0.059268445,0.006638658
1.76966E+18,11.15988843,-0.046998483,0.110780342,-0.000170534,0.011033919,-0.0446405,0.014874217
1.76966E+18,11.16987646,-0.022384266,0.056733695,-0.033203839,0.016378038,-0.026168047,0.015834387
1.76966E+18,11.17986328,0.002051087,-0.022052257,0.013775647,0.021319266,-0.016113281,0.010300073
1.76966E+18,11.18985132,-0.014464579,-0.07272446,0.057237991,0.021749282,-0.009772462,0.006442641
1.76966E+18,11.1998396,0.02080138,-0.120192898,0.049242243,0.017680237,-0.015275883,0.000589546
1.76966E+18,11.20982739,0.025009354,-0.180278241,0.027445568,0.011901176,-0.022759775,-0.003059502
1.76966E+18,11.21981543,-0.003671967,-0.16785832,0.032948403,0.006475784,-0.027811525,-0.005453152
1.76966E+18,11.22980347,-0.019019173,-0.13583295,0.023637115,0.006949607,-0.041015182,-0.005854858
1.76966E+18,11.2397915,0.002097265,-0.075820672,0.05853373,0.007087559,-0.04452949,-0.008174736
1.76966E+18,11.24977954,0.023995208,-0.046036944,0.096122067,0.005365036,-0.044201069,-0.010876589
1.76966E+18,11.2597666,0.03357143,-0.060081836,0.068623381,0.00469898,-0.047643203,-0.011460621
1.76966E+18,11.26975439,0.002717442,-0.048208443,0.021564255,0.000714046,-0.04276992,-0.012109793
1.76966E+18,11.27974243,-0.01278174,-0.011591654,-0.01249737,0.003176405,-0.041293196,-0.017558355
1.76966E+18,11.28973047,-0.018923312,0.028258711,-0.066109426,0.009902521,-0.035145842,-0.022342222
1.76966E+18,11.29971875,-0.014504618,0.089753336,-0.055089508,0.012438117,-0.032373492,-0.018758671
1.76966E+18,11.30970654,0.092614863,0.109690793,-0.018574352,0.013090327,-0.032082267,-0.019188257
1.76966E+18,11.31969434,0.16243045,0.10346622,0.042346565,0.017383875,-0.018870056,-0.019915299
1.76966E+18,11.32968164,0.1746189,0.07644085,0.125724302,0.023297463,-0.012205625,-0.02328079
1.76966E+18,11.33966943,0.181828393,0.02876666,0.161396431,0.026139855,-0.018836364,-0.026148748
1.76966E+18,11.34965771,0.157337511,-0.016164953,0.137572122,0.027788445,-0.012901451,-0.032965045
1.76966E+18,11.35964551,-0.002286357,-0.06522972,0.043146118,0.030698482,0.008884538,-0.033215385
1.76966E+18,11.3696333,-0.115499187,-0.070111063,-0.038827524,0.036102258,0.024022326,-0.034288287
1.76966E+18,11.37962134,-0.128050626,-0.079353523,-0.09465616,0.038400296,0.04211238,-0.028678069
1.76966E+18,11.38960938,-0.092405312,-0.054476271,-0.096468397,0.043731727,0.051870115,-0.01933476
1.76966E+18,11.39959741,0.023739772,-0.017346272,-0.070048446,0.04392188,0.053860296,-0.012269924
1.76966E+18,11.40958447,0.091451372,0.041162031,0.028832054,0.039671563,0.054802027,-0.015274407
1.76966E+18,11.41957251,0.072806293,0.009675006,0.067604487,0.03552502,0.042714737,-0.016361509
1.76966E+18,11.4295603,0.036403439,-0.037129415,0.035330841,0.02979234,0.015102559,-0.016551461
1.76966E+18,11.43954834,0.010876783,-0.040499768,0.014605522,0.023136569,0.012774956,-0.022321466
1.76966E+18,11.44953662,-0.041045712,-0.037960605,0.017777722,0.020451397,0.015688788,-0.022360289
1.76966E+18,11.45952466,-0.005158406,-0.033729836,-0.013202888,0.018956831,0.012816568,-0.025278315
1.76966E+18,11.46951245,0.094763858,-0.003470306,-0.039344022,0.024551906,0.013104051,-0.03045395
1.76966E+18,11.47949951,0.126893273,0.019128479,-0.044439665,0.029878493,0.019286845,-0.034717407
1.76966E+18,11.4894873,0.093258129,0.04188567,-0.033197117,0.034064673,0.021924553,-0.040141113
1.76966E+18,11.49947534,0.051057403,0.036506899,-0.007336846,0.036078554,0.023906743,-0.043846369
1.76966E+18,11.50946362,0.015144962,0.038858431,0.003694032,0.036015611,0.031700958,-0.044830736
1.76966E+18,11.51945166,0.002405308,0.008935002,-0.003065306,0.035479251,0.038909603,-0.039681248
1.76966E+18,11.52943945,0.038662031,-0.023837387,0.008067644,0.03265417,0.042589024,-0.039892171
1.76966E+18,11.53942749,0.074438863,-0.060227966,0.018558424,0.029622424,0.043528058,-0.036461223
1.76966E+18,11.54941553,0.073899349,-0.073270403,0.053517144,0.026419887,0.041870993,-0.035372082
1.76966E+18,11.55940259,0.063754387,-0.092779991,0.047612377,0.01813799,0.037304472,-0.036283419
1.76966E+18,11.56939063,0.053052376,-0.110606155,0.009217764,0.000681272,0.030789191,-0.043389853
1.76966E+18,11.57937842,0.018576106,-0.107981651,-0.016472631,-0.020772887,0.022217808,-0.04319331
1.76966E+18,11.58936621,-0.084547,-0.132035896,-0.07613741,-0.039781012,0.017281219,-0.036817841
1.76966E+18,11.59935425,-0.060549161,-0.108402507,-0.185896666,-0.047126278,0.010561265,-0.031655304
1.76966E+18,11.60934253,0.010262451,-0.096557755,-0.268041938,-0.039198663,-0.008988896,-0.022156985
1.76966E+18,11.61933032,0.051593409,-0.068645082,-0.342177653,-0.02008995,-0.019894809,-0.007864066
1.76966E+18,11.62931738,0.05412322,-0.013581366,-0.31193924,-0.005030664,-0.018297894,0.014297352
1.76966E+18,11.63930542,0.086758246,-0.010549451,-0.144627813,-0.00641604,-0.043723892,0.028018489
1.76966E+18,11.64929321,0.167222945,-0.085372345,0.054936071,-0.018901916,-0.085138671,0.034073014
1.76966E+18,11.65928149,0.158631058,-0.117656658,0.136493606,-0.025060743,-0.109115109,0.035386752
1.76966E+18,11.66926953,0.09778116,-0.066362524,0.068838778,-0.029286329,-0.122254014,0.035057973
1.76966E+18,11.67925757,0.043836804,-0.042235214,-0.067769833,-0.025658304,-0.117192678,0.034465153
1.76966E+18,11.68924536,-0.041055648,-0.017036475,-0.148858071,-0.0176742,-0.09548106,0.037139911
1.76966E+18,11.69923364,-0.04839812,-0.006281272,-0.169814788,-0.005146157,-0.069423623,0.041216411
1.76966E+18,11.70922046,0.006894436,0.005640052,-0.126131494,0.004388621,-0.046313725,0.035912748
1.76966E+18,11.7192085,0.05165683,-0.032373745,-0.02121588,0.013195162,-0.054339163,0.028056959
1.76966E+18,11.72919653,0.111775198,-0.074935122,0.020247838,0.016006533,-0.05646548,0.013656955
1.76966E+18,11.73918457,0.066312839,-0.04681202,0.042798839,0.013876003,-0.051979385,0.001569933
1.76966E+18,11.74917188,-0.027661914,-0.031658875,-0.018129019,0.012995743,-0.052797936,-0.006173853
1.76966E+18,11.75915991,-0.034880759,-0.006945874,-0.085020828,0.017023774,-0.033719849,-0.013691423
1.76966E+18,11.76914795,-0.013292028,0.021091888,-0.083634926,0.02394812,-0.006493915,-0.013196566
1.76966E+18,11.77913599,0.029437107,-0.027170916,-0.079721625,0.032066502,0.020431709,-0.00574877
1.76966E+18,11.7891228,0.076026424,-0.075764558,-0.060417059,0.035077784,0.035392314,-0.004868963
1.76966E+18,11.79911084,0.072692311,-0.121387661,-0.018477029,0.032601841,0.037773978,-0.009663718
1.76966E+18,11.80909912,0.018667291,-0.099978962,0.00512443,0.028233333,0.034179073,-0.014173827
1.76966E+18,11.81908691,0.005814824,-0.025101124,-0.032394568,0.030518323,0.025520071,-0.01312321
1.76966E+18,11.82907471,-0.000996318,0.01217033,-0.049792278,0.029764418,0.020508785,-0.010555157
1.76966E+18,11.83906274,0.069976623,-0.000146715,-0.018931787,0.026063157,0.010658286,-0.007816628
1.76966E+18,11.84905078,0.14168606,-0.042855976,0.020781507,0.021712044,-0.005024015,-0.004107042
1.76966E+18,11.8590376,0.161646898,-0.095552378,0.040614992,0.013116959,-0.023113269,0.002003315
1.76966E+18,11.86902588,0.139160926,-0.080288173,0.038597003,0.008175996,-0.046606615,0.006731492
1.76966E+18,11.87901367,0.099674718,0.001867547,0.033764542,0.006119769,-0.059895515,0.012459684
1.76966E+18,11.88900171,0.006796821,0.044013914,0.051197176,0.006227399,-0.068930693,0.018749751
1.76966E+18,11.89898975,0.016324527,0.060892568,0.066995561,0.004259323,-0.077279434,0.020683205
1.76966E+18,11.90897803,0.066359601,0.091932434,0.03113054,0.006836195,-0.073277637,0.02275436
1.76966E+18,11.91896582,0.052547057,0.080519644,-0.014710297,0.009532645,-0.076559983,0.026738182
1.76966E+18,11.92895386,0.094962011,0.049014499,-0.0289639,0.015966764,-0.081980474,0.028699726
1.76966E+18,11.93894092,0.097077395,0.019137247,0.008927841,0.024048658,-0.077091441,0.022291362
1.76966E+18,11.94892871,0.079790745,0.014358196,0.044932417,0.033283576,-0.064192966,0.012668226
1.76966E+18,11.95891675,0.033854923,0.063555065,0.050903052,0.040733505,-0.052024979,0.010963802
1.76966E+18,11.96890503,-0.015497137,0.118268068,0.011546938,0.049937285,-0.042335987,0.013913003
1.76966E+18,11.97889282,-0.021035189,0.068790043,0.040326494,0.062589966,-0.03866668,0.018849971
1.76966E+18,11.98888086,0.023207273,0.026031098,0.059607752,0.077889733,-0.022943828,0.017040273
1.76966E+18,11.9988689,0.007926994,-0.049234863,0.151300824,0.090325095,-0.019027917,0.011065472
1.76966E+18,12.00885693,0.054969023,-0.083580785,0.154821984,0.098594613,-0.01311602,0.001807237
1.76966E+18,12.01884399,-0.025959202,-0.111005383,0.225190309,0.098674513,0.001842956,-0.00722008
1.76966E+18,12.02883203,-0.085152564,-0.154670922,0.241774438,0.085650012,0.014828767,-0.022696674
1.76966E+18,12.03881982,-0.089172906,-0.057303019,0.257763011,0.078713812,0.043088902,-0.033602849
1.76966E+18,12.04880762,-0.145538936,-0.036107671,0.279165828,0.084973432,0.059383254,-0.033640143
1.76966E+18,12.05879565,-0.189728499,-0.05317571,0.329846944,0.089739963,0.067414284,-0.031881925
1.76966E+18,12.06878394,-0.240085352,-0.18074995,0.32659777,0.087296598,0.053159222,-0.031667445
1.76966E+18,12.07877173,-0.233855518,-0.232459679,0.258180798,0.066980146,0.045363352,-0.036084563
1.76966E+18,12.08875879,-0.252256559,-0.137626848,0.15395364,0.034650382,0.049851552,-0.044528015
1.76966E+18,12.09874658,-0.22988223,-0.111968675,0.094385964,-0.001009876,0.009898275,-0.050104409
1.76966E+18,12.10873462,-0.131592829,-0.121137485,-0.016316929,-0.028416863,-0.081882834,-0.054524481
1.76966E+18,12.1187229,0.001977438,-0.065379942,-0.120956028,-0.048102684,-0.166573748,-0.053487446
1.76966E+18,12.12871094,0.106952893,0.036590486,-0.205431935,-0.051094562,-0.210761085,-0.051965825
1.76966E+18,12.13869873,0.138745623,0.144449387,-0.289589789,-0.040095706,-0.22055167,-0.030433368
1.76966E+18,12.14868677,0.073527593,0.178099144,-0.341833991,-0.006837355,-0.217444688,0.006301493
1.76966E+18,12.15867505,0.044124973,0.17071897,-0.331928135,0.025861468,-0.187871352,0.037147824
1.76966E+18,12.16866187,0.077399466,0.128953128,-0.169505722,0.039228015,-0.17275542,0.054165114
1.76966E+18,12.1786499,0.108113753,0.069150109,0.007279599,0.036791224,-0.188506946,0.062675245
1.76966E+18,12.18863794,0.112026251,-0.005276479,0.013471878,0.024119545,-0.190986291,0.071509138
1.76966E+18,12.19862573,0.127685007,-0.015747604,0.034828445,0.008484392,-0.182654858,0.074969113
1.76966E+18,12.20861377,0.168321846,-0.02258651,0.077756865,-0.001651206,-0.165344656,0.074957713
1.76966E+18,12.21860205,0.151704181,-0.030397476,0.122870593,-0.007109887,-0.134022415,0.06613519
1.76966E+18,12.22859009,0.083343761,-0.037732642,0.096022406,-0.008894647,-0.094622105,0.052985378
1.76966E+18,12.23857764,-0.01267828,-0.023286183,-0.018766769,-0.012162878,-0.063262045,0.041956693
