time,seconds_elapsed,acc_z,acc_y,acc_x,gyro_z,gyro_y,gyro_x
1.77E+18,0.069290283,-0.156968093,-0.149460494,0.014358342,0.186119989,-0.223510951,-0.251286954
1.77E+18,0.079278076,-0.044663318,-0.163917474,0.020799846,0.181492224,-0.210982651,-0.250342041
1.77E+18,0.08926709,-0.070622519,-0.061090136,0.00110387,0.184730157,-0.206621483,-0.250792861
1.77E+18,0.099255127,6.02E-05,0.000783844,-0.048560544,0.181376711,-0.21564427,-0.257893384
1.77E+18,0.109244141,0.065949851,-0.023374446,-0.040954453,0.199187979,-0.217373908,-0.27361697
1.77E+18,0.119232422,0.12577216,-0.040068976,0.17316103,0.21000655,-0.20682779,-0.293914527
1.77E+18,0.129221436,0.200505621,0.04130407,0.109846568,0.219860181,-0.205493361,-0.298281819
1.77E+18,0.139208984,0.110763391,0.050655251,-0.082210227,0.234628201,-0.191922694,-0.31834048
1.77E+18,0.149198242,-0.015566987,0.02806348,-0.155005561,0.245286018,-0.173120111,-0.345748961
1.77E+18,0.159186279,-0.156422149,0.032934301,-0.186160285,0.245095059,-0.168172479,-0.381400168
1.77E+18,0.169175293,-0.31351533,0.081896777,-0.165652919,0.233890846,-0.154915646,-0.422537953
1.77E+18,0.179163086,-0.431646035,0.113791214,-0.009521277,0.227547452,-0.214093477,-0.468376815
1.77E+18,0.1891521,-0.478949053,0.041343233,0.116284639,0.21958074,-0.276317567,-0.52307421
1.77E+18,0.199140137,-0.527055789,-0.054766194,0.181220491,0.205777302,-0.329478502,-0.561164618
1.77E+18,0.209129395,-0.603299071,-0.157872348,0.176758177,0.188395917,-0.399701387,-0.588104725
1.77E+18,0.219117432,-0.529261775,-0.09158289,0.084390567,0.17039454,-0.421537191,-0.641277134
1.77E+18,0.229106201,-0.518035447,0.000349544,0.129323495,0.158644021,-0.446866035,-0.721710026
1.77E+18,0.239093994,-0.556630843,0.074259414,0.08828056,0.146062717,-0.503809154,-0.783834875
1.77E+18,0.249083252,-0.768375651,0.008650924,-0.023086569,0.143664166,-0.532593071,-0.844340205
1.77E+18,0.259071289,-0.888625833,-0.083392569,0.034262335,0.117676504,-0.564971805,-0.894951165
1.77E+18,0.269060059,-0.958639864,-0.086470661,-0.009881635,0.117503881,-0.603556037,-0.971648097
1.77E+18,0.27904834,-1.103622336,0.051296472,-0.095386812,0.10613884,-0.684000254,-1.038031459
1.77E+18,0.289037109,-0.96908644,-0.182176184,-0.054538961,0.114434063,-0.732229769,-1.109429002
1.77E+18,0.299025146,-0.81984748,-0.415829457,0.127720225,0.089896761,-0.70287478,-1.160623193
1.77E+18,0.30901416,-0.559552868,-0.594624766,-0.037223231,0.044568636,-0.688503385,-1.297740579
1.77E+18,0.319002197,-0.39485798,0.006019991,0.170143947,0.027033316,-0.815535367,-1.390904903
1.77E+18,0.328991211,-0.635603258,0.094052495,0.182419929,0.01766374,-0.918882132,-1.456885576
1.77E+18,0.338979248,-0.632442748,-0.249658067,0.317663243,0.027399722,-1.037956357,-1.483598351
1.77E+18,0.348968262,-0.648237114,-0.209980137,0.136898388,0.080429502,-1.11629951,-1.514320493
1.77E+18,0.358957031,-0.732141724,0.113870125,-0.249112708,0.127268374,-1.089834332,-1.595631838
1.77E+18,0.368945313,-0.705620797,0.01787351,-0.676335519,0.150835678,-0.832588673,-1.64966023
1.77E+18,0.378933105,-0.912924407,-0.306247385,-0.718405459,0.205495462,-0.558978677,-1.669309855
1.77E+18,0.388922119,-0.530601499,-0.563435263,-0.297177066,0.256305963,-0.524314642,-1.679660797
1.77E+18,0.398911133,0.235757552,-0.250587457,-0.207770498,0.286779732,-0.444248289,-1.740320921
1.77E+18,0.40889917,0.773787739,0.09462065,0.007921002,0.295899153,-0.316332638,-1.811762691
1.77E+18,0.418888184,0.76128014,0.356176075,0.124888801,0.307414412,-0.326422304,-1.860854268
1.77E+18,0.428875977,0.680436087,0.44630409,0.013169278,0.330060273,-0.338741302,-1.884110689
1.77E+18,0.43886499,0.827664291,0.225617266,0.455759024,0.298036277,-0.257957786,-1.892800808
1.77E+18,0.448853027,0.931992096,0.194532977,0.462160562,0.255226672,-0.190525174,-1.874359846
1.77E+18,0.458842285,0.669725307,0.082815061,0.284943315,0.233323261,-0.23822239,-1.837520957
1.77E+18,0.468830322,0.356232189,0.204610134,0.125120271,0.218912378,-0.238147497,-1.840994954
1.77E+18,0.478819092,0.32912674,0.51297641,0.078234748,0.226567641,-0.260094345,-2.034193277
1.77E+18,0.488806885,1.29974755,0.704697544,0.193917767,0.263381183,-0.380552351,-2.204797029
1.77E+18,0.498796143,0.629734658,0.316001009,-0.007388064,0.233010501,-0.523482859,-2.145951509
1.77E+18,0.50878418,-0.686511023,0.342942792,0.014208558,0.254201084,-0.436107308,-2.144298553
1.77E+18,0.518773193,-0.202239898,0.464577413,0.362715122,0.261936486,-0.231468678,-2.195545912
1.77E+18,0.528760986,0.647582449,0.764720928,-0.07566139,0.277587891,-0.087314174,-2.167165756
1.77E+18,0.53875,0.676374828,0.655244654,0.144256495,0.241929486,0.27238512,-2.062767029
1.77E+18,0.548738037,0.489769722,0.33794513,0.232917945,0.118210591,1.002825499,-2.070377827
1.77E+18,0.558727295,0.449973134,-0.432353014,0.95344931,-0.045142654,2.106832743,-2.223612309
1.77E+18,0.568715332,-0.180482824,0.137261522,1.920451345,-0.218042225,2.543901205,-2.00380969
1.77E+18,0.578704102,0.034198038,0.640623424,1.079062187,-0.428146988,2.417446852,-1.582094073
1.77E+18,0.588692139,0.888593099,0.663067019,-0.18156229,-0.506635189,1.903801441,-1.132694483
1.77E+18,0.598681152,1.545927127,0.560564968,-0.255909382,-0.432592899,1.169460058,-0.637030423
1.77E+18,0.608669189,0.771567725,0.036444648,-0.148132314,-0.359435827,0.710423052,-0.20201923
1.77E+18,0.618658203,0.007998598,-0.624995062,-0.814740074,-0.261480242,0.532752097,0.037441827
1.77E+18,0.628645996,0.024248306,-0.441631714,-0.867785435,-0.10961245,0.524882972,0.020976797
1.77E+18,0.63863501,-0.059730538,-0.629158904,-0.812072754,0.159547105,0.881286621,-0.18083249
1.77E+18,0.648623047,-0.355545961,-0.482051988,-0.04454919,0.352893323,1.17061007,-0.399946541
1.77E+18,0.658612061,-0.481298247,-0.142461721,0.02371113,0.370110661,1.515208244,-0.478760928
1.77E+18,0.668600098,-1.351322839,0.344577115,-0.077814403,0.321945369,1.840077877,-0.473527193
1.77E+18,0.678589355,-1.418261701,0.264183144,0.37265024,0.26440084,2.130280495,-0.595775127
1.77E+18,0.688577148,0.033562078,-0.239008078,0.383766093,0.231289566,2.054071903,-0.745630145
1.77E+18,0.698565918,0.617130028,-0.639831397,0.48401167,0.183041081,1.780711889,-0.681488156
1.77E+18,0.708553955,-0.146743051,-0.434414184,0.44704899,0.088823713,1.725079894,-0.495526969
1.77E+18,0.718543213,0.12324644,-0.524152177,-0.04225422,0.052832957,1.452419877,-0.275445998
1.77E+18,0.72853125,0.400180052,-0.279724265,0.182034474,0.012510765,1.161507487,-0.119981222
1.77E+18,0.73852002,0.589475128,-0.049623424,0.015828588,-0.005646133,0.985217631,-0.056350313
1.77E+18,0.748508057,0.364779069,-0.142505268,0.145603855,0.003430888,1.017703772,-0.114771508
1.77E+18,0.75849707,0.222265033,0.012524404,0.203156154,0.019756598,1.04704833,-0.187269419
1.77E+18,0.768485107,0.2232406,0.006976707,0.138357172,0.048945636,1.069508553,-0.229493186
1.77E+18,0.778474365,0.181411045,-0.103572895,0.020170024,0.063187957,1.023243308,-0.292850316
1.77E+18,0.788462158,0.422723893,0.064590399,0.156072057,0.051124789,0.94844532,-0.306596398
1.77E+18,0.798450928,0.284871419,0.002198387,0.241333306,0.014622435,0.863271058,-0.224825367
1.77E+18,0.808439209,0.177180275,-0.08074863,0.03225421,-0.007938528,0.763413787,-0.177691519
1.77E+18,0.818428223,0.458199695,-0.091109573,0.144945208,-0.031181797,0.694255233,-0.157266662
1.77E+18,0.82841626,0.224366389,-0.044561757,0.106531964,-0.029898403,0.581711113,-0.117934771
1.77E+18,0.838405273,-0.006239187,0.041654053,-0.100750312,-0.019674528,0.496840984,-0.148656458
1.77E+18,0.848393066,0.428904627,0.064104662,-0.042887978,-0.005802128,0.390491039,-0.157728687
1.77E+18,0.85838208,0.459866751,-0.011294278,-0.05021328,0.006209527,0.335759878,-0.101283513
1.77E+18,0.868370361,0.214006908,-0.011976707,-0.13350911,0.014946705,0.263629436,-0.065067783
1.77E+18,0.878359131,-0.007257424,0.011136457,-0.066192939,0.010945838,0.246675491,-0.088894285
1.77E+18,0.888346924,0.015946926,0.028822774,0.018835195,0.003300453,0.233548284,-0.113111265
1.77E+18,0.898336182,-0.007259762,0.076281568,0.032948841,0.000311055,0.202270791,-0.136607274
1.77E+18,0.908324219,-0.011243863,0.053635582,0.026998189,0.002831282,0.209821999,-0.123928472
1.77E+18,0.918312988,0.005495675,0.065866265,0.029145942,0.003044602,0.225223854,-0.10429059
1.77E+18,0.928301025,-0.031419221,-0.02877952,0.057448419,-0.004681579,0.179121956,-0.116849437
1.77E+18,0.938290283,-0.070301617,0.044936289,0.033896424,-0.003819514,0.146708086,-0.088560276
1.77E+18,0.948278076,0.164299166,0.053530807,-0.011343524,-0.007882589,0.108251609,-0.048997141
1.77E+18,0.95826709,0.300790288,0.080234689,0.021619273,-0.011040033,0.062676132,-0.042141631
1.77E+18,0.968255127,0.20910803,0.086114395,0.007739727,-0.008558712,0.064871289,-0.069195218
1.77E+18,0.978244141,0.107147539,0.084946813,-0.027431247,-0.002981786,0.073929764,-0.06273625
1.77E+18,0.988231934,0.088387893,-0.061086045,-0.026325332,-0.007021046,0.059420634,-0.056093883
1.77E+18,0.998221191,0.099078798,0.053545128,-0.000345306,-0.009882879,0.065948039,-0.071025692
1.77E+18,1.008209229,0.064589669,0.03876403,0.030162645,-0.016503617,0.07211215,-0.076838374
1.77E+18,1.018197998,0.244358207,0.02198606,-0.008284721,-0.023077365,0.057466626,-0.087486759
1.77E+18,1.028186279,0.174278709,0.039996349,0.038478418,-0.027300291,0.047064126,-0.098053396
1.77E+18,1.038175293,-0.006649521,0.012182459,0.055892568,-0.02921164,0.04450829,-0.089028478
1.77E+18,1.048163086,0.033034255,0.025197131,0.039328532,-0.038795281,0.039310552,-0.084644862
1.77E+18,1.0581521,0.094783732,0.053375616,0.056697308,-0.033889741,0.033996478,-0.079335585
1.77E+18,1.068140137,0.103939098,-0.001901304,0.015550913,-0.028695159,0.038329102,-0.085149355
1.77E+18,1.07812915,0.095180037,0.035615796,0.010774346,-0.024533968,0.052172747,-0.093564145
1.77E+18,1.088117432,0.02050795,0.02119301,0.035234103,-0.024116924,0.059806589,-0.08655832
1.77E+18,1.098105957,0.034314942,0.010211451,0.043147506,-0.02001459,0.058489121,-0.079609334
1.77E+18,1.108093994,0.145427877,-0.050802989,-0.063218673,-0.011014235,0.047768272,-0.066652596
1.77E+18,1.118083252,0.250540695,-0.011833938,-0.110510439,-0.005205082,0.011235028,-0.03817622
1.77E+18,1.128071289,0.45053486,0.004733458,-0.067821929,0.005118174,-0.008854028,-0.00163783
1.77E+18,1.138060059,0.507692333,-0.025141894,-0.07768442,0.007464153,-0.020978602,0.020821407
1.77E+18,1.148047852,0.310259543,-0.046963996,-0.031002749,0.006909036,-0.038011853,0.059002444
1.77E+18,1.158037109,0.198639827,-0.061898092,-0.03936565,0.012924851,-0.04349903,0.085585847
1.77E+18,1.168025146,0.217779997,-0.020193332,-0.044123365,0.017970663,-0.045891162,0.106943101
1.77E+18,1.17801416,0.173509478,-0.018289105,-0.031320144,0.022886857,-0.051756509,0.110251546
1.77E+18,1.188002197,0.103828623,-0.028135523,-0.048911477,0.025092665,-0.054941949,0.101045728
1.77E+18,1.197990967,-0.000429039,-0.036532764,-0.036891368,0.026990967,-0.057427745,0.079056278
1.77E+18,1.207979004,-0.109542909,-0.032319092,-0.018287498,0.024658255,-0.054954804,0.054307804
1.77E+18,1.217968262,-0.14472119,-0.03323723,0.020855741,0.023329338,-0.047056936,0.025947269
1.77E+18,1.227956299,-0.125609078,-0.046359016,0.014521643,0.023272248,-0.038461465,0.000137817
1.77E+18,1.237945068,-0.112976391,-0.012303017,0.018317236,0.020145165,-0.038420185,-0.013357485
1.77E+18,1.247933105,-0.118780693,-0.02304726,0.031077933,0.011724308,-0.03551732,-0.008566959
1.77E+18,1.257922119,-0.197440973,-0.050139995,0.077508772,0.008656081,-0.025137914,-0.007250825
1.77E+18,1.267910156,-0.207257434,-0.042811114,0.048830228,0.001307604,-0.010703638,-0.010419132
1.77E+18,1.27789917,-0.153173961,-0.049371788,0.097375063,5.17E-05,0.005514747,-0.011567755
1.77E+18,1.287887207,-0.074151862,-0.018774697,0.063767904,0.000471317,0.018120637,-0.018955234
1.77E+18,1.297876221,-0.031222821,-0.00361746,-0.010390753,0.001024189,0.032996789,-0.030169271
1.77E+18,1.307864014,-0.022900399,-0.018555794,-0.002843991,0.004554518,0.048383433,-0.03962101
1.77E+18,1.317853027,0.027041152,0.002785247,0.011613865,0.007958304,0.059768446,-0.047285587
1.77E+18,1.327841064,0.038758477,0.005241408,-0.011185338,0.012031947,0.060929023,-0.052777477
1.77E+18,1.337830322,0.110996615,0.017402386,-0.006778116,0.015724154,0.055256225,-0.05155775
1.77E+18,1.347818115,0.161619133,0.016087942,-0.029309827,0.01784109,0.04024164,-0.050915979
1.77E+18,1.357806885,0.170884974,0.029088293,-0.050076283,0.021621712,0.032897439,-0.055233493
1.77E+18,1.367794922,0.100709614,0.010148469,-0.055056117,0.022305291,0.026126172,-0.057736203
1.77E+18,1.37778418,0.065300447,0.030993981,-0.039294922,0.02939862,0.021317035,-0.06039191
1.77E+18,1.387772217,0.12074118,0.018712153,-0.051700084,0.028532257,0.015950909,-0.063469127
1.77E+18,1.39776123,0.066623805,0.005068097,-0.030665772,0.02741666,0.011379327,-0.070291609
1.77E+18,1.407749023,-0.041003626,0.015212621,-0.004351327,0.017141191,0.001676078,-0.064539582
1.77E+18,1.417738037,-0.062335168,-0.044775107,0.037192251,0.004858159,0.000603623,-0.054375097
1.77E+18,1.427726074,-0.113578448,0.021413375,0.085037706,0.00073497,0.014934432,-0.0571937
1.77E+18,1.437715332,-0.128448685,0.001314005,0.055489686,-0.003613972,0.043282714,-0.066745125
1.77E+18,1.447703369,-0.164732882,-0.030485155,0.103384387,-0.008412396,0.069471203,-0.077125832
1.77E+18,1.457691895,-0.143836809,-0.002807313,0.094772187,-0.009868878,0.090788208,-0.085044213
1.77E+18,1.467680176,-0.072990417,-0.018734657,0.068468556,-0.005549068,0.096295364,-0.080458894
1.77E+18,1.477669189,-0.030427871,0.017305793,0.040831192,-0.006640964,0.105902188,-0.080210157
1.77E+18,1.487657227,-0.041881578,-0.007996259,0.030538638,0.004303176,0.118371062,-0.073139794
1.77E+18,1.49764624,0.026331542,0.057161857,-0.001610066,-0.005032268,0.113051131,-0.070075564
1.77E+18,1.507634033,0.052380176,-0.004415917,0.057354311,-0.001424256,0.117656685,-0.07424067
1.77E+18,1.517623047,0.051015317,0.0262576,0.004416063,-3.70E-05,0.105902821,-0.055449408
1.77E+18,1.527611084,0.144213241,0.015134733,-0.025264497,0.004350458,0.107422233,-0.050467562
1.77E+18,1.537600098,0.097326402,0.018278584,0.002503215,0.004694539,0.111275822,-0.062415302
1.77E+18,1.547588135,0.089095165,0.008505524,9.56E-05,0.004734602,0.111750871,-0.065017574
1.77E+18,1.557576904,-0.030170682,-0.007045973,0.013595102,0.001361709,0.140040293,-0.07852646
1.77E+18,1.567565186,-0.151149177,-0.021661066,0.06751184,0.002896561,0.159022748,-0.097414851
1.77E+18,1.577553955,-0.074899466,0.009245675,0.051630672,-0.003742434,0.147914976,-0.089171834
1.77E+18,1.587541992,0.056581719,-0.012040128,0.051829556,0.001078469,0.169581726,-0.108708538
1.77E+18,1.59753125,0.072262103,-0.001441577,0.011321166,-0.002818801,0.177990392,-0.109968215
1.77E+18,1.607519043,0.024222587,-0.010706103,0.040365328,3.48E-05,0.19785133,-0.125014707
1.77E+18,1.617508057,-0.117859487,-0.014577391,0.047505848,0.002831382,0.213379711,-0.146884054
1.77E+18,1.627496094,-0.140012282,0.028875089,0.05483093,0.002095954,0.241604686,-0.160619944
1.77E+18,1.637485107,-0.102951256,0.018100013,0.087553926,0.001695415,0.26639393,-0.171819344
1.77E+18,1.647473145,-0.000579846,0.004355419,0.109279436,-0.00085354,0.282909811,-0.185670257
1.77E+18,1.657462402,0.080419691,0.011902473,0.057861822,-0.001972867,0.285294414,-0.196515977
1.77E+18,1.667450195,0.10588614,0.043633098,0.024680852,-0.008573849,0.288251638,-0.198071882
1.77E+18,1.677438965,0.131319857,0.01825608,0.072655925,-0.008877716,0.293377638,-0.1893543
1.77E+18,1.687427246,0.197740833,0.026684593,0.063546151,-0.012807736,0.298025519,-0.185211062
1.77E+18,1.69741626,0.133012632,0.00294599,0.122908733,-0.01761714,0.294147164,-0.179488733
1.77E+18,1.707404053,0.17037644,0.020509996,0.046902475,-0.02045127,0.267133504,-0.164516538
1.77E+18,1.717393066,0.285840556,0.039294776,0.000901333,-0.021614805,0.249820292,-0.149361551
1.77E+18,1.727381104,0.228806418,0.02274024,-0.010116174,-0.019624097,0.226607546,-0.145600528
1.77E+18,1.737370117,0.102684129,0.039253421,-0.020199761,-0.020752212,0.210766256,-0.141029492
1.77E+18,1.747358154,0.109397948,0.003249796,0.026675533,-0.022396285,0.198981509,-0.148234248
1.77E+18,1.757347168,0.101865214,0.040382864,0.019516163,-0.021800268,0.1871797,-0.148580194
1.77E+18,1.767334961,0.109644616,0.051238604,-0.007533318,-0.022346593,0.182348117,-0.142442405
1.77E+18,1.777323975,0.094041973,-0.019611586,0.001421557,-0.01800777,0.177744836,-0.138246328
1.77E+18,1.787312256,-0.003240589,-0.018637627,-0.007826456,-0.020317469,0.176358417,-0.137148559
1.77E+18,1.797301025,-0.094152448,-0.018296704,0.0214011,-0.018217301,0.163919061,-0.133357808
1.77E+18,1.807289063,-0.08675357,-0.032339843,-0.006490677,-0.017185278,0.156717405,-0.1389305
1.77E+18,1.817278076,-0.081694533,-0.015647505,-0.021664281,-0.012085857,0.12663807,-0.145318627
1.77E+18,1.827266113,0.00385083,-0.007363368,-0.042064533,-0.015577636,0.162024468,-0.137308374
1.77E+18,1.837255127,-0.070600892,-0.046537587,0.033062896,-0.017934002,0.175894469,-0.138855129
1.77E+18,1.847243164,0.016581717,-0.048421209,-0.000287293,-0.010704844,0.181916252,-0.143415913
1.77E+18,1.857232178,0.114624743,0.059007777,-0.027650662,-0.013210612,0.190257266,-0.145294771
1.77E+18,1.867221191,0.127985744,0.02713526,0.023187399,-0.009441332,0.199543014,-0.143088058
1.77E+18,1.877209229,0.086618545,-0.008128361,0.048690235,-0.015779389,0.199605867,-0.134922802
1.77E+18,1.887197266,0.104885439,0.04534677,0.070442048,-0.018255973,0.195348963,-0.126132786
1.77E+18,1.897186035,0.098652097,0.005516718,0.051777972,-0.019953471,0.183831856,-0.118867956
1.77E+18,1.907174316,0.041313423,0.010878245,0.049680561,-0.017195772,0.175288334,-0.118516311
1.77E+18,1.917163086,-0.027305356,0.034579,0.043540305,-0.019797415,0.167696461,-0.104324058
1.77E+18,1.927151855,-0.017936639,0.030005554,0.070600015,-0.020825487,0.156957224,-0.089986458
1.77E+18,1.937140137,-0.006475333,0.033428807,0.039319618,-0.019960759,0.149534732,-0.083597004
1.77E+18,1.94712915,-0.001274258,0.011998919,0.015581162,-0.019490723,0.140787631,-0.07697431
1.77E+18,1.957117188,0.025632454,0.027672728,0.012517829,-0.017474176,0.133602425,-0.06126672
1.77E+18,1.967106201,0.045500353,-0.000531769,0.010129764,-0.016934669,0.127566829,-0.037743796
1.77E+18,1.977093994,0.064194532,0.029026773,-0.007889876,-0.017700061,0.127904251,-0.026463445
1.77E+18,1.987083008,0.068162267,0.004197306,-0.001342355,-0.015876431,0.120243676,-0.01924826
1.77E+18,1.997071289,0.09824527,0.008847469,-0.013784926,-0.013936851,0.113370061,-0.014323541
1.77E+18,2.007060303,0.134826404,-0.003784487,-0.023136107,-0.012578499,0.107115999,-0.013858773
1.77E+18,2.017048096,0.16087796,0.017656945,-0.030691052,-0.013482641,0.089523956,-0.008448028
1.77E+18,2.027037109,0.166468327,0.022977555,-0.030104339,-0.010731271,0.082549959,-0.014829465
1.77E+18,2.037025146,0.116869307,0.004046061,-0.039131987,-0.015466103,0.089284562,-0.02588691
1.77E+18,2.04701416,-0.053535191,-0.026414836,0.012014117,-0.016373655,0.099435121,-0.033765733
1.77E+18,2.057002197,-0.080438395,-0.029954701,0.050517158,-0.018257573,0.114044152,-0.049486641
1.77E+18,2.066991211,-0.1105138,-0.011256284,0.072819883,-0.019463999,0.118957207,-0.050040361
1.77E+18,2.076979004,-0.123981769,-0.003629004,0.051783671,-0.018839488,0.110426828,-0.047144439
1.77E+18,2.086968018,0.010605565,-0.005556757,0.00451397,-0.017608128,0.110700138,-0.047568325
1.77E+18,2.096956299,0.037526305,-0.028667145,0.013783903,-0.017730899,0.117048047,-0.047344618
1.77E+18,2.106945068,-0.04200082,-0.029478316,0.030946927,-0.017439023,0.115530737,-0.050521132
1.77E+18,2.116933105,-0.052558455,-0.020243893,0.030653789,-0.019270211,0.121728443,-0.056579821
1.77E+18,2.126922363,-0.058978259,-0.031608606,0.015858663,-0.018288959,0.128686711,-0.064341925
1.77E+18,2.136910156,-0.036918403,-0.031076983,0.029300913,-0.016728345,0.132154673,-0.070604615
1.77E+18,2.146898926,-0.031042789,-0.012634441,0.001176204,-0.014364221,0.133817241,-0.081028178
1.77E+18,2.156887207,-0.095057288,-0.01946984,0.0038444,-0.014635597,0.125445858,-0.085327052
1.77E+18,2.166876221,-0.183746794,0.015887743,0.029675884,-0.014823604,0.112190895,-0.084363326
1.77E+18,2.176864014,-0.120272978,0.014008359,-0.000976005,-0.015086459,0.097063348,-0.082821622
1.77E+18,2.186853027,0.05681319,-0.027561157,-0.015253391,-0.014993273,0.090771452,-0.076489836
1.77E+18,2.196841064,0.164060097,-0.026612186,-0.051630088,-0.013386588,0.08604034,-0.071950212
1.77E+18,2.206830078,0.181926593,-0.006755977,-0.061588295,-0.012527078,0.091549985,-0.07194674
1.77E+18,2.216818359,0.112839028,0.005227672,-0.038255935,-0.009744873,0.092948146,-0.080216654
1.77E+18,2.226807129,0.094664489,-0.022501609,-0.036050095,-0.007783921,0.096755803,-0.089389682
1.77E+18,2.236794922,-0.037024786,-0.020284371,-0.007102964,-0.007717342,0.089342631,-0.094085895
1.77E+18,2.24678418,-0.050512628,0.003597367,-9.05E-05,-0.005355577,0.072152436,-0.092655174
1.77E+18,2.256772217,0.058393737,0.01703779,-0.043841188,-0.001192789,0.059818801,-0.091618136
1.77E+18,2.26676123,0.028484921,0.005225991,-0.043675914,-0.001919899,0.04078,-0.090098985
1.77E+18,2.276749023,0.064334817,0.028272009,-0.045464697,-0.000117472,0.028211743,-0.089223601
1.77E+18,2.286738037,0.061239189,-0.007412395,-0.034442806,0.000404289,0.024661651,-0.090369999
1.77E+18,2.296726074,0.033455695,-0.003194193,-0.011494038,0.002166236,0.027927484,-0.09080489
1.77E+18,2.306715088,0.029984804,-0.01979403,-0.013202888,0.00229586,0.021716652,-0.078705072
1.77E+18,2.316703369,-0.030596214,-0.007344664,0.010786767,0.002172556,0.008063958,-0.067378916
1.77E+18,2.326692139,-0.013676059,0.008684242,0.007416706,0.004016538,-0.000332775,-0.056589056
1.77E+18,2.336679932,0.101534959,0.00578399,-0.023096798,0.004445573,-0.008229048,-0.0393616
1.77E+18,2.346669189,0.202487735,-0.002617416,-0.008816198,0.004647801,-0.006664399,-0.027282504
1.77E+18,2.356657471,0.207822666,-0.002219137,-0.024761955,0.000828828,-0.000261894,-0.022792682
1.77E+18,2.36664624,0.124020932,-0.01931633,-0.018911037,-0.000285868,0.006780026,-0.021271899
1.77E+18,2.376634277,0.106701548,-0.025345673,0.022198096,-0.000370823,0.013241121,-0.015390041
1.77E+18,2.386623291,0.164618315,-0.012862331,-9.56E-05,-0.001927653,0.025331253,-0.014667653
1.77E+18,2.396611328,0.089704236,-0.031020796,-0.016245617,-0.00137984,0.03215028,-0.020568153
1.77E+18,2.406600342,0.054274027,-0.016405191,-0.005287585,-0.001435821,0.037569631,-0.024612833
1.77E+18,2.416588379,-0.034964346,-0.00120733,0.005257774,-0.002272853,0.034033749,-0.036795463
1.77E+18,2.426577393,-0.047338674,0.019548458,0.000383154,-0.004813938,0.033103231,-0.044390682
1.77E+18,2.43656543,-0.07971125,-0.002013313,0.010405074,-0.002725221,0.034570631,-0.059454851
1.77E+18,2.446554199,-0.053088616,-0.000707198,-0.013989655,-0.003547855,0.032130964,-0.067216955
1.77E+18,2.456542236,-0.039767362,-0.009774594,0.013073709,-0.002536387,0.032434836,-0.076887958
1.77E+18,2.466531494,-0.016516251,0.004843495,-0.009964052,-0.003275163,0.03159295,-0.084102944
1.77E+18,2.476519287,0.013681319,0.018713322,0.010858955,-0.003884495,0.037347775,-0.084991105
1.77E+18,2.486508301,0.041114101,-0.004289952,0.000547405,-0.002119503,0.032644041,-0.075140968
1.77E+18,2.496496094,0.063866031,0.026241745,-0.030195816,0.003514414,0.029727079,-0.077338874
1.77E+18,2.506485352,0.055545946,0.030231472,-0.044957332,0.004911818,0.023583399,-0.071364254
1.77E+18,2.516473389,0.123766665,0.002483634,-0.028332068,0.007017046,0.015393646,-0.052442491
1.77E+18,2.526462646,0.211194773,-0.004298209,-0.028997254,0.006970186,0.010827072,-0.036120728
1.77E+18,2.536450439,0.215388133,-0.020775588,-0.02557634,0.006851142,0.014210086,-0.02382065
1.77E+18,2.546439209,0.139158295,-0.017379078,0.007231413,0.003861108,0.020391295,-0.015795331
1.77E+18,2.556427246,0.061773442,-0.017830402,0.022129999,0.003290393,0.025334921,-0.009440497
1.77E+18,2.566416504,0.022155133,-0.030003436,0.015289924,0.003142267,0.027476188,0.003843744
1.77E+18,2.576404541,0.053127195,-0.020185514,0.007396832,0.004417921,0.026281226,0.010434269
1.77E+18,2.586393066,0.028279754,-0.022000819,0.010002046,0.00485782,0.023707366,0.011716975
1.77E+18,2.596381348,0.006200608,-0.041492725,0.003337328,0.00420295,0.021057786,0.010842393
1.77E+18,2.606370361,-0.012879355,-0.026132074,0.020488077,0.002389288,0.015104749,0.010060243
1.77E+18,2.616358398,-0.042537996,-0.026748525,0.004937164,0.001473427,0.012408033,0.011597686
1.77E+18,2.626347412,-0.027147535,-0.026260669,0.019245383,-0.000183479,0.012707308,0.014729203
1.77E+18,2.636335205,-0.016648352,-0.0192863,0.006695991,3.36E-05,0.014510801,0.015971567
1.77E+18,2.646324219,0.063116674,-0.02487221,-0.016923955,-0.000883699,0.01177459,0.013154765
1.77E+18,2.6563125,0.100015787,-0.017357889,-0.035539223,0.000470518,0.009986279,0.01268658
1.77E+18,2.66630127,0.090949268,-0.004483867,-0.02532558,-0.000558038,0.012306992,0.011572493
1.77E+18,2.676289307,0.025682723,-0.006787395,-0.011849135,-0.001715448,0.011909913,0.010813759
1.77E+18,2.68627832,-0.009300912,-0.013732757,-0.017576573,-0.00084279,0.008168682,0.01122066
1.77E+18,2.696266357,0.021667642,-0.015675635,0.001536416,-0.000563158,0.010133296,0.002222104
1.77E+18,2.706255371,0.024968437,0.012206351,-0.016882453,-0.002855873,0.005845874,-0.006877118
1.77E+18,2.716243164,0.009881927,0.002657675,-0.034606618,-0.000304831,0.004502309,-0.014013059
1.77E+18,2.726232422,-0.007521043,-0.009133228,-0.009710954,-0.001581817,0.005601928,-0.018656546
1.77E+18,2.736220215,-0.001912556,-0.017329978,-0.003735095,0.000697583,0.003522532,-0.019756965
1.77E+18,2.746209229,-0.01116203,-0.022852395,0.011195055,0.001092668,0.003327432,-0.020374766
1.77E+18,2.75619751,0.033763153,-0.009474588,-0.003460954,0.001071896,0.002935415,-0.021306073
1.77E+18,2.766186279,0.011414543,-0.008714856,-0.001118483,-0.001002313,0.010278173,-0.025363451
1.77E+18,2.776174316,-0.030288755,-0.018403818,0.012139643,0.000623547,0.012188192,-0.025813792
1.77E+18,2.786163574,0.026319852,0.002692746,-0.00257628,-0.001129286,0.009036097,-0.020039229
1.77E+18,2.796151367,0.078805241,0.004600187,-0.01863222,0.000404429,0.002326529,-0.016481245
1.77E+18,2.806140137,0.076392335,0.011378303,-0.025687983,-0.000206658,-0.00422848,-0.017587779
1.77E+18,2.816128418,0.029392099,-0.014015008,-0.012337796,0.001466339,-0.007549974,-0.017173391
1.77E+18,2.826117432,-0.009397358,-0.006318682,0.001637246,0.001032657,-0.006130288,-0.013140893
1.77E+18,2.836105225,-0.009783727,-0.011418781,0.011127835,-0.000207843,-0.00335634,-0.005754349
1.77E+18,2.846094238,0.006436171,-0.014887699,0.014152736,0.000279206,0.000229641,-0.005654302
1.77E+18,2.856082275,0.004726444,-0.017246026,0.00392711,-0.001990074,-0.00060819,-0.003740821
1.77E+18,2.866071289,0.033611178,-0.006452829,-0.010294015,-0.000563739,0.002493679,-0.003967595
1.77E+18,2.87605957,0.018868367,-0.012996479,-0.002111878,-0.000670798,0.004797846,-0.00379369
1.77E+18,2.88604834,0.019441198,-0.00635916,0.00282967,0.000866081,0.008027547,-0.005243651
1.77E+18,2.896037354,-0.000564648,-0.022599297,-0.006055939,-0.001974181,0.013122974,-0.007433302
1.77E+18,2.906025391,-0.042027708,-0.031971009,0.027530981,-0.00128594,0.014869195,-0.00305708
1.77E+18,2.916013428,-0.04661679,-0.020252587,0.021430618,-0.00120711,0.015748039,-0.000752647
1.77E+18,2.926002441,-0.043446343,-0.014279578,0.022887247,-0.001623781,0.009393674,0.005652957
1.77E+18,2.935991455,-0.023019641,0.005538272,0.008741525,0.00034323,-0.000955103,0.013833656
1.77E+18,2.945979248,0.053978258,-0.007538213,-0.016924831,0.000785635,-0.008960118,0.030102246
1.77E+18,2.955968262,0.118758481,-0.02237506,-0.028032209,0.002090318,-0.015876345,0.034118291
1.77E+18,2.965956299,0.094451723,-0.020045813,-0.044858256,0.002607965,-0.015823856,0.03670574
1.77E+18,2.975945313,0.075170684,-0.020962343,-0.0361179,0.00315338,-0.010330287,0.03404817
1.77E+18,2.98593335,0.044027358,-0.021718495,-0.02365034,0.002329317,-0.002908414,0.028242998
1.77E+18,2.995922607,-0.017523382,-0.030746436,-0.006538754,0.001060587,0.000109747,0.029765794
1.77E+18,3.0059104,0.049511342,-0.011730039,0.008582827,-0.001027602,-0.001814228,0.038181487
1.77E+18,3.01589917,0.106883335,-0.007132555,-0.013067279,-0.002761054,-0.001695185,0.039492562
1.77E+18,3.025887207,0.045116907,-0.024175971,0.000508242,-0.002072676,-0.003991969,0.038705885
1.77E+18,3.035876465,0.041667643,-0.010349472,-0.010687106,-0.003833025,-0.000926138,0.036740206
1.77E+18,3.045864258,-0.00165069,-0.017841946,-0.00564882,-0.005311998,0.004892292,0.027020672
1.77E+18,3.055853027,-0.027405893,-0.02795739,0.007834055,-0.005914405,0.012970725,0.016968304
1.77E+18,3.065841309,0.009677344,-0.038122152,0.004009236,-0.007155052,0.022050817,0.011273197
1.77E+18,3.075830322,-0.038341713,-0.038111119,0.007082067,-0.006198445,0.022698764,0.001566773
1.77E+18,3.085818359,-0.004268763,-0.011407456,-0.009917583,-0.006718353,0.022711258,-0.001670331
1.77E+18,3.095807617,0.042696986,-0.009308511,-0.019507541,-0.005228315,0.015595026,-0.004155593
1.77E+18,3.105795166,0.052352119,0.002527546,-0.024935996,-0.003799041,0.00902291,-0.008056942
1.77E+18,3.11578418,0.085972064,0.005514672,-0.037097851,-0.005242474,0.008283883,-0.013661298
1.77E+18,3.125772461,0.037986909,0.00508724,-0.009400281,-0.006338283,0.010142062,-0.02055834
1.77E+18,3.135761475,-0.092480715,-0.013737141,0.000253098,-0.005844799,0.008383842,-0.022755448
1.77E+18,3.145749512,-0.040011108,-0.02733144,-0.009660978,-0.006898818,0.005395799,-0.021341279
1.77E+18,3.155738281,0.001257891,-0.026617666,-0.0205816,-0.004405034,-0.002296475,-0.019831533
1.77E+18,3.165726318,-0.004192191,-0.013229995,-0.017591771,-0.005076085,-0.012740198,-0.018342903
1.77E+18,3.175715332,0.028608839,0.00656988,-0.031511575,-0.003776995,-0.020493725,-0.008525159
1.77E+18,3.185703369,0.088162852,0.013392346,-0.035478433,-0.000385041,-0.022473456,-0.002966779
1.77E+18,3.195692383,0.113485509,-0.004748071,-0.021725217,-0.00097067,-0.031107957,-0.001941462
1.77E+18,3.205680176,0.032721535,0.004267814,-0.017966449,0.000190631,-0.034529574,-0.000789496
1.77E+18,3.215669434,0.054370473,-0.000596724,-0.021452538,-0.000233877,-0.029725764,-0.005269731
1.77E+18,3.225657471,0.01090484,-0.010810002,-0.0082213,-0.00201164,-0.0302986,-0.008152988
1.77E+18,3.23564624,-0.029106267,-0.021364348,0.014617431,-0.001208963,-0.028473003,-0.005730044
1.77E+18,3.245634277,0.011315175,-0.014372882,0.011954642,-0.002049723,-0.026574701,-0.004042665
1.77E+18,3.255623535,0.033689504,-0.022629765,-0.001462474,-0.002042267,-0.0254876,-0.004399794
1.77E+18,3.265611328,0.048459203,-0.018020298,-0.009934826,-0.002611656,-0.024596347,-0.007096138
1.77E+18,3.275600098,0.056484688,-0.008983371,-0.032929041,-0.002289946,-0.021953959,-0.004687575
1.77E+18,3.285588379,0.032263855,-0.007839461,-0.018426176,-0.001448702,-0.021083711,-0.006824475
1.77E+18,3.295577393,0.010873276,-0.008922946,-0.009413433,-0.001182652,-0.02465634,-0.000658457
1.77E+18,3.305565186,0.086000121,-0.019220468,-0.019827859,-1.94E-05,-0.021051278,0.005807222
1.77E+18,3.315554443,0.119167647,-0.012441768,-0.026487902,0.000447718,-0.027019687,0.010212091
1.77E+18,3.325542236,0.059023851,-0.003425591,-0.017207448,0.002653522,-0.029412843,0.016095212
1.77E+18,3.33553125,0.070123922,-0.015920842,-0.019915245,0.002049517,-0.031448565,0.019742677
1.77E+18,3.345519531,0.047272039,-0.006677578,0.000702303,0.002807078,-0.034869757,0.027689539
1.77E+18,3.355507568,0.030584523,-0.007275471,-0.009750994,0.000681609,-0.045400161,0.033361539
1.77E+18,3.365495605,0.027057518,-0.00920074,-0.001418927,0.000773483,-0.052893605,0.04608117
1.77E+18,3.375484131,0.06504618,-0.00782536,-0.014462825,0.000856307,-0.049870651,0.051777139
1.77E+18,3.385472412,-0.004023264,-0.030765579,-0.008114041,0.000274742,-0.043589618,0.04387296
1.77E+18,3.395461426,-0.04351064,-0.043111558,-0.004203589,0.001512313,-0.040288895,0.041147746
1.77E+18,3.405449463,0.023572599,-0.03682824,-0.017524843,-0.00025831,-0.040977918,0.041819569
1.77E+18,3.415438477,0.056522098,-0.003521817,-0.023100013,0.000556884,-0.040740099,0.041075483
1.77E+18,3.42542627,0.003842062,0.002785685,0.003614391,-0.002071947,-0.044357739,0.043565273
1.77E+18,3.435415283,-0.012934885,-0.006450126,0.011840368,-0.001487916,-0.046795864,0.049436212
1.77E+18,3.445403564,-0.036953474,-0.015697043,0.016313421,-0.001591519,-0.050165936,0.047182221
1.77E+18,3.455392578,-0.028032501,-0.021197394,0.014240999,-0.004413405,-0.042334646,0.043555263
1.77E+18,3.465380371,-0.044424833,-0.024798049,0.013857699,-0.006792297,-0.04035981,0.042653527
1.77E+18,3.475369629,0.004505495,-0.024927667,-0.002930208,-0.005316373,-0.049563963,0.049403306
1.77E+18,3.485357422,0.132569565,-0.00188596,-0.047012803,-0.007622067,-0.060071226,0.054582171
1.77E+18,3.495346436,0.113712304,0.017017259,-0.036442456,-0.00647531,-0.061250206,0.050173044
1.77E+18,3.505334473,0.034352351,-0.00369542,-0.035759734,-0.005739158,-0.056862202,0.040537067
1.77E+18,3.515323486,0.018834464,-0.009117665,-0.028523938,-0.006120789,-0.049130779,0.037913851
1.77E+18,3.525311279,0.003883563,-0.014142361,-0.01242942,-0.006244311,-0.042909563,0.033492718
1.77E+18,3.535300537,-0.041669981,-0.008336378,0.001707242,-0.00452311,-0.039915636,0.028810613
1.77E+18,3.545288574,-0.064871993,-0.026191403,-0.000746288,-0.003772636,-0.032306295,0.019680604
1.77E+18,3.555277344,-0.078712887,-0.027805341,-0.002215046,-0.00265544,-0.023275515,0.008335538
1.77E+18,3.565265381,-0.055970894,-0.017054741,0.002308423,-0.000874037,-0.022963338,0.00646062
1.77E+18,3.575254639,0.022569559,-0.018245339,-0.021952158,0.001326267,-0.023143901,0.005584972
1.77E+18,3.585242432,0.047844286,-0.008878011,-0.026335926,0.002203752,-0.022792369,0.002093039
1.77E+18,3.595231201,0.09193068,-0.006751447,-0.037064095,0.002627993,-0.021969186,0.000230957
1.77E+18,3.605219482,0.121558341,-0.011009762,-0.034230479,0.004079018,-0.015714649,0.000919658
1.77E+18,3.615208496,0.053576107,-0.021993294,-0.013792379,0.003123743,-0.011515377,-0.006550509
1.77E+18,3.625196533,-0.023787118,-0.022820977,-0.004284692,0.001378993,-0.006295252,-0.014163326
1.77E+18,3.635185547,-0.070624273,-0.031436537,-0.001167582,0.001671941,-0.003883227,-0.01936741
1.77E+18,3.64517334,-0.067777651,-0.025063641,0.014909254,0.001976557,-0.003991692,-0.019161526
1.77E+18,3.655162354,0.000326163,-0.020126842,0.019629852,0.000563483,-0.00489184,-0.014607786
1.77E+18,3.665150635,0.09610592,-0.013558351,-0.008064502,0.001578932,0.002528736,-0.013485475
1.77E+18,3.675139648,0.090651162,-0.010949191,-0.01988222,0.001247634,0.003817706,-0.014676174
1.77E+18,3.685128418,0.070691493,-0.002137962,-0.039261751,0.002364145,0.003924171,-0.012871981
1.77E+18,3.695116455,0.094482703,0.005545505,-0.023956045,0.000706594,0.007448864,-0.011449054
1.77E+18,3.705104492,0.033949031,-0.009417159,-0.000464257,0.000302908,0.008257474,-0.009317746
1.77E+18,3.715093506,-0.0189502,-0.010976371,0.013136837,0.000988139,0.007756533,-0.010383277
1.77E+18,3.72508252,0.009592004,0.001125789,0.015768355,0.002657506,0.010731963,-0.007517757
1.77E+18,3.735070313,0.055527241,-0.002534341,0.001470949,0.002437529,0.007817932,-0.002734986
1.77E+18,3.745059326,0.121368956,0.001968158,-0.028455256,0.003246978,0.006496144,0.001529702
1.77E+18,3.755047607,0.116343821,0.020875249,-0.030489831,0.003514892,0.009465035,0.005643487
1.77E+18,3.765036377,0.074128482,-0.015646701,-0.018291736,0.002897103,0.011117657,-0.000855499
1.77E+18,3.775024414,0.019168811,-0.029544732,0.004727905,0.002083773,0.009841204,-0.000716216
1.77E+18,3.785013672,-0.023417116,-0.005967603,0.000670154,0.001656828,0.00581348,0.002989265
1.77E+18,3.795001465,-0.025783261,-0.010468568,0.004241291,0.002434738,0.003300788,0.005973337
1.77E+18,3.804990479,0.051663552,-0.000998729,-0.011090134,0.002326215,-0.000282496,0.003863421
1.77E+18,3.814978271,0.060662851,-0.00046411,-0.017769758,0.001221003,0.00212074,-0.002310852
1.77E+18,3.824967529,0.009656886,-0.00424794,-0.00388824,0.001551343,0.003243625,-0.005845922
1.77E+18,3.834955566,-0.023505963,-0.004476123,0.00996756,-0.000271324,0.004959234,-0.003883705
1.77E+18,3.844944336,-0.042162733,-0.015474779,0.01630743,0.000701795,0.001668099,-0.00393324
1.77E+18,3.854932617,0.025941081,-0.00816504,0.002906827,0.002253885,0.000925343,0.004462375
1.77E+18,3.864921387,0.092331078,-0.012331878,-0.024124387,0.001587448,0.00459897,0.002939678
1.77E+18,3.874909424,0.084524203,-0.005836816,-0.034731268,0.004774719,0.003505476,0.004051814
1.77E+18,3.884898682,0.058880059,-0.015087679,-0.022131752,0.003525613,0.001766073,0.003665111
1.77E+18,3.894886475,0.04902502,-0.007056275,-0.019355712,0.003279804,0.00684552,0.00739327
1.77E+18,3.904875244,0.049876084,-0.020595994,-0.002653876,0.005700162,0.006703025,0.004178955
1.77E+18,3.914863525,0.025667525,-0.006937544,-0.001600713,0.00532945,0.007099037,-0.00102646
1.77E+18,3.924852539,0.021304654,0.007313684,-0.002516659,0.004954597,0.005404781,-0.005320746
1.77E+18,3.934840576,-0.003579612,0.00298793,0.020918285,0.002906626,0.007208539,-0.007484832
1.77E+18,3.94482959,-0.004726444,-0.00907441,0.008689356,0.003592775,0.004133964,-0.006845343
1.77E+18,3.954817383,-0.021940029,-0.013605185,-0.013375176,0.002661201,0.00048277,-0.006943613
1.77E+18,3.964806396,-0.036972763,-0.007603095,0.006095833,0.003952916,-0.001972574,-0.000998092
1.77E+18,3.974794678,-0.006918401,-0.006525602,0.033351065,0.001992829,-0.001925702,0.006650241
1.77E+18,3.984783447,0.047114802,-0.015238047,0.003277853,0.003470085,-0.002739031,0.00965908
1.77E+18,3.99477124,0.110778589,-0.009380626,-0.022800738,0.003894859,-0.000952849,0.009337637
1.77E+18,4.004760498,0.088259298,-0.00877455,-0.015787206,0.003220998,-0.001758546,0.010192496
1.77E+18,4.014748535,0.044018005,-0.001859364,-0.017918372,0.003934991,-0.000385953,0.005768985
1.77E+18,4.024737305,0.011721417,-0.004771087,-0.006163053,0.002484303,-0.00093203,0.002227855
1.77E+18,4.034725342,0.028043022,-0.011933526,-0.009918606,0.001981498,0.000639768,9.89E-05
1.77E+18,4.0447146,0.02415186,-0.005839154,3.65E-06,0.001310267,0.001062207,-0.001805937
1.77E+18,4.054702393,0.020108722,0.014328823,-0.012524258,0.00057124,0.00142999,-0.000864776
1.77E+18,4.064691406,0.0152946,-0.00200944,-0.017294834,0.001667566,0.000971246,-0.004146815
1.77E+18,4.074679443,0.004039631,-0.005560703,0.002552023,0.000535989,0.000503595,-0.005914887
1.77E+18,4.084668457,0.00610007,0.005221096,0.004037731,-0.001268471,0.002639331,-0.005821185
1.77E+18,4.09465625,0.033832127,-0.006822978,0.010831921,-0.000277776,0.004418323,-0.003503436
1.77E+18,4.104645508,0.037046997,0.003091755,0.002674188,-0.000690076,0.005405058,-0.000679507
1.77E+18,4.114633545,0.045250762,-0.011053967,0.001392185,0.000589573,0.003630328,-0.000843558
1.77E+18,4.124622314,0.007409399,-0.005839666,-0.005813216,0.001922843,0.000577851,-0.003880826
1.77E+18,4.134610596,-0.006288286,0.00388181,-0.005620324,0.000965436,-0.005527711,-0.000399009
1.77E+18,4.144599609,-0.016011224,0.010998875,0.01271189,0.000114431,-0.009407455,0.004290335
1.77E+18,4.154587402,0.012688801,-0.003585165,-0.001694675,0.000286472,-0.01039682,0.007555637
1.77E+18,4.164576416,0.013405425,-0.000624854,-0.000731821,0.001882559,-0.014148958,0.010046077
1.77E+18,4.174564453,0.012523966,-0.007947963,0.005900456,-0.000222403,-0.01544725,0.006404737
1.77E+18,4.184553467,0.044240124,9.52E-05,-0.009592589,-0.000886582,-0.014963597,0.003994873
1.77E+18,4.194541748,0.024738135,-0.028403745,-0.013010434,-0.001253033,-0.015328983,0.001374056
1.77E+18,4.204530273,0.032860652,0.012946941,-0.01707067,-0.001286741,-0.017605601,-0.004427597
1.77E+18,4.214518311,0.027153964,0.003083645,-0.025528994,-0.002054264,-0.017324103,-0.00814537
1.77E+18,4.224507568,0.014106851,-0.002219795,-0.017764935,0.000348872,-0.015127234,-0.010687174
1.77E+18,4.234495605,0.011130466,-0.001346738,-0.017517829,-0.000852746,-0.010634481,-0.012011298
1.77E+18,4.244484375,0.03035656,-0.019924817,-0.014289222,0.001426173,-0.009777324,-0.011579112
1.77E+18,4.254472168,0.029230771,-0.026681159,-0.008072832,0.000831756,-0.010124866,-0.01363587
1.77E+18,4.264461426,0.020149054,0.000795607,-0.011046295,0.001471551,-0.008677449,-0.018333569
1.77E+18,4.274449463,-0.033238837,-0.005903306,-0.006567542,-0.000375884,-0.009202358,-0.021044135
1.77E+18,4.284438477,-0.040672202,-0.006998261,0.024055414,0.001506531,-0.006687495,-0.016677551
1.77E+18,4.294426514,0.014032032,0.002061609,-0.002694061,0.001687626,-0.010830308,-0.011166405
1.77E+18,4.304415527,0.081587565,-0.007213731,-0.033062896,0.001523379,-0.012333693,-0.009767363
1.77E+18,4.31440332,0.116674076,-0.010414573,-0.020117928,0.002298092,-0.011551255,-0.007468789
1.77E+18,4.324392578,0.092263273,-0.011526114,-0.00842939,0.002528441,-0.010706023,-0.003767473
1.77E+18,4.334380615,0.078691844,-0.016326938,-0.011549422,0.003370798,-0.006884654,-0.00284522
1.77E+18,4.344369385,0.075549454,-0.010540464,0.00106456,0.002614195,-0.004073688,-0.001784217
1.77E+18,4.354357666,0.070388126,-0.012933131,0.005712825,0.001500993,-0.002773799,0.000817958
1.77E+18,4.36434668,0.038826282,-0.002304039,0.016103578,0.004008685,0.000524549,0.002052896
1.77E+18,4.374334717,0.048292029,-0.020285759,-0.012854221,0.001809447,0.002034561,-0.000339155
1.77E+18,4.38432373,0.028457448,-0.008064356,0.000396014,0.001831448,0.006094029,-0.004359048
1.77E+18,4.394312744,0.010498013,-0.008939386,0.004031301,0.001537435,0.0101929,-0.005157464
1.77E+18,4.404300537,0.016955226,-0.018328049,0.015860125,0.001993738,0.010952422,-0.003946939
1.77E+18,4.414289551,0.041282443,-0.002754706,-0.003183452,0.00300707,0.01183233,-0.001344765
1.77E+18,4.424277588,0.059033204,-0.004589739,-0.011299977,0.002444127,0.010426788,0.001157521
1.77E+18,4.434266602,0.055050272,-0.013812325,0.00017068,0.002347454,0.007131659,-0.001871026
1.77E+18,4.444254639,0.041752399,-0.001954641,0.001524871,0.002439806,0.009061363,-0.003784804
1.77E+18,4.454243652,0.008897592,-0.000722907,-0.005554273,0.00382678,0.011242492,-0.003273743
1.77E+18,4.464231445,0.027537995,-0.005034341,0.000996464,0.0041275,0.010695818,-0.003203189
1.77E+18,4.474220703,0.021003041,-0.006909633,0.005935966,0.005220727,0.006708266,0.002388118
1.77E+18,4.48420874,0.038377369,-0.001406871,-0.004629852,0.006133035,0.006311417,0.00231428
1.77E+18,4.494197754,0.049092824,-0.0235669,0.00030965,0.004109032,0.010308022,0.004048265
1.77E+18,4.504185547,0.001045125,-0.008563684,0.011730039,0.004063062,0.011261955,0.003123466
1.77E+18,4.514174561,-0.026079613,0.005159282,0.010805179,0.002945866,0.007501572,0.002934648
1.77E+18,4.524162598,0.0124094,0.009112185,0.011053309,0.00559906,0.004630214,0.003798676
1.77E+18,4.534151855,0.030559389,-0.011056451,-0.000400544,0.002230161,-0.005556643,0.004511604
1.77E+18,4.544139893,0.075833532,-0.004444485,-0.010491145,0.003761472,-0.002892792,0.004921573
1.77E+18,4.554128418,0.059272858,-0.014034809,-0.01191884,0.00268449,0.000810333,0.005092548
1.77E+18,4.564116455,-0.011827216,0.002361249,0.007369214,-0.000419407,-0.005217141,0.005958283
1.77E+18,4.574105713,0.007086743,-0.004552549,-2.08E-05,-0.000639384,-0.004618995,0.003039193
1.77E+18,4.58409375,-0.003611176,0.002451412,0.00364727,-0.00030717,-0.00441016,0.001916468
1.77E+18,4.59408252,0.010337854,0.010487199,-0.003933832,0.000683526,-0.007366268,0.002014739
1.77E+18,4.604070557,0.023018472,-0.004459317,-0.017007833,0.001486449,-0.007486273,0.001167216
1.77E+18,4.61405957,-0.006602759,-0.011312106,-0.009712854,0.000705876,-0.004323237,-0.002711945
1.77E+18,4.624047607,-0.013161095,-0.00821582,0.00584025,-0.000233082,-0.00379545,-0.003869569
1.77E+18,4.634036621,0.000279401,0.011614742,0.006125789,0.000858015,-0.005918255,-0.006806237
1.77E+18,4.644024658,-0.010427286,-0.000680164,0.00253624,-0.000780687,-0.007776565,-0.008372643
1.77E+18,4.654013428,-0.010835867,0.008089637,0.000920622,-0.000163632,-0.007445002,-0.007510046
1.77E+18,4.664001709,0.051877487,0.003090952,-0.004452449,0.000433611,-0.009566242,-0.005368514
1.77E+18,4.673990723,0.067464347,-0.000117854,-0.012624358,0.002061868,-0.010584901,-0.002228647
1.77E+18,4.683978516,0.082310034,0.003867927,0.000488514,0.001980975,-0.008725771,-0.004636709
1.77E+18,4.693967773,0.040275312,0.010422098,-0.012211393,0.000571364,-0.00973937,-0.006521693
1.77E+18,4.703955566,0.017163901,-0.003371011,-0.005112959,0.001880793,-0.013399739,-0.008096196
1.77E+18,4.71394458,0.00936521,-0.016554975,-0.015007307,0.00191648,-0.00995627,-0.001637497
1.77E+18,4.723932617,0.026920156,-0.017157033,-0.001347615,0.002307927,-0.010233726,0.001892052
1.77E+18,4.733921631,0.06010171,-0.018762057,0.002133213,0.002885034,-0.00605789,0.001459022
1.77E+18,4.743909668,0.054754503,-0.028259441,-0.012555092,0.001654689,-0.003188781,-0.000171237
1.77E+18,4.753898926,0.031069677,-0.013795447,-0.000556026,0.002907173,0.000363875,-0.001871666
1.77E+18,4.763886719,0.037840778,-0.013997253,0.011605098,0.001124735,0.003451311,-0.001193178
1.77E+18,4.773875488,0.029991818,-0.012405235,0.002099456,-0.000570634,0.004207382,-0.00072819
1.77E+18,4.783863525,0.030272389,-0.000798749,0.006696575,-0.000617457,0.006845509,-0.000476521
1.77E+18,4.793852783,0.043305473,-0.00960954,-0.010146569,0.00206914,0.006761087,0.00140154
1.77E+18,4.803840576,0.05708207,-0.009830124,-0.006171674,0.000419327,0.005092669,0.003819105
1.77E+18,4.813829346,0.064121467,0.004424027,-0.021594284,0.00048058,0.00551265,0.005269196
1.77E+18,4.823817627,0.072899817,-0.010902868,-0.006917963,0.001905982,0.010045372,0.006264185
1.77E+18,4.833806641,0.025039749,-0.016760215,0.012110417,0.001483338,0.012245942,0.003968273
1.77E+18,4.843794678,-0.002832593,0.006874416,0.002297756,0.001549452,0.011545354,0.000745598
1.77E+18,4.853783691,0.022720366,-0.013232626,-0.012010317,0.00276119,0.008594039,0.00199036
1.77E+18,4.863771484,0.040494507,-0.012477058,-0.013476152,0.00243518,0.012437937,0.003454409
1.77E+18,4.873760498,0.055047349,0.00243994,-0.008103958,0.003066083,0.013312785,0.003926055
1.77E+18,4.883748779,0.038459202,-0.0033648,-0.001795651,0.002749394,0.013000602,0.001376511
1.77E+18,4.893737793,0.037006081,-0.012750907,-0.003482435,0.003617851,0.014662681,-0.000379844
1.77E+18,4.903725586,0.011442601,-0.000837181,0.004956161,0.002941869,0.015028912,0.000780023
1.77E+18,4.9137146,0.020294015,0.00424794,0.009669599,0.003848674,0.014519449,-0.002341735
1.77E+18,4.923702637,0.011935937,-0.002695742,0.000422171,0.001640346,0.015684808,-0.004559946
1.77E+18,4.93369165,0.023332945,-0.004965221,0.006230127,0.002216388,0.017007865,-0.006634282
1.77E+18,4.943679688,0.028862522,0.00311236,0.013336598,0.002912127,0.014401086,-0.00842976
1.77E+18,4.953668701,0.019326632,-0.014296236,-0.001463643,0.001515566,0.010519795,-0.009235101
1.77E+18,4.963656494,0.007177929,-0.016618396,0.001473726,-0.000209158,0.007872339,-0.008706349
1.77E+18,4.973645752,0.001958148,0.005011691,0.0067825,0.002181561,0.002194746,-0.007142008
1.77E+18,4.983633789,0.002913257,0.006248393,-0.003173662,-0.001313925,-0.00300818,-0.005969937
1.77E+18,4.993622559,0.02941548,0.005456,-0.01018544,-0.00011284,-0.002388729,-0.005383776
1.77E+18,5.003610596,0.032004912,-0.00446677,-0.001757803,-0.000150481,-0.001103409,-0.00687091
1.77E+18,5.013599609,0.036136312,-0.014647753,-0.007642624,-0.001158754,0.002124609,-0.008537515
1.77E+18,5.023587646,0.043313072,-0.010769085,-0.005329086,-0.000558611,0.005594544,-0.010662822
1.77E+18,5.033576416,0.035412674,-0.00655987,-0.001658873,-0.000808415,0.006671526,-0.010136846
1.77E+18,5.043564697,0.024089316,-0.009013547,-0.00133081,-0.000365422,0.006717526,-0.009075558
1.77E+18,5.053553711,0.024570378,-0.008547098,-0.002595716,-0.001340938,0.004239721,-0.010390893
1.77E+18,5.063541504,0.026986207,0.003269815,-0.007654168,-5.39E-05,0.004867995,-0.007490531
1.77E+18,5.073530518,0.035693245,-0.003386355,-0.004699994,0.000496304,0.004645887,-0.007013559
1.77E+18,5.083518555,0.039897126,-0.006597718,-0.002702245,0.000297042,0.003355589,-0.006873053
1.77E+18,5.093507568,0.037409401,-0.015740371,0.004211626,0.001665641,0.005956698,-0.006179566
1.77E+18,5.10349585,0.037357378,-0.010443799,0.009156828,0.001793237,0.006632146,-0.006190397
1.77E+18,5.113484619,0.008854338,-0.020165275,-0.007030045,0.001249952,0.005573274,-0.006510242
1.77E+18,5.123473389,0.021819033,0.009898148,-0.002657967,-0.000294343,0.008461036,-0.004342685
1.77E+18,5.13346167,0.024912323,-0.001295958,-0.008783318,0.000981844,0.004973093,-0.003835353
1.77E+18,5.143449707,0.033699441,-0.003880787,-0.002410568,0.001534665,0.006193065,-0.003772267
1.77E+18,5.153438721,0.026048633,-0.001002309,-0.005260551,0.001056893,0.006670037,-0.002048935
1.77E+18,5.163427734,0.026913726,-0.00255626,-0.0020657,0.000765505,0.004186639,-0.000747448
1.77E+18,5.173415527,0.019537644,-0.007410203,-0.005505319,9.60E-05,0.005322744,-0.000692587
1.77E+18,5.183404541,0.024012159,-0.002917276,-0.010060791,0.000862688,0.008010853,8.20E-05
1.77E+18,5.193392822,0.004279869,-0.009898586,0.004696049,0.001640065,0.008016979,-0.00120351
1.77E+18,5.203381592,0.02195698,-0.002997867,-0.000465864,0.001254545,0.006220954,-0.000401217
1.77E+18,5.213369629,0.047071548,-0.001593334,-0.015130788,0.000903274,0.003450734,0.00046431
1.77E+18,5.223358887,0.06082301,0.00075301,-0.003237082,0.000492499,-0.002825409,-0.001225008
1.77E+18,5.23334668,0.059007485,0.000786328,-0.01198226,0.000204878,0.002697987,0.001253063
1.77E+18,5.243335449,0.028873043,-0.015145035,-0.000342676,0.000443766,0.003762108,0.002253904
1.77E+18,5.253323486,0.012988661,-0.004652867,0.013049743,0.000944973,0.004210052,0.002922091
1.77E+18,5.263312744,0.023709961,-0.012534049,-0.006729454,0.001254296,0.001005736,0.00260118
1.77E+18,5.273300537,0.013702362,-0.011944193,-0.007989391,0.001462555,-0.003123761,0.005024391
1.77E+18,5.283289551,0.02175006,-0.008885171,-0.003261486,0.001198467,-0.003423032,0.005288403
1.77E+18,5.293277588,0.029969606,-0.004110212,-0.003872019,0.002154542,-0.001702098,0.00708497
1.77E+18,5.303266602,0.036789808,-0.001552636,0.004079232,0.00238078,0.002501028,0.007679316
1.77E+18,5.313254639,0.010937574,-0.000756517,0.018793694,0.001816989,0.004852333,0.009335536
1.77E+18,5.323243896,0.023099136,-0.00295074,0.006602175,0.000867818,0.005655214,0.007927957
1.77E+18,5.333231689,0.031966333,0.009837942,0.005479308,0.001375417,0.002282054,0.006874145
1.77E+18,5.343220459,0.03257482,0.017457331,-0.007693769,0.002401197,0.00294517,0.009205859
1.77E+18,5.35320874,0.03586977,0.005435615,-0.009394144,0.001465629,0.001665255,0.007146171
1.77E+18,5.363197754,0.038662616,-0.005290215,-0.003174831,0.001015178,-9.03E-05,0.006525122
1.77E+18,5.373185791,0.030604397,-0.010856983,-0.004194237,0.001833301,-0.001863167,0.004488602
1.77E+18,5.383174805,0.026238019,-0.006214125,-0.008386574,0.001456868,-0.002748806,0.002186225
1.77E+18,5.393162598,0.031260231,-0.010180106,-0.013319939,-0.00034769,-0.002693146,0.00024478
1.77E+18,5.403151611,0.013977087,-0.012912454,-0.005180179,-8.70E-05,-0.001527983,-0.000383809
1.77E+18,5.413139893,-0.013887071,-0.007463687,0.00833762,0.000214982,-0.001077643,-0.000309773
1.77E+18,5.423128662,-0.003725743,0.0028852,0.009639204,0.000327043,-0.001679371,-0.001121011
1.77E+18,5.433116699,0.019712416,0.007954612,-0.006679186,-0.000339812,-0.000684681,-0.001303971
1.77E+18,5.443105957,0.02923194,-0.022798765,-0.011063538,-1.29E-05,-0.001737732,-0.000993781
1.77E+18,5.45309375,0.053580784,-0.00866824,0.004514701,-0.000389226,-0.001437061,-0.000931996
1.77E+18,5.46308252,0.050080082,-0.010599501,-0.008432605,0.000972416,-0.001961138,-0.00018613
1.77E+18,5.473070557,0.036281274,-0.002707798,-0.003336597,0.000694649,-0.000835687,-0.000162162
1.77E+18,5.483059814,0.037477205,0.001183145,0.007730594,0.001198716,-0.001379056,-0.00126324
1.77E+18,5.493047852,0.016952304,-0.003005465,-0.012051234,0.000427465,0.000428431,-0.001609984
1.77E+18,5.503036621,0.036693362,-0.007817323,-0.013686142,-0.000373703,-0.000190691,-0.001552363
1.77E+18,5.513024658,0.050654667,-0.015973084,0.000356266,0.000931512,0.005585705,-0.003023493
1.77E+18,5.523013672,-0.001923077,0.006067922,0.012039251,-0.000514097,0.002554133,-0.000929727
1.77E+18,5.533001709,0.026703298,-0.000108063,0.000892711,-0.000271217,0.003256142,-0.002043195
1.77E+18,5.542990967,0.036945291,-0.010844708,-0.0023565,0.001251517,0.005106773,-0.00161842
1.77E+18,5.55297876,0.028680151,-0.016580767,-0.004105682,0.000199835,0.005009567,-0.000882322
1.77E+18,5.562967529,0.023852,-0.014094869,0.002799129,-7.87E-05,0.005048897,-0.001713623
1.77E+18,5.572955811,0.027811552,-0.01032894,-0.005531477,0.000556775,0.003571908,-0.000269657
1.77E+18,5.582944824,0.034637598,0.005100538,-0.00755816,0.000714591,0.003584753,-0.000621363
1.77E+18,5.592932861,0.02875497,-0.007785174,-0.001412059,0.00039368,0.006009561,-0.001533496
1.77E+18,5.602921631,0.035591538,-0.003957432,0.008310002,0.000235883,0.006015199,-0.001189886
1.77E+18,5.612909668,0.028650925,0.005010668,0.003796031,-0.000346551,0.003496115,-0.001478306
1.77E+18,5.622898682,0.030548868,0,0.010812632,-0.000389758,0.005212998,-0.000232423
1.77E+18,5.632886963,0.041406362,-0.001813625,0.002903466,0.000288549,0.002282722,3.23E-05
1.77E+18,5.642875732,0.04403671,-0.008708353,-0.008135668,0.000966132,0.004073551,0.00183929
1.77E+18,5.652863525,0.039817631,0.00087481,-0.004735504,8.68E-05,0.004108971,0.002410804
1.77E+18,5.662852783,0.032905075,0.01660539,-0.003935732,0.001096598,0.003566104,0.003291203
1.77E+18,5.67284082,0.020447745,-0.002064531,0.00581234,0.000763437,0.003322158,0.002669355
1.77E+18,5.68282959,0.025046178,-0.006406944,-0.002954466,-0.000329188,0.005476709,0.000540103
1.77E+18,5.692817627,0.019444705,-0.00738653,-0.008345804,0.000712374,0.00237306,0.000278581
1.77E+18,5.702806885,0.023408933,0.005833382,0.002973463,2.25E-06,0.002742565,0.000549353
1.77E+18,5.712794678,0.03050269,-0.008424422,0.000351152,-3.08E-05,0.0020829,0.000141623
1.77E+18,5.722783447,0.032345103,0.000996537,0.007627718,-0.000589725,0.002668989,-0.00014518
1.77E+18,5.732771729,0.016546646,0.000582841,-0.006024813,2.15E-05,0.004538261,-0.001581156
1.77E+18,5.742760742,0.012560206,0.005101342,0.014168518,0.001244442,0.002495022,-0.003828163
1.77E+18,5.752748535,0.013773674,0.001615399,0.014191461,0.000399154,0.001286746,-0.001205215
1.77E+18,5.762737793,0.024248306,-0.000932897,-0.000194646,-0.001276692,0.001086657,-0.00355718
1.77E+18,5.772725586,0.027209494,0.003375322,0.002408084,-0.001152855,0.000503425,-0.003878091
1.77E+18,5.7827146,0.030934067,0.006225962,-0.002159662,-0.000713254,0.001188962,-0.00193365
1.77E+18,5.792702881,0.035108723,0.003083718,0.003833148,-0.000198465,0.000535955,-0.001739772
1.77E+18,5.802691895,0.024031448,-0.004040581,-0.008661884,0.000309633,0.000277461,-0.001494486
1.77E+18,5.812679688,0.037452656,0.002893968,-0.010997049,0.000938139,-0.00141551,-0.000923505
1.77E+18,5.822668701,0.047431613,-0.004405834,-0.000840981,-0.000153017,-0.00227032,-0.000862956
1.77E+18,5.832656738,0.031979193,-0.004204685,-0.012345833,-0.000837982,1.44E-05,-0.001138327
1.77E+18,5.842645752,0.036745384,-0.002598054,-0.006399492,0.001200528,0.000158449,-0.00040747
1.77E+18,5.852634033,0.036302901,0.00124094,0.005423779,0.000270818,0.000205587,0.000571241
1.77E+18,5.862622559,0.018685996,-0.004202201,-0.002525135,-3.01E-05,0.003168683,0.000414212
1.77E+18,5.872610596,0.022352702,0.00405439,0.00459931,-0.000930804,0.00365684,0.00069704
1.77E+18,5.882599854,0.029607203,-0.006262568,0.006530717,-0.000674623,0.001231766,-0.000131203
1.77E+18,5.892587891,0.014215572,0.002885346,-0.009389467,-9.33E-05,0.000841346,0.0002973
1.77E+18,5.90257666,0.02575988,-0.006500979,0.00426701,0.001359174,0.001662167,0.001659686
1.77E+18,5.912564453,0.028361002,-0.007359204,0.004143383,0.00036182,0.001278405,0.00263174
1.77E+18,5.922553711,0.017213001,9.51E-05,-0.012551585,-0.000592519,0.002448246,0.001562885
1.77E+18,5.932541748,0.017234043,0.004110212,-0.013675474,-0.000534462,-0.003116961,-0.000518641
1.77E+18,5.942530518,0.053163435,0.009283961,-0.000927198,0.000287581,-0.003327287,-0.002102857
1.77E+18,5.952519775,0.067512278,-0.00029701,-0.008407763,0.000673739,0.003444066,-0.001848259
1.77E+18,5.962507568,-0.000412672,-0.000102584,0.023674744,0.000536863,-0.002821639,0.00148935
1.77E+18,5.972496582,0.033960722,0.00548698,-0.006016776,0.001082811,-0.002939085,0.001457659
1.77E+18,5.982484863,0.054108022,-0.006730331,-0.013451018,-0.001358701,-0.001350652,-6.63E-05
1.77E+18,5.992473633,0.019174656,-0.01014562,-0.004724837,-0.000640713,-0.005618901,0.00017202
1.77E+18,6.00246167,0.022830256,-0.014164646,-0.011998481,0.00060571,-0.002634405,0.000508946
1.77E+18,6.012450928,0.024936288,-0.00970679,0.001882453,0.000733541,0.001729983,7.27E-05
1.77E+18,6.022438721,0.006156185,0.011286387,0.020447745,-0.000981793,0.004350457,-6.30E-05
1.77E+18,6.03242749,0.040250177,0.009963979,0.002547639,0.001270176,0.006711616,-0.000285672
1.77E+18,6.042415771,0.020476971,0.003293781,-0.007845453,0.00081749,0.004904446,-0.002052094
1.77E+18,6.052404785,0.003231237,0.011294351,-0.004536036,0.000532,0.005224824,-0.001001743
1.77E+18,6.062392822,0.0326549,-0.005048516,-0.015035218,-0.000224396,0.004500532,-0.000513122
1.77E+18,6.072381592,0.023162849,-0.000482596,0.008672551,0.000538866,0.003413696,-0.001163732
1.77E+18,6.082369629,0.018280922,-0.007456234,0.017809944,-0.000195105,0.002719751,-0.002594248
1.77E+18,6.092358643,0.042223523,-0.011269874,0.008251111,-6.55E-06,0.000915992,-0.004106391
1.77E+18,6.102346924,0.03723346,0.005308847,-0.009726883,-0.000134155,-0.000873282,-0.003381757
1.77E+18,6.112335693,0.033293198,0.001177227,0.001243424,0.000324441,0.001015965,-0.002334602
1.77E+18,6.122323486,0.024007483,-0.009648338,0.005660072,-0.000791005,0.00044262,-0.003071777
1.77E+18,6.132312744,0.031356092,-0.010487711,-0.010797434,0.000712882,0.002104965,-0.001890665
1.77E+18,6.142300781,0.034870238,-0.000830898,-0.015865532,0.00056349,0.004326795,0.000127224
1.77E+18,6.152289795,0.042133507,-0.000463014,-0.006906565,-6.05E-05,0.00136749,-4.43E-05
1.77E+18,6.162277588,0.031402854,-0.006585077,-0.005683599,1.55E-05,0.001084782,-0.001490063
1.77E+18,6.172266602,0.027380759,0.009503157,0.000256313,0.001039201,0.002128475,0.000264961
1.77E+18,6.182254639,0.02667641,-0.003711714,0.002202478,8.10E-05,0.00098242,-0.001450729
1.77E+18,6.192243896,0.033130701,-0.003645663,-0.000897972,0.000366775,-5.12E-05,0.000518412
1.77E+18,6.202231934,0.037160395,-0.005881825,-0.001980799,-3.16E-05,0.000491825,-0.00029181
1.77E+18,6.212220703,0.025793782,-0.004142361,0.005263327,-0.000764774,0.000854015,-0.00068143
1.77E+18,6.222208496,0.038536359,-0.013922946,0.000755056,-3.52E-05,0.000624184,-0.002533251
1.77E+18,6.232197754,0.035741175,0.000469225,0.013143413,-0.000193902,0.004772324,-0.001353204
1.77E+18,6.242185791,0.009379238,0.00333762,0.015132979,-0.000611602,0.004332896,-0.000791305
1.77E+18,6.252174561,0.019026188,-0.001881211,0.009279139,0.000575369,0.002806905,0.000790879
1.77E+18,6.262162842,0.032535657,0.015615868,-0.003279022,-0.000667148,0.00121906,-0.00043598
1.77E+18,6.272151855,0.035236149,0.009849705,0.003063625,-3.49E-05,6.11E-05,-0.001432801
1.77E+18,6.282139648,0.025039749,0.011768471,-0.003998422,0.000795636,-0.000777674,-0.001956891
1.77E+18,6.292128662,0.033249943,0.002557868,-0.001885521,-0.000229948,0.002237557,-0.001922536
1.77E+18,6.302116699,0.02980594,0.002785685,0.005600889,-0.000834626,0.000313893,-0.002857999
1.77E+18,6.312105713,0.018999884,-0.000218319,0.008742548,0.001588052,0.000416957,-0.002506728
1.77E+18,6.32209375,0.030806642,0.009707155,-0.00125263,4.20E-05,0.000232699,-0.0015875
1.77E+18,6.33208252,0.035143794,0.007692016,-0.001524579,-0.000530616,-1.04E-05,-0.000356054
1.77E+18,6.342070557,0.039071781,-0.009867972,0.000243892,-0.001273897,0.000465076,0.000384498
1.77E+18,6.352060547,0.042210664,0.00094466,-0.007983838,-0.000225943,0.000247229,-0.000381427
1.77E+18,6.362048584,0.045080666,0.002231705,-0.008503332,0.001285277,0.000386914,-0.000214768
1.77E+18,6.372037354,0.04288754,-0.004592004,0.01455328,0.000539326,0.00238535,0.001059022
1.77E+18,6.382025635,0.020815994,0.000295549,0.013327391,0.000744436,0.003308487,-0.000232546
1.77E+18,6.392014648,0.027486557,-0.003153057,-0.00280176,0.001360426,0.003910628,-3.51E-06
1.77E+18,6.402002441,0.02144377,-0.008880933,0.003828326,-0.000285734,0.003762986,0.000227132
1.77E+18,6.411991455,0.020169512,-0.006118264,-0.004836773,0.0007774,0.002221814,-0.001597665
1.77E+18,6.421979492,0.024110943,-0.001588365,0.001426964,0.000205145,0.002722178,-0.00140129
1.77E+18,6.431968506,0.017424598,-0.000774711,0.007775164,0.001263219,0.00161164,-0.001636447
1.77E+18,6.441956299,0.018981764,-0.003554185,0.012528058,-0.000950393,0.003121686,-0.000386572
1.77E+18,6.451945557,0.028040684,0.000483473,0.001620441,0.001434202,0.002629267,-0.000761013
1.77E+18,6.46193335,0.018205519,-0.001940759,0.009396189,1.67E-05,0.00072173,0.000566581
1.77E+18,6.471922607,0.036948798,0.006002601,-0.004275485,0.001135494,0.001262085,0.002849709
1.77E+18,6.481910645,0.031006548,-0.003116086,0.006003624,0.00087097,0.000645349,-0.000111013
1.77E+18,6.491899658,0.034176995,0.001017141,0.005641221,5.58E-05,0.000246674,0.000139857
1.77E+18,6.501887451,0.012007249,0.001490165,-0.009852116,7.32E-05,-0.001623919,0.001083459
1.77E+18,6.511876465,0.026930093,-0.013485943,0.002550415,-0.000151259,-0.001921128,-0.000147987
1.77E+18,6.521864502,0.033760231,0.002759309,0.004776274,0.000304704,-0.000366216,-0.001647642
1.77E+18,6.531853516,0.024593174,0.010008988,-0.012107494,0.00130552,-0.001227749,-0.000879053
1.77E+18,6.541841797,0.031021746,0.016672172,-3.84E-05,-5.43E-05,0.000346032,-0.000346174
1.77E+18,6.551830322,0.036098903,0.008303133,-0.00426774,0.000577105,-0.00163749,-0.001371757
1.77E+18,6.561818359,0.030536593,-0.012359569,-0.002727233,0.000268874,-0.00162068,0.000128745
1.77E+18,6.571807617,0.037258594,-0.006445523,0.010133564,-0.000210761,0.000444335,-0.001098173
1.77E+18,6.581795654,0.006581132,-0.002483341,0.014943741,-1.90E-06,9.37E-05,-0.001837573
1.77E+18,6.591784424,0.017186113,-0.008204642,0.001150924,0.00058826,-9.67E-05,-2.58E-07
1.77E+18,6.601772461,0.033923312,0.000214373,0.001084726,-6.74E-05,-0.001187365,0.001649889
1.77E+18,6.611761475,0.055334349,0.00871639,0.008387451,-0.000499063,-0.000261117,0.000258388
1.77E+18,6.621749512,0.036036944,0.004287906,0.005081833,-2.06E-05,-5.68E-05,0.000249211
1.77E+18,6.631738525,0.03843173,0.005198811,0.013467238,-0.000152134,0.000665164,-0.000618446
1.77E+18,6.641726563,0.035010523,-0.008288155,0.01584858,-0.001335532,0.002534907,-0.001028391
1.77E+18,6.651715332,0.029949733,0.011388021,-0.008255495,0.000294855,0.00156312,-0.000492297
1.77E+18,6.661703369,0.028339959,0.000154752,-0.0016843,0.000425774,0.001522117,0.000129186
1.77E+18,6.671692627,0.034345337,0.001817352,0.013212533,0.000243348,0.001505605,0.000302824
1.77E+18,6.68168042,0.039893034,-0.001619929,-0.002301993,0.001579469,0.000217706,-0.000864451
1.77E+18,6.691669678,0.040624271,0.011249343,0.005476532,0.000575458,0.001223582,-0.00061518
1.77E+18,6.701657471,0.032743747,0.002895356,0.005983604,0.000554444,0.003967751,-0.001263861
1.77E+18,6.711646484,0.003347557,0.003376783,0.004887041,0.000149643,0.004858312,-0.004457257
1.77E+18,6.721634521,0.022236966,0.005729191,-0.00309329,0.001101587,-0.00024825,-0.003102192
1.77E+18,6.731623535,0.029902971,0.008181334,-0.010720862,0.00021289,-0.005107187,-0.004056403
1.77E+18,6.741611572,0.089343002,0.001001432,-0.009690642,-0.000875406,-5.06E-05,-0.002354077
1.77E+18,6.751600586,0.033703532,-0.019940014,0.016214783,0.001335018,0.001902576,-0.000647523
1.77E+18,6.761588623,-0.005650573,-0.001899404,0.031898529,0.00038596,-0.002353355,-0.000408631
1.77E+18,6.771577393,0.059970777,-0.00855287,-0.00873831,-0.000522444,-0.001438293,-0.001729559
1.77E+18,6.78156543,0.021763504,-0.0071875,-0.002125906,-0.000722683,-0.002542976,-0.003731245
1.77E+18,6.791554688,0.005070727,0.004519816,0.005263181,0.000114881,-0.003626083,-0.001887006
1.77E+18,6.80154248,0.020073066,0.000825272,-0.007272037,0.001173945,-0.003348512,1.41E-05
1.77E+18,6.81153125,0.004338321,-0.005330109,0.003554478,0.000534254,0.001273138,0.000191954
1.77E+18,6.821520508,0.015741759,-0.005766016,0.02044,-2.58E-05,0.001720878,0.001115134
1.77E+18,6.831508545,0.038493105,0.000515402,0.004451719,-0.000703831,-1.66E-05,-0.000197805
1.77E+18,6.841497314,0.03401742,0.002295491,-0.00208499,-2.95E-05,0.000916411,0.00040057
1.77E+18,6.851485596,0.027014264,0.005145985,0.004916998,0.000913022,0.00211217,-0.000458832
1.77E+18,6.861474365,0.033772506,0.004982976,0.003363047,0.001677997,0.000897109,-0.000509071
1.77E+18,6.871462402,0.036480011,-0.003403013,0.012690262,0.002684672,0.002296068,3.87E-05
1.77E+18,6.88145166,0.038119011,0.006001871,-0.008531974,0.000802856,-0.00091257,-0.004509919
1.77E+18,6.891439453,0.035049102,0.005583061,0.000440437,0.000869968,-0.001398863,-0.001904549
1.77E+18,6.901428467,0.032741409,0.006599617,-0.004029548,0.001898746,-0.000860129,-0.001677063
1.77E+18,6.911416504,0.005744681,-0.003626301,-0.005958762,0.001566649,-0.000848411,-0.001829396
1.77E+18,6.921405518,-0.004504326,0.00644903,-0.008104834,0.000698064,-0.001710702,-0.003029997
1.77E+18,6.931393555,0.015751696,-0.004112404,-0.005987404,0.001275438,-0.003070778,-0.000756989
1.77E+18,6.941382568,0.034213235,-0.003359759,-0.010691782,0.000611198,-0.003600334,-0.000819136
1.77E+18,6.951370605,0.046389995,-0.008358809,0.006490823,-0.000960067,-0.003569175,0.000214437
1.77E+18,6.961359619,0.034062429,-0.001873173,0.006141718,0.002181466,-0.001386062,-0.00105551
1.77E+18,6.971347412,0.035993689,-0.000426409,0.000677461,0.001085576,6.91E-05,0.00156797
1.77E+18,6.981336426,0.042443303,-0.005645312,0.006451514,0.001117246,-0.001116863,0.002152799
1.77E+18,6.991324463,0.031698622,0.001901961,-0.000121581,0.001353735,6.08E-05,0.001340269
1.77E+18,7.001313721,0.040095864,-0.00684044,0.003594663,-8.60E-05,-0.000738412,0.000143265
1.77E+18,7.011301514,0.054157122,-0.009025676,-0.010462503,-0.000127238,-0.000819106,-0.001710562
1.77E+18,7.021290283,0.029191023,-0.009034005,0.003842793,0.001585364,0.003206876,-0.000599432
1.77E+18,7.03127832,0.004420155,0.000813801,0.023464901,0.001686297,0.00296293,-0.001080666
1.77E+18,7.041267578,-0.001698621,0.005812193,0.014277239,0.000241576,0.000346567,1.30E-05
1.77E+18,7.051255615,0.018785364,-0.003036664,-0.01775266,0.001811509,0.001199045,-0.002712478
1.77E+18,7.061244385,0.017411738,-0.000300517,-0.007235212,-0.000342309,0.000737927,-0.005125072
1.77E+18,7.071232422,0.018280338,-0.001566957,-0.00089841,0.000303242,0.000404765,-0.003413459
1.77E+18,7.081221436,0.036941783,-0.000369783,0.004217472,-0.000377976,0.001501551,-0.005484373
1.77E+18,7.091209473,0.035429041,0.003410685,0.002119184,-0.000431505,-9.00E-05,-0.003869166
1.77E+18,7.10119873,0.030320319,0.009602453,-0.003045651,-0.002331136,0.002855559,-0.002619879
1.77E+18,7.111186523,0.039895957,0.00265994,0.002139204,-0.001413144,0.000225421,-0.004256924
1.77E+18,7.121175293,0.033102644,0.002263707,-0.002878624,-0.000248623,-0.001047291,-0.003054813
1.77E+18,7.131163574,0.036510406,-0.013491788,0.003319354,0.000998269,0.000125566,-0.00059565
1.77E+18,7.141152588,0.045331426,0.003837459,-0.009440029,0.002275382,-0.001373161,0.000247806
1.77E+18,7.151140625,0.053368018,-0.008309125,-0.006030658,0.001436752,-0.002151869,0.000519182
1.77E+18,7.161129639,0.022378421,-0.004134104,-0.004598141,0.00029682,0.000996605,-0.00063072
1.77E+18,7.171117432,0.018033669,-0.015541195,0.001414689,0.000976725,0.000743605,-0.00153726
1.77E+18,7.181106445,0.012977555,-0.000995806,0.01412088,0.000501403,0.00155131,0.000936101
1.77E+18,7.191094482,0.013916297,0.007452654,0.003473667,0.000362652,0.002217633,0.000480967
1.77E+18,7.201083496,0.029641105,-0.004314429,-0.002887684,0.001960351,0.001388972,-0.001470653
1.77E+18,7.211071533,0.029024434,-0.008111556,0.007407354,-0.000169379,-0.000639025,0.001416214
1.77E+18,7.221060303,0.024212066,0.000245645,-0.001075374,8.25E-05,6.79E-05,-0.000336956
1.77E+18,7.231048584,0.020448914,-0.004570304,0.003979133,0.000343982,0.000345977,-0.000829908
1.77E+18,7.241037354,0.033325346,-0.002481807,0.00834405,0.000510426,0.000716263,0.000641964
1.77E+18,7.251025391,0.024801264,2.32E-05,0.001977291,-0.000762032,0.001540245,-0.001465129
1.77E+18,7.261014648,0.018831542,-0.00593392,0.002865619,-0.000288395,0.002430788,-0.000948228
1.77E+18,7.271002441,0.025150808,-0.000332812,-0.004305734,0.000774473,0.002142101,-0.000770063
1.77E+18,7.280991455,0.029966684,0.006167217,-0.000278671,0.000811238,0.002296897,0.000144219
1.77E+18,7.290979492,0.025499767,0.005355536,0.012113778,-0.000714487,0.000805527,-0.001148745
1.77E+18,7.300968506,0.019690204,0.011277765,-0.005403759,-2.04E-05,0.002070874,-0.001482007
1.77E+18,7.310956543,0.02885317,0.001946896,-0.00082023,-0.000585022,0.002265551,-0.002486817
1.77E+18,7.320945801,0.027239305,0.002624869,0.011675094,0.000293756,0.002772212,-0.002707645
1.77E+18,7.330933594,0.02593056,-0.009444047,-0.007241934,0.000471123,0.003815372,-0.00334414
1.77E+18,7.340922363,0.027481881,-0.000936331,0.001320143,0.000544167,0.003652523,-0.002943642
1.77E+18,7.350910645,0.035167759,0.008701047,0.00476663,-0.000486476,0.003354781,-0.001531634
1.77E+18,7.360898926,0.041540217,0.005457242,-0.002504092,-0.001345656,0.003690888,7.29E-05
1.77E+18,7.370886963,0.037870004,-0.004722133,0.01078779,0.000171547,0.004427518,-0.001389466
1.77E+18,7.380875732,0.025263036,-0.001286825,0.00388824,-0.001372615,0.003628282,0.00019747
1.77E+18,7.39086377,0.018009704,-0.005151903,-0.002673749,-0.000322797,0.002412549,-0.000100538
1.77E+18,7.400852783,0.021927754,0.00019428,-0.004467793,-0.000410924,0.002466882,-0.000665945
1.77E+18,7.41084082,0.026497546,0.007291472,-0.003077508,-0.000563523,0.003699659,-0.001086458
1.77E+18,7.420829834,0.02896306,0.00733933,0.001262275,-0.001135126,0.00367512,0.000387505
1.77E+18,7.430817627,0.028878888,0.000993103,-0.000902648,0.001206325,0.002840752,0.000254613
1.77E+18,7.440806641,0.035700843,0.003332578,-0.002679741,-0.000660448,0.004172014,0.000976842
1.77E+18,7.450794922,0.030498599,-0.006269216,0.011960633,0.001114549,0.001097128,-0.000687367
1.77E+18,7.460783936,0.033837972,4.21E-05,-0.00235913,0.000605808,0.003927225,-5.87E-05
1.77E+18,7.470771729,0.024482115,0.002931012,0.011854835,0.001784523,0.002781533,-0.000585438
1.77E+18,7.480760986,0.031886838,0.010224384,0.002542962,-2.57E-05,0.002346577,0.000633848
1.77E+18,7.490748779,0.027166239,0.00294431,0.005311112,5.34E-05,0.002676542,0.001697781
1.77E+18,7.500737793,0.037829088,-2.92E-07,0.002127367,0.003054709,0.000771124,0.001414254
1.77E+18,7.51072583,0.051630819,0.001442308,0.000527823,0.000575573,0.002569024,0.002580186
1.77E+18,7.520714844,0.040218613,-0.000588102,-0.000194207,0.001137307,0.00455504,0.003387124
1.77E+18,7.530702881,0.023299043,-0.004674056,0.000348521,0.000385497,0.00299203,0.004289935
1.77E+18,7.540691895,0.014568624,0.003875088,0.002402239,9.81E-05,0.002923938,0.001393343
1.77E+18,7.550679932,0.035147301,-0.005161255,0.002401947,0.000672538,-0.006361173,-0.00136942
1.77E+18,7.560668701,0.067667761,0.005715382,-0.006986498,-0.000581294,-0.00136849,0.002179455
1.77E+18,7.570656738,0.031180736,-0.004031374,0.000514672,0.000830182,-0.000245701,0.003500117
1.77E+18,7.580645996,0.030285833,-0.006439897,0.01610387,-9.60E-05,-0.001017443,0.002590977
1.77E+18,7.590633789,0.054533554,-0.007263123,-0.002522066,0.000441113,0.000844372,0.002117733
1.77E+18,7.600622559,0.02072247,0.004520254,-0.008711568,-0.001583624,-0.001836376,0.00309326
1.77E+18,7.61061084,0.00690145,0.002671557,0.00588935,0.000710423,-0.006076128,0.003537209
1.77E+18,7.620599854,0.010259528,0.002506503,-0.003699001,-0.000269727,-0.003535351,0.001518038
1.77E+18,7.630587891,0.02296645,-0.000638225,-0.000821253,-5.01E-06,-0.000177637,0.00065038
1.77E+18,7.640576904,0.02121756,-0.009284107,0.009635697,-0.000639248,0.001530853,0.001615757
1.77E+18,7.650564697,0.019617724,0.00275076,0.007021423,-0.000890118,-0.000409526,0.001172074
1.77E+18,7.660553711,0.025151392,0.00998473,0.001514496,0.00106966,-0.000272349,0.003160419
1.77E+18,7.670541992,0.025467619,-0.002781082,-2.78E-06,0.001113602,0.000935128,0.000918836
1.77E+18,7.680531006,0.042090252,-0.001530424,0.009883242,0.000974875,0.000247354,0.001919425
1.77E+18,7.690518799,0.027164486,-0.004155805,-0.005565964,-1.10E-05,0.003007987,-3.03E-05
1.77E+18,7.700507813,0.024064766,-0.001950111,-0.003258125,-0.00011595,0.001657639,-0.002769263
1.77E+18,7.71049585,0.042920273,-0.008147285,-0.00299962,-0.000634468,0.000283448,-0.003707761
1.77E+18,7.720484863,0.030194063,-0.005849457,0.001163052,-0.002101103,0.00157295,-0.0039565
1.77E+18,7.730473145,0.014068857,-0.008388766,0.004578122,-0.001054747,0.002101055,-0.002587103
1.77E+18,7.740461914,0.005009353,-0.001667276,0.001612111,-0.001360902,0.002883694,-0.000511797
1.77E+18,7.750449707,0.027965865,-0.009517039,0.002934738,0.000208765,0.003178773,-0.000862269
1.77E+18,7.760438965,0.031596915,-0.002846402,-0.004653963,0.000746777,0.001365445,0.000657364
1.77E+18,7.770427002,0.051692778,0.007830255,0.005266542,-0.00124873,0.002926857,-0.000505106
1.77E+18,7.780415771,0.040522565,0.001867913,-0.002599807,-0.000638203,0.002948536,-2.08E-05
1.77E+18,7.790403564,0.029488545,-0.00600947,-0.006912702,3.74E-05,0.001294447,-0.001668217
1.77E+18,7.800392822,0.033108489,-0.010234028,0.008211364,-0.00120536,0.003580569,-0.000762911
1.77E+18,7.810381836,0.02930442,-0.000904475,-0.008191051,0.000186408,0.004392033,-0.001408195
1.77E+18,7.820369629,0.037169162,0.001203311,0.004775836,0.000168043,0.004861059,-0.001879778
1.77E+18,7.830358887,0.035123336,0.006365005,-0.010797727,-0.001901765,0.000972844,-0.00043235
1.77E+18,7.840346924,0.040820671,0.000395575,-0.005682576,0.000235729,0.003399132,-0.004613289
1.77E+18,7.850336182,0.021888007,-0.00528985,0.002806728,-0.001219954,0.005058015,-0.002248402
1.77E+18,7.860323975,0.003992285,-0.005461992,0.023659546,-0.001836329,0.001874545,-0.003499309
1.77E+18,7.870312744,0.032127661,-0.009293314,0.00302797,-7.28E-05,0.002384274,-0.004740608
1.77E+18,7.880300781,0.037352118,-0.004453472,-0.016406507,-0.000274512,0.002372726,-0.005090558
1.77E+18,7.890290039,0.031557752,0.006160861,-0.004150544,-0.000701949,0.003903245,-0.002622606
1.77E+18,7.900277832,0.026227497,0.007333558,-0.002764496,-0.002253956,0.004692577,-0.00371868
1.77E+18,7.910266602,0.017924948,-0.015350056,-0.005154314,0.000933848,0.003524781,-0.003835061
1.77E+18,7.920254883,0.023069325,0.00872662,-0.001521072,-5.69E-05,0.00400861,-0.001965347
1.77E+18,7.930243896,0.035400984,-0.00654175,-0.006094079,-0.001167462,0.003838966,-0.002761899
1.77E+18,7.940231934,0.036170799,-0.003924115,0.004260726,-0.000707168,0.00201741,-0.001850239
1.77E+18,7.950220947,0.040346039,-0.005050196,-0.00527794,-0.000540188,0.000841358,-0.001247831
1.77E+18,7.96020874,0.044247138,-0.005000585,2.27E-05,-0.000513108,0.000308629,-0.000201486
1.77E+18,7.970197754,0.039781391,-0.007212123,-0.00406082,0.001012084,0.00185566,-0.000603889
1.77E+18,7.980186035,0.031003041,0.001234656,-0.008244681,0.00048045,0.00188602,0.000153247
1.77E+18,7.990174805,0.024461072,0.002746303,-0.004417963,-5.54E-05,0.002363258,-0.002293399
1.77E+18,8.000162842,0.017603461,-0.003217428,0.000842881,-0.000207586,0.002183545,-0.002048438
1.77E+18,8.010151855,0.026019407,0.003287059,0.000778145,-0.000720245,0.001637863,-0.002327271
1.77E+18,8.020139893,0.036221068,-0.007916764,-0.003385843,-0.001204489,0.001411301,-0.000997308
1.77E+18,8.030128662,0.029387423,-0.00783179,-0.005552081,3.57E-05,0.00241478,2.75E-05
1.77E+18,8.040116699,0.020163083,-0.004628683,0.006501637,-0.002168098,0.00142506,-0.00144793
1.77E+18,8.050105957,0.025431378,-8.08E-05,0.001922639,-0.000719605,0.002542256,-0.001822371
1.77E+18,8.06009375,0.027718028,-0.001101532,-0.004573445,0.000208971,0.001733058,-0.001292593
1.77E+18,8.070082764,0.037315877,0.000971987,0.007534195,0.000171953,0.0021573,-0.001256907
1.77E+18,8.080070801,0.027159225,-0.014457418,-0.009691957,-0.00062408,0.000469813,-0.001376641
1.77E+18,8.090059814,0.027753099,0.009223317,-0.003347995,0.000835865,0.001992875,-0.001589162
1.77E+18,8.100047852,0.032718028,-0.00065408,-0.001679916,-0.001581196,0.001943363,-0.000890318
1.77E+18,8.110036865,0.032466684,-0.006108035,0.003324907,-0.000836043,0.002800102,0.000229808
1.77E+18,8.120024902,0.026093057,-0.005982289,0.010351298,-0.000605169,0.003280015,-0.00126887
1.77E+18,8.130013672,0.024659225,-0.000767258,-0.000127426,0.000456634,0.002573744,0.001330908
1.77E+18,8.140001953,0.014540567,-0.005725611,-0.006798574,-0.000212983,0.002184622,-0.00047596
1.77E+18,8.149990967,0.033859015,0.001059738,0.000911416,0.000442687,-0.000128599,-0.001192617
1.77E+18,8.15997876,0.026069092,-0.013612346,-0.011030659,-0.000249921,0.001121766,-0.000943463
1.77E+18,8.169967773,0.036118777,-0.00416976,0.002153671,0.000675527,0.001834162,-0.001916848
1.77E+18,8.179955811,0.03420739,-0.001633373,-0.003041852,0.001011063,0.00161921,-0.000869338
1.77E+18,8.189944824,0.021353754,-0.009657836,0.005866116,0.00068083,0.001622672,0.000277685
1.77E+18,8.199933105,0.021954642,-0.000952478,-0.005483984,-0.001519957,0.001362697,0.000213937
1.77E+18,8.209921875,0.026626141,-0.003037906,0.013502163,0.002464132,0.001255904,-0.001893156
1.77E+18,8.219909668,0.021087212,0.002623627,-0.003063479,0.000854753,0.000265532,-0.000247731
1.77E+18,8.229898926,0.02721417,0.003350699,-0.006781331,0.000649956,0.000377652,-0.002291974
1.77E+18,8.239886963,0.022116555,0.002885054,0.002960603,-0.000635933,-0.000590188,-0.001572285
1.77E+18,8.249875732,0.029283378,-0.00376286,-0.009332476,8.39E-05,-4.82E-05,-0.001365623
1.77E+18,8.259863525,0.045730655,-0.007785466,-0.000480915,-0.000512124,0.000168784,0.000425559
1.77E+18,8.269852783,0.020587445,-0.001655512,0.008327537,-0.001398158,7.42E-05,-0.000108405
1.77E+18,8.27984082,0.030583354,-0.009034809,0.003916881,-0.00015711,6.93E-05,-0.000252017
1.77E+18,8.289829834,0.029101591,-0.008098916,-0.009842033,0.000786182,-0.000940869,0.000350124
1.77E+18,8.299817871,0.032991584,0.003098989,-0.007012071,0.000866884,-0.000740636,0.001918
1.77E+18,8.309806885,0.035078328,0.009370909,0.005008184,0.000776603,-0.000943835,0.001686572
1.77E+18,8.319794678,0.044193362,-0.000908128,-0.007802783,-0.000256322,-0.000897115,0.000421372
1.77E+18,8.329783936,0.029848026,-0.00197963,-0.002263123,-0.000783362,0.000332999,0.002448304
1.77E+18,8.339771973,0.020882629,-0.006971373,-0.001254384,0.001231894,-0.001433876,0.002199922
1.77E+18,8.349760742,0.022964111,-0.00593224,0.001319997,-8.85E-05,0.000438326,0.000948503
1.77E+18,8.359748779,0.035372342,-0.011651202,-0.006221651,-9.86E-05,-0.002182187,0.00095213
1.77E+18,8.369737793,0.023075755,-0.002788754,-0.00167144,-0.000103946,0.000902286,-0.001031126
1.77E+18,8.37972583,0.021892683,0.001937544,0.010179887,-0.001695072,0.00019653,0.001435346
1.77E+18,8.3897146,0.017446809,-0.010142332,0.009400573,0.001152646,0.001070846,0.001534948
1.77E+18,8.399702637,0.012962357,-0.003004369,0.003266601,0.000223352,-0.00136154,-0.00067013
1.77E+18,8.40969165,0.024797757,-0.001415201,-0.004637304,-0.001586,-0.006837266,-0.00296258
1.77E+18,8.419679688,0.066105919,-0.002909969,-0.016193741,-0.000191141,-0.002357015,-0.000394255
1.77E+18,8.429668701,0.02481763,-0.01233027,0.001808365,-0.000829235,0.000705887,6.19E-05
1.77E+18,8.439656494,-0.017155717,0.003794424,0.016381957,-0.000350357,-0.004921452,-0.00124366
1.77E+18,8.449645752,0.073406597,-0.010095935,-0.024314357,-0.001270745,-0.004396809,-7.29E-05
1.77E+18,8.459633789,0.041282443,-0.009920579,0.001484247,-0.000275379,-0.003498206,-0.000344805
1.77E+18,8.469622803,0.025775077,0.004721256,-0.000535276,-0.00022904,-0.004127244,0.000604079
1.77E+18,8.479610596,0.018065234,0.004243191,-0.00848565,0.001415204,-0.003146255,-0.000344762
1.77E+18,8.489599854,-0.005755203,-0.007247852,-0.000198007,-5.81E-05,0.000280168,0.000242465
1.77E+18,8.499587646,0.015518472,0.000169511,0.003075754,-0.000709461,0.001921995,9.36E-05
1.77E+18,8.50957666,0.030091187,0.001615326,0.001847089,-6.87E-05,0.002936659,-0.00192719
1.77E+18,8.519564941,0.030655251,0.000247034,0.003031331,0.000151721,0.00440308,0.00131403
1.77E+18,8.529553711,0.032106034,-0.005185586,0.000872837,-4.54E-05,0.002270155,0.000470873
1.77E+18,8.539541504,0.041472997,0.008239201,0.002249094,-2.77E-05,0.00512465,0.000964475
1.77E+18,8.549530762,0.0150982,0.001832257,0.010108283,-0.000693502,0.003668168,0.002351716
1.77E+18,8.559518799,0.0148603,-0.016425284,0.007587386,0.000656302,-1.59E-05,-0.000417665
1.77E+18,8.569507568,0.042519291,-0.006309622,-0.002940583,-0.000370347,-0.001090495,-0.000183041
1.77E+18,8.57949585,0.046085459,-0.004358634,-0.021140695,-0.001737297,-0.001075081,-0.000196315
1.77E+18,8.589484863,0.011185411,-0.008893208,-0.015610534,-0.001819056,-0.00217257,-0.000644791
1.77E+18,8.599472656,-0.005676877,-0.008807576,0.007822218,0.000794685,-0.005695314,-0.001402272
1.77E+18,8.60946167,0.017670681,0.007690774,0.004345336,0.000400271,-0.006174949,-6.40E-05
1.77E+18,8.619449707,0.034161797,0.008514365,-0.012607407,0.000677211,-0.004622763,0.001806936
1.77E+18,8.629438721,0.038868952,-0.0026473,-0.00015446,0.000409031,-0.004783085,0.003554503
1.77E+18,8.639427002,0.047167409,-0.014973405,-0.012527619,-0.000237027,-0.003715022,0.001930435
1.77E+18,8.649415527,0.045499768,-0.007092296,-0.016354338,-0.000369653,-0.001666785,0.003599438
1.77E+18,8.659403564,0.034283962,0.00222396,-0.002969517,-0.000272969,0.000414617,0.004849628
1.77E+18,8.669392822,0.031470659,-0.007685805,0.003585165,-0.000784828,-0.000176072,0.003190479
1.77E+18,8.679380859,0.024152444,-0.004339271,-0.000653495,0.000717818,-0.000237914,0.002719482
1.77E+18,8.689369629,0.036568858,-0.000145984,0.000554857,-0.00030164,-0.000675205,0.001843302
1.77E+18,8.699357422,0.03853519,-0.010629823,-0.006317805,-0.000317687,-0.001112388,-9.92E-06
1.77E+18,8.70934668,0.037831426,-0.000233736,-0.011416589,0.000837592,0.003643485,6.92E-05
1.77E+18,8.719334717,0.00573416,0.005172434,0.013124416,-0.001125838,0.002664988,0.001451483
1.77E+18,8.72932373,0.011624971,0.007170184,0.003420476,-0.001056596,-0.00022028,-0.000534436
1.77E+18,8.739311768,0.025665187,0.002301701,-0.002335311,-0.000677262,-0.000201077,0.000489705
1.77E+18,8.749300537,0.026555998,0.006834449,0.006334025,0.000280145,0.000179488,-0.000786748
1.77E+18,8.759288574,0.03402385,-0.00130458,3.52E-05,-0.000215736,0.000907461,-0.000609724
1.77E+18,8.769277832,0.050175944,0.002428835,-0.008020371,6.79E-05,-0.00011466,-0.003544261
1.77E+18,8.779265869,0.023818098,0.000604396,0.000688859,-0.001482121,0.000239699,-0.002196049
1.77E+18,8.789254639,0.017056349,-0.00022906,-0.000674246,-0.000409932,-0.00056351,-0.002911108
1.77E+18,8.799242676,0.029859132,0.005324191,-0.010285832,0.000206021,-0.001950133,-0.001279669
1.77E+18,8.809231689,0.031917233,-0.001086699,-0.00362009,8.06E-05,-0.00049658,-0.002039202
1.77E+18,8.819219727,0.02696341,-0.01371566,0.007429565,0.000371569,4.15E-05,-0.000749008
1.77E+18,8.82920874,0.02932897,0.000716478,-0.004924159,-0.000284367,-0.001400083,-0.000399336
1.77E+18,8.839196777,0.033061727,-0.004094211,-0.000924421,0.00035928,-0.000195436,0.000643058
1.77E+18,8.849185791,0.03440262,-0.003358663,0.003239713,-0.000226616,5.57E-05,-0.000288782
1.77E+18,8.859173584,0.015385785,-0.004758447,-0.004017273,-0.000869845,-0.002093883,0.000565351
1.77E+18,8.869162598,0.014452888,0.002316972,0.003648001,-0.00050659,-0.000911439,0.00092115
1.77E+18,8.879150635,0.018926234,0.003207418,-0.002104717,-0.000400342,0.000245762,-0.00013653
1.77E+18,8.889139893,0.039443537,0.007406623,-0.001436024,4.04E-05,0.000426591,0.000259748
1.77E+18,8.899127686,0.038396658,0.002347367,-0.002020254,-0.001878216,-0.000111607,-0.000148152
1.77E+18,8.909116699,0.022118893,-0.007188816,0.004494827,-0.000123991,0.001575772,0.00119488
1.77E+18,8.919104492,0.02247136,-0.02215864,-0.000303659,0.001393574,0.00193186,0.001849716
1.77E+18,8.92909375,0.022670681,0.001648279,-0.004357903,0.001467077,0.001791512,0.001052899
1.77E+18,8.939081787,0.027954175,-0.000668766,0.003206103,0.000836662,0.000404434,0.002417085
1.77E+18,8.949070801,0.036980362,-0.005565233,-0.001805004,0.000656366,0.001076349,0.002350506
1.77E+18,8.959058838,0.035364743,-0.010232567,-0.005503274,6.16E-05,-0.000112418,0.002032219
1.77E+18,8.969047607,0.018761399,-0.009795856,0.001634908,0.000277025,-0.000638392,0.001103309
1.77E+18,8.979035645,0.015919454,-0.000670885,-0.006592384,-0.000381739,0.000607809,-0.000357457
1.77E+18,8.989024902,0.019831659,-0.006934914,-0.015776538,0.000142904,6.80E-05,-0.001731647
1.77E+18,8.999012939,0.020739421,-0.012022519,0.000422025,0.002099448,0.000179113,0.000180226
1.77E+18,9.009001465,0.028524668,-0.003813202,0.002375789,-0.001289158,-0.001157793,0.001789042
1.77E+18,9.018989746,0.025523733,-0.00093582,0.002444178,-0.000880369,-0.001023682,0.001700258
1.77E+18,9.02897876,0.040311552,-8.77E-06,-0.007437164,0.000123643,-0.002465784,0.002494412
1.77E+18,9.038966797,0.046122284,0.007846695,0.003743863,0.000519418,-0.002501278,0.002676063
1.77E+18,9.048955811,0.056149173,-0.009942717,-0.002809358,-0.001208973,-0.000535865,0.002030513
1.77E+18,9.058943604,0.026511575,-0.000239508,0.000820961,0.000822809,-0.002157243,0.003111538
1.77E+18,9.068932617,0.022440964,-0.011011808,-0.006459405,0.001430809,-0.002358044,0.002683834
1.77E+18,9.078921875,0.027336335,-0.004977642,-0.005085925,0.000450236,-0.002276576,0.0020292
1.77E+18,9.088909668,0.027736733,-0.008052374,-0.006420535,0.000395375,-0.001927435,0.001477126
1.77E+18,9.098898682,0.027995676,-0.009142068,-0.006958587,-0.000608967,-0.003008281,0.001424583
1.77E+18,9.108886475,0.033750878,-0.005754472,0.004974281,-0.000722684,-0.002276977,0.001682377
1.77E+18,9.118874756,0.030814825,0.002896306,0.010887451,-0.002144801,-0.003126961,0.001516207
1.77E+18,9.12886377,0.022815058,-0.00078684,-0.010817162,-0.000559422,-0.003425768,0.001877864
1.77E+18,9.138851563,0.027840778,-0.007496347,-0.012459084,0.001001671,-0.004094862,0.001582893
1.77E+18,9.14884082,0.041838908,-0.006070552,0.013136253,0.000635753,-0.003274342,0.000807115
1.77E+18,9.158829834,0.032363808,-0.001111176,-0.000423048,0.000666663,-0.002912781,0.001938415
1.77E+18,9.168817627,0.034406127,-0.003443711,-0.008297727,0.000356138,-0.002768171,0.001045724
1.77E+18,9.178806641,0.024155367,-0.011485271,-0.008487696,-0.000823222,-0.003432958,0.001697035
1.77E+18,9.188794678,0.033980596,0.005537614,-0.004277677,0.001589868,-0.003285952,0.001985456
1.77E+18,9.198783691,0.032734979,-0.002196706,-0.008016133,0.000608347,-0.002059007,0.001691362
1.77E+18,9.208771973,0.029844519,0.002504311,-0.004796002,0.000857087,-0.002602292,0.00018135
1.77E+18,9.218760498,0.020518472,-0.006004647,-0.001534662,0.000100462,-0.001988276,9.33E-06
1.77E+18,9.228748535,0.0239011,-0.010051,-0.001468611,0.000802471,-0.002626369,0.001778734
1.77E+18,9.238737793,0.041502223,-0.007264292,0.00831687,-0.000566934,-0.002595469,0.000646336
1.77E+18,9.24872583,0.03590718,-0.013425956,0.001642945,0.000979564,-0.001607437,0.001452475
1.77E+18,9.2587146,0.018939678,-0.007813889,-0.010885405,-0.000104001,-0.002620938,0.000697947
1.77E+18,9.268702637,0.024863808,0.003438377,0.00139277,0.000988428,-0.002298696,-0.000266383
1.77E+18,9.27869165,0.035146717,-0.018262875,-0.008798077,0.000148307,-0.001743031,0.000710607
1.77E+18,9.288679688,0.024943887,-0.002005714,0.003940847,0.000618887,-0.001580046,0.000372918
1.77E+18,9.298668701,0.018327684,-0.003167524,-0.004699556,0.001464101,-0.001643101,-0.001687915
1.77E+18,9.308656738,0.026048633,0.002735855,0.003626958,0.000513353,-0.002594648,-0.000761401
1.77E+18,9.318645752,0.022843115,0.003180749,-0.011650398,-0.000103729,-0.004212617,0.001072414
1.77E+18,9.328633545,0.031448447,-0.002929916,-0.002113193,0.000111455,-0.003184105,0.001013558
1.77E+18,9.338622803,0.032588264,-0.005477043,-0.008091537,-0.001123318,-0.003512181,0.001503166
1.77E+18,9.34861084,0.022789339,-0.008027458,0.003829495,0.000837834,-0.002650382,0.000799559
1.77E+18,9.358599609,0.022131168,-0.009844664,-0.006136457,0.000232317,-0.002674159,0.001260443
1.77E+18,9.368587402,0.021657121,-0.007811331,-0.011798136,-0.000872628,-0.000238964,-0.000285788
1.77E+18,9.378576416,0.007707506,-0.002088497,0.001107669,-0.000270633,-0.000540624,-8.42E-05
1.77E+18,9.388564453,0.034008653,-0.011817571,7.34E-05,0.001304627,-0.001034108,0.000230863
1.77E+18,9.398553467,0.042806876,0.000347717,-0.013409517,0.001352673,-0.002113484,0.001662102
1.77E+18,9.408541504,0.030952772,-0.006757365,-0.002260054,0.000735352,-0.001267132,0.000874073
1.77E+18,9.418530518,0.0295733,0.001810045,0.00190145,9.10E-06,-0.003349649,0.001989115
1.77E+18,9.428518555,0.025491,-0.010717793,-0.012071984,0.000621363,-0.001444956,0.000836499
1.77E+18,9.438507324,0.022306524,-0.010587007,0.000772884,0.000546882,-0.001213464,-0.00041486
1.77E+18,9.448495361,0.016429741,-0.000496405,-0.001005816,-0.001004143,-0.001696029,-0.001288909
1.77E+18,9.458484619,0.02580781,0.000789616,-0.002654022,0.000241637,-0.001566612,-0.000639884
1.77E+18,9.468472412,0.023494273,-0.002606968,-0.004551234,-0.000616168,-0.002498452,0.001784391
1.77E+18,9.478461426,0.039139586,-0.001285656,0.004391221,-2.50E-05,-0.004465371,0.001674727
1.77E+18,9.488449463,0.05054127,-0.01207761,0.001309475,0.000497263,-0.006047289,0.001316266
1.77E+18,9.498438477,0.030541269,-0.010176745,-0.011427549,-0.000217468,-0.002746589,0.001284059
1.77E+18,9.508426514,0.029881928,-0.00401267,-0.00827873,0.000597992,-0.002705842,0.000683782
1.77E+18,9.518415771,0.020683892,-0.003857991,0.000430793,-0.000569655,-0.002597537,0.000150295
1.77E+18,9.528403564,0.024850364,-0.01775361,-0.005788959,8.42E-05,-0.000336247,0.001393458
1.77E+18,9.538392334,0.021088381,0.000365107,0.000121434,0.000122471,-0.000968867,-0.001166553
1.77E+18,9.548380371,0.029299744,-0.001496303,0.003079554,-0.00055344,-0.000920131,-0.000385981
1.77E+18,9.558369629,0.028967736,-0.01057707,0.001623948,-0.002049444,-0.001062423,-0.000197476
1.77E+18,9.568357422,0.034196284,-0.001207111,-0.012586802,-0.000664867,-0.000346832,-0.00128085
1.77E+18,9.578346191,0.026593408,-0.001916282,-0.017545301,7.97E-05,0.002814481,0.000279947
1.77E+18,9.588334473,0.024652795,-0.009466843,-0.008813421,-0.000410597,0.000111639,-0.001718489
1.77E+18,9.598323486,0.043314241,-0.002806509,-0.025042964,-0.000423199,-0.002434889,-0.003975117
1.77E+18,9.608311523,0.025543022,0.002796864,-0.01380933,0.000588802,-0.003253545,-0.003522646
1.77E+18,9.618300537,0.056758245,-0.006225231,-0.002553776,0.001151476,-0.001496963,-0.00223497
1.77E+18,9.62828833,0.0290484,-0.003703604,0.000470686,0.001251078,-0.001899633,0.00094591
1.77E+18,9.638277344,0.056111763,0.001921762,-0.007419044,8.06E-05,-0.000494483,-0.000505156
1.77E+18,9.648265625,0.035323242,-0.016077202,0.002996113,-0.001861948,0.000383028,-0.002557122
1.77E+18,9.658254395,-0.00334931,-0.004076383,0.003263532,-0.000383412,-0.00620199,-0.000213397
1.77E+18,9.668242432,0.011008885,-0.00060783,-0.01035349,0.00035162,-0.005681874,-0.000917004
1.77E+18,9.678231445,0.0355892,0.000110913,-0.001152969,3.31E-05,-0.001797654,-0.000270634
1.77E+18,9.688219482,0.011779285,0.00149433,0.009805062,0.000282101,-0.000567806,0.003082552
1.77E+18,9.698208252,0.008766075,-0.00027794,-0.011046002,0.001308852,-0.003039773,0.004039889
1.77E+18,9.708196533,0.040433133,0.002857654,-0.008405279,0.000624952,-0.00504753,0.002956249
1.77E+18,9.718185547,0.047422261,-0.010656053,-0.004086685,0.000971507,-0.001805919,0.00245734
1.77E+18,9.72817334,0.049333647,-0.000498962,-0.004741349,0.000333148,-0.00193162,0.001085812
1.77E+18,9.738162598,0.045987844,-0.006135069,-0.00807254,0.000543881,-0.002585634,-0.001847196
1.77E+18,9.748150391,0.022145196,-0.002990925,0.002272037,0.000424571,-0.000234062,-0.00134732
1.77E+18,9.758139404,0.008495441,0.003406594,-0.002743746,-0.000911492,-0.000816053,-0.003102519
1.77E+18,9.768127441,0.03820552,-0.008378245,-0.010643851,-0.001410036,-0.001015258,-0.003270564
1.77E+18,9.778116699,0.027827334,-0.007161489,-0.016484686,0.000555589,0.000524991,-0.003530138
1.77E+18,9.788104492,0.026605098,-0.004097937,0.006470657,-0.000710211,0.00140197,-0.003114951
1.77E+18,9.798093262,0.011047464,-0.011225889,0.010682868,0.000133672,0.002181166,-0.003854885
1.77E+18,9.808081543,0.008193828,-0.008434724,-0.003105273,-0.001391787,-0.000227397,-0.004244772
1.77E+18,9.818070557,0.01146189,-0.009572569,-0.003491203,-0.000359314,0.000441784,-0.003304414
1.77E+18,9.82805835,0.032402386,0.002514978,-0.004905892,-0.001108994,0.000593052,-0.001959783
1.77E+18,9.838047363,0.050507367,-0.002741188,0.000682722,-0.000238072,-0.00045544,-0.000502979
1.77E+18,9.8480354,0.043790042,-0.001439312,-0.005794365,0.00131029,0.002072965,0.000515148
1.77E+18,9.858024414,0.047578913,-0.001423384,-0.003568214,-0.001784443,0.001509933,0.001534753
1.77E+18,9.868012695,0.032806876,-0.014522519,-0.001495353,-0.000443807,0.001905679,-1.95E-05
1.77E+18,9.878001465,0.032201311,-0.008429098,-0.003269962,-0.000769111,9.20E-05,-0.001119276
1.77E+18,9.887989258,0.035649406,-0.008136399,-0.01590148,-0.00072943,0.004157043,-0.000390901
1.77E+18,9.897978516,0.030341947,-0.004912468,-0.007775456,-0.000586064,0.002219922,-0.00155718
1.77E+18,9.907966553,-0.013480244,-0.003204203,0.009908084,-0.001037203,0.000639868,-0.002507929
1.77E+18,9.917955322,0.036788639,-0.016682547,-0.014245675,-8.18E-05,0.000518451,-0.002819329
1.77E+18,9.927943115,0.045001756,0.003344853,-0.009853578,-0.000773399,0.001076916,-0.003414013
1.77E+18,9.937932373,0.044261751,0.013319866,-0.008069471,0.001622573,0.002780081,-0.001848362
1.77E+18,9.94792041,0.020928222,0.001927899,-0.000876491,9.02E-05,0.000845028,-0.00263932
1.77E+18,9.957909668,0.021188919,0.003730419,-0.006730039,-0.001535945,-0.001608735,-0.003590887
1.77E+18,9.967897461,0.032811552,-0.011365517,-0.010078326,0.000378069,-0.000648932,-0.002319494
1.77E+18,9.977886475,0.043111996,0.000583499,-0.007063947,-0.000336579,0.000318861,-0.002722431
1.77E+18,9.987874268,0.034241292,-0.013210852,-0.006059446,0.000336402,0.000249352,-0.003064114
1.77E+18,9.997863525,0.036753567,-0.006454802,-0.006412059,0.00086539,-0.000816484,-0.000265199
1.77E+18,10.00785156,0.041039282,-0.005027181,0.00044526,0.000869385,-0.001297451,-0.001132591
1.77E+18,10.01784033,0.040850481,-0.001371361,0.001069967,-0.000276177,-0.00115141,0.000440173
1.77E+18,10.02782861,0.030486324,0.00985219,0.006005378,0.00038189,-0.000730897,0.000262007
1.77E+18,10.03781738,0.030500352,0.001308745,-0.011452976,0.001361139,0.000710237,-0.000152371
1.77E+18,10.04780542,0.020473464,-0.019500089,0.001408405,0.001776859,-0.000841321,4.44E-05
1.77E+18,10.05779443,0.019715923,-0.006321166,0.006166268,0.000278198,-0.000478744,-0.000291083
1.77E+18,10.06778247,0.027955344,-0.002837342,-0.00036518,0.001090728,0.000807562,0.000946488
1.77E+18,10.07777148,0.026629648,0.00289806,-0.005112228,0.001703147,0.000208374,0.001088997
1.77E+18,10.08775952,0.021710312,-0.004334522,0.009004998,0.001748421,0.001524242,-0.00033606
1.77E+18,10.09774829,0.019061843,2.46E-05,-0.002036767,-0.000113285,0.002148973,0.00067162
1.77E+18,10.10773633,0.024819968,-0.011877704,-0.000893296,0.001223888,0.002681339,0.000422082
1.77E+18,10.11772559,0.031926586,-0.008291662,0.005378624,-0.000586598,0.003469924,0.000173372
1.77E+18,10.12771362,0.030499183,0.001183365,0.000578969,0.002126098,0.003410536,0.000187753
1.77E+18,10.13770239,0.027004911,-0.008595175,-0.001907587,-0.000326623,0.003028409,-0.000306719
1.77E+18,10.14769019,0.026332711,-0.009725787,-0.00397811,0.000899762,0.004263584,-0.000487281
1.77E+18,10.15767944,0.026448446,-0.011039938,-0.001265928,0.000858083,0.00636495,-0.001883611
1.77E+18,10.16766748,0.029265842,-0.008436258,0.011662819,-0.000485216,0.006525273,-0.000114473
1.77E+18,10.17765674,0.019997663,0.003948007,-0.008681027,0.00045292,0.007079171,0.000475019
1.77E+18,10.18764453,0.01776362,-0.012585487,-0.015572832,1.19E-05,0.006547072,0.000607911
1.77E+18,10.1976333,0.02195698,-0.009601795,0.012853344,0.000617876,0.00583106,0.000336049
1.77E+18,10.20762134,0.029726445,-0.014426585,5.79E-05,0.001708973,0.006407368,0.000969349
1.77E+18,10.2176106,0.031963995,0.000186682,-0.006890929,-0.000642784,0.007045279,0.000363313
1.77E+18,10.22759863,0.021491116,0.004285349,0.004733312,0.000150838,0.005579742,-0.000555211
1.77E+18,10.2375874,0.025824177,-0.004377411,0.001257745,0.00015877,0.007444546,0.001393858
1.77E+18,10.24757544,0.030009938,-0.010778145,0.005428893,-0.000407684,0.006102312,0.000137645
1.77E+18,10.25756445,0.01864391,-0.004487667,0.007534049,-0.000920468,0.007166319,0.000940903
1.77E+18,10.26755249,0.030592707,-0.003271058,-0.009766338,1.83E-05,0.003522316,-0.001052473
1.77E+18,10.2775415,0.037881695,-0.00263276,-0.004549188,0.000871698,0.005336025,-8.89E-05
1.77E+18,10.2875293,0.030948096,-0.007234554,-0.000769085,0.000559575,0.002426788,0.002162267
1.77E+18,10.29751831,0.032522213,0.005341872,0.001416297,0.00059475,0.002193965,0.000492521
1.77E+18,10.30750659,0.033475569,0.007690481,-0.009756986,-0.000933638,0.002056545,0.001231814
1.77E+18,10.31749536,0.02995324,0.002248948,0.001109423,-0.000435222,0.002500074,0.000595168
1.77E+18,10.3274834,0.0346715,-0.00156513,0.000339315,-0.001596626,0.003216731,-0.000512175
1.77E+18,10.33747266,0.021132804,-0.007368045,-0.004877835,-0.000638648,0.002950076,-0.000378497
1.77E+18,10.34746045,0.005775076,-0.007715981,-0.004174801,1.20E-05,0.002197466,-0.000984633
1.77E+18,10.35744946,0.023340544,-0.006890198,-0.004814268,-0.001664538,0.002921749,-0.000373193
1.77E+18,10.36743774,0.030111061,0.001570099,-0.00658084,-0.000722046,0.001398421,0.001367449
1.77E+18,10.37742676,0.033133039,0.004946809,-0.016221213,-0.000146684,0.000939389,0.000194486
1.77E+18,10.38741479,0.03333353,-0.005134586,0.01357932,-0.000189561,0.00195432,-0.000396735
1.77E+18,10.39740381,0.033956046,-0.005894538,-0.006917817,-0.001376314,0.002082043,-0.000597649
1.77E+18,10.4073916,0.025009354,0.000207578,0.01106383,-0.000748873,0.001344081,-0.000745455
1.77E+18,10.41738062,0.034915831,0.007134236,0.000575754,-0.000693679,5.52E-05,0.000828164
1.77E+18,10.42736865,0.030632454,-0.0056486,-0.00746566,-0.000316841,0.002693562,0.001077969
1.77E+18,10.43735791,0.030676878,-0.010068682,-0.002539748,-0.000241554,0.001431166,0.00043135
1.77E+18,10.4473457,0.016191256,-0.002040858,-0.006489216,0.000545676,-0.000690574,0.00014293
1.77E+18,10.45733447,0.023218963,-0.016653321,-0.003407616,-0.000165661,-0.000723682,0.001262698
1.77E+18,10.46732275,0.024998248,-0.017017186,-0.004096329,-0.001041575,0.000280329,-0.000897126
1.77E+18,10.47731177,0.038168695,0.003364581,-0.014101298,-0.000325263,-0.000256921,-0.000139099
1.77E+18,10.4872998,0.040249008,0.011741657,-0.001588584,-0.00173008,0.000430175,-0.000168127
1.77E+18,10.49728882,0.028144144,0.008139248,-0.007667758,-0.000540559,0.001322227,-0.000615066
1.77E+18,10.50727661,0.034162382,-0.007764058,-0.006148293,1.90E-05,0.002944358,-0.001942385
1.77E+18,10.51726563,0.024176994,-0.00051869,-0.01293357,0.000961285,0.001486112,-0.001681659
1.77E+18,10.52725391,0.023915129,-0.002735416,-0.008822189,-0.001072039,0.002174806,-0.000586301
1.77E+18,10.53724268,0.035462943,-0.010785379,-0.005415449,-0.000287722,0.000469923,3.82E-05
1.77E+18,10.54723047,0.036242695,-0.008757307,-0.005322218,-0.000419016,0.000321585,0.000514061
1.77E+18,10.55721973,0.028944355,-0.003421864,-0.008355156,-3.85E-05,0.002169197,0.001496374
1.77E+18,10.56720776,0.031256724,-0.000807152,0.001300415,0.000458198,0.001698084,0.002238863
1.77E+18,10.57719653,0.022480712,-0.011134777,-0.000355974,-0.001110774,0.000934788,0.000806008
1.77E+18,10.58718481,0.03717793,0.000391191,-0.007110124,-0.000596251,0.000200288,-0.002769819
1.77E+18,10.59717383,0.014492051,0.00029891,-0.004914806,-0.000653774,-0.002705352,-0.003089305
1.77E+18,10.60716162,0.053348728,-0.004805574,-0.012018501,-0.001805059,0.00171949,-0.000749718
1.77E+18,10.61715088,0.017142858,0.000496332,0.011291794,-0.000525247,-0.000719336,-0.002880891
1.77E+18,10.62713867,0.042554947,0.007867592,0.014263211,0.00014294,-3.76E-05,-0.001097904
1.77E+18,10.63712769,0.049126142,-0.008678762,-0.003352379,-5.40E-05,0.000901548,-0.001982415
1.77E+18,10.64711572,0.0239502,-0.00400076,-0.008650924,-0.000188251,-0.001401021,-0.002290809
1.77E+18,10.65710474,0.009926351,-0.002976678,-0.00392711,0.000890512,-0.003668559,-8.43E-05
1.77E+18,10.66709277,0.024038463,-0.015668986,-0.010538053,3.99E-05,-0.002899971,-0.002003951
1.77E+18,10.67708154,0.022359716,0.011163711,0.000792027,0.000730708,0.000369966,-0.001026397
1.77E+18,10.68706982,0.023718729,-0.006471315,-0.001543868,0.000834571,-0.000242828,0.001248209
1.77E+18,10.69705884,0.025491584,0.003209975,0.004632628,0.000869785,-0.001570617,-0.000591046
1.77E+18,10.70704663,0.035042087,0.000183759,-0.000122311,-0.000220514,-0.000610281,0.000480343
1.77E+18,10.71703564,0.031582887,6.18E-05,0.003262509,0.001381727,-0.000380122,-0.000187504
1.77E+18,10.72702368,0.033551556,-0.004168006,-0.008338205,-0.001370916,0.000608443,0.000300654
1.77E+18,10.7370127,0.026814357,-0.010972572,-0.013704116,-0.000329022,-4.28E-05,-0.001208849
1.77E+18,10.74700098,0.022032968,-0.006630524,-0.009570961,-0.000649933,0.000132741,-0.001103654
1.77E+18,10.7569895,0.032353287,-0.003209464,-0.005878829,-0.001274867,0.001015761,-0.002927402
1.77E+18,10.76697754,0.042359132,0.004102248,-0.014448943,-0.001112681,-0.000186123,-0.003103437
1.77E+18,10.7769668,0.033220717,-0.005145254,-0.010162205,0.000694043,0.002013224,-0.002727958
1.77E+18,10.78695483,0.012707506,-0.009227555,-0.00950491,0.000365409,3.87E-06,-0.001985469
1.77E+18,10.7969436,0.012273791,-0.006508505,0.000806348,0.000720044,0.002313229,-0.001739295
1.77E+18,10.80693164,0.024110359,-0.000246084,-0.010750234,-0.001790517,0.001425597,-0.001019975
1.77E+18,10.81692065,0.030085342,0.003300649,-0.006794336,0.000333113,0.000220929,-0.001315316
1.77E+18,10.82690869,0.031879824,-0.007407134,-0.001534662,-0.000103912,-0.000454449,0.000497231
1.77E+18,10.83689771,0.0516051,-0.013374445,-0.004322393,0.00054809,-0.000905479,-0.001466714
1.77E+18,10.84688574,0.038315994,0.001086918,-0.003036445,1.25E-05,0.001709478,0.002543207
1.77E+18,10.85687476,0.031784547,-0.010101561,0.001905687,-0.000857222,0.000995217,0.001145037
1.77E+18,10.86686255,0.027509938,0.006671002,0.010925737,0.000618169,0.001931851,0.001236118
1.77E+18,10.87685181,0.026072014,-0.004596023,-0.011309914,0.000804061,0.00217873,-0.001391066
1.77E+18,10.8868396,0.028026071,-0.007542232,-0.00400909,-0.000660678,0.001103345,-0.003392964
1.77E+18,10.89682886,0.049667994,-0.002468144,0.000748919,0.000473211,0.000451871,-0.004572176
1.77E+18,10.90681665,0.034016836,-0.023485213,-0.001160714,-0.001075418,0.00575742,-0.00106639
1.77E+18,10.91680566,0.004620061,-0.012957754,0.005678484,-0.001237122,0.003340732,-0.001888404
1.77E+18,10.9267937,0.020655835,0.003945888,0.001344985,-0.000611279,0.000264781,-0.001025007
1.77E+18,10.93678271,0.034408466,-0.008748831,-0.004855039,-0.001563868,0.001595652,-0.00220804
1.77E+18,10.94677075,0.035932899,0.000886647,0.005066636,-0.000944151,0.002173824,-0.001454898
1.77E+18,10.95675977,0.02309446,-0.001115998,-0.001446838,-0.000595018,0.002001531,-0.001542532
1.77E+18,10.9667478,0.029835166,-0.00827135,-0.003821166,-0.000101268,0.004027931,-0.004208356
1.77E+18,10.97673657,0.023883564,-0.006893924,-0.00010989,-0.001018785,0.002112425,-0.001621374
1.77E+18,10.98672461,0.02929916,-0.007874094,-0.0078361,-0.00115434,0.001620805,-0.002877854
1.77E+18,10.99671387,0.055797875,0.001328472,-0.013676497,-0.000198596,0.000841242,-0.002339776
1.77E+18,11.0067019,0.039627077,0.000318053,0.002825725,0.000479711,0.000123254,-0.001496353
1.77E+18,11.01669043,0.037861821,-0.005168489,-0.005868161,0.000881472,0.000584457,-0.000565308
1.77E+18,11.02667871,0.041752399,0.007814035,-0.011503391,0.000524342,0.000934397,-0.000415638
1.77E+18,11.03666772,0.037294835,0.00147979,-0.002722849,-0.0004497,0.001556003,0.000929283
1.77E+18,11.04665576,0.029254152,-0.006485416,0.001157207,0.001355124,0.001635898,0.000253373
1.77E+18,11.05664478,0.027651977,-0.002355112,-0.012764643,0.000419751,0.001640936,0.002484275
1.77E+18,11.06663257,0.029049569,-0.007970248,-0.001229542,-3.91E-05,0.001626821,0.0002363
1.77E+18,11.07662158,0.015173604,-0.008621698,0.008545564,-0.001262061,0.002224451,-0.001778309
1.77E+18,11.08660962,0.026118776,-0.009079671,0.010782529,-0.001115321,0.001934166,-0.00125127
1.77E+18,11.09659888,0.022982232,0.004990283,0.00398907,-0.000638408,0.000541947,-0.002022557
1.77E+18,11.10658667,0.029864392,0.005889569,0.007790654,-0.000710846,0.001209069,-0.001098973
1.77E+18,11.11657544,0.0389993,0.000960808,0.004440321,0.00018007,0.000109516,-0.001704953
1.77E+18,11.12656372,0.019991233,-0.004612535,-0.006001725,0.000526281,0.001852821,-0.000847149
1.77E+18,11.13655273,0.030190556,-0.014375366,-0.005110913,-0.000630468,0.002444003,-0.000782967
1.77E+18,11.14654077,0.036063832,0.004756693,0.010947072,-0.00102648,0.002244266,-0.00206448
1.77E+18,11.15652979,0.02324059,-0.003981106,-0.002153671,-0.001315253,0.00225258,-0.001764226
1.77E+18,11.16651758,0.02716507,-0.004007701,0.001321458,-0.0005195,0.002954856,-0.001549575
1.77E+18,11.17650659,0.030488662,-0.004128113,-0.01784823,-0.00033667,0.001193523,-0.001242921
1.77E+18,11.18649487,0.030065468,-0.000416107,0.000561726,-0.001571844,0.00155012,-0.000954501
1.77E+18,11.19648364,0.031740123,0.000149565,0.005210428,-0.001058154,0.000122824,-0.000404618
1.77E+18,11.20647168,0.023521161,0.003130407,-0.005913608,0.000398861,0.000738014,-0.002189203
1.77E+18,11.21646094,0.022338089,0.009045403,-0.00312953,-0.000416735,0.001211251,-2.15E-06
1.77E+18,11.22644873,0.015021044,-0.009881196,0.008483312,0.000329749,0.001818185,-0.000189103
1.77E+18,11.2364375,0.019678514,-0.009319325,-0.004115326,-0.001265311,0.000906406,-0.002445598
1.77E+18,11.24642578,0.040341363,-0.006043664,-0.005805033,-0.000175812,0.002286456,-0.001446113
1.77E+18,11.25641479,0.041717327,0.008470672,0.004993717,-0.000263445,0.001031473,-0.002026821
1.77E+18,11.26640259,0.028104981,-0.006595234,-0.002684709,-0.001183301,0.000710562,-0.00181004
1.77E+18,11.27639185,0.030196401,-0.004638473,-0.008613515,-0.001086053,0.000997431,-0.001311993
1.77E+18,11.28638062,0.027070378,-0.002901713,-0.003127192,-0.000392033,0.000723658,-0.000220363
1.77E+18,11.29636865,0.032472529,-0.01165069,0.001007862,-0.000912726,0.000759484,-0.001360742
1.77E+18,11.30635669,0.036956396,-0.000416399,-0.000741612,0.000476645,-0.000364103,-0.000499209
1.77E+18,11.31634595,0.038296121,-0.004890402,0.005434592,0.000272669,0.001469354,-0.000731387
1.77E+18,11.32633374,0.015569325,-0.001483224,-0.003422376,-0.001559054,7.54E-06,-0.000511677
1.77E+18,11.33632251,0.037859483,0.000870134,-2.16E-05,0.000864656,-0.000360093,0.00033776
1.77E+18,11.34631079,0.028134208,-0.008120105,-0.010048662,3.06E-05,-0.000100967,0.000382501
1.77E+18,11.35629956,0.029321956,-0.00619564,8.17E-05,-0.000460432,-0.000390912,0.00105251
1.77E+18,11.3662876,0.027073885,-0.00636442,-0.009364771,-0.000623684,-0.000310218,0.001468762
1.77E+18,11.37627661,0.038133039,0.000896584,-0.002267507,-0.000169681,-0.000571632,0.000864133
1.77E+18,11.38626563,0.022545594,3.13E-05,-0.002203063,0.000580798,0.000134372,-0.000653336
1.77E+18,11.39625366,0.031648353,-0.004526172,-0.00046864,0.000572708,-0.000740563,-0.002136809
1.77E+18,11.4062417,0.024160628,-0.007698884,-0.014420155,0.001613472,-9.37E-05,0.001201197
1.77E+18,11.41623047,0.043178632,-0.00093202,-0.011870178,0.000324724,-0.000541908,0.001271814
1.77E+18,11.42621851,0.024494974,0.00386632,-0.005863924,0.000465605,-0.000180517,0.001311761
1.77E+18,11.43620776,0.036315176,-0.00269998,0.000359773,-9.60E-05,-0.001905364,0.001850196
1.77E+18,11.4461958,0.039736967,-0.005043109,-0.006642068,-0.000438443,-0.002434268,0.001883486
1.77E+18,11.45618457,0.043746787,-0.016871274,-0.008173077,8.16E-05,-0.001694479,0.001261673
1.77E+18,11.46617236,0.034444706,-0.007515563,-0.004556348,-0.000338629,-0.001841752,0.001397228
1.77E+18,11.47616162,0.028296705,-0.004899901,-0.001644991,0.000837217,-0.001030435,0.000967769
1.77E+18,11.48615063,0.030690906,-0.011455314,-0.002746814,0.000272361,0.000496355,0.000727552
1.77E+18,11.49613867,0.032514615,-0.008719824,0.000458557,-0.002599977,0.000986099,0.002631562
1.77E+18,11.50612646,0.019527707,-0.007930282,-0.008143851,0.000965729,0.000239349,0.000335119
1.77E+18,11.51611548,0.018040684,0.001637757,0.005953794,-0.000417939,-0.000304018,-0.000849251
1.77E+18,11.52610474,0.018612346,-0.009715119,-0.00117372,0.000774891,-0.001155697,2.88E-05
1.77E+18,11.53609277,0.029802433,-0.00929061,-0.015524901,0.001449335,-0.002144397,-0.001363462
1.77E+18,11.54608154,0.048928574,0.000479381,-0.021213907,0.000926556,-0.001873021,0.000623789
1.77E+18,11.55606958,0.040401568,0.00101568,-0.003273469,-0.000403718,0.000690621,0.001113341
1.77E+18,11.56605859,0.0178437,-0.008213117,-0.008647271,-0.000187202,0.001184371,-0.000789488
1.77E+18,11.57604663,0.021156185,-0.006799378,-0.000159282,0.00103237,-0.000263651,-0.001830456
1.77E+18,11.5860354,0.022094927,-0.006540654,-0.004059505,-0.000436364,-0.004363321,-0.002125002
1.77E+18,11.59602368,0.061962827,-0.013144436,-0.019598873,0.000373758,-0.000122296,-0.000510996
1.77E+18,11.60601172,0.015151976,-0.002832447,0.010121143,-0.000176185,0.000623921,-0.001228452
1.77E+18,11.61600049,0.026431495,0.002644085,0.001123889,-0.000394318,-0.005074456,-0.001085224
1.77E+18,11.6259895,0.086207042,-0.009268544,-0.019662293,-0.000701914,-0.00126081,-0.000287607
1.77E+18,11.63597754,0.044135494,-0.021459041,0.014400135,-0.001804984,-0.001132509,0.001341724
1.77E+18,11.64596655,0.00158347,-0.008687091,-0.008149843,-0.000617214,-0.0034444,0.001069283
1.77E+18,11.65595483,0.010503858,-0.006714841,-0.008725743,-0.000146474,-0.002458178,0.000788349
1.77E+18,11.6659436,0.000448913,-0.008036957,0.009126433,0.000958206,0.000639877,-0.000634578
1.77E+18,11.6759314,0.00691314,0.003826499,0.001629355,0.000439647,0.002614154,-0.001742176
1.77E+18,11.68592065,0.036132805,0.004792787,-0.008359686,0.001175479,0.003405379,-0.001419668
1.77E+18,11.69590869,0.043661447,0.006830869,-0.002603022,0.000311033,0.001983324,-0.001420941
1.77E+18,11.70589771,0.030078327,-0.006562939,-0.002438479,-0.00190525,0.002085323,0.000136476
1.77E+18,11.71588574,0.029361704,-0.008284356,0.000106383,0.000158503,0.0025991,0.000903603
1.77E+18,11.72587451,0.028970074,0.005340265,-0.008410539,0.003184387,0.000903466,0.001806681
1.77E+18,11.73586255,0.017319384,-0.005787643,0.000923691,0.000923699,-0.00091472,-0.001088625
1.77E+18,11.74585181,0.038524669,-0.001742533,-0.001123451,0.000789742,-0.0012849,-0.00330837
1.77E+18,11.75583984,0.043839142,-0.007148045,-0.021033436,-0.000529247,-0.002224767,-0.003235284
1.77E+18,11.76582861,0.0195242,-0.01094488,-0.007453385,0.000403925,-0.001616235,-0.002166558
1.77E+18,11.77581641,0.024390345,-0.004798632,-0.011553075,0.000310958,-0.00154461,-0.002403753
1.77E+18,11.78580469,0.025077158,0.000694047,-0.010848142,-0.001924234,-0.00171452,0.000467933
1.77E+18,11.7957937,0.033728082,-0.01421623,-0.001208645,0.000281208,-0.000735464,-0.0022246
1.77E+18,11.80578247,0.047158057,-0.010471929,-0.00622735,-0.000133979,-0.001005242,-0.00053083
1.77E+18,11.81577075,0.03441548,-0.007551146,0.013318039,0.001411837,-0.000354609,0.00046573
1.77E+18,11.82575952,0.033522915,-0.012537629,-0.007180998,-1.77E-06,-0.000126376,0.000131769
1.77E+18,11.83574756,0.033844986,0.000235343,-0.018507132,-8.18E-05,0.001109006,0.001035503
1.77E+18,11.84573657,0.037940147,0.000173968,-0.006711919,0.000469766,0.001823532,0.0029876
1.77E+18,11.85572461,0.035160161,0.006729162,0.003570552,-0.000523362,0.002062669,0.003279414
1.77E+18,11.86571362,0.030738837,-0.006711115,0.004167057,0.001378668,0.002548164,0.003401653
1.77E+18,11.87570166,0.043836804,-0.007708017,-0.005209405,-8.28E-05,0.001805822,0.001233627
1.77E+18,11.88569067,0.029055414,-0.00464315,-0.003766951,-0.001531813,0.000455334,-0.000659081
1.77E+18,11.89567847,0.037174423,-0.008486746,-0.006290478,0.000602184,0.004723409,3.71E-05
1.77E+18,11.90566772,0.010808979,-0.013680808,0.010205752,0.000297784,0.004365747,0.001302626
1.77E+18,11.91565576,0.007141104,-0.004824717,0.012380904,-0.000524537,0.001750683,0.000160387
1.77E+18,11.92564453,0.043240591,-0.007177563,0.002068038,8.03E-05,0.001397814,-0.001370664
1.77E+18,11.93563281,0.027236382,-0.004441124,-0.009559709,0.000563881,0.000262769,0.00055477
1.77E+18,11.94562158,0.033054713,0.000887304,-0.005399521,-0.001078757,-0.000491438,-0.001647664
1.77E+18,11.95560962,0.042024201,-0.011840222,-0.012258009,-6.78E-05,0.001295642,-0.001877087
1.77E+18,11.96559888,0.025740006,-0.008553309,-0.006407237,-0.00045933,0.001065012,-0.000900506
1.77E+18,11.97558667,0.03099252,0.004252251,-0.00301774,-0.001010522,0.000117962,-0.000846853
1.77E+18,11.98557544,0.036836569,0.003383432,0.002261077,0.000404149,0.001430101,0.001838412
1.77E+18,11.99556348,0.042996261,-0.00404175,-0.002469751,-0.001248972,5.57E-05,0.000673098
1.77E+18,12.00555273,0.029697219,-0.006540508,-4.84E-05,0.00128689,-0.000248144,0.001766858
1.77E+18,12.01554077,0.043168111,0.002912453,-0.009814999,0.000495388,0.000856289,0.000899553
1.77E+18,12.02552979,0.040488078,0.006624825,-0.008789894,0.001832028,-0.001130695,0.002170413
1.77E+18,12.03551758,0.004715338,-0.010024989,-0.002773264,-0.000290081,-0.001689159,0.001039667
1.77E+18,12.04550659,0.005718962,-0.007925313,0.009265549,0.000347479,-0.001834035,0.001629823
1.77E+18,12.05549463,0.02469605,-0.01850874,0.001932722,0.00083299,-0.002493877,0.001260458
1.77E+18,12.06548364,0.032265024,-0.018376272,-0.001307575,0.000405818,-0.002596409,0.000621566
1.77E+18,12.07547144,0.030266543,0.00760463,-0.008122955,0.000479806,-0.002717623,0.000651645
1.77E+18,12.08546045,0.029596681,-0.003139029,0.003374153,0.00167956,-0.003978896,0.001418635
1.77E+18,12.09544873,0.039103345,-0.005106529,-0.019416502,0.00096565,-0.003679529,0.001140058
1.77E+18,12.1054375,0.034408466,-0.007702756,-0.002510375,0.000496667,-0.003032647,0.000892651
1.77E+18,12.11542554,0.036470074,-0.002040128,-0.007953005,-4.01E-05,-0.00149845,0.002705254
1.77E+18,12.12541479,0.023389059,-0.013997326,-0.006605682,0.000505083,-0.002619641,-0.000206912
1.77E+18,12.13540259,0.021375381,-0.013623159,-0.003160071,0.000636942,-0.002222077,0.000694534
1.77E+18,12.1453916,0.040778585,-0.013016499,-0.002218553,0.000274752,-0.002632737,0.002793105
1.77E+18,12.15537964,0.018739772,-0.01215674,-0.010541268,0.001466324,-0.002506275,0.000284742
1.77E+18,12.16536865,0.025572833,-0.014797683,-0.015265666,-0.000249018,-0.003276462,0.001261057
1.77E+18,12.17535669,0.034506665,-0.004618161,-0.003529051,-0.000257758,-0.002338276,0.000619618
1.77E+18,12.1853457,0.039413726,-0.015044936,0.005734744,-0.000820484,-0.002365707,0.002371711
1.77E+18,12.19533374,0.030976738,-0.010371756,-0.011593261,-0.000606069,-0.003277476,0.001517545
1.77E+18,12.20532251,0.021336218,-0.006488777,-0.010710048,0.000773981,-0.005131302,0.002003306
1.77E+18,12.21531055,0.017537995,-0.003620382,-0.004702186,0.000594629,-0.003475349,0.002494052
1.77E+18,12.2252998,0.017466099,-0.009897782,-0.005340777,-0.000355587,-0.002497703,-2.98E-05
1.77E+18,12.2352876,0.020558804,0.007052476,0.002052402,-0.00075916,-0.002400231,0.000711026
1.77E+18,12.24527637,0.037290158,-0.003983151,-0.003489888,7.31E-05,-0.001538432,0.00086762
1.77E+18,12.25526465,0.03604162,0.000212035,-0.017818565,-2.32E-05,-0.002461447,0.00171826
1.77E+18,12.26525366,0.023594811,-0.003753507,-0.010772885,0.000820472,-0.000694973,0.000101988
1.77E+18,12.2752417,0.033903439,-0.005441314,-0.011749767,0.001091749,-0.00127087,-0.000564264
1.77E+18,12.28523047,0.017246903,-0.009400719,-0.015937428,-0.000499756,-0.001740119,-0.000967999
1.77E+18,12.29521851,0.016775778,-0.014984511,-0.005267711,-0.00020241,-0.00106796,-0.000113653
1.77E+18,12.30520752,0.017365561,-0.009234277,-0.007584025,0.000778432,-0.001821368,0.001850428
1.77E+18,12.3151958,0.034855625,-0.005848726,-0.005195815,0.00058767,-0.001916262,0.001093391
1.77E+18,12.32518457,0.030927053,-0.00674414,0.001775193,0.000626286,-0.002660349,-9.25E-05
1.77E+18,12.33517236,0.039407297,-0.007635244,-0.001317658,0.001376826,-0.002732316,0.002439886
1.77E+18,12.34516162,0.025031565,-0.003213409,-0.001750643,-0.001047982,-0.000740271,0.002080359
1.77E+18,12.35514966,0.029227264,-0.006750497,0.000775514,0.000412091,-0.001130328,0.001114845
1.77E+18,12.36513892,0.023672552,0.00098375,0.000832944,0.00034711,-0.002538075,0.000917771
1.77E+18,12.3751272,0.011966332,-0.014848171,-0.009165011,0.000880026,-0.000609231,-1.20E-07
1.77E+18,12.38511597,0.02214052,-0.006395035,-0.005311404,0.000318898,-0.000571414,0.000875527
1.77E+18,12.395104,0.025593875,-0.000148907,0.012077976,-1.55E-05,0.001766574,0.000982796
1.77E+18,12.40509326,0.020368834,0.008827084,-0.002241641,0.000485478,-0.00039032,0.000348964
1.77E+18,12.41508105,0.027853637,0.005905425,-0.002263269,0.000347964,-0.001436808,0.001198545
1.77E+18,12.42507007,0.039493806,-0.007567074,-0.015257044,0.000131715,0.000371745,-0.000174848
1.77E+18,12.43505811,0.043090369,-0.003697759,-0.008213848,4.12E-05,0.000669691,-0.000685052
1.77E+18,12.44504712,0.033258711,-0.002084843,-0.000722031,-0.0005306,0.002498218,0.000652387
1.77E+18,12.45503516,0.013552725,-0.007895137,-0.011307868,0.000362385,0.00234873,-0.000730618
1.77E+18,12.46502417,0.035880292,-0.006206453,-0.002035597,-0.000252805,0.000551362,-0.000705052
1.77E+18,12.47501221,0.025597383,0.002405673,-0.010883213,0.00053075,-0.004720135,-0.002609014
1.77E+18,12.48500122,0.052609308,-0.010784721,-0.020990035,0.000982955,0.001373178,-0.001166912
1.77E+18,12.49498901,0.017307693,-0.017860139,0.002087035,0.000846951,-0.000773379,5.15E-05
1.77E+18,12.50497803,0.008099135,0.007874606,0.003418722,0.000165181,-0.003695666,0.001196974
1.77E+18,12.51496606,0.070723057,-0.005988061,-0.020040187,0.001672201,-0.001608061,-0.001438344
1.77E+18,12.52495508,0.046152095,-0.020884967,-0.00636179,-0.00113557,-0.001259187,-0.000609302
1.77E+18,12.53494312,0.014934534,-0.002773264,-0.003428513,0.00033761,-0.004522451,-0.001022064
1.77E+18,12.54493188,0.008689502,-0.019698095,-0.000805033,0.001258265,-0.003155983,-0.001232454
1.77E+18,12.55491992,0.025109891,-0.016145591,-0.006813333,-0.000854961,0.001089107,-0.000584727
1.77E+18,12.56490918,0.008051205,-0.002811185,-0.001567542,-0.000687448,0.000265125,0.001144197
1.77E+18,12.57489722,0.028551556,-0.010347645,5.38E-05,8.88E-05,-0.0009465,0.001414396
1.77E+18,12.58488599,0.030791444,0.0015625,-0.006040449,1.98E-05,9.05E-05,0.001785641
1.77E+18,12.59487402,0.037103696,-0.015947949,-0.009890257,0.00100837,0.000980995,0.001109484
1.77E+18,12.60486304,0.04175123,-0.011759484,-0.015839666,-0.000823885,-5.10E-05,0.001122534
1.77E+18,12.61485107,0.025163667,-0.009258754,-0.005746142,0.000463354,0.000589294,0.001361101
1.77E+18,12.62484033,0.036558337,-0.007593597,-0.014032325,0.000542184,0.000944027,-0.000705246
1.77E+18,12.63482813,0.027132922,-0.015543314,-0.005290069,-0.000254761,-0.001349679,-0.003402125
1.77E+18,12.64481689,0.036951136,-0.008115648,-0.016185265,0.000469086,-0.002101223,-0.002349909
1.77E+18,12.65480518,0.038094461,-0.008824892,-0.009879881,0.000662258,-0.001022974,-0.000356841
1.77E+18,12.66479419,0.032962358,-0.007854878,-0.008972996,-0.000361194,-0.001880779,-0.000816769
1.77E+18,12.67478223,0.016477672,-0.00685593,0.001300123,-0.001901822,-0.001500532,-0.000829104
1.77E+18,12.68477124,0.022122984,-0.001811799,-0.007792115,-0.000396603,-0.002045414,0.000285961
1.77E+18,12.69475903,0.018505963,-0.002127952,0.000331278,0.00051491,-0.000320082,0.000948331
1.77E+18,12.70474805,0.037853638,-0.006794263,-0.001070113,2.52E-05,0.000350768,0.002448756
1.77E+18,12.71473608,0.049859717,-0.012621362,-0.005930705,-0.001093307,0.00055036,0.001361707
