time,seconds_elapsed,z,y,x
1769666925171296000,0.0642958984375,0.19107408821582794,-0.2292504906654358,-0.25523388385772705
1769666925181284000,0.0742841796875,0.1849123239517212,-0.21959839761257172,-0.25353479385375977
1769666925191273200,0.084273193359375,0.18625296652317047,-0.20909994840621948,-0.2544812858104706
1769666925201261300,0.09426123046875,0.18495520949363708,-0.21509046852588654,-0.25450658798217773
1769666925211250400,0.10425048828125,0.18667134642601013,-0.21400895714759827,-0.2649938464164734
1769666925221238000,0.114238037109375,0.21120864152908325,-0.21651260554790497,-0.2894483208656311
1769666925231227100,0.12422705078125,0.21652059257030487,-0.20595715939998627,-0.29854515194892883
1769666925241215200,0.13421533203125,0.22860760986804962,-0.202799454331398,-0.30785104632377625
1769666925251204400,0.144204345703125,0.24299347400665283,-0.18228298425674438,-0.3345867693424225
1769666925261192400,0.1541923828125,0.24653653800487518,-0.17619793117046356,-0.3658283054828644
1769666925271181000,0.16418115234375,0.24403636157512665,-0.15947167575359344,-0.4027370512485504
1769666925281169200,0.174169189453125,0.22871972620487213,-0.17722085118293762,-0.4478755295276642
1769666925291158300,0.184158203125,0.22738362848758698,-0.25227510929107666,-0.49600550532341003
1769666925301146400,0.194146484375,0.21525904536247253,-0.3030243217945099,-0.5497755408287048
1769666925311135200,0.20413525390625,0.1985969841480255,-0.36958256363868713,-0.5742059946060181
1769666925321123000,0.214123046875,0.18180735409259796,-0.4165138602256775,-0.6147060394287109
1769666925331112200,0.2241123046875,0.16273725032806396,-0.42882806062698364,-0.6774634122848511
1769666925341100300,0.234100341796875,0.1550777405500412,-0.47871145606040955,-0.7560898065567017
1769666925351089200,0.244089111328125,0.14755110442638397,-0.5206434726715088,-0.8161845803260803
1769666925361077200,0.2540771484375,0.13410773873329163,-0.5474367141723633,-0.8712374567985535
1769666925371066000,0.264066162109375,0.11955862492322922,-0.5849984884262085,-0.9351234436035156
1769666925381054200,0.27405419921875,0.11244425177574158,-0.6458716988563538,-1.011896014213562
1769666925391043000,0.28404296875,0.11104848980903625,-0.7115481495857239,-1.0747830867767334
1769666925401031200,0.29403125,0.12233763188123703,-0.7321237325668335,-1.1346275806427002
1769666925411020300,0.304020263671875,0.06435661762952805,-0.6826280951499939,-1.232986569404602
1769666925421008100,0.314008056640625,0.037463217973709106,-0.7533946633338928,-1.3568822145462036
1769666925430997200,0.323997314453125,0.022825952619314194,-0.8657228350639343,-1.428765892982483
1769666925440985000,0.333985107421875,0.015746738761663437,-0.9830800890922546,-1.4748218059539795
1769666925450974200,0.34397412109375,0.055147942155599594,-1.086466908454895,-1.496655821800232
1769666925460962000,0.353962158203125,0.10607130825519562,-1.1285408735275269,-1.553669810295105
1769666925470951200,0.363951171875,0.1419190615415573,-0.9853453636169434,-1.6317731142044067
1769666925480939300,0.373939208984375,0.17536595463752747,-0.6698095202445984,-1.6670799255371094
1769666925490928000,0.38392822265625,0.23434725403785706,-0.5294585227966309,-1.6750375032424927
1769666925500916200,0.393916259765625,0.27467525005340576,-0.4996441602706909,-1.7064521312713623
1769666925510905000,0.403905029296875,0.2951488196849823,-0.37992948293685913,-1.7794877290725708
1769666925520893200,0.41389306640625,0.3112526834011078,-0.2990460991859436,-1.8511366844177246
1769666925530882000,0.423882080078125,0.31612148880958557,-0.34297654032707214,-1.8723691701889038
1769666925540870100,0.4338701171875,0.320271760225296,-0.31434303522109985,-1.893640398979187
1769666925550859300,0.443859375,0.2785986065864563,-0.21477781236171722,-1.8956849575042725
1769666925560847000,0.45384716796875,0.2425045222043991,-0.20007343590259552,-1.8588669300079346
1769666925570836000,0.4638359375,0.2291727364063263,-0.2560237944126129,-1.8289610147476196
1769666925580824000,0.473823974609375,0.21233303844928741,-0.2285037487745285,-1.9152722358703613
1769666925590813200,0.483813232421875,0.26440873742103577,-0.3462311923503876,-2.1574859619140625
1769666925600801300,0.49380126953125,0.23546205461025238,-0.4393866956233978,-2.18619441986084
1769666925610790000,0.503789794921875,0.25931811332702637,-0.5373337864875793,-2.1342389583587646
1769666925620778000,0.513778076171875,0.25707653164863586,-0.31545916199684143,-2.173841953277588
1769666925630767000,0.52376708984375,0.2683211863040924,-0.1607382893562317,-2.19901180267334
1769666925640755200,0.533755126953125,0.26584526896476746,0.048894040286540985,-2.127269983291626
1769666925650744300,0.543744384765625,0.20353767275810242,0.520110011100769,-2.0138449668884277
1769666925660732000,0.55373193359375,0.03849412873387337,1.6181390285491943,-2.187439203262329
1769666925670721000,0.563720947265625,-0.13734720647335052,2.424129009246826,-2.1683967113494873
1769666925680709000,0.573709228515625,-0.32528966665267944,2.539099931716919,-1.8050354719161987
1769666925690698200,0.5836982421875,-0.4876959025859833,2.222255229949951,-1.3712602853775024
1769666925700686300,0.593686279296875,-0.4761577546596527,1.5169693231582642,-0.8809614181518555
1769666925710675200,0.60367529296875,-0.37911856174468994,0.8744060397148132,-0.4059658944606781
1769666925720663000,0.6136630859375,-0.3144082725048065,0.602517306804657,-0.05314071476459503
1769666925730652200,0.623652099609375,-0.1899678111076355,0.4797532856464386,0.056590575724840164
1769666925740640300,0.63364013671875,0.0201052688062191,0.6748820543289185,-0.06722510606050491
1769666925750629000,0.643629150390625,0.2747117280960083,1.059950590133667,-0.3042062222957611
1769666925760617000,0.653616943359375,0.39816123247146606,1.3181076049804688,-0.46420708298683167
1769666925770606000,0.663606201171875,0.3432210087776184,1.6909842491149902,-0.4668436050415039
1769666925780594200,0.67359423828125,0.2864658534526825,1.974472999572754,-0.5230738520622253
1769666925790583000,0.6835830078125,0.24105682969093323,2.2099337577819824,-0.6896295547485352
1769666925800571100,0.693571044921875,0.2354772388935089,1.8026007413864136,-0.7338763475418091
1769666925810560300,0.703560302734375,0.12647804617881775,1.7822043895721436,-0.5997334718704224
1769666925820548000,0.713548095703125,0.07165501266717911,1.6153699159622192,-0.3870984613895416
1769666925830537000,0.723536865234375,0.034390464425086975,1.2825953960418701,-0.19003252685070038
1769666925840525000,0.733525146484375,0.00820946041494608,1.0554847717285156,-0.08363737165927887
1769666925850514200,0.74351416015625,-0.01076929084956646,1.0050653219223022,-0.07524548470973969
1769666925860502300,0.753502197265625,0.01444258913397789,1.006213903427124,-0.15763810276985168
1769666925870491100,0.7634912109375,0.043896086513996124,1.0663824081420898,-0.21523161232471466
1769666925880479000,0.77347900390625,0.05726994574069977,1.064732551574707,-0.2568853199481964
1769666925890468000,0.783468017578125,0.06474650651216507,0.9759331941604614,-0.31607115268707275
1769666925900456200,0.793456298828125,0.036506880074739456,0.9061762690544128,-0.27295243740081787
1769666925910445300,0.8034453125,0.0032682311721146107,0.8079172968864441,-0.19397826492786407
1769666925920433200,0.81343310546875,-0.024224113672971725,0.7245973944664001,-0.17682430148124695
1769666925930422000,0.823422119140625,-0.03725868836045265,0.6474461555480957,-0.12989194691181183
1769666925940410000,0.83341015625,-0.021737786009907722,0.5230640172958374,-0.1392415165901184
1769666925950399200,0.843399169921875,-0.009107211604714394,0.43860000371932983,-0.16211353242397308
1769666925960387300,0.85338720703125,-0.0010151970200240612,0.3645145893096924,-0.13460947573184967
1769666925970376000,0.8633759765625,0.015750734135508537,0.3029247224330902,-0.0778103768825531
1769666925980364000,0.873364013671875,0.012495817616581917,0.24183127284049988,-0.07774300128221512
1769666925990353200,0.883353271484375,0.01158688124269247,0.2565918266773224,-0.10574906319379807
1769666926000341200,0.89334130859375,0.0024173513520509005,0.2002260386943817,-0.12110405415296555
1769666926010330000,0.903330078125,0.005612345412373543,0.19988328218460083,-0.13652774691581726
1769666926020319200,0.9133193359375,-0.0007499461644329131,0.20653825998306274,-0.11767097562551498
1769666926030307000,0.92330712890625,0.0014572817599400878,0.19572103023529053,-0.12032002210617065
1769666926040296200,0.933296142578125,-0.0018197379540652037,0.16251514852046967,-0.10885271430015564
1769666926050284000,0.943283935546875,-0.004101534374058247,0.11548371613025665,-0.07559143006801605
1769666926060273200,0.953273193359375,-0.008161789737641811,0.08850323408842087,-0.0412030965089798
1769666926070261200,0.96326123046875,-0.008077100850641727,0.059659600257873535,-0.05890033394098282
1769666926080250000,0.97325,-0.005557218100875616,0.0797148048877716,-0.07427769154310226
1769666926090238200,0.98323828125,-0.00279099284671247,0.06883925199508667,-0.058889150619506836
1769666926100227000,0.99322705078125,-0.009558351710438728,0.05949981138110161,-0.06684108078479767
1769666926110215200,1.003215087890625,-0.007742075715214014,0.0673191174864769,-0.07563004642724991
1769666926120204300,1.013204345703125,-0.016220515593886375,0.06124311685562134,-0.08383578062057495
1769666926130192100,1.023192138671875,-0.02449415810406208,0.045994389802217484,-0.09618325531482697
1769666926140181000,1.033180908203125,-0.027534155175089836,0.046671099960803986,-0.10340308398008347
1769666926150169000,1.043169189453125,-0.03424239158630371,0.04026326537132263,-0.08730454742908478
1769666926160158200,1.053158203125,-0.033603232353925705,0.03894659876823425,-0.08446508646011353
1769666926170146300,1.063146240234375,-0.030408505350351334,0.03440910577774048,-0.08296066522598267
1769666926180135000,1.073135009765625,-0.02635437622666359,0.04424229636788368,-0.08851495385169983
1769666926190123000,1.083123046875,-0.020684238523244858,0.05619483068585396,-0.09442450851202011
1769666926200112000,1.093112060546875,-0.02063177525997162,0.057140249758958817,-0.08364296704530716
1769666926210100200,1.103100341796875,-0.013406885787844658,0.04656697064638138,-0.07982771843671799
1769666926220089000,1.113089111328125,-0.007842742837965488,0.021756427362561226,-0.05602918192744255
1769666926230077000,1.123076904296875,0.001603222917765379,-0.0029166939202696085,-0.02226109616458416
1769666926240066000,1.133066162109375,0.008392952382564545,-0.01920485310256481,0.007619303651154041
1769666926250054100,1.14305419921875,0.009376989677548409,-0.031372569501399994,0.03620647266507149
1769666926260043300,1.153043212890625,0.012414325028657913,-0.04400074854493141,0.07149868458509445
1769666926270031000,1.163031005859375,0.015480688773095608,-0.047388020902872086,0.09560322016477585
1769666926280020200,1.173020263671875,0.02442358434200287,-0.05181952193379402,0.1072968989610672
1769666926290008000,1.183008056640625,0.02654239535331726,-0.058577027171850204,0.10438472777605057
1769666926299997200,1.1929970703125,0.027303526178002357,-0.05962258204817772,0.0891418606042862
1769666926309985300,1.2029853515625,0.026815634220838547,-0.06138266623020172,0.062484949827194214
1769666926319974100,1.21297412109375,0.025015603750944138,-0.05426030978560448,0.03877243027091026
1769666926329962000,1.2229619140625,0.027150128036737442,-0.045765891671180725,0.007868043147027493
1769666926339951000,1.232951171875,0.022310631349682808,-0.04085768386721611,-0.013176522217690945
1769666926349939200,1.242939208984375,0.016697220504283905,-0.04207102209329605,-0.013880395330488682
1769666926359928000,1.252927978515625,0.01014185044914484,-0.03500112518668175,-0.00947845634073019
1769666926369916200,1.262916259765625,0.007296528667211533,-0.018134795129299164,-0.011630291119217873
1769666926379905300,1.2729052734375,0.0015550197567790747,-0.0037641117814928293,-0.012711001560091972
1769666926389893000,1.28289306640625,0.0007946872501634061,0.009721336886286736,-0.016680443659424782
1769666926399882000,1.292882080078125,0.002722017001360655,0.023505592718720436,-0.02653893269598484
1769666926409870000,1.3028701171875,0.003796336008235812,0.03753672167658806,-0.03760356828570366
1769666926419859200,1.312859130859375,0.006333529483526945,0.05179581791162491,-0.04536215588450432
1769666926429847300,1.322847412109375,0.009348760358989239,0.06054696813225746,-0.05446883291006088
1769666926439836000,1.3328359375,0.01581438258290291,0.05705902352929115,-0.05607285723090172
1769666926449824000,1.342823974609375,0.018381670117378235,0.04532833397388458,-0.05185893550515175
1769666926459813000,1.352813232421875,0.020263193175196648,0.03446796163916588,-0.055266186594963074
1769666926469801200,1.36280126953125,0.02473144605755806,0.02767264097929001,-0.058394599705934525
1769666926479790300,1.372790283203125,0.027418307960033417,0.024036893621087074,-0.06288468837738037
1769666926489778000,1.38277783203125,0.031087610870599747,0.017465276643633842,-0.06536222994327545
1769666926499767000,1.39276708984375,0.027763454243540764,0.008075769990682602,-0.06949225813150406
1769666926509755100,1.402755126953125,0.0290572177618742,0.007654990069568157,-0.07463375478982925
1769666926519744300,1.412744140625,0.00848403200507164,-0.009462477639317513,-0.057367950677871704
1769666926529732400,1.422732421875,0.00640889722853899,0.003239469137042761,-0.056719470769166946
1769666926539721000,1.432720947265625,-0.0005632585380226374,0.025123195722699165,-0.06324262171983719
1769666926549709000,1.442708984375,-0.004351338837295771,0.05380517616868019,-0.07653232663869858
1769666926559698200,1.4526982421875,-0.00811917893588543,0.08080083876848221,-0.08496682345867157
1769666926569686300,1.462686279296875,-0.0080350236967206,0.0922098234295845,-0.08754369616508484
1769666926579675100,1.472675048828125,-0.006431001238524914,0.0991380363702774,-0.08498599380254745
1769666926589663000,1.4826630859375,0.0013733921805396676,0.11336784064769745,-0.07634750008583069
1769666926599652000,1.492652099609375,0.00048070057528093457,0.11180775612592697,-0.074399933218956
1769666926609640200,1.50264013671875,-0.002216548891738057,0.1163439229130745,-0.0767698809504509
1769666926619629000,1.512629150390625,-0.000007989483492565341,0.1108522117137909,-0.06666184961795807
1769666926629617200,1.5226171875,0.0023790018167346716,0.10170638561248779,-0.052078645676374435
1769666926639606300,1.532606201171875,0.005015531089156866,0.1089419275522232,-0.060689181089401245
1769666926649594000,1.542593994140625,0.011049188673496246,0.11458729952573776,-0.07066112011671066
1769666926659583000,1.5525830078125,0.001368598430417478,0.11369194090366364,-0.06018850579857826
1769666926669571000,1.562571044921875,0.006286924239248037,0.15034370124340057,-0.0977310836315155
1769666926679560200,1.572560302734375,-0.0012522183824330568,0.1453540027141571,-0.09705304354429245
1769666926689548000,1.582548095703125,-0.00009161273919744417,0.15389688313007355,-0.09880433976650238
1769666926699537200,1.592537109375,-0.0006072007236070931,0.17112620174884796,-0.11833969503641129
1769666926709525000,1.60252490234375,-0.0004324973560869694,0.1842057853937149,-0.11624671518802643
1769666926719514000,1.61251416015625,0.0027624969370663166,0.19914399087429047,-0.1373397558927536
1769666926729502200,1.622502197265625,0.004285026341676712,0.22590263187885284,-0.1584349125623703
1769666926739491300,1.6324912109375,0.0032024511601775885,0.25196966528892517,-0.17032167315483093
1769666926749479200,1.642479248046875,0.002846386516466737,0.27247679233551025,-0.1776677370071411
1769666926759468000,1.652468017578125,0.003683950752019882,0.28576624393463135,-0.19539879262447357
1769666926769456000,1.6624560546875,-0.002427471335977316,0.2823334336280823,-0.20056505501270294
1769666926779445200,1.6724453125,-0.007262174040079117,0.28933992981910706,-0.19821880757808685
1769666926789433300,1.682433349609375,-0.00791358295828104,0.29344332218170166,-0.19173482060432434
1769666926799422000,1.692421875,-0.015028750523924828,0.2954385578632355,-0.18618878722190857
1769666926809410000,1.70241015625,-0.01949859969317913,0.2814481854438782,-0.1771382987499237
1769666926819399200,1.712399169921875,-0.01979714073240757,0.25627386569976807,-0.15768390893936157
1769666926829387300,1.72238720703125,-0.021201426163315773,0.23814864456653595,-0.1506933718919754
1769666926839376100,1.732376220703125,-0.018997659906744957,0.21176551282405853,-0.14576226472854614
1769666926849364000,1.742364013671875,-0.021191038191318512,0.20198531448841095,-0.15019935369491577
1769666926859353000,1.75235302734375,-0.021495705470442772,0.19135265052318573,-0.15172001719474792
1769666926869341200,1.762341064453125,-0.02070048451423645,0.17815536260604858,-0.14969389140605927
1769666926879330000,1.772330078125,-0.018446385860443115,0.17922034859657288,-0.1429038941860199
1769666926889318100,1.782318115234375,-0.0175185389816761,0.1743510365486145,-0.13956615328788757
1769666926899307000,1.79230712890625,-0.018278073519468307,0.16582545638084412,-0.13790620863437653
1769666926909295000,1.802295166015625,-0.01683623716235161,0.1550694704055786,-0.1372060626745224
1769666926919284200,1.8122841796875,-0.014208762906491756,0.15254826843738556,-0.14302612841129303
1769666926929272000,1.82227197265625,-0.010365289635956287,0.15724048018455505,-0.14101198315620422
1769666926939261200,1.83226123046875,-0.014404505491256714,0.16751256585121155,-0.13915149867534637
1769666926949249000,1.8422490234375,-0.015322230756282806,0.17864404618740082,-0.14500539004802704
1769666926959238100,1.852238037109375,-0.01017007976770401,0.18279537558555603,-0.148949533700943
1769666926969226200,1.862226318359375,-0.009438242763280869,0.19743983447551727,-0.14733032882213593
1769666926979215000,1.872215087890625,-0.012345083057880402,0.19821348786354065,-0.14080984890460968
1769666926989203200,1.882203125,-0.017906827852129936,0.19145464897155762,-0.1339183896780014
1769666926999192300,1.8921923828125,-0.01793931983411312,0.18579623103141785,-0.12459865212440491
1769666927009180200,1.90218017578125,-0.018012821674346924,0.17938654124736786,-0.12192617356777191
1769666927019169000,1.9121689453125,-0.0160633884370327,0.17142900824546814,-0.11432977020740509
1769666927029157000,1.9221572265625,-0.01842241734266281,0.16001176834106445,-0.09864135831594467
1769666927039146200,1.932146240234375,-0.020673852413892746,0.1500568687915802,-0.088390052318573
1769666927049134000,1.942134033203125,-0.017135843634605408,0.140001580119133,-0.08440250158309937
1769666927059123000,1.952123046875,-0.017677264288067818,0.13335326313972473,-0.07202093303203583
1769666927069111000,1.962111083984375,-0.01774970255792141,0.12687112390995026,-0.052014466375112534
1769666927079100200,1.97210009765625,-0.016210928559303284,0.12423992902040482,-0.036195822060108185
1769666927089088300,1.982088134765625,-0.015573899261653423,0.12152829766273499,-0.025437716394662857
1769666927099077000,1.9920771484375,-0.011928298510611057,0.11308766901493073,-0.021166272461414337
1769666927109065000,2.00206494140625,-0.01025769766420126,0.1074119433760643,-0.016150740906596184
1769666927119054000,2.01205419921875,-0.011778095737099648,0.09568311274051666,-0.01441276166588068
1769666927129042200,2.022042236328125,-0.010117881931364536,0.08315747231245041,-0.01407746970653534
1769666927139031300,2.03203125,-0.011415107175707817,0.08213188499212265,-0.023844612762331963
1769666927149019100,2.04201904296875,-0.013881194405257702,0.09228066354990005,-0.03050651028752327
1769666927159008000,2.052008056640625,-0.01654036156833172,0.10565585643053055,-0.043904341757297516
1769666927168996000,2.06199609375,-0.017476195469498634,0.11715405434370041,-0.055100537836551666
1769666927178985200,2.071985107421875,-0.019241871312260628,0.1134040579199791,-0.04964318498969078
1769666927188973300,2.081973388671875,-0.0190139040350914,0.10720261931419373,-0.04783303663134575
1769666927198962200,2.091962158203125,-0.016865532845258713,0.11022184789180756,-0.05065625160932541
1769666927208950000,2.101949951171875,-0.016281235963106155,0.11682435125112534,-0.05290050059556961
1769666927218939100,2.111939208984375,-0.015557920560240746,0.11495188623666763,-0.054609447717666626
1769666927228927200,2.12192724609375,-0.017061807215213776,0.12486257404088974,-0.06390441209077835
1769666927238916000,2.131916015625,-0.015686018392443657,0.13005360960960388,-0.06877480447292328
1769666927248904200,2.141904296875,-0.014607438817620277,0.13253088295459747,-0.07709904760122299
1769666927258893000,2.15189306640625,-0.013099290430545807,0.1283494532108307,-0.08694395422935486
1769666927268881200,2.161881103515625,-0.014208762906491756,0.11558172106742859,-0.09042204171419144
1769666927278870000,2.1718701171875,-0.012970127165317535,0.10055962949991226,-0.0883018970489502
1769666927288858000,2.181858154296875,-0.013158146291971207,0.09346789866685867,-0.0792255774140358
1769666927298847200,2.19184716796875,-0.012981312349438667,0.08407732844352722,-0.07640635967254639
1769666927308835000,2.2018349609375,-0.011244132183492184,0.08814370632171631,-0.07375518232584
1769666927318824000,2.211823974609375,-0.008954346179962158,0.08737511932849884,-0.07819866389036179
1769666927328812000,2.22181201171875,-0.006748716346919537,0.093060702085495,-0.08595272153615952
1769666927338801200,2.23180126953125,-0.005640575196594,0.09355898201465607,-0.09591241180896759
1769666927348789200,2.241789306640625,-0.003949201665818691,0.07904155552387238,-0.0963454470038414
1769666927358778000,2.251778076171875,-0.0014761901693418622,0.06447646021842957,-0.09297521412372589
1769666927368766000,2.261765869140625,0.0015510249650105834,0.04838510975241661,-0.09360611438751221
1769666927378755000,2.271755126953125,0.002829608740285039,0.028731513768434525,-0.08832506835460663
1769666927388743200,2.2817431640625,0.0017686053179204464,0.02244538813829422,-0.0937882736325264
1769666927398732300,2.291732177734375,0.002369148191064596,0.021829664707183838,-0.09328626841306686
1769666927408720100,2.30172021484375,0.0036751623265445232,0.02383555844426155,-0.08871734887361526
1769666927418709000,2.311708984375,0.0035209653433412313,0.013413277454674244,-0.0761144757270813
1769666927428697000,2.321697021484375,0.0051505533047020435,-0.00028522455249913037,-0.06312570720911026
1769666927438686200,2.331686279296875,0.005732720717787743,-0.0067657604813575745,-0.05043521150946617
1769666927448674300,2.34167431640625,0.0054877097718417645,-0.00935994554311037,-0.03355689346790314
1769666927458663200,2.3516630859375,0.003594202222302556,-0.007248591631650925,-0.028119785711169243
1769666927468651300,2.3616513671875,0.003824033075943589,0.0008349010022357106,-0.025913622230291367
1769666927478640400,2.371640380859375,0.00016192019393201917,0.005642439238727093,-0.018933743238449097
1769666927488628500,2.38162841796875,0.0019065570086240768,0.016284963116049767,-0.01745915226638317
1769666927498617300,2.391617431640625,-0.0009824400767683983,0.02605929784476757,-0.021644042804837227
1769666927508605200,2.401605224609375,0.0010974886827170849,0.0335606224834919,-0.02412823960185051
1769666927518594300,2.41159423828125,-0.0009185242815874517,0.03321867436170578,-0.03334011510014534
1769666927528582400,2.42158251953125,-0.0024437166284769773,0.030294522643089294,-0.04452965036034584
1769666927538571300,2.4315712890625,-0.0023302659392356873,0.03139866888523102,-0.05609336122870445
1769666927548559400,2.441559326171875,-0.0017158746486529708,0.03147749975323677,-0.06648261845111847
1769666927558548500,2.451548583984375,-0.0023616913240402937,0.030485205352306366,-0.07571526616811752
1769666927568536300,2.461536376953125,-0.001499359728768468,0.02803429774940014,-0.08159339427947998
1769666927578525200,2.471525146484375,-0.0030916635878384113,0.033835992217063904,-0.08947555720806122
1769666927588513300,2.48151318359375,-0.0015030881622806191,0.033432524651288986,-0.08148873597383499
1769666927598502400,2.49150244140625,0.0017907095607370138,0.029455360025167465,-0.07810358703136444
1769666927608490200,2.501490234375,0.005074386950582266,0.02424754947423935,-0.0784229040145874
1769666927618479400,2.511479248046875,0.0073569826781749725,0.015178420580923557,-0.06556516140699387
1769666927628468200,2.52146826171875,0.008973787538707256,0.009846505708992481,-0.04599225893616676
1769666927638456300,2.531456298828125,0.0070802802219986916,0.009110940620303154,-0.031327828764915466
1769666927648445400,2.541445556640625,0.006887467112392187,0.014156032353639603,-0.021646972745656967
1769666927658433500,2.55143359375,0.004924184642732143,0.019816048443317413,-0.016224775463342667
1769666927668422100,2.561422119140625,0.005859753116965294,0.024767132475972176,-0.004762264434248209
1769666927678410200,2.57141015625,0.005163336638361216,0.02322995476424694,0.006876814644783735
1769666927688399400,2.5813994140625,0.005874134600162506,0.02196442149579525,0.008196410723030567
1769666927698387500,2.591387451171875,0.006441920530050993,0.019785422831773758,0.009937318973243237
1769666927708376300,2.601376220703125,0.0037819549906998873,0.015467372722923756,0.00652714166790247
1769666927718364200,2.6113642578125,0.0029177593532949686,0.011682755313813686,0.006827545817941427
1769666927728353300,2.621353271484375,0.0025923210196197033,0.01173468679189682,0.009708020836114883
1769666927738341400,2.63134130859375,0.0016708672046661377,0.011935755610466003,0.013010873459279537
1769666927748330200,2.641330322265625,0.0019478360190987587,0.011699799448251724,0.010836668312549591
1769666927758318300,2.651318359375,0.00041305628838017583,0.008860070258378983,0.010843592695891857
1769666927768307500,2.661307373046875,-0.00007909588020993397,0.007282414007931948,0.009093896485865116
1769666927778295300,2.67129541015625,-0.00034887410583905876,0.011364507488906384,0.009274724870920181
1769666927788284400,2.681284423828125,-0.0009179916232824326,0.006384662352502346,0.008989233523607254
1769666927798272300,2.691272216796875,0.0007938882918097079,0.00663420045748353,0.004881574306637049
1769666927808261400,2.701261474609375,-0.0014658038271591067,0.005539641249924898,-0.005268531385809183
1769666927818249200,2.711249267578125,-0.00025273399660363793,0.003781422507017851,-0.013259879313409328
1769666927828238300,2.72123828125,0.0009502158500254154,0.00339126936160028,-0.02016465738415718
1769666927838226400,2.731226318359375,0.002130262553691864,0.0023433153983205557,-0.021228855475783348
1769666927848215300,2.74121533203125,0.00130894361063838,0.00014381069922819734,-0.02075854130089283
1769666927858203400,2.751203369140625,0.00281975488178432,0.001306280493736267,-0.02171754650771618
1769666927868192500,2.761192626953125,0.002441585995256901,0.005360410548746586,-0.027307787910103798
1769666927878180400,2.771180419921875,0.002639192622154951,0.011108577251434326,-0.028721394017338753
1769666927888169200,2.781169189453125,0.0014037522487342358,0.007968444377183914,-0.024984978139400482
1769666927898157300,2.7911572265625,0.0007776430575177073,0.002630936913192272,-0.022049907594919205
1769666927908146400,2.801146484375,0.0026200178544968367,-0.0020029633305966854,-0.01890178583562374
1769666927918134500,2.811134521484375,0.003315103007480502,-0.00820919405668974,-0.018552379682660103
1769666927928123100,2.821123046875,0.0018690064316615462,-0.009555421769618988,-0.017613081261515617
1769666927938111200,2.831111328125,0.00010173275222769007,-0.008766593411564827,-0.011770106852054596
1769666927948100400,2.841100341796875,0.001913481275551021,-0.003111104713752866,-0.009284844622015953
1769666927958088400,2.85108837890625,-0.0009246495319530368,-0.0034264230635017157,-0.007180415093898773
1769666927968077300,2.861077392578125,-0.000004793690095539205,-0.0003765709698200226,-0.00515801040455699
1769666927978065200,2.871065185546875,0.0016447682864964008,0.0025121597573161125,-0.006000368390232325
1769666927988054300,2.88105419921875,0.0020695424173027277,0.0039044604636728764,-0.006155630573630333
1769666927998042400,2.89104248046875,0.0005313006113283336,0.007782022934406996,-0.009630522690713406
1769666928008031500,2.901031494140625,0.0011803129455074668,0.010373544879257679,-0.007542338687926531
1769666928018019300,2.911019287109375,-0.000021837920940015465,0.011866779066622257,-0.003919107839465141
1769666928028008200,2.92100830078125,-0.00009667274571256712,0.010151970200240612,-0.00038056570338085294
1769666928037996300,2.930996337890625,-0.0001131843455368653,0.0046549392864108086,0.006476008798927069
1769666928047985400,2.9409853515625,0.001979261403903365,-0.008260859176516533,0.02118118479847908
1769666928057973500,2.950973388671875,0.003879160387441516,-0.015349927358329296,0.028904618695378304
1769666928067962400,2.96096240234375,0.0031281490810215473,-0.01883547380566597,0.032695360481739044
1769666928077950200,2.9709501953125,0.003995274193584919,-0.01618562825024128,0.03526824340224266
1769666928087939300,2.980939208984375,0.004425108432769775,-0.009476060047745705,0.029983997344970703
1769666928097927400,2.990927490234375,0.002724680118262768,-0.0024825986474752426,0.023867782205343246
1769666928107916300,3.000916259765625,-0.00008122641156660393,-0.0044077979400753975,0.031385887414216995
1769666928117904400,3.010904296875,-0.0008080030675046146,-0.0033065807074308395,0.03729916736483574
1769666928127893500,3.0208935546875,-0.0013249226612970233,-0.00440966198220849,0.03700435534119606
1769666928137881300,3.03088134765625,-0.001505751279182732,-0.006334861274808645,0.03527862951159477
1769666928147870200,3.0408701171875,-0.0014977618120610714,-0.0006591323763132095,0.030181072652339935
1769666928157858300,3.0508583984375,-0.006537261418998241,0.006030195392668247,0.01786661520600319
1769666928167847400,3.060847412109375,-0.0039007319137454033,0.01483567152172327,0.01028379611670971
1769666928177835300,3.070835205078125,-0.0055063520558178425,0.01967569999396801,0.0025779400020837784
1769666928187824000,3.08082421875,-0.0068091703578829765,0.020108463242650032,-0.002010686555877328
1769666928197812200,3.090812255859375,-0.00455666845664382,0.015918511897325516,-0.004962267819792032
1769666928207801300,3.10080126953125,-0.004101800732314587,0.009621202014386654,-0.008626244962215424
1769666928217789400,3.11078955078125,-0.003367034485563636,0.006601177155971527,-0.013875069096684456
1769666928227778600,3.120778564453125,-0.0033539850264787674,0.006906642112880945,-0.020615529268980026
1769666928237766100,3.13076611328125,-0.005381715949624777,0.008130097761750221,-0.02503211610019207
1769666928247755300,3.14075537109375,-0.003953995183110237,0.005204349290579557,-0.024388963356614113
1769666928257743400,3.150743408203125,-0.003498328384011984,-0.0015875103417783976,-0.022056033834815025
1769666928267732500,3.160732421875,-0.002177134156227112,-0.008652344346046448,-0.020959876477718353
1769666928277720600,3.170720458984375,-0.00373082235455513,-0.018751583993434906,-0.01938568241894245
1769666928287709200,3.180709228515625,-0.0014650048688054085,-0.024691497907042503,-0.007364439312368631
1769666928297697300,3.190697265625,0.000604004948399961,-0.030596258118748665,-0.0057351174764335155
1769666928307686400,3.200686279296875,0.000598145998083055,-0.036192357540130615,-0.00538411270827055
1769666928317674500,3.210674560546875,0.0015925703337416053,-0.03278830647468567,-0.004563060123473406
1769666928327663400,3.220663330078125,-0.0010626012226566672,-0.032998163253068924,-0.00941826868802309
1769666928337651200,3.230651123046875,-0.0004689826746471226,-0.03307832404971123,-0.008145544677972794
1769666928347640300,3.240640380859375,-0.000011185276889591478,-0.029869215562939644,-0.00842544250190258
1769666928357628400,3.25062841796875,-0.0005512743373401463,-0.028078239411115646,-0.0065473816357553005
1769666928367617300,3.2606171875,-0.0014628743520006537,-0.0254579558968544,-0.007850466296076775
1769666928377605400,3.27060546875,-0.0010926949325948954,-0.02660098485648632,-0.008894159458577633
1769666928387594200,3.28059423828125,-0.0008098672842606902,-0.023820910602808,-0.007547398563474417
1769666928397582300,3.290582275390625,0.0005299690528772771,-0.024346617981791496,-0.006994792725890875
1769666928407571200,3.3005712890625,0.002234392100945115,-0.029825007542967796,0.0008135957177728415
1769666928417560300,3.310560302734375,0.0013177321525290608,-0.02473464049398899,0.004822185728698969
1769666928427548400,3.32054833984375,0.0028386632911860943,-0.030976824462413788,0.00854155607521534
1769666928437536300,3.330536376953125,0.003769438248127699,-0.032403212040662766,0.01570812240242958
1769666928447525400,3.340525390625,0.0005254416610114276,-0.03377740457653999,0.02256123535335064
1769666928457513500,3.350513427734375,0.0037087181117385626,-0.0420028455555439,0.026880616322159767
1769666928467501300,3.360501220703125,0.004456533584743738,-0.053342849016189575,0.03638517111539841
1769666928477490400,3.370490478515625,0.0017417073249816895,-0.054058440029621124,0.04683168604969978
1769666928487478500,3.380478515625,0.0030099046416580677,-0.05011270195245743,0.043721381574869156
1769666928497467400,3.39046728515625,0.0021811288315802813,-0.043175701051950455,0.040279779583215714
1769666928507455200,3.400455322265625,0.0008085357258096337,-0.04225078225135803,0.03970799967646599
1769666928517444400,3.4104443359375,0.0022021678742021322,-0.042695000767707825,0.03819851949810982
1769666928527432400,3.420432373046875,-0.0001691107318038121,-0.04474776238203049,0.03916364908218384
1769666928537421600,3.430421630859375,-0.0006253102328628302,-0.04731371998786926,0.04448464512825012
1769666928547409400,3.440409423828125,0.0005097290268167853,-0.05059819668531418,0.04579891264438629
1769666928557398500,3.4503984375,-0.003344397759065032,-0.049497779458761215,0.04373389855027199
1769666928567386400,3.460386474609375,-0.004551075864583254,-0.04165849834680557,0.03899959847331047
1769666928577375500,3.47037548828125,-0.005693039391189814,-0.046786412596702576,0.04249073565006256
1769666928587363600,3.480363525390625,-0.0054573495872318745,-0.057145845144987106,0.04976515844464302
1769666928597352400,3.4903525390625,-0.006959904916584492,-0.06338616460561752,0.05090632289648056
1769666928607340500,3.500340576171875,-0.003978230059146881,-0.06121222302317619,0.03981905058026314
1769666928617329400,3.510329345703125,-0.00609357887879014,-0.05536019429564476,0.03657612204551697
1769666928627317500,3.5203173828125,-0.003176884725689888,-0.04878964275121689,0.031186414882540703
1769666928637306400,3.530306396484375,-0.005331382155418396,-0.04427771642804146,0.028722191229462624
1769666928647294500,3.54029443359375,-0.0033097765408456326,-0.039449937641620636,0.022523950785398483
1769666928657283600,3.55028369140625,-0.0014407701091840863,-0.029864154756069183,0.008266718126833439
1769666928667271400,3.560271484375,0.0001179780374513939,-0.024814801290631294,0.005320196971297264
1769666928677260300,3.57026025390625,0.0014255901332944632,-0.02526993677020073,0.004312456585466862
1769666928687248400,3.580248291015625,0.00185036426410079,-0.023069100454449654,0.0013856426812708378
1769666928697237500,3.590237548828125,0.0029784792568534613,-0.024503478780388832,-0.0014895059866830707
1769666928707225600,3.6002255859375,0.004261856433004141,-0.022096512839198112,-0.002514290390536189
1769666928717214500,3.61021435546875,0.004628307651728392,-0.015510249882936478,-0.006299174856394529
1769666928727202300,3.620202392578125,0.004769987892359495,-0.011236675083637238,-0.010251305997371674
1769666928737191400,3.63019140625,0.002954510971903801,-0.008177235722541809,-0.0189643707126379
1769666928747179500,3.640179443359375,0.0031273500062525272,-0.006915164180099964,-0.020671989768743515
1769666928757168600,3.650168701171875,0.002650910522788763,-0.0062821307219564915,-0.020608872175216675
1769666928767156500,3.660156494140625,0.003424026072025299,-0.0017963021527975798,-0.014083595015108585
1769666928777145300,3.670145263671875,0.003531884169206023,0.0006466155173256993,-0.01582263968884945
1769666928787133400,3.680133544921875,0.0033910030033439398,0.0018615495646372437,-0.017404289916157722
1769666928797122600,3.69012255859375,0.00484429020434618,0.0028847360517829657,-0.014370150864124298
1769666928807110700,3.700110595703125,0.0030602384358644485,0.0055180699564516544,-0.014635934494435787
1769666928817099500,3.710099609375,0.002665557898581028,0.004756405483931303,-0.013601296581327915
1769666928827087400,3.72008740234375,0.004166249185800552,0.006640592124313116,-0.013160010799765587
1769666928837076500,3.730076416015625,0.0019004317000508308,0.006825149059295654,-0.009078183211386204
1769666928847064600,3.740064697265625,0.0031933963764458895,0.004430434666574001,-0.0028964539524167776
1769666928857053400,3.750053466796875,0.004622182343155146,0.004661597311496735,0.0010463559301570058
1769666928867041300,3.760041259765625,0.004567853640764952,0.008202536031603813,0.00014381069922819734
1769666928877030400,3.770030517578125,0.006179332733154297,0.009892311878502369,-0.003993942867964506
1769666928887018500,3.7800185546875,0.004722317215055227,0.006389988586306572,-0.00011211907985853031
1769666928897007400,3.79000732421875,0.004768922459334135,0.0032945964485406876,0.004732703324407339
1769666928906995500,3.799995361328125,0.003363838652148843,-0.0008109325426630676,0.003141731023788452
1769666928916984600,3.809984619140625,0.0018034926615655422,-0.0011739213950932026,-0.002237854292616248
1769666928926972400,3.819972412109375,0.0010524812387302518,0.0009142631897702813,-0.006937534548342228
1769666928936961500,3.82996142578125,0.0023299995809793472,0.002092179376631975,-0.006235259119421244
1769666928946949400,3.839949462890625,0.0023425165563821793,0.002098304685205221,-0.00606428412720561
1769666928956938500,3.8499384765625,0.004002731293439865,-0.0013664679136127234,-0.0023281353060156107
1769666928966926600,3.859926513671875,0.00264744833111763,-0.0005512743373401463,0.002013882389292121
1769666928976915500,3.86991552734375,0.00407516909763217,0.0009600695921108127,0.0008833705214783549
1769666928986903600,3.879903564453125,0.005351622123271227,-0.0001246359315700829,0.0006183860241435468
1769666928996892400,3.889892333984375,0.005306614562869072,0.0022775353863835335,0.003973170183598995
1769666929006880500,3.899880615234375,0.005031510256230831,0.00646775308996439,0.003970240708440542
1769666929016869600,3.90986962890625,0.005507417023181915,0.004877046681940556,-0.00105354655534029
1769666929026857500,3.919857421875,0.006478405557572842,0.005156146362423897,-0.005508748814463615
1769666929036846300,3.929846435546875,0.005212072748690844,0.007297860458493233,-0.010696586221456528
1769666929046834400,3.93983447265625,0.00395745737478137,0.003139067906886339,-0.010009224526584148
1769666929056823600,3.949823486328125,0.005143363028764725,0.0007014766451902688,-0.008724515326321125
1769666929066811600,3.959811767578125,0.004490888677537441,-0.0037681066896766424,-0.006223541218787432
1769666929076800300,3.96980029296875,0.004202468320727348,-0.0057383133098483086,0.0023574302904307842
1769666929086788400,3.979788330078125,0.004772651009261608,-0.005181712564080954,0.005077582783997059
1769666929096777500,3.989777587890625,0.004576642066240311,-0.00355798308737576,0.008168447762727737
1769666929106765600,3.999765625,0.0046751792542636395,-0.0036543896421790123,0.007725830189883709
1769666929116754400,4.00975439453125,0.004293282050639391,-0.003784085623919964,0.0060150157660245895
1769666929126742300,4.0197421875,0.0035686357878148556,-0.0022626216523349285,0.00020186760229989886
1769666929136731400,4.0297314453125,0.0032120386604219675,-0.002721750643104315,-0.0015195996966212988
1769666929146719500,4.039719482421875,0.002787530655041337,-0.0020154803059995174,-0.004574511665850878
1769666929156708400,4.049708251953125,0.0019715381786227226,-0.0014817827614024282,-0.0038280277512967587
1769666929166696400,4.059696533203125,0.0020746025256812572,-0.00247567449696362,-0.005519401282072067
1769666929176685600,4.069685546875,0.001141963410191238,-0.0008263788768090308,-0.007364439312368631
1769666929186674400,4.07967431640625,0.00026019083452410996,-0.0009153284481726587,-0.008568188175559044
1769666929196662500,4.08966259765625,0.0016817862633615732,0.0014852449530735612,-0.005609150044620037
1769666929206651400,4.0996513671875,0.0016231966437771916,0.0005137237603776157,-0.004324440844357014
1769666929216639500,4.109639404296875,0.00040772996726445854,0.003858920419588685,-0.002630137838423252
1769666929226628600,4.119628662109375,0.0011685950448736548,-0.001374723738990724,-0.002996056107804179
1769666929236616400,4.129616455078125,0.0025925873778760433,-0.005150021053850651,-0.004715392831712961
1769666929246605300,4.139605224609375,0.0014335796004161239,-0.00945129245519638,-0.00009640643111197278
1769666929256593400,4.149593505859375,0.0023523701820522547,-0.01206678245216608,0.0022889869287610054
1769666929266582500,4.15958251953125,0.002121207769960165,-0.013675332069396973,0.007653925102204084
1769666929276570600,4.169570556640625,0.0018839201657101512,-0.01751720905303955,0.004860801622271538
1769666929286559200,4.179559326171875,0.0017899106023833156,-0.017103619873523712,0.0026162895374000072
1769666929296547300,4.18954736328125,0.0005869606975466013,-0.01841895468533039,0.0004021373169962317
1769666929306536400,4.199536376953125,-0.00004447478931979276,-0.018694858998060226,-0.004321511369198561
1769666929316524500,4.209524658203125,0.00042743736412376165,-0.019095396623015404,-0.008694421499967575
1769666929326513400,4.219513427734375,0.000037017940485384315,-0.018460499122738838,-0.010655573569238186
1769666929336501200,4.229501220703125,0.000046339002437889576,-0.016409866511821747,-0.012351474724709988
1769666929346490400,4.239490478515625,0.0009587379754520953,-0.012768259271979332,-0.01564474031329155
1769666929356478500,4.249478515625,0.0007621967233717442,-0.01284389290958643,-0.014827415347099304
1769666929366467600,4.259467529296875,0.0009262474486604333,-0.011745605617761612,-0.020494356751441956
1769666929376455400,4.269455322265625,0.0015374429058283567,-0.009939449839293957,-0.024217721074819565
1769666929386444500,4.279444580078125,0.0019057580502703786,-0.011788482777774334,-0.021674402058124542
1769666929396432400,4.289432373046875,0.0032344090286642313,-0.012320581823587418,-0.016981380060315132
1769666929406421500,4.29942138671875,0.004462392535060644,-0.012945625931024551,-0.015787752345204353
1769666929416409600,4.30940966796875,0.0023872575256973505,-0.014507037587463856,-0.012770922854542732
1769666929426398500,4.3193984375,0.0032565132714807987,-0.013006346300244331,-0.008935438469052315
1769666929436386300,4.32938623046875,0.0034165694378316402,-0.011801266111433506,-0.005940979812294245
1769666929446375400,4.33937548828125,0.003939081449061632,-0.008376440964639187,-0.004041346721351147
1769666929456363500,4.349363525390625,0.0037406759802252054,-0.005275722127407789,-0.0034077810123562813
1769666929466352600,4.3593525390625,0.004682635888457298,-0.002043443499132991,0.0005757753970101476
1769666929476340500,4.369340576171875,0.004537760280072689,-0.001555818715132773,-0.0014136058744043112
1769666929486329600,4.37932958984375,0.0032892702147364616,0.0015486282063648105,-0.005997438915073872
1769666929496317700,4.389317626953125,0.0032053806353360415,0.006901581771671772,-0.00797430332750082
1769666929506306600,4.399306640625,0.0027896612882614136,0.007047789636999369,-0.008500809781253338
1769666929516294700,4.409294677734375,0.005219529382884502,0.008629441261291504,-0.004159857518970966
1769666929526283800,4.41928369140625,0.004021373111754656,0.00930082332342863,-0.005623797420412302
1769666929536271600,4.429271728515625,0.004866926930844784,0.008352206088602543,-0.004270378965884447
1769666929546260500,4.439260498046875,0.004328702110797167,0.007190534844994545,-0.004926847759634256
1769666929556248600,4.44924853515625,0.0030652983114123344,0.009417736902832985,-0.006569485645741224
1769666929566237700,4.45923779296875,0.005090632475912571,0.009499229490756989,-0.004777977243065834
1769666929576225500,4.4692255859375,0.0038160434924066067,0.006075202953070402,-0.0020426444243639708
1769666929586214700,4.479214599609375,0.0051739891059696674,0.003829359309747815,0.00032197617110796273
1769666929596202500,4.489202392578125,0.006471215281635523,0.006825948134064674,0.001639441936276853
1769666929606191600,4.499191650390625,0.005689843557775021,0.008164186961948872,0.0007150587625801563
1769666929616179700,4.5091796875,0.006132461130619049,0.008286159485578537,0.00020106865849811584
1769666929626168800,4.5191689453125,0.005603291094303131,0.004746552091091871,0.00030360036180354655
1769666929636156700,4.52915673828125,0.0059625511057674885,-0.002566754585132003,0.003179814200848341
1769666929646145500,4.5391455078125,0.004369448404759169,-0.007907990366220474,0.003596332622691989
1769666929656133600,4.549133544921875,0.005185707006603479,-0.0017694041598588228,0.003959321416914463
1769666929666122800,4.559122802734375,0.002292981604114175,-0.006306897848844528,0.002501773415133357
1769666929676110800,4.56911083984375,0.0022770026698708534,-0.007675496395677328,0.0008490157779306173
1769666929686099500,4.579099365234375,0.0022450448013842106,-0.005282646510750055,-0.0010223875287920237
1769666929696087600,4.589087646484375,0.00034940673504024744,-0.008050203323364258,-0.00044048685231246054
1769666929706076700,4.59907666015625,0.0014540859265252948,-0.011422297917306423,-0.0018756643403321505
1769666929716064800,4.609064697265625,0.0006207828409969807,-0.006560963578522205,-0.005185174755752087
1769666929726053600,4.6190537109375,0.0006322344415821135,-0.0047031426802277565,-0.007255516014993191
1769666929736041500,4.62904150390625,0.00180908537004143,-0.007238471880555153,-0.007935686968266964
1769666929746030600,4.639030517578125,0.000740625080652535,-0.008168447762727737,-0.010356767103075981
1769666929756018700,4.649018798828125,0.0020607539918273687,-0.009977000765502453,-0.009214004501700401
1769666929766007600,4.659007568359375,0.003070092061534524,-0.012389558367431164,-0.008217183873057365
1769666929775995600,4.66899560546875,0.0029313412960618734,-0.01306094042956829,-0.0048799761570990086
1769666929785984500,4.678984619140625,0.0027545075863599777,-0.012998090125620365,-0.005106877535581589
1769666929795972600,4.68897265625,0.0015355786308646202,-0.012095012702047825,-0.009206281043589115
1769666929805961700,4.698961669921875,0.0010301107540726662,-0.01474512368440628,-0.010724549181759357
1769666929815949600,4.708949462890625,0.0032413334120064974,-0.01281513087451458,-0.008404936641454697
1769666929825938700,4.718938720703125,0.0033329459838569164,-0.013284379616379738,-0.0038373488932847977
1769666929835926500,4.728926513671875,0.003367034485563636,-0.012133095413446426,-0.00039068571641109884
1769666929845915600,4.73891552734375,0.002569684060290456,-0.007289072033017874,-0.002633866388350725
1769666929855904500,4.748904541015625,0.00330285239033401,-0.0031153657473623753,-0.004562527406960726
1769666929865892600,4.758892578125,0.001543568097986281,0.000517718493938446,-0.0035950010642409325
1769666929875880700,4.768880615234375,0.0013840447645634413,0.0014985607704147696,-0.003996872343122959
1769666929885869800,4.778869873046875,0.0007787083159200847,0.0036610474344342947,-0.0033510555513203144
1769666929895858400,4.7888583984375,-0.00004021373388241045,0.0043891556560993195,-0.0027017768006771803
1769666929905846500,4.798846435546875,0.0018647453980520368,0.0034011229872703552,-0.00033582461765035987
1769666929915835600,4.808835693359375,0.0028724854346364737,0.0024439829867333174,0.0018514295807108283
1769666929925823700,4.81882373046875,0.002816825406625867,0.006374808494001627,0.0029494508635252714
1769666929935812600,4.8288125,0.003168362658470869,0.009946906939148903,0.0019390475936233997
1769666929945800400,4.838800537109375,0.0023811322171241045,0.007217432837933302,-0.0016359798610210419
1769666929955789600,4.84878955078125,0.004119643941521645,0.008840097114443779,-0.0003070624661631882
1769666929965777700,4.858777587890625,0.004261324182152748,0.00806218758225441,-0.00035127095179632306
1769666929975766800,4.868766845703125,0.0046911584213376045,0.01071229949593544,0.000037550569686573
1769666929985754600,4.878754638671875,0.005242166109383106,0.011599930934607983,-0.0038599856197834015
1769666929995743500,4.888743408203125,0.0038903458043932915,0.012206599116325378,-0.0020940436515957117
1769666930005731600,4.898731689453125,0.004295678809285164,0.010722951963543892,-0.00250523560680449
1769666930015720700,4.908720703125,0.003951065707951784,0.011344533413648605,-0.0026221484877169132
1769666930025708800,4.918708740234375,0.0028479844331741333,0.012539760209619999,-0.0055122110061347485
1769666930035697700,4.92869775390625,0.004340420011430979,0.013066799379885197,-0.006697583943605423
1769666930045685500,4.938685546875,0.005000085104256868,0.012944294139742851,-0.008714129216969013
1769666930055674600,4.948674560546875,0.004051200579851866,0.008725847117602825,-0.009729326702654362
1769666930065662700,4.958662841796875,0.0032027175184339285,0.007168164476752281,-0.011474229395389557
1769666930075651600,4.968651611328125,0.0041555967181921005,0.0013603427214547992,-0.00962413102388382
1769666930085639700,4.9786396484375,0.002441585995256901,-0.002942260354757309,-0.010016947984695435
1769666930095628800,4.98862890625,0.0020149475894868374,-0.004865595139563084,-0.008894159458577633
1769666930105616600,4.99861669921875,0.001044758129864931,-0.002516953507438302,-0.011261709034442902
1769666930115605500,5.00860546875,0.002810700098052621,-0.00015686018741689622,-0.010777280665934086
1769666930125593600,5.018593505859375,-0.00003222424857085571,0.0020671456586569548,-0.011391138657927513
1769666930135582700,5.028582763671875,0.002538258908316493,0.002900714986026287,-0.011404721066355705
1769666930145570600,5.038570556640625,0.0008234494016505778,0.004259193316102028,-0.013259080238640308
1769666930155559400,5.048559326171875,0.0010990865994244814,0.003572896821424365,-0.012344017624855042
1769666930165547500,5.058547607421875,0.0021667478140443563,0.0032384039368480444,-0.013020460493862629
1769666930175536600,5.06853662109375,0.00224957219325006,0.0017267935909330845,-0.010243848897516727
1769666930185524700,5.078524658203125,0.001957689644768834,0.001514539704658091,-0.01025609951466322
1769666930195513600,5.088513671875,0.001955026527866721,0.0034751589410007,-0.008442486636340618
1769666930205501400,5.09850146484375,0.0021411816123872995,0.00475454144179821,-0.007523962762206793
1769666930215490600,5.108490478515625,0.0020716730505228043,0.004275172483175993,-0.009459547698497772
1769666930225478700,5.118478759765625,0.0021017666440457106,0.004397944081574678,-0.009682455100119114
1769666930235467800,5.1284677734375,0.0026913906913250685,0.004247475415468216,-0.008861135691404343
1769666930245455600,5.13845556640625,0.002095108851790428,0.0037760960403829813,-0.004939364735037088
1769666930255444500,5.148444580078125,0.003531617810949683,0.004412591457366943,-0.0043910201638937
1769666930265432600,5.1584326171875,0.001529187080450356,0.0033244239166378975,-0.003198190126568079
1769666930275421700,5.168421630859375,0.001332912128418684,0.003049053018912673,-0.0032354744616895914
1769666930285409800,5.178409912109375,0.0021675468888133764,0.0031222901307046413,-0.0023329290561378
1769666930295398700,5.188398681640625,0.003242664970457554,0.004593686666339636,-0.0033135050907731056
1769666930305386500,5.198386474609375,0.00227860058657825,0.005327120888978243,-0.003069559345021844
1769666930315375600,5.208375732421875,0.0031201594974845648,0.002686863299459219,-0.0013171994360163808
1769666930325363700,5.21836376953125,0.003757720347493887,-0.0036370791494846344,-0.0017875137273222208
1769666930335352600,5.2283525390625,0.0031316110398620367,-0.003288471372798085,-0.003754790872335434
1769666930345340700,5.238340576171875,0.0031158984638750553,0.0005542038124985993,-0.000070307454734575
1769666930355329500,5.24832958984375,0.0017979000695049763,0.0017827199772000313,0.000791491474956274
1769666930365317600,5.258317626953125,0.002234658459201455,0.0009888317435979843,-0.00038482676609419286
1769666930375306500,5.268306396484375,0.0014567491598427296,-0.0022093583829700947,0.00009187905379803851
1769666930385294600,5.278294677734375,0.0034000577870756388,-0.006124737672507763,0.002855707658454776
1769666930395283700,5.28828369140625,0.00436012726277113,-0.005949501879513264,0.0032461269292980433
1769666930405271600,5.298271484375,0.0025361282750964165,-0.0015422365395352244,0.0049460227601230145
1769666930415260700,5.3082607421875,0.0028663603588938713,0.001894839107990265,0.0062552327290177345
1769666930425248500,5.31824853515625,0.005112736485898495,0.0012010856298729777,0.00612180819734931
1769666930435237600,5.328237548828125,0.002432797569781542,0.0023755396250635386,0.007306648883968592
1769666930445225700,5.338225830078125,0.0026008430868387222,0.001597630325704813,0.00529729388654232
1769666930455214800,5.34821484375,0.0028128307312726974,0.000811997801065445,0.005893309134989977
1769666930465202700,5.35820263671875,0.0024445154704153538,-0.0009709885343909264,0.005339105147868395
1769666930475191600,5.368191650390625,0.004536162130534649,-0.003260241821408272,0.001276453142054379
1769666930485179600,5.3781796875,0.004807804711163044,-0.005397162400186062,0.0025185514241456985
1769666930495168800,5.388168701171875,0.0019776634871959686,-0.005025651305913925,-0.0023222763556987047
1769666930505156900,5.398156982421875,0.0015707324491813779,-0.004935902543365955,-0.00458702864125371
1769666930515145700,5.408145751953125,0.0007776430575177073,-0.0027976506389677525,-0.0035601137205958366
1769666930525133600,5.418133544921875,0.0023031015880405903,-0.0017803232185542583,-0.003081277245655656
1769666930535122700,5.428122802734375,0.00180881901178509,-0.004485029727220535,-0.004288754425942898
1769666930545110800,5.43811083984375,0.002435727044939995,-0.004982774145901203,-0.002889796160161495
1769666930555099600,5.448099609375,-0.000015446334145963192,-0.0037257622461766005,-0.0021638183388859034
1769666930565087700,5.458087646484375,0.0010274475207552314,-0.005576393101364374,-0.002055427758023143
1769666930575076900,5.468076904296875,0.0023068301379680634,-0.003943076357245445,-0.0016349145444110036
1769666930585064700,5.478064697265625,0.0019502328941598535,-0.0012719257501885295,-0.0018410432385280728
1769666930595053600,5.488053466796875,0.0005736448802053928,-0.002382730133831501,-0.004200870171189308
1769666930605041700,5.498041748046875,0.0019182749092578888,-0.0019212043844163418,-0.0039867521263659
1769666930615030800,5.50803076171875,0.0024434502702206373,0.0009052084642462432,-0.005602492019534111
1769666930625018600,5.5180185546875,0.00017603494052309543,0.0030751521699130535,-0.003677825443446636
1769666930635007700,5.5280078125,0.00219551008194685,0.000147272803587839,-0.0031095067970454693
1769666930644996600,5.53799658203125,0.0015571502735838294,0.0009600695921108127,-0.0044205812737345695
1769666930654984700,5.547984619140625,0.0007297061383724213,0.003323358716443181,-0.003322825999930501
1769666930664973800,5.557973876953125,0.0015787219163030386,0.0032024511601775885,-0.0032834112644195557
1769666930674962000,5.5679619140625,0.0005874933558516204,0.0005249090609140694,-0.005047755315899849
1769666930684950500,5.577950439453125,0.0027595674619078636,0.002029328839853406,-0.002692189533263445
1769666930694938600,5.587938720703125,0.0007957525085657835,0.003078347770497203,-0.0036970002111047506
1769666930704926700,5.5979267578125,0.0010764497565105557,0.0015108112711459398,-0.0033420007675886154
1769666930714915800,5.607915771484375,-0.00007323692989302799,0.0020602215081453323,-0.003784085623919964
1769666930724904700,5.61790478515625,0.0009510148083791137,0.002683933824300766,-0.0027409254107624292
1769666930734892500,5.627892578125,0.0021499700378626585,0.0009704558760859072,-0.0017054883064702153
1769666930744881700,5.637881591796875,0.0003818972909357399,0.001853293739259243,-0.0027055053506046534
1769666930754869800,5.647869873046875,0.0024525050539523363,0.0025004418566823006,-0.0017012272728607059
1769666930764858600,5.657858642578125,0.0004082625964656472,0.0013542174128815532,0.0005334311863407493
1769666930774846700,5.6678466796875,0.001038366463035345,0.0013451626291498542,0.0002103897277265787
1769666930784835800,5.6778359375,0.002055427758023143,0.001618136651813984,-0.0009635316673666239
1769666930794823700,5.68782373046875,0.002002697205170989,0.000505734293255955,-0.0015361113473773003
1769666930804812500,5.6978125,0.0014570154016837478,0.0009952232940122485,-0.0009403621661476791
1769666930814800600,5.707800537109375,0.0014642059104517102,0.00039787625428289175,-0.0018583538476377726
1769666930824789800,5.717789794921875,0.0005302353529259562,0.0004756405542138964,-0.004884770140051842
1769666930834777600,5.727777587890625,0.0006737797521054745,-0.00024154871061909944,-0.0021110877860337496
1769666930844766700,5.7377666015625,0.0010018812026828527,0.0005510080372914672,-0.004170776344835758
1769666930854754600,5.747754638671875,0.001193096162751317,-0.00010040117194876075,-0.005530852824449539
1769666930864743700,5.75774365234375,0.0011733887949958444,-0.0007177218794822693,-0.006041114684194326
1769666930874731800,5.767731689453125,0.0014655375853180885,-0.0020692760590463877,-0.007182279136031866
1769666930884721000,5.777720947265625,0.00006285060226218775,-0.0015962987672537565,-0.005774798337370157
1769666930894708700,5.787708740234375,0.0009571401169523597,-0.002889529801905155,-0.0034149715211242437
1769666930904697600,5.797697509765625,0.0009773800848051906,-0.0006892260862514377,-0.005300223361700773
1769666930914685700,5.807685791015625,0.00031558459158986807,-0.0037638454232364893,-0.005563343409448862
1769666930924674800,5.8176748046875,0.0017457021167501807,-0.0034554514568299055,-0.002796052722260356
1769666930934663000,5.827662841796875,0.001612277701497078,-0.003515905234962702,-0.00270683690905571
1769666930944651500,5.837651611328125,0.0016655409708619118,-0.0030312100425362587,-0.004228300880640745
1769666930954639600,5.8476396484375,0.0016703346045687795,-0.0020911141764372587,-0.0019142802339047194
1769666930964628700,5.857628662109375,0.0008042746339924634,-0.0011281149927526712,-0.0019092201255261898
1769666930974616800,5.867616943359375,0.0011795139871537685,-0.0003462109307292849,-0.0003837615076918155
1769666930984605700,5.877605712890625,0.0030330740846693516,0.0012873720843344927,-0.0030690268613398075
1769666930994593500,5.887593505859375,0.0012658004416152835,-0.0015313175972551107,-0.002944657113403082
1769666931004582700,5.897582763671875,0.0005022721597924829,-0.0024588967207819223,-0.0009361011325381696
1769666931014570800,5.90757080078125,-0.00031185615807771683,-0.00028522455249913037,-0.001955026527866721
1769666931024559600,5.9175595703125,0.00038296254933811724,0.00032890037982724607,-0.0004463458026293665
1769666931034547700,5.927547607421875,0.0016524913953617215,-0.000013848437447450124,-0.0024317323695868254
1769666931044536600,5.93753662109375,0.0028541097417473793,-0.007774033583700657,-0.006435262504965067
1769666931054524700,5.947524658203125,0.00025539714260958135,-0.0021081583108752966,-0.0036099147982895374
1769666931064513800,5.957513671875,0.0009499495499767363,-0.0009494169498793781,-0.003135872073471546
1769666931074501600,5.967501708984375,0.0011824434623122215,-0.004076766781508923,-0.0022269352339208126
1769666931084490800,5.97749072265625,0.0022309301421046257,-0.005126052536070347,-0.0012202603975310922
1769666931094478600,5.987478515625,0.0007621967233717442,-0.004077832214534283,-0.002540655666962266
1769666931104467700,5.9974677734375,0.0026373283471912146,-0.006620884872972965,-0.0005336974863894284
1769666931114455800,6.007455810546875,0.0028873991686850786,-0.0027326694689691067,0.0002580603177193552
1769666931124444700,6.017444580078125,0.000041545314161339775,0.0013622068800032139,-0.00333161442540586
1769666931134432800,6.027432861328125,0.0014421016676351428,0.003093261504545808,-0.002811499172821641
1769666931144422000,6.037421875,0.0014940333785489202,0.003919640555977821,-0.0031414648983627558
1769666931154409700,6.04740966796875,0.0023997745011001825,0.002773415995761752,-0.0030924626626074314
1769666931164398600,6.057398681640625,0.0007856325246393681,0.0017739315517246723,-0.0038890140131115913
1769666931174386700,6.06738671875,0.0012708604335784912,0.001478587044402957,-0.003096990054473281
1769666931184375800,6.077375732421875,0.0007025419035926461,0.0009685916593298316,-0.004570517223328352
1769666931194363600,6.08736376953125,-0.000025300030756625347,-0.0004511394945438951,-0.006547914352267981
1769666931204352500,6.0973525390625,0.001181111903861165,-0.0020903151016682386,-0.00809015054255724
1769666931214340600,6.107340576171875,0.0017869811272248626,-0.004084490239620209,-0.004572114907205105
1769666931224329700,6.117329833984375,0.0016556872287765145,-0.0014559502014890313,-0.005304484162479639
1769666931234317800,6.12731787109375,0.002170742489397526,-0.00036192359402775764,-0.005188636481761932
1769666931244306700,6.137306640625,0.0016530241118744016,0.001130778226070106,-0.0034999263007193804
1769666931254294500,6.14729443359375,0.0020754013676196337,0.0013070794520899653,-0.001216798322275281
1769666931264283600,6.15728369140625,0.002635730430483818,0.0009720537927933037,-0.0022743395529687405
1769666931274271700,6.167271728515625,0.002119077369570732,-0.001026382320560515,-0.003578489413484931
1769666931284260900,6.1772607421875,0.002371811307966709,-0.0005060005933046341,-0.001549959764815867
1769666931294248700,6.187248779296875,0.003097256412729621,-0.001371794263832271,-0.0008796420879662037
1769666931304237600,6.197237548828125,0.001374457380734384,-0.0029137644451111555,-0.00264851376414299
1769666931314225700,6.2072255859375,0.0018607506062835455,-0.0017659420846030116,-0.0037587855476886034
1769666931324214800,6.21721484375,0.0032344090286642313,-0.00032730249222368,-0.003316700691357255
1769666931334203000,6.227202880859375,0.002142513170838356,0.0008370315190404654,-0.0044983453117311
1769666931344191700,6.237191650390625,0.0008562062866985798,0.0035305526107549667,-0.0016101471846923232
1769666931354179600,6.2471796875,0.0018160095205530524,0.0003502056933939457,-0.0033952640369534492
1769666931364168700,6.257168701171875,0.000707868195604533,-0.0007249124464578927,-0.0022687469609081745
1769666931374156800,6.26715673828125,0.000565122754778713,-0.0016165387351065874,-0.0027228158432990313
1769666931384145700,6.277145751953125,0.002507632365450263,-0.002180596347898245,-0.0037023264449089766
1769666931394133800,6.2871337890625,0.0016306535108014941,-0.002243713242933154,-0.005282646510750055
1769666931404122600,6.29712255859375,0.00033582461765035987,-0.00019654128118418157,-0.007375890854746103
1769666931414110700,6.30711083984375,0.001933987601660192,-0.001925199176184833,-0.006284793838858604
1769666931424099600,6.317099609375,0.000696150294970721,-0.00145222176797688,-0.005022988189011812
1769666931434087700,6.327087646484375,0.0015275891637429595,-0.0014692660188302398,-0.0033188313245773315
1769666931444076800,6.337076904296875,0.0010149306617677212,0.00005752427750849165,-0.0016879114555194974
1769666931454066000,6.34706591796875,0.0028394623659551144,-0.0021963089238852262,-0.003934554290026426
1769666931464054500,6.357054443359375,0.0024730113800615072,-0.0007171892793849111,-0.001868473831564188
1769666931474042400,6.36704248046875,0.003683950752019882,0.00026791400159709156,-0.0020357202738523483
1769666931484031500,6.377031494140625,0.002428004052489996,0.0011345066595822573,-0.002490055514499545
1769666931494020400,6.387020263671875,0.002139583695679903,0.0016905746888369322,-0.0028461201582103968
1769666931504008400,6.397008544921875,0.0021342572290450335,0.0015283881220966578,-0.0024607607629150152
1769666931513997600,6.40699755859375,0.00003914846820407547,0.001449025934562087,-0.0033212280832231045
1769666931523985400,6.4169853515625,0.0007813714328221977,0.0014181332662701607,-0.004790227860212326
1769666931533974500,6.426974609375,0.0007584682898595929,0.00015872440417297184,-0.002495914464816451
1769666931543962400,6.43696240234375,0.0011448930017650127,0.0010189254535362124,-0.0029577065724879503
1769666931553951500,6.446951416015625,0.0004780374001711607,0.0021965752821415663,-0.0016647420125082135
1769666931563939600,6.456939697265625,0.0011877698125317693,-0.00028522455249913037,-0.002088983543217182
1769666931573928700,6.4669287109375,0.0016365124611184,-0.00105354655534029,-0.0015590144321322441
1769666931583916500,6.47691650390625,0.0012450277572497725,-0.0006756439688615501,-0.000999484327621758
1769666931593905400,6.486905517578125,0.001576857641339302,-0.0008420915110036731,-0.0014567491598427296
1769666931603893500,6.4968935546875,0.0014833806781098247,-0.0030959248542785645,-0.003757720347493887
1769666931613882600,6.506882568359375,0.002299639629200101,-0.0036189695820212364,-0.003069825703278184
1769666931623870700,6.51687060546875,0.0014261227333918214,-0.004251203965395689,-0.003486077766865492
1769666931633859300,6.526859375,0.0015456987312063575,-0.003817641409114003,-0.003052515210583806
1769666931643847400,6.536847412109375,0.001368598430417478,-0.0025220136158168316,-0.0006617955514229834
1769666931653836500,6.54683642578125,0.0008442220860160887,-0.0024109596852213144,-0.0020809939596801996
1769666931663824600,6.55682470703125,0.0017915084026753902,-0.0024618261959403753,-0.001874066423624754
1769666931673813500,6.5668134765625,0.001350755337625742,-0.001544100814498961,-0.003840810852125287
1769666931683801300,6.57680126953125,0.0011677960865199566,-0.002418949268758297,-0.002710032742470503
1769666931693790500,6.58679052734375,0.0007430219557136297,-0.0026876621413975954,-0.003674629610031843
1769666931703778600,6.596778564453125,-0.0006761765689589083,-0.0029201561119407415,-0.00392683083191514
1769666931713767400,6.606767333984375,0.0023483755066990852,-0.0023550332989543676,-0.00034408041392453015
1769666931723755500,6.616755615234375,0.002794188680127263,-0.002103098202496767,-0.0018218684708699584
1769666931733744400,6.626744384765625,-0.00010626012954162434,-0.002558498876169324,-0.0025742114521563053
1769666931743732500,6.636732421875,0.0010684601729735732,-0.0008607336785644293,-0.003940945956856012
1769666931753721600,6.6467216796875,0.0006072007236070931,-0.00096086849225685,-0.002924683503806591
1769666931763709400,6.65670947265625,0.003465305082499981,-0.00011957593233091757,-0.0029057750944048166
1769666931773698600,6.666698486328125,0.0019228023011237383,-0.0017369136912748218,-0.0032506543211638927
1769666931783686400,6.676686279296875,0.001537709147669375,-0.001663144095800817,-0.002757969545200467
1769666931793675500,6.686675537109375,0.0017816547770053148,-0.0021552962716668844,-0.005680788774043322
1769666931803663600,6.69666357421875,0.0021824603900313377,0.00016937704640440643,-0.00276116537861526
1769666931813652500,6.706652587890625,0.0024080302100628614,0.002689260058104992,-0.004181429278105497
1769666931823640600,6.716640625,0.0024136228021234274,0.0016873788554221392,-0.004550276789814234
1769666931833629700,6.726629638671875,0.0014583469601348042,-0.005680788774043322,-0.007207845337688923
1769666931843617500,6.736617431640625,0.0021113541442900896,-0.006141515914350748,-0.006029130425304174
1769666931853606400,6.7466064453125,0.0014711301773786545,0.0011057445080950856,-0.0046935551799833775
1769666931863594500,6.756594482421875,0.0033598439767956734,-0.0020450414158403873,-0.0014689996605738997
1769666931873583600,6.76658349609375,0.0014114753575995564,-0.004827778320759535,-0.0036546560004353523
1769666931883571500,6.776571533203125,0.0005558017292059958,-0.0025542378425598145,-0.0032767534721642733
1769666931893560300,6.786560302734375,-0.00005619269722956233,-0.004307130351662636,-0.0035800873301923275
1769666931903548400,6.79654833984375,0.002484729280695319,-0.007277087774127722,-0.003422162029892206
1769666931913537500,6.80653759765625,0.0029856697656214237,-0.0030751521699130535,-0.0032554480712860823
1769666931923525600,6.816525634765625,0.001618403010070324,-0.0006532734259963036,-0.0036163064651191235
1769666931933514500,6.826514404296875,0.004131628200411797,-0.001651692553423345,-0.0031246868893504143
1769666931943502300,6.83650244140625,-0.0005486111622303724,-0.001074052881449461,-0.0019829897210001945
1769666931953491500,6.846491455078125,0.0033891387283802032,-0.0007715177489444613,-0.0031182952225208282
1769666931963479600,6.8564794921875,0.001960885478183627,-0.0014700648607686162,-0.002246110001578927
1769666931973468400,6.866468505859375,0.002231728984043002,-0.0022330605424940586,-0.003335076617076993
1769666931983456500,6.87645654296875,0.0028578380588442087,-0.0020216056145727634,-0.004052798729389906
1769666931993445400,6.8864453125,0.00224957219325006,-0.004023237619549036,-0.006854710169136524
1769666932003433500,6.89643359375,0.000737695605494082,-0.0030655646696686745,-0.006712497677654028
1769666932013422600,6.906422607421875,0.0027113643009215593,-0.003434146288782358,-0.007035539019852877
1769666932023410400,6.916410400390625,0.002290052128955722,-0.004772384651005268,-0.005123123060911894
1769666932033399600,6.926399658203125,0.001600559800863266,-0.005222725216299295,-0.005842442624270916
1769666932043387400,6.936387451171875,0.003468767274171114,-0.00595642626285553,-0.0029888655990362167
1769666932053376500,6.94637646484375,0.001669003046117723,-0.0049255164340138435,-0.00427117757499218
1769666932063364600,6.956364501953125,0.0011611381778493524,-0.003929760307073593,-0.003683950752019882
1769666932073353500,6.966353515625,0.0014820491196587682,-0.0027683558873832226,-0.002560629276558757
1769666932083341600,6.976341552734375,0.003861317178234458,-0.002517219865694642,0.00023435817274730653
1769666932093330400,6.986330322265625,0.0017598168924450874,-0.0014375743921846151,0.00009906959166983142
1769666932103318500,6.996318603515625,0.0022471752017736435,-0.0025241440162062645,0.00036245622322894633
1769666932113307400,7.006307373046875,0.0009555422002449632,-0.001398425898514688,-0.002980876248329878
1769666932123295500,7.01629541015625,0.001136637176387012,-0.001535046030767262,-0.0013997574569657445
1769666932133284600,7.02628466796875,0.0002426139690214768,0.002028263406828046,-0.004297809209674597
1769666932143272400,7.0362724609375,0.0026354643050581217,-0.0012711267918348312,-0.003976366017013788
1769666932153261300,7.04626123046875,0.0018495653057470918,-0.002683134749531746,-0.004480768460780382
1769666932163249400,7.05624951171875,0.0006993460701778531,-0.001761148450896144,-0.005894108209758997
1769666932173238500,7.066238525390625,0.001746234716847539,-0.001401089015416801,-0.006684001535177231
1769666932183226600,7.0762265625,0.0019321233266964555,-0.002121740486472845,-0.007765511516481638
1769666932193215500,7.086215576171875,0.0022362563759088516,0.0003451456723269075,-0.00824754312634468
1769666932203203300,7.096203369140625,-0.0002412823960185051,-0.0020506340079009533,-0.006084524095058441
1769666932213192400,7.1061923828125,0.0006609965930692852,-0.0012594088912010193,-0.00392709719017148
1769666932223180500,7.1161806640625,0.0015965650090947747,-0.0031499869655817747,-0.0067604342475533485
1769666932233169700,7.126169677734375,0.0015568839153274894,-0.0038927425630390644,-0.0033358754590153694
1769666932243157500,7.136157470703125,0.0007147924043238163,-0.0023989754263311625,-0.002329200739040971
1769666932253146400,7.146146484375,0.0009954896522685885,-0.004024036228656769,-0.0030210898257791996
1769666932263134500,7.156134521484375,0.002683667466044426,-0.002367816399782896,-0.002980876248329878
1769666932273123600,7.16612353515625,0.0005856291390955448,-0.002204298507422209,-0.004197674337774515
1769666932283111700,7.176111572265625,0.0011763182701542974,-0.00026738137239590287,-0.0035518580116331577
1769666932293100500,7.1861005859375,0.001642637769691646,-0.000999484327621758,-0.0020157466642558575
1769666932303088400,7.19608837890625,0.0025355955585837364,-0.0020453077740967274,-0.004090881906449795
1769666932313077500,7.206077392578125,0.0009526127250865102,-0.0028216191567480564,-0.004455202259123325
1769666932323065600,7.216065673828125,0.002508964156731963,-0.003919107839465141,-0.0031904669012874365
1769666932333054500,7.226054443359375,0.0005888249143026769,-0.0029710223898291588,-0.004339088220149279
1769666932343042600,7.23604248046875,0.0012636699248105288,-0.0021457087714225054,-0.002546248259022832
1769666932353031400,7.246031494140625,0.002255164785310626,-0.001660480978898704,-0.004509530495852232
1769666932363019500,7.25601953125,0.0002681803307496011,-0.0009129316313192248,-0.004977980628609657
1769666932373008400,7.26600830078125,0.0033300165086984634,-0.0006351639167405665,-0.0041428133845329285
1769666932382996500,7.27599658203125,0.0006229133578017354,-0.0014064153656363487,-0.0037798245903104544
1769666932392985600,7.285985595703125,0.00017789915727917105,-0.0008772452711127698,-0.00361763802357018
1769666932402973400,7.295973388671875,0.001294029993005097,-0.0005725796218030155,-0.003240001853555441
1769666932412962600,7.305962646484375,0.0008612662786617875,0.0009632653673179448,-0.0057463026605546474
1769666932422951400,7.315951416015625,0.002013349672779441,0.000592287047766149,-0.005138303153216839
1769666932432939500,7.325939453125,0.002261822810396552,-0.00007323692989302799,-0.0044107274152338505
1769666932442928600,7.3359287109375,0.001838912721723318,0.001446362817659974,-0.0057015614584088326
1769666932452916500,7.34591650390625,0.002915362361818552,0.0010050770360976458,-0.0054696002043783665
1769666932462904800,7.35590478515625,0.0022594258189201355,0.0021766014397144318,-0.0033132387325167656
1769666932472892700,7.365892578125,0.002502306131646037,0.0001555285998620093,-0.002424009144306183
1769666932482881800,7.3758818359375,0.0015611450653523207,0.002966228872537613,-0.0023587618488818407
1769666932492870000,7.385869873046875,0.0020599551498889923,0.0018024274613708258,-0.003459446132183075
1769666932502858800,7.395858642578125,0.0006034722900949419,-0.000969923275988549,-0.00455879932269454
1769666932512846800,7.405846923828125,0.002222940558567643,0.0020445086993277073,-0.0031590417493134737
1769666932522835700,7.415835693359375,0.0016578177455812693,0.0006836334359832108,-0.003346528159454465
1769666932532823800,7.42582373046875,0.002572879893705249,-0.00002210423735959921,-0.0024085629265755415
1769666932542813000,7.43581298828125,0.002240783767774701,0.00145222176797688,-0.002703907433897257
1769666932552800800,7.44580078125,0.0017984326696023345,-0.0014820491196587682,-0.0024687503464519978
1769666932562790000,7.455789794921875,0.0029885992407798767,0.000028229507734067738,-0.003638410707935691
1769666932572777700,7.46577783203125,0.0018431737553328276,0.0010370349045842886,-0.003802461316809058
1769666932582766800,7.475766845703125,0.0010982876410707831,0.0009853695519268513,-0.002225070958957076
1769666932592755000,7.4857548828125,0.0013683321885764599,0.00019387812062632293,-0.0021550299134105444
1769666932602743800,7.495743896484375,0.002025866648182273,-0.0010958907660096884,-0.00301736150868237
1769666932612732000,7.50573193359375,0.002430134452879429,-0.0023513049818575382,-0.001297225710004568
1769666932622720800,7.515720703125,0.0022884542122483253,0.0015390408225357533,-0.0013712616637349129
1769666932632708900,7.525708984375,0.0017755294684320688,0.003067428944632411,0.0005121259018778801
1769666932642697700,7.53569775390625,0.002560629276558757,0.0006801713607273996,-0.00009134642459684983
1769666932652685800,7.545685791015625,0.0022538332268595695,-0.006163886282593012,-0.002027997048571706
1769666932662675000,7.555675048828125,0.001175519311800599,-0.006713296286761761,-0.0024610271211713552
1769666932672662800,7.565662841796875,0.001972337020561099,-0.0005584649043157697,-0.0023289343807846308
1769666932682651600,7.575651611328125,0.0010420948965474963,-0.0038570561446249485,0.000800279900431633
1769666932692639700,7.5856396484375,0.0015422365395352244,-0.0032024511601775885,-0.00045833003241568804
1769666932702628900,7.59562890625,0.0017510283505544066,-0.0026346652302891016,-0.0013342436868697405
1769666932712617000,7.605616943359375,0.001885784324258566,-0.005791043862700462,0.0014357101172208786
1769666932722605800,7.615605712890625,0.0032951291650533676,-0.0067995828576385975,0.0006388923502527177
1769666932732593700,7.62559375,0.002228533150628209,-0.0024594292044639587,-0.0006924218614585698
1769666932742582800,7.635582763671875,0.001757952617481351,0.0001536643976578489,-0.0015180017799139023
1769666932752571000,7.64557080078125,0.002002697205170989,-0.0008977515972219408,0.0009544769418425858
1769666932762560000,7.65556005859375,0.003826163476333022,-0.0035151063930243254,-0.0001994707708945498
1769666932772547800,7.6655478515625,0.0018402442801743746,-0.0025156219489872456,-0.000794420950114727
1769666932782536700,7.67553662109375,0.00019281286222394556,-0.002724946476519108,-0.0022921827621757984
1769666932792524800,7.68552490234375,0.0013763216556981206,-0.0011954930378124118,-0.0022956449538469315
1769666932802514000,7.695513916015625,0.0026407905388623476,0.00007936220208648592,-0.004195810295641422
1769666932812502000,7.705501953125,0.0014301175251603127,-0.0007651261985301971,-0.004536694847047329
1769666932822491000,7.715490966796875,0.0008218514849431813,-0.0003259709046687931,-0.005753759294748306
1769666932832478700,7.725478759765625,0.0005363606614992023,0.0018008295446634293,-0.005514075048267841
1769666932842467800,7.7354677734375,0.001228782464750111,0.0023241406306624413,-0.004169711377471685
1769666932852456000,7.7454560546875,0.00152306177187711,0.0007424892974086106,-0.0037316211964935064
1769666932862444800,7.75544482421875,0.0007835020078346133,0.00020106865849811584,-0.004510329570621252
1769666932872433000,7.765432861328125,0.0026192190125584602,-0.00006578007742064074,-0.00421232171356678
1769666932882421800,7.775421875,0.001175519311800599,-0.0005976133397780359,-0.002767290687188506
1769666932892409900,7.785409912109375,0.002575809368863702,-0.00026551715563982725,-0.0031414648983627558
1769666932902398700,7.795398681640625,0.0014705975772812963,-0.0010090717114508152,-0.0038013961166143417
1769666932912386800,7.80538671875,0.001070857048034668,0.0015579492319375277,-0.0024881914723664522
1769666932922376000,7.8153759765625,0.0019773971289396286,0.0017843178939074278,-0.004886900540441275
1769666932932363800,7.82536376953125,-0.0002031991898547858,0.0010157296201214194,-0.005569468718022108
1769666932942353000,7.835352783203125,-0.001121989800594747,-0.0008721852791495621,-0.006081594619899988
1769666932952340700,7.8453408203125,0.0020783308427780867,0.002810700098052621,-0.006015548016875982
1769666932962329900,7.855329833984375,0.0005483448621816933,0.0018157431622967124,-0.005278917960822582
1769666932972318000,7.86531787109375,0.0008109325426630676,-0.0008910936885513365,-0.005813680589199066
1769666932982306800,7.875306884765625,0.00236302288249135,-0.0004213120846543461,-0.00851306039839983
1769666932992295000,7.885294921875,0.0013310478534549475,0.0006668555433861911,-0.005015264730900526
1769666933002283800,7.89528369140625,-0.000003462109361862531,0.0008069378091022372,-0.004846420604735613
1769666933012271900,7.90527197265625,0.001526257605291903,0.0032410670537501574,-0.00680171325802803
1769666933022261000,7.915260986328125,0.0015853798249736428,0.0015243934467434883,-0.006179599091410637
1769666933032248800,7.925248779296875,0.0005544701125472784,0.0017270599491894245,-0.006287456955760717
1769666933042237700,7.93523779296875,0.0014737932942807674,-0.0007086671539582312,-0.005075718741863966
1769666933052225800,7.945225830078125,0.0007803061744198203,-0.0025875272694975138,-0.0054573495872318745
1769666933062215000,7.95521484375,0.0007251787465065718,-0.0017172062071040273,-0.0027680895291268826
1769666933072203000,7.965203125,0.0008455536444671452,-0.0009177253232337534,-0.003281546989455819
1769666933082192000,7.97519189453125,0.0031880701426416636,-0.0003275688213761896,-0.001770469476468861
1769666933092179700,7.9851796875,0.0015640745405107737,0.0006950850365683436,-0.005020058713853359
1769666933102168800,7.9951689453125,0.0013949638232588768,-0.0006631271098740399,-0.00455640209838748
1769666933112157000,8.005156982421875,0.0005123922019265592,0.0008149272762238979,-0.004795554094016552
1769666933122145800,8.015145751953124,0.0014413028256967664,0.000254331884207204,-0.0044349622912704945
1769666933132133600,8.025133544921875,0.00023435817274730653,0.0006846986943855882,-0.003568103304132819
1769666933142122800,8.035122802734374,0.00236275652423501,0.0011177286505699158,-0.003257578704506159
1769666933152110800,8.04511083984375,0.0015355786308646202,0.000297475082334131,-0.005095958709716797
1769666933162099700,8.055099609375,0.0009800433181226254,0.0006601976347155869,-0.0049135321751236916
1769666933172087800,8.065087890625,0.0013883059145882726,-0.0011440940434113145,-0.004459463059902191
1769666933182077000,8.075076904296875,0.0018245317041873932,-0.0005328985280357301,-0.004381699021905661
1769666933192064800,8.085064697265626,-0.0003920173039659858,-0.00210629403591156,-0.005034439731389284
1769666933202054000,8.095053955078125,0.0016881778137758374,-0.00035926041891798377,-0.004532434046268463
1769666933212041700,8.105041748046874,0.0018586200894787908,0.000008255799002654385,-0.003894340479746461
1769666933222030800,8.11503076171875,0.0016860472969710827,0.0012354403734207153,-0.004830707795917988
1769666933232019000,8.12501904296875,0.002079928759485483,0.0014535533264279366,-0.005784385837614536
1769666933242007800,8.1350078125,0.0013712616637349129,0.000020772657080669887,-0.0028719529509544373
1769666933251996000,8.144995849609375,0.0007001450285315514,-0.0011294466676190495,-0.0029888655990362167
1769666933261984800,8.15498486328125,0.0016000272007659078,-0.0021116205025464296,-0.004509530495852232
1769666933271972900,8.164972900390625,0.0024551681708544493,0.00012357067316770554,-0.005515406373888254
1769666933281962000,8.1749619140625,0.000806138850748539,0.00037683729897253215,-0.004524976946413517
1769666933291949800,8.18494970703125,0.0006660565850324929,-0.0017872473690658808,-0.0036274916492402554
1769666933301938700,8.194938720703124,0.0009864348685368896,-0.0028370653744786978,-0.003450657706707716
1769666933311926800,8.2049267578125,0.00008255799184553325,-0.0006282397080212831,-0.0020932445768266916
1769666933321916000,8.214916015625,0.0014168017078191042,-0.0014945659786462784,-0.004857339430600405
1769666933331904000,8.224904052734376,0.002481267089024186,-0.0012809804175049067,-0.0049124667420983315
1769666933341892600,8.234892578125,0.0008961536805145442,-0.0016263924771919847,-0.003376089269295335
1769666933351880700,8.244880615234376,0.002213619416579604,-0.0016940367640927434,-0.003335076617076993
1769666933361869800,8.254869873046875,-0.000015712650565546937,-0.0014751249691471457,-0.00558012118563056
1769666933371858000,8.26485791015625,0.00011611382069531828,-0.0023936491925269365,-0.002228533150628209
1769666933381846800,8.2748466796875,0.001463939668610692,-0.0035228293854743242,-0.004802744835615158
1769666933391834600,8.284834716796874,0.0016053534345701337,-0.0006719155353493989,-0.0007491472060792148
1769666933401823700,8.29482373046875,0.0005968143814243376,-0.0012175972806289792,-0.0037020600866526365
1769666933411811800,8.304811767578125,0.0012865731259807944,-0.003066629869863391,-0.0016279903938993812
1769666933421801000,8.314801025390626,0.0011739213950932026,-0.0026253440883010626,-0.0019619506783783436
1769666933431788800,8.324788818359375,0.0027025758754462004,-0.0014908375451341271,-0.0008396946941502392
1769666933441778000,8.33477783203125,0.000809068325906992,-0.0018570221727713943,-0.0006543386843986809
1769666933451765800,8.344765869140625,0.001514539704658091,-0.0034615767654031515,-0.0013792511308565736
1769666933461755000,8.3547548828125,0.00044528054422698915,-0.002049036091193557,-0.0027286747936159372
1769666933471742700,8.36474267578125,0.00031851406674832106,-0.0032613070216029882,-0.0031244205310940742
1769666933481731600,8.374731689453125,0.0023009711876511574,-0.0017193368403241038,-0.0019494339358061552
1769666933491719700,8.3847197265625,0.0007680556736886501,0.00031558459158986807,-0.002175003755837679
1769666933501708800,8.394708740234375,0.0013667342718690634,-0.0014908375451341271,-0.0025843314360827208
1769666933511697700,8.40469775390625,0.0012903015594929457,-0.006608634255826473,-0.00606268597766757
1769666933521685500,8.414685546875,0.00043356261448934674,-0.007574828807264566,-0.0038988678716123104
1769666933531673600,8.424673583984376,0.0021470405627042055,0.00015952334797475487,-0.0029230855870991945
1769666933541662700,8.434662841796875,0.002080195117741823,-0.00475587323307991,-0.004547613672912121
1769666933551651800,8.44465185546875,0.0022333269007503986,-0.006481335032731295,-0.0028722193092107773
1769666933561639700,8.4546396484375,0.0008644621120765805,-0.005852296482771635,-0.003114833263680339
1769666933571628800,8.46462890625,0.0010463559301570058,-0.0056919739581644535,-0.0023097596131265163
1769666933581616600,8.47461669921875,0.0019347865600138903,-0.00469515286386013,-0.002810966456308961
1769666933591605800,8.484605712890625,0.0014237258583307266,-0.002272208919748664,-0.0037952708080410957
1769666933601593900,8.49459375,0.0017190704820677638,-0.00018988338706549257,-0.004808603785932064
1769666933611582700,8.504582763671875,0.0009195895399898291,0.001505751279182732,-0.0036783581599593163
1769666933621570800,8.51457080078125,0.0005281048361212015,0.003948402591049671,-0.002305764937773347
1769666933631559700,8.5245595703125,0.0028695559594780207,0.003028813051059842,-0.002956641372293234
1769666933641547800,8.5345478515625,0.0011917646043002605,0.0017473000334575772,-0.002502306131646037
1769666933651536600,8.54453662109375,0.0008370315190404654,0.001894839107990265,-0.001998968655243516
1769666933661524700,8.554524658203125,0.0025329324416816235,0.00010412959818495438,-0.0012181298807263374
1769666933671513900,8.564513916015626,0.0006482133758254349,-0.0024551681708544493,-0.004394215997308493
1769666933681501700,8.574501708984375,0.0004362257895991206,-0.0027118970174342394,-0.0024980450980365276
1769666933691490600,8.584490478515624,0.001273523666895926,-0.003400324145331979,-0.0011936287628486753
1769666933701478700,8.594478759765625,0.002156361471861601,-0.0051782503724098206,-0.003906324505805969
1769666933711467800,8.6044677734375,0.0008356999605894089,-0.005899967160075903,-0.006159625016152859
1769666933721455900,8.614455810546875,0.003279150230810046,-0.0062578958459198475,-0.0031489215325564146
1769666933731444500,8.624444580078125,0.0019198728259652853,-0.0054882424883544445,-0.0010492854053154588
1769666933741432600,8.6344326171875,0.0026045716367661953,-0.00572925852611661,-0.001386441639624536
1769666933751421700,8.644421630859375,0.0020122844725847244,-0.003947869874536991,0.0017153420485556126
1769666933761409800,8.654409912109376,0.0007627293234691024,-0.0033539850264787674,-0.0013110742438584566
1769666933771398700,8.664398681640625,0.0020932445768266916,-0.0029316076543182135,0.00017257283616345376
1769666933781386500,8.674386474609374,0.001181644620373845,-0.002573412610217929,-0.0005813680472783744
1769666933791375600,8.684375732421875,0.001972337020561099,-0.00401711231097579,0.0005597964627668262
1769666933801363700,8.69436376953125,0.0011211908422410488,-0.0008833705214783549,-0.00058323226403445
1769666933811352800,8.704352783203126,0.0016072177095338702,0.0001347559446003288,-0.0013909690314903855
1769666933821340700,8.714340576171875,0.00034408041392453015,0.001213602488860488,-0.0034234935883432627
1769666933831329800,8.724329833984376,0.0012455604737624526,0.0003733751946128905,-0.0008420915110036731
1769666933841317600,8.734317626953125,0.0002162486780434847,-0.003171025775372982,-0.00398595305159688
1769666933851306800,8.744306640625,0.00043888893560506403,-0.0018213358707726002,-0.003294063964858651
1769666933861294800,8.754294921875,0.0008396946941502392,-0.002555036684498191,-0.004022971261292696
1769666933871283700,8.76428369140625,0.0012897689593955874,-0.0014410364674404263,-0.003911118488758802
1769666933881271600,8.774271484375,0.0033446638844907284,-0.0009827064350247383,-0.005923669319599867
1769666933891260700,8.7842607421875,-0.0004575310740619898,-0.002347842790186405,-0.004284227266907692
1769666933901248800,8.794248779296876,0.0007744472241029143,-0.00415373221039772,-0.004509264137595892
1769666933911237600,8.804237548828125,0.00031798143754713237,-0.0019627497531473637,-0.00506959343329072
1769666933921225700,8.814225830078126,0.0019299928098917007,-0.0019038938917219639,-0.003853061469271779
1769666933931214800,8.82421484375,0.0003680488734971732,-0.0026676885318011045,-0.003846669802442193
1769666933941202700,8.83420263671875,0.0015952334506437182,-0.0016431703697890043,-0.0027361316606402397
1769666933951191600,8.844191650390625,0.0017808558186516166,-0.0021313277538865805,-0.003087136195972562
1769666933961179600,8.8541796875,0.0030778152868151665,-0.0020746025256812572,-0.0023899206425994635
1769666933971168800,8.864168701171875,0.0012293151812627912,-0.0027899276465177536,-0.004501274786889553
1769666933981156900,8.874156982421875,0.002207494108006358,-0.002922286745160818,-0.0035033884923905134
1769666933991145700,8.884145751953126,0.0016082830261439085,-0.0005531385540962219,-0.0032767534721642733
1769666934001133600,8.894133544921875,0.0022024342324584723,-0.0013286510948091745,-0.0033305492252111435
1769666934011122700,8.904122802734374,0.0022082931827753782,-0.0007970841252245009,-0.001213868847116828
1769666934021110800,8.91411083984375,0.003371029393747449,-0.00013395700079854578,-0.001817607437260449
1769666934031100000,8.924099853515624,0.0022032330743968487,-0.0002468750171829015,-0.002100435085594654
1769666934041087700,8.934087646484375,0.0017986990278586745,-0.0009739180095493793,-0.0003685815026983619
1769666934051076600,8.94407666015625,0.003777960315346718,-0.00038642468280158937,-0.000857005245052278
1769666934061064700,8.954064697265625,0.0014796522445976734,-0.0012665993999689817,-0.0016468988033011556
1769666934071053800,8.9640537109375,0.001734516816213727,-0.00207726564258337,-0.0014357101172208786
1769666934081042000,8.9740419921875,0.0020479708909988403,-0.0014562164433300495,-0.0035055188927799463
1769666934091030500,8.984030517578125,0.0012490225490182638,0.0000673779723001644,-0.0021755362395197153
1769666934101018600,8.9940185546875,0.002243979601189494,-0.0007776430575177073,-0.0022024342324584723
1769666934111007700,9.0040078125,0.0022125542163848877,-0.00096113485051319,-0.003930825740098953
1769666934120995800,9.013995849609374,0.0006154565489850938,-0.002373675350099802,-0.0018338527297601104
1769666934130984700,9.023984619140625,0.001163002452813089,-0.003230947069823742,-0.002254632068797946
1769666934140972500,9.03397265625,0.0008450209861621261,-0.0033332123421132565,-0.0004985437262803316
1769666934150961700,9.043961669921876,0.0017776599852368236,-0.002650910522788763,0.0008064051507972181
1769666934160949800,9.05394970703125,0.000728907180018723,-0.0029878003988415003,-0.0017142767319455743
1769666934170938600,9.063938720703124,0.0036999296862632036,-0.004718588665127754,-0.0003222425002604723
1769666934180926700,9.0739267578125,0.0015699334908276796,-0.005045092198997736,-0.000054328484111465514
1769666934190915800,9.083915771484374,0.001288171042688191,-0.005548962391912937,0.0001715075777610764
1769666934200903700,9.093903564453125,0.0018216022290289402,-0.00418489146977663,-0.00045034053619019687
1769666934210892800,9.103892822265625,0.0018279937794432044,-0.006317284423857927,-0.0033065807074308395
1769666934220880600,9.113880615234375,0.000143544384627603,-0.00692075677216053,-0.0034613104071468115
1769666934230869800,9.123869873046875,0.0009166600648313761,-0.005006742663681507,-0.0019624833948910236
1769666934240857600,9.133857666015626,0.0017805894603952765,-0.004098871257156134,-0.0022357236593961716
1769666934250846700,9.1438466796875,0.0009438242996111512,-0.004364654887467623,-0.0025387913919985294
1769666934260834800,9.153834716796876,0.0016266588354483247,-0.0037641117814928293,-0.0017779263434931636
1769666934270823700,9.16382373046875,0.0012373046483844519,-0.0041457428596913815,-0.0025385250337421894
1769666934280811800,9.173811767578124,0.002359027974307537,-0.005880525801330805,-0.0020034960471093655
1769666934290801000,9.18380078125,0.0012069445801898837,-0.004062652122229338,-0.0008231831016018987
1769666934300788700,9.193788818359375,0.0024831313639879227,-0.004777710884809494,-0.00014274542627390474
1769666934310777600,9.203777587890626,0.0016559535870328546,-0.00424374733120203,-0.002332130214199424
1769666934320765700,9.213765625,0.002130528911948204,-0.003409911412745714,-0.0036610474344342947
1769666934330754800,9.2237548828125,0.0016626114957034588,-0.0038155107758939266,-0.0037851508241146803
1769666934340743000,9.233742919921875,0.002865028567612171,-0.004095941781997681,-0.0034045851789414883
1769666934350731500,9.2437314453125,0.002659432590007782,-0.004746019374579191,-0.003775563556700945
1769666934360719600,9.2537197265625,0.0015464976895600557,-0.005289304070174694,-0.002389121800661087
1769666934370708700,9.263708740234375,0.0020996362436562777,-0.005419532768428326,-0.0011052117915824056
1769666934380696800,9.27369677734375,0.0011345066595822573,-0.0033814155030995607,-0.0031667647417634726
1769666934390685700,9.283685791015625,0.0034969968255609274,-0.0026881948579102755,-0.0031260184478014708
1769666934400673500,9.293673583984376,0.0004849616379942745,-0.0025904567446559668,-0.0030154972337186337
1769666934410662700,9.30366259765625,0.0023550332989543676,-0.0037979339249432087,-0.003491936717182398
1769666934420650800,9.313650634765626,0.0027268105186522007,-0.004543086513876915,-0.00010146643762709573
1769666934430639600,9.3236396484375,0.0015550197567790747,-0.0051596080884337425,-0.001097755040973425
1769666934440627700,9.333627685546874,0.0007978830835781991,-0.00506959343329072,-0.000565122754778713
1769666934450616600,9.343616455078125,0.0024956483393907547,-0.0059748017229139805,-0.0011877698125317693
1769666934460604700,9.353604736328125,0.0020120181143283844,-0.004277036525309086,-0.0034109766129404306
1769666934470593500,9.363593505859376,0.0017768610268831253,-0.0028932581190019846,-0.0021662150975316763
1769666934480581600,9.37358154296875,0.0016247945604845881,-0.004011519718915224,-0.00344533147290349
1769666934490570500,9.383570556640626,0.0020325244404375553,-0.0036818201187998056,-0.0033867419697344303
1769666934500558300,9.393558349609375,0.0029640982393175364,-0.003727360162883997,-0.0025457157753407955
1769666934510547500,9.40354736328125,0.003590473672375083,-0.0044996771030128,-0.0003147856332361698
1769666934520535600,9.41353564453125,0.0015046859625726938,-0.003372893435880542,-0.0020160130225121975
1769666934530524400,9.4235244140625,0.0018168084789067507,-0.003637877991423011,-0.0021198762115091085
1769666934540512500,9.433512451171875,0.0013701963471248746,-0.004274373408406973,-0.0026703516487032175
1769666934550501400,9.44350146484375,0.00123783724848181,-0.0035451999865472317,-0.0032056469935923815
1769666934560489500,9.453489501953126,0.0010657970560714602,-0.003565173828974366,-0.003680488560348749
1769666934570478300,9.463478271484375,0.0015824503498151898,-0.005058408249169588,-0.004177700728178024
1769666934580466400,9.473466552734376,0.0017116136150434613,-0.005671467632055283,-0.0009022789890877903
1769666934590455600,9.48345556640625,0.0010950918076559901,-0.008006793446838856,-0.0006849650526419282
1769666934600443400,9.493443359375,0.00210709311068058,-0.007166299968957901,-0.00034461304312571883
1769666934610432500,9.5034326171875,0.0019025622168555856,-0.005556419026106596,-0.0012452941155061126
1769666934620420400,9.51342041015625,0.001999235013499856,-0.004852545913308859,-0.003313771216198802
1769666934630409500,9.523409423828125,0.001249821507371962,-0.002302302746102214,-0.004002464935183525
1769666934640397600,9.5333974609375,0.0015417039394378662,-0.0028581044171005487,-0.0033246902748942375
1769666934650386700,9.54338671875,0.0014468954177573323,-0.0018018947448581457,-0.0037670412566512823
1769666934660374500,9.55337451171875,0.0010274475207552314,-0.00318966805934906,-0.0030663637444376945
1769666934670363400,9.56336328125,0.001960619119927287,-0.000966993800830096,-0.0035268242936581373
1769666934680351500,9.5733515625,0.0015512913232669234,-0.0006332996999844909,-0.0028687571175396442
1769666934690340600,9.583340576171874,0.0022365227341651917,-0.0023039006628096104,-0.003913781605660915
1769666934700328400,9.593328369140625,0.002793123247101903,-0.0020754013676196337,-0.004954012110829353
1769666934710317300,9.6033173828125,0.0016450346447527409,-0.005263737868517637,-0.006518885493278503
1769666934720305400,9.613305419921875,0.0022362563759088516,-0.0018383801216259599,-0.005848834291100502
1769666934730294500,9.62329443359375,0.003498328384011984,-0.0022272015921771526,-0.002551840851083398
1769666934740282600,9.63328271484375,0.001978728687390685,-0.002843989757820964,-0.0018439727136865258
1769666934750271500,9.643271484375,0.001591505017131567,-0.0002902845444623381,-0.003358246060088277
1769666934760259300,9.65325927734375,0.0014223942998796701,-0.003430151380598545,-0.004920190200209618
1769666934770248400,9.66324853515625,0.0016966998809948564,-0.00888057705014944,-0.002692722249776125
1769666934780236500,9.673236572265624,0.002065015025436878,-0.006632336415350437,-0.0048861014656722546
1769666934790225400,9.683225341796875,0.002909237053245306,-0.0034013893455266953,-0.002332130214199424
1769666934800213500,9.693213623046875,0.0024711471050977707,-0.004126301966607571,-0.000788561999797821
1769666934810202400,9.703202392578126,0.0035657063126564026,-0.00503923324868083,-0.000538491178303957
1769666934820190500,9.7131904296875,0.0026114957872778177,-0.005148955620825291,0.0013337110867723823
1769666934830179300,9.723179443359374,0.0025063008069992065,-0.004188353195786476,-0.001044758129864931
1769666934840167400,9.73316748046875,0.002653839997947216,-0.0036991306114941835,-0.0038810246624052525
1769666934850156500,9.743156494140624,0.0026232136879116297,-0.0035278894938528538,-0.004853610880672932
1769666934860144400,9.753144287109375,0.0020482372492551804,-0.0030684941448271275,-0.0030272151343524456
1769666934870133500,9.763133544921875,0.00016458335448987782,-0.003765709698200226,-0.006197442300617695
1769666934880121300,9.773121337890625,0.000969656917732209,-0.002383262850344181,-0.00914582796394825
1769666934890110500,9.7831103515625,0.002141447737812996,-0.0017382452497258782,-0.007540207821875811
1769666934900098600,9.7930986328125,0.0017217335989698768,-0.00015899071877356619,-0.006564425770193338
1769666934910087400,9.80308740234375,0.0004814995336346328,-0.00040772996726445854,-0.006750048138201237
1769666934920075500,9.813075439453126,0.0014775217277929187,-0.0009781790431588888,-0.006287723314017057
1769666934930064400,9.823064453125,0.0003448793722782284,-0.0009488842915743589,-0.005361475981771946
1769666934940052500,9.833052490234374,0.0010655306978151202,-0.001276453142054379,-0.004277302883565426
1769666934950041600,9.84304150390625,0.0014349111588671803,-0.0006745787104591727,-0.005004612263292074
1769666934960029400,9.853029541015625,0.003404052462428808,-0.0012322446564212441,-0.001320927869528532
1769666934970018300,9.863018310546876,0.0009174589649774134,-0.001026115962304175,-0.0013885721564292908
1769666934980006400,9.87300634765625,0.00025726135936565697,-0.0026011094450950623,-0.003890878288075328
1769666934989995500,9.88299560546875,0.00025539714260958135,-0.002695385366678238,-0.004473045468330383
1769666934999983600,9.892983642578125,0.0025545042008161545,0.001981125446036458,-0.0035111114848405123
1769666935009972500,9.902972412109374,0.0016442356863990426,0.00014887070574332029,-0.0051715923473238945
1769666935019960300,9.912960205078125,-0.0005083974683657289,-0.0008498146780766547,-0.0055215316824615
1769666935029949400,9.922949462890625,0.001258609932847321,-0.0017984326696023345,-0.005327120888978243
1769666935039938600,9.9329384765625,0.0008623315370641649,-0.0009805759182199836,-0.005366003140807152
1769666935049926400,9.942926513671875,-0.0001395496365148574,-0.0005209143273532391,-0.006000900641083717
1769666935059914200,9.952914306640626,0.001529453438706696,-0.002115881536155939,-0.005859220866113901
1769666935069903400,9.9629033203125,0.0026770094409585,-0.002329467097297311,-0.0065710837952792645
1769666935079891500,9.972891357421876,0.001187503570690751,-0.0015701997326686978,-0.00603525573387742
1769666935089880600,9.982880615234375,0.0023188143968582153,-0.0031334753148257732,-0.005995308049023151
1769666935099869400,9.992869384765624,0.0027300063520669937,-0.0029438582714647055,-0.004914863966405392
1769666935109857500,10.002857421875,0.00020000340009573847,-0.004851746838539839,-0.0038181741256266832
1769666935119845400,10.012845458984375,0.002004827605560422,-0.0034115093294531107,-0.0043713124468922615
1769666935129834500,10.02283447265625,0.0017680726014077663,-0.004335093777626753,-0.003376355627551675
1769666935139823400,10.0328232421875,0.0012258529895916581,-0.0011044129496440291,-0.0028727517928928137
1769666935149811500,10.0428115234375,0.0017084177816286683,-0.0021608888637274504,-0.00279019377194345
1769666935159800600,10.052800537109375,0.0004924184759147465,-0.0020820593927055597,-0.002936401404440403
1769666935169788400,10.062788330078124,0.0022383867762982845,-0.0010351707460358739,-0.0041063278913497925
1769666935179777300,10.07277734375,0.002502039773389697,-0.0014969628537073731,-0.002174737397581339
1769666935189765400,10.082765380859374,0.0018815232906490564,-0.0014692660188302398,-0.002548911375924945
1769666935199754500,10.09275439453125,0.0026146916206926107,0.00029081720276735723,-0.0038570561446249485
1769666935209742600,10.10274267578125,0.002002164488658309,0.0010849718237295747,-0.0021587584633380175
1769666935219731500,10.1127314453125,0.000966993800830096,0.0006953513366170228,-0.0029878003988415003
1769666935229719300,10.12271923828125,0.0020996362436562777,0.0008189220097847283,-0.003942010924220085
1769666935239708400,10.13270849609375,0.002142246812582016,0.002624811604619026,-0.0019417107105255127
1769666935249696500,10.142696533203125,0.001995772821828723,0.0012982910266146064,-0.0039854203350842
1769666935259685600,10.152685546875,0.0021819279063493013,0.002672215923666954,-0.0028218855150043964
1769666935269673500,10.162673583984375,0.0018128136871382594,0.0026114957872778177,-0.003163036424666643
1769666935279662300,10.172662353515625,0.0017310547409579158,0.004001133143901825,-0.002350772265344858
1769666935289650400,10.182650390625,0.002697515767067671,0.0038546593859791756,-0.0019411781104281545
1769666935299639600,10.1926396484375,0.0008234494016505778,0.004582767374813557,-0.002832005498930812
1769666935309627600,10.202627685546876,0.002653307281434536,0.0033041839487850666,-0.0033425334841012955
1769666935319616500,10.212616455078125,0.0009755159262567759,0.0025992451701313257,-0.002235191175714135
1769666935329604400,10.222604248046874,0.0026407905388623476,0.0034229608718305826,-0.0008261125767603517
1769666935339593500,10.232593505859375,0.0018940401496365666,0.003564907470718026,-0.0034999263007193804
1769666935349581600,10.24258154296875,-0.00006604639202123508,0.0036882117856293917,-0.003706853836774826
1769666935359570400,10.2525703125,0.0018141453620046377,0.004068777430802584,-0.0035244273021817207
1769666935369558500,10.26255859375,0.0020652813836932182,0.00304612354375422,-0.0029643645975738764
1769666935379547400,10.27254736328125,0.00023515711654908955,0.002912432886660099,-0.002715891692787409
1769666935389535500,10.282535400390625,0.002754773711785674,0.0015992282424122095,-0.0016698020044714212
1769666935399524400,10.2925244140625,0.0015590144321322441,0.0007691209320910275,-0.001317998394370079
1769666935409512400,10.302512451171875,0.0018706043483689427,0.00027510453946888447,-0.0029166939202696085
1769666935419501600,10.31250146484375,-0.0002372876479057595,0.0006607302348129451,-0.0018924422329291701
1769666935429489400,10.322489501953125,0.0008615325787104666,0.0010194580536335707,-0.0006713828770443797
1769666935439478300,10.332478271484375,0.0012327772565186024,0.0016990967560559511,-0.0026762105990201235
1769666935449466400,10.34246630859375,0.0008732505375519395,0.0005302353529259562,-0.00398595305159688
1769666935459455500,10.35245556640625,0.002118011936545372,0.0008697884040884674,-0.0036914076190441847
1769666935469443800,10.36244384765625,0.0005989448982290924,-0.0005789712304249406,-0.004355866461992264
1769666935479432700,10.3724326171875,0.00016538229829166085,-0.0014436995843425393,-0.0019267969764769077
1769666935489420500,10.382420654296874,0.002231196267530322,0.0000953411654336378,-0.0018916432745754719
1769666935499409700,10.39240966796875,0.001303351018577814,-0.000806138850748539,-0.005083974450826645
1769666935509397800,10.402397705078124,0.0007882956997491419,-0.0001448759576305747,-0.004171575419604778
1769666935519387000,10.412386962890626,0.002014681464061141,0.0000125168571685208,-0.003638677066192031
1769666935529374700,10.422374755859375,0.0023441144730895758,0.00043516053119674325,-0.002448244020342827
1769666935539363600,10.432363525390626,0.0023395870812237263,-0.00122558674775064,-0.0019198728259652853
1769666935549351700,10.4423515625,0.00041305628838017583,-0.0006793724023737013,-0.0018314558546990156
1769666935559340800,10.4523408203125,0.0025534387677907944,-0.002787264296784997,-0.0019212043844163418
1769666935569329000,10.462328857421875,0.003022687742486596,-0.003233876544982195,-0.0018032263033092022
1769666935579317800,10.47231787109375,-0.0009153284481726587,-0.0020458402577787638,-0.002070607617497444
1769666935589305600,10.4823056640625,0.0027105652261525393,-0.003040797309949994,-0.0027324033435434103
1769666935599294700,10.492294677734375,0.0013648699969053268,-0.0017885789275169373,-0.0020668793004006147
1769666935609282800,10.50228271484375,0.001555552356876433,-0.0006777744856663048,-0.0037015276029706
1769666935619271700,10.512271728515625,0.00019121496006846428,0.0008900284301489592,-0.005118329077959061
1769666935629259800,10.522259765625,0.0016458334866911173,0.0006226470577530563,-0.005520999431610107
1769666935639248600,10.53224853515625,0.0008588694618083537,-0.001148088718764484,-0.0025539714843034744
1769666935649236700,10.54223681640625,0.0016929714474827051,-0.0005699164466932416,-0.001332912128418684
1769666935659225600,10.5522255859375,0.000958205375354737,-0.0012634035665541887,-0.0026554379146546125
1769666935669213700,10.562213623046874,0.00029640982393175364,0.0008423578692600131,-0.0030719563364982605
1769666935679202800,10.572202880859376,0.0022383867762982845,-0.0004799016169272363,-0.0014658038271591067
1769666935689190700,10.582190673828125,0.0004913532175123692,-0.00014088122406974435,-0.0013142699608579278
1769666935699179800,10.5921796875,0.001782453735359013,-0.005323659162968397,-0.007413707673549652
1769666935709167600,10.602167724609375,0.0016471651615574956,-0.0033566481433808804,-0.006616889964789152
1769666935719156700,10.61215673828125,0.0018745990237221122,-0.0002205097407568246,-0.005152950529009104
1769666935729144800,10.622144775390625,0.002222674200311303,-0.002112152986228466,-0.004826713353395462
1769666935739133700,10.6321337890625,0.0012804478174075484,-0.001770469476468861,-0.0057471017353236675
1769666935749121800,10.642121826171875,0.0005805690889246762,-0.0031193606555461884,-0.004481301177293062
1769666935759110700,10.652110595703125,0.0017212009988725185,-0.007195062469691038,-0.004321511369198561
1769666935769098800,10.6620986328125,0.0011411645682528615,-0.0057681407779455185,-0.005632852204144001
1769666935779088000,10.672087890625,0.0016668725293129683,-0.0017981663113459945,-0.0057652113027870655
1769666935789075700,10.68207568359375,0.002546780975535512,-0.000791491474956274,-0.0037968687247484922
1769666935799064600,10.692064697265625,0.0020732709672302008,-0.0030740867368876934,-0.0026969832833856344
1769666935809052700,10.702052734375,0.002406165935099125,-0.0028605014085769653,-0.0026106967125087976
1769666935819041800,10.712041748046875,0.00173717993311584,-0.0026144252624362707,-0.0036045885644853115
1769666935829030000,10.72202978515625,0.00196434766985476,-0.0008279767935164273,-0.002144909929484129
1769666935839018800,10.732018798828125,0.000025832661776803434,-0.0023284016642719507,-0.003495931625366211
1769666935849006600,10.742006591796875,0.0019326560432091355,-0.00038216362008824944,-0.004613393917679787
1769666935858995700,10.75199560546875,0.0014165353495627642,-0.0005821670056320727,-0.006783603690564632
1769666935868983800,10.76198388671875,0.0005416869535110891,-0.000434361572843045,-0.008285626769065857
1769666935878972700,10.77197265625,-0.000030360035452758893,-0.0009744506096467376,-0.006617955397814512
1769666935888960500,10.78196044921875,0.002142246812582016,-0.0016077503096312284,-0.006316218990832567
1769666935898949600,10.79194970703125,0.0013483584625646472,-0.00014460964302998036,-0.004891161806881428
1769666935908937700,10.801937744140625,0.0015478292480111122,-0.0016447682864964008,-0.004021106753498316
1769666935918926600,10.811926513671875,0.0007150587625801563,-0.0019374496769160032,-0.0065385932102799416
1769666935928914700,10.821914794921875,0.0023928501177579165,-0.0015603461069986224,-0.004061853047460318
1769666935938903800,10.83190380859375,0.002698314841836691,-0.0032796829473227262,-0.0031348068732768297
1769666935948891600,10.8418916015625,0.001458080718293786,-0.0007483482477255166,-0.0024559672456234694
1769666935958880800,10.851880859375,0.0019917781464755535,-0.0001448759576305747,-0.002226402750238776
1769666935968868600,10.86186865234375,0.0018160095205530524,0.0004069310089107603,-0.0010937602492049336
1769666935978857700,10.871857666015625,0.0015464976895600557,0.000502804818097502,-0.0019973707385361195
1769666935988845800,10.881845703125,0.0018791264155879617,-0.0012591425329446793,-0.004805141594260931
1769666935998834700,10.891834716796875,0.003290868131443858,-0.0032626385800540447,-0.008665925823152065
1769666936008822800,10.90182275390625,0.0022426480427384377,0.002130528911948204,-0.0049585397355258465
1769666936018811600,10.911811767578126,0.001856223214417696,0.0020967067684978247,-0.0052027516067028046
1769666936028799700,10.9217998046875,0.0007448861724697053,-0.00056219327962026,-0.00410552928224206
1769666936038788900,10.931788818359376,0.0001411475386703387,-0.0012202603975310922,-0.0073439329862594604
1769666936048776700,10.941776611328125,0.0015337144723162055,0.0005081311101093888,-0.005388107616454363
1769666936058765600,10.951765625,0.0009635316673666239,0.0003158508916385472,-0.006163087207823992
1769666936068753700,10.961753662109375,0.0011281149927526712,-0.001463406952098012,-0.006672816351056099
1769666936078742800,10.97174267578125,-0.0002777676854748279,0.0006804376607760787,-0.006351905409246683
1769666936088731000,10.98173095703125,0.0021257351618260145,0.0005456816870719194,-0.0046879625879228115
1769666936098719500,10.991719482421875,0.0016405072528868914,-0.00008655273268232122,-0.004764128942042589
1769666936108707600,11.00170751953125,0.0015574166318401694,-0.0014314490836113691,-0.0051739891059696674
1769666936118696700,11.01169677734375,0.0019973707385361195,0.0007086671539582312,-0.0031228226143866777
1769666936128684800,11.021684814453126,-0.0011912320042029023,-0.0016098808264359832,-0.0044075315818190575
1769666936138673700,11.031673583984375,0.0024261397775262594,-0.0008932242053560913,-0.002423742786049843
1769666936148661500,11.04166162109375,0.0014239922165870667,-0.0005502090789377689,-0.0027478495612740517
1769666936158650600,11.051650634765625,0.00018881811411119998,-0.0005134574603289366,-0.0028309402987360954
1769666936168638700,11.061638671875,0.0006761765689589083,-0.0002969424531329423,-0.0023185480386018753
1769666936178627800,11.0716279296875,0.0018136126454919577,0.0002378202771069482,-0.004120975267142057
1769666936188615700,11.08161572265625,0.001683384063653648,-0.0008767126128077507,-0.0041486723348498344
1769666936198604800,11.091604736328126,0.0009443568997085094,-0.001415736391209066,-0.004090881906449795
1769666936208592600,11.101592529296875,0.0007243797881528735,-0.0017691379180178046,-0.004375040996819735
1769666936218581800,11.111581787109374,0.0017297230660915375,-0.0005739112384617329,-0.004954544827342033
1769666936228569900,11.12156982421875,0.001915878034196794,-0.002037318190559745,-0.004167846869677305
1769666936238558700,11.131558837890625,0.0013480921043083072,-0.001273257308639586,-0.004472779110074043
1769666936248546600,11.141546630859375,0.0018069547368213534,-0.00009853696246864274,-0.0039854203350842
1769666936258535700,11.15153564453125,0.0013025520602241158,0.00047377636656165123,-0.0025209481827914715
1769666936268523800,11.161523681640626,0.0009653958841226995,-0.0004934837343171239,-0.0033984598703682423
1769666936278512600,11.1715126953125,0.0022660838440060616,-0.0009768474847078323,-0.0024549018125981092
1769666936288500700,11.181500732421876,0.0004122573300264776,0.000041545314161339775,-0.004071973264217377
1769666936298489900,11.19148974609375,0.001520398654974997,0.000734766130335629,-0.004479437135159969
1769666936308477700,11.201477783203124,0.002162220422178507,-0.0003001382574439049,-0.0046357642859220505
1769666936318466600,11.211466552734375,0.0013904364313930273,-0.0009805759182199836,-0.003266899613663554
1769666936328454700,11.22145458984375,0.0020008329302072525,-0.0010665960144251585,-0.004780640359967947
1769666936338443800,11.23144384765625,0.0006375607335940003,-0.0008532768115401268,-0.003703658003360033
1769666936348432000,11.241431884765625,0.0008106662426143885,-0.0012985573848709464,-0.0034703651908785105
1769666936358420700,11.251420654296876,0.0023883229587227106,-0.0000804274677648209,-0.004544417839497328
1769666936368408600,11.26140869140625,0.0014234596164897084,-0.0005757753970101476,-0.005091431550681591
1769666936378397700,11.271397705078124,-0.0002378202771069482,-0.0016285229939967394,-0.004172108136117458
1769666936388385800,11.2813857421875,0.0005249090609140694,-0.0008892294717952609,-0.0038400120101869106
1769666936398375000,11.291375,0.0016530241118744016,-0.0006767092272639275,-0.004050934221595526
1769666936408362800,11.30136279296875,0.0011494202772155404,-0.0009688580175861716,-0.0052296495996415615
1769666936418351600,11.3113515625,0.0007717840489931405,-0.0016532903537154198,-0.0056951697915792465
1769666936428339700,11.321339599609376,0.0009744506096467376,-0.00014327807002700865,-0.00443975580856204
1769666936438328800,11.331328857421875,0.0024082965683192015,-0.0021843246649950743,-0.002439455594867468
1769666936448317000,11.34131689453125,0.0007097324123606086,-0.0016769925132393837,-0.0029619678389281034
1769666936458305500,11.351305419921875,0.002499643014743924,-0.0025803367607295513,-0.0034669029992073774
1769666936468293600,11.361293701171874,0.0002681803307496011,-0.002104163635522127,-0.0034234935883432627
1769666936478282800,11.37128271484375,0.0019648801535367966,-0.0030810111202299595,-0.0025188177824020386
1769666936488270600,11.3812705078125,0.0017022925894707441,-0.0032708945218473673,-0.003962783608585596
1769666936498259500,11.391259521484375,0.0011406318517401814,-0.002551840851083398,-0.0033665020018815994
1769666936508247600,11.40124755859375,0.0021233384031802416,-0.002042910782620311,-0.0024256070610135794
1769666936518236700,11.411236572265626,0.0023646207991987467,-0.0010540791554376483,-0.0023454460315406322
1769666936528224800,11.421224853515625,0.0018777948571369052,-0.0010876349406316876,-0.0014484933344647288
1769666936538213600,11.431213623046874,0.0007275756215676665,-0.0020519655663520098,-0.0016029566759243608
1769666936548201500,11.441201416015625,0.001996571896597743,-0.0022833943367004395,-0.0028011128306388855
1769666936558190600,11.451190673828124,0.0016295883106067777,-0.0035635759122669697,-0.0013424995122477412
1769666936568178700,11.4611787109375,0.0007693872321397066,-0.002773415995761752,-0.0027020431589335203
1769666936578167600,11.47116748046875,0.0018607506062835455,-0.0019409117521718144,-0.002692722249776125
1769666936588155400,11.4811552734375,0.0012013519881293178,-0.0029342707712203264,-0.001285241567529738
1769666936598144500,11.49114453125,0.0012207929976284504,-0.001478320686146617,-0.002083390951156616
1769666936608132600,11.501132568359376,0.0011944277212023735,-0.0009856359101831913,-0.002088450826704502
1769666936618121700,11.511121826171875,0.0013257216196507215,-0.0009590042755007744,-0.0026165556628257036
1769666936628109600,11.521109619140624,0.001942509668879211,-0.003010969841852784,-0.0031411985401064157
1769666936638098700,11.5310986328125,0.0009526127250865102,-0.002995523624122143,-0.0017001620726659894
1769666936648086500,11.54108642578125,0.001282045734114945,-0.002898584585636854,-0.0005763080553151667
1769666936658075600,11.55107568359375,0.0028210864402353764,-0.0013201289111748338,-0.0029763488564640284
1769666936668063700,11.561063720703125,0.0015646071406081319,0.0007363640470430255,-0.004007258452475071
1769666936678052600,11.571052490234376,0.002231728984043002,0.0002937466779258102,-0.0033420007675886154
1769666936688040700,11.581040771484375,0.00033103092573583126,-0.006284261122345924,-0.0062669506296515465
1769666936698029600,11.591029541015626,0.003326288191601634,-0.005057076457887888,-0.005110073368996382
1769666936708017700,11.601017578125,0.0020069582387804985,-0.000030892668291926384,-0.0019686087034642696
1769666936718006500,11.611006591796874,0.0021667478140443563,-0.006542854011058807,-0.00378967821598053
1769666936727994600,11.62099462890625,0.0004982774262316525,-0.005117530468851328,-0.0032565132714807987
1769666936737983700,11.630983642578125,0.00041758365114219487,-0.0019459717441350222,-0.004765992984175682
1769666936747971600,11.6409716796875,0.0011504855938255787,-0.0052472264505922794,-0.0017539578257128596
1769666936757960400,11.65096044921875,0.002889263443648815,-0.004576376173645258,-0.0016170714516192675
1769666936767948500,11.660948486328126,0.001802693703211844,-0.003067961661145091,-0.0038000645581632853
1769666936777937700,11.670937744140625,0.0009158611064776778,-0.000743820914067328,-0.002528671408072114
1769666936787925800,11.68092578125,0.0018269284628331661,-0.0005174521938897669,-0.003287672298029065
1769666936797914600,11.69091455078125,0.002915362361818552,0.0005214469274505973,-0.004319380968809128
1769666936807902500,11.70090234375,-0.0000015978966985130683,-0.0006050702068023384,-0.0031531827989965677
1769666936817891600,11.7108916015625,0.002572879893705249,-0.0004271710349712521,-0.004826979245990515
1769666936827879700,11.720879638671875,0.0026674221735447645,-0.00003861583536490798,-0.0021081583108752966
1769666936837868800,11.730868896484376,0.0011683288030326366,-0.0005632585380226374,-0.002691656816750765
1769666936847856600,11.740856689453125,0.0005507417372427881,-0.0027092336677014828,-0.004110322799533606
1769666936857845500,11.750845458984376,0.000969923275988549,-0.003382480936124921,-0.005864014383405447
