time,seconds_elapsed,z,y,x
1769666925176290300,0.069290283203125,0.18611998856067657,-0.2235109508037567,-0.25128695368766785
1769666925186278100,0.079278076171875,0.18149222433567047,-0.21098265051841736,-0.2503420412540436
1769666925196267000,0.08926708984375,0.1847301572561264,-0.20662148296833038,-0.25079286098480225
1769666925206255000,0.099255126953125,0.18137671053409576,-0.21564427018165588,-0.2578933835029602
1769666925216244200,0.109244140625,0.1991879791021347,-0.21737390756607056,-0.2736169695854187
1769666925226232300,0.119232421875,0.21000654995441437,-0.2068277895450592,-0.2939145267009735
1769666925236221400,0.129221435546875,0.21986018121242523,-0.20549336075782776,-0.29828181862831116
1769666925246209000,0.139208984375,0.23462820053100586,-0.19192269444465637,-0.3183404803276062
1769666925256198100,0.1491982421875,0.2452860176563263,-0.17312011122703552,-0.3457489609718323
1769666925266186200,0.159186279296875,0.24509505927562714,-0.16817247867584229,-0.3814001679420471
1769666925276175400,0.16917529296875,0.2338908463716507,-0.15491564571857452,-0.4225379526615143
1769666925286163200,0.1791630859375,0.22754745185375214,-0.21409347653388977,-0.4683768153190613
1769666925296152000,0.189152099609375,0.219580739736557,-0.2763175666332245,-0.523074209690094
1769666925306140200,0.19914013671875,0.20577730238437653,-0.32947850227355957,-0.5611646175384521
1769666925316129300,0.20912939453125,0.1883959174156189,-0.39970138669013977,-0.5881047248840332
1769666925326117400,0.219117431640625,0.17039453983306885,-0.4215371906757355,-0.6412771344184875
1769666925336106200,0.229106201171875,0.15864402055740356,-0.4468660354614258,-0.7217100262641907
1769666925346094000,0.239093994140625,0.1460627168416977,-0.5038091540336609,-0.7838348746299744
1769666925356083200,0.249083251953125,0.1436641663312912,-0.5325930714607239,-0.8443402051925659
1769666925366071300,0.2590712890625,0.1176765039563179,-0.5649718046188354,-0.8949511647224426
1769666925376060200,0.26906005859375,0.11750388145446777,-0.6035560369491577,-0.971648097038269
1769666925386048300,0.27904833984375,0.10613884031772614,-0.6840002536773682,-1.0380314588546753
1769666925396037000,0.289037109375,0.11443406343460083,-0.7322297692298889,-1.1094290018081665
1769666925406025200,0.299025146484375,0.08989676088094711,-0.7028747797012329,-1.1606231927871704
1769666925416014000,0.30901416015625,0.044568635523319244,-0.6885033845901489,-1.2977405786514282
1769666925426002200,0.319002197265625,0.02703331597149372,-0.8155353665351868,-1.3909049034118652
1769666925435991300,0.3289912109375,0.01766373962163925,-0.9188821315765381,-1.456885576248169
1769666925445979100,0.338979248046875,0.02739972248673439,-1.0379563570022583,-1.4835983514785767
1769666925455968300,0.34896826171875,0.08042950183153152,-1.1162995100021362,-1.5143204927444458
1769666925465957000,0.35895703125,0.12726837396621704,-1.0898343324661255,-1.5956318378448486
1769666925475945200,0.3689453125,0.15083567798137665,-0.8325886726379395,-1.6496602296829224
1769666925485933000,0.37893310546875,0.2054954618215561,-0.5589786767959595,-1.6693098545074463
1769666925495922200,0.388922119140625,0.2563059628009796,-0.5243146419525146,-1.6796607971191406
1769666925505911000,0.3989111328125,0.2867797315120697,-0.4442482888698578,-1.7403209209442139
1769666925515899100,0.408899169921875,0.2958991527557373,-0.3163326382637024,-1.8117626905441284
1769666925525888300,0.41888818359375,0.3074144124984741,-0.3264223039150238,-1.8608542680740356
1769666925535876000,0.4288759765625,0.33006027340888977,-0.3387413024902344,-1.884110689163208
1769666925545865000,0.438864990234375,0.29803627729415894,-0.25795778632164,-1.8928008079528809
1769666925555853000,0.44885302734375,0.25522667169570923,-0.19052517414093018,-1.8743598461151123
1769666925565842200,0.45884228515625,0.23332326114177704,-0.2382223904132843,-1.837520956993103
1769666925575830300,0.468830322265625,0.21891237795352936,-0.23814749717712402,-1.840994954109192
1769666925585819100,0.478819091796875,0.22656764090061188,-0.2600943446159363,-2.034193277359009
1769666925595807000,0.488806884765625,0.2633811831474304,-0.38055235147476196,-2.2047970294952393
1769666925605796000,0.498796142578125,0.23301050066947937,-0.5234828591346741,-2.145951509475708
1769666925615784200,0.5087841796875,0.25420108437538147,-0.4361073076725006,-2.144298553466797
1769666925625773300,0.518773193359375,0.2619364857673645,-0.23146867752075195,-2.1955459117889404
1769666925635761000,0.528760986328125,0.277587890625,-0.087314173579216,-2.167165756225586
1769666925645750000,0.53875,0.24192948639392853,0.2723851203918457,-2.0627670288085938
1769666925655738000,0.548738037109375,0.11821059137582779,1.0028254985809326,-2.070377826690674
1769666925665727200,0.558727294921875,-0.045142654329538345,2.10683274269104,-2.2236123085021973
1769666925675715300,0.56871533203125,-0.21804222464561462,2.543901205062866,-2.003809690475464
1769666925685704200,0.5787041015625,-0.42814698815345764,2.4174468517303467,-1.5820940732955933
1769666925695692000,0.588692138671875,-0.5066351890563965,1.903801441192627,-1.1326944828033447
1769666925705681200,0.59868115234375,-0.43259289860725403,1.1694600582122803,-0.6370304226875305
1769666925715669200,0.608669189453125,-0.3594358265399933,0.7104230523109436,-0.20201922953128815
1769666925725658000,0.618658203125,-0.2614802420139313,0.5327520966529846,0.03744182735681534
1769666925735646000,0.62864599609375,-0.10961245000362396,0.524882972240448,0.020976796746253967
1769666925745635000,0.638635009765625,0.1595471054315567,0.88128662109375,-0.18083249032497406
1769666925755623200,0.648623046875,0.35289332270622253,1.1706100702285767,-0.39994654059410095
1769666925765612000,0.658612060546875,0.3701106607913971,1.5152082443237305,-0.4787609279155731
1769666925775600000,0.66860009765625,0.3219453692436218,1.8400778770446777,-0.473527193069458
1769666925785589200,0.67858935546875,0.264400839805603,2.1302804946899414,-0.5957751274108887
1769666925795577000,0.6885771484375,0.2312895655632019,2.0540719032287598,-0.745630145072937
1769666925805566000,0.69856591796875,0.18304108083248138,1.7807118892669678,-0.6814881563186646
1769666925815554000,0.708553955078125,0.08882371336221695,1.725079894065857,-0.4955269694328308
1769666925825543200,0.718543212890625,0.0528329573571682,1.4524198770523071,-0.27544599771499634
1769666925835531300,0.72853125,0.012510765343904495,1.161507487297058,-0.11998122185468674
1769666925845520100,0.73852001953125,-0.005646133329719305,0.9852176308631897,-0.05635031312704086
1769666925855508000,0.748508056640625,0.003430888056755066,1.0177037715911865,-0.11477150768041611
1769666925865497000,0.7584970703125,0.01975659839808941,1.0470483303070068,-0.1872694194316864
1769666925875485200,0.768485107421875,0.04894563555717468,1.0695085525512695,-0.2294931858778
1769666925885474300,0.778474365234375,0.06318795680999756,1.0232433080673218,-0.2928503155708313
1769666925895462100,0.788462158203125,0.05112478882074356,0.9484453201293945,-0.30659639835357666
1769666925905451000,0.798450927734375,0.014622434973716736,0.8632710576057434,-0.22482536733150482
1769666925915439000,0.808439208984375,-0.007938528433442116,0.7634137868881226,-0.1776915192604065
1769666925925428200,0.81842822265625,-0.03118179738521576,0.6942552328109741,-0.15726666152477264
1769666925935416300,0.828416259765625,-0.029898403212428093,0.5817111134529114,-0.11793477088212967
1769666925945405200,0.8384052734375,-0.019674528390169144,0.4968409836292267,-0.1486564576625824
1769666925955393000,0.84839306640625,-0.005802128463983536,0.3904910385608673,-0.15772868692874908
1769666925965382100,0.858382080078125,0.006209527142345905,0.33575987815856934,-0.10128351300954819
1769666925975370200,0.868370361328125,0.014946704730391502,0.2636294364929199,-0.06506778299808502
1769666925985359000,0.878359130859375,0.010945837944746017,0.2466754913330078,-0.08889428526163101
1769666925995347000,0.888346923828125,0.0033004528377205133,0.23354828357696533,-0.11311126500368118
1769666926005336000,0.898336181640625,0.0003110547550022602,0.20227079093456268,-0.13660727441310883
1769666926015324200,0.90832421875,0.0028312820941209793,0.20982199907302856,-0.12392847239971161
1769666926025313000,0.91831298828125,0.0030446015298366547,0.2252238541841507,-0.10429058969020844
1769666926035301000,0.928301025390625,-0.00468157883733511,0.1791219562292099,-0.11684943735599518
1769666926045290200,0.938290283203125,-0.003819513600319624,0.14670808613300323,-0.08856027573347092
1769666926055278000,0.948278076171875,-0.007882589474320412,0.10825160890817642,-0.04899714142084122
1769666926065267200,0.95826708984375,-0.011040032841265202,0.06267613172531128,-0.0421416312456131
1769666926075255000,0.968255126953125,-0.008558711968362331,0.06487128883600235,-0.0691952183842659
1769666926085244200,0.978244140625,-0.002981786150485277,0.07392976433038712,-0.06273625046014786
1769666926095232000,0.98823193359375,-0.007021046243607998,0.0594206340610981,-0.05609388276934624
1769666926105221000,0.99822119140625,-0.009882879443466663,0.06594803929328918,-0.07102569192647934
1769666926115209200,1.008209228515625,-0.01650361716747284,0.07211215049028397,-0.07683837413787842
1769666926125198000,1.018197998046875,-0.02307736501097679,0.05746662616729736,-0.08748675882816315
1769666926135186200,1.028186279296875,-0.027300290763378143,0.047064125537872314,-0.09805339574813843
1769666926145175300,1.03817529296875,-0.02921164035797119,0.04450828954577446,-0.08902847766876221
1769666926155163100,1.0481630859375,-0.03879528120160103,0.039310552179813385,-0.0846448615193367
1769666926165152000,1.058152099609375,-0.03388974070549011,0.03399647772312164,-0.07933558523654938
1769666926175140000,1.06814013671875,-0.028695158660411835,0.0383291020989418,-0.0851493552327156
1769666926185129200,1.078129150390625,-0.024533968418836594,0.05217274650931358,-0.09356414526700974
1769666926195117300,1.088117431640625,-0.02411692403256893,0.05980658903717995,-0.08655831962823868
1769666926205106000,1.09810595703125,-0.02001458965241909,0.0584891214966774,-0.07960933446884155
1769666926215094000,1.108093994140625,-0.011014235205948353,0.04776827245950699,-0.06665259599685669
1769666926225083100,1.118083251953125,-0.0052050817757844925,0.011235027574002743,-0.038176219910383224
1769666926235071200,1.1280712890625,0.0051181744784116745,-0.008854027837514877,-0.0016378299333155155
1769666926245060000,1.13806005859375,0.0074641527608036995,-0.020978601649403572,0.020821407437324524
1769666926255048000,1.1480478515625,0.006909036077558994,-0.03801185265183449,0.05900244414806366
1769666926265037000,1.158037109375,0.012924850918352604,-0.04349903017282486,0.08558584749698639
1769666926275025200,1.168025146484375,0.01797066256403923,-0.045891162008047104,0.10694310069084167
1769666926285014300,1.17801416015625,0.022886857390403748,-0.05175650864839554,0.1102515459060669
1769666926295002000,1.188002197265625,0.02509266510605812,-0.054941948503255844,0.10104572772979736
1769666926304991000,1.197990966796875,0.026990966871380806,-0.057427745312452316,0.0790562778711319
1769666926314979000,1.20797900390625,0.02465825527906418,-0.054954804480075836,0.05430780351161957
1769666926324968200,1.21796826171875,0.023329338058829308,-0.04705693572759628,0.025947269052267075
1769666926334956300,1.227956298828125,0.02327224798500538,-0.03846146538853645,0.00013781688176095486
1769666926344945200,1.237945068359375,0.02014516480267048,-0.0384201854467392,-0.013357484713196754
1769666926354933000,1.24793310546875,0.011724308133125305,-0.03551732003688812,-0.008566958829760551
1769666926364922000,1.257922119140625,0.008656080812215805,-0.02513791434466839,-0.007250824943184853
1769666926374910200,1.26791015625,0.0013076041359454393,-0.010703638195991516,-0.010419132187962532
1769666926384899000,1.277899169921875,0.00005165743641555309,0.005514746531844139,-0.011567754670977592
1769666926394887200,1.28788720703125,0.00047131709288805723,0.01812063716351986,-0.018955234438180923
1769666926404876300,1.297876220703125,0.001024189405143261,0.03299678862094879,-0.030169270932674408
1769666926414864100,1.307864013671875,0.004554517567157745,0.0483834333717823,-0.039621010422706604
1769666926424853000,1.31785302734375,0.0079583041369915,0.059768445789813995,-0.04728558659553528
1769666926434841000,1.327841064453125,0.012031947262585163,0.06092902272939682,-0.052777476608753204
1769666926444830200,1.337830322265625,0.01572415418922901,0.05525622516870499,-0.0515577495098114
1769666926454818000,1.347818115234375,0.017841089516878128,0.04024164006114006,-0.050915978848934174
1769666926464807000,1.357806884765625,0.021621711552143097,0.03289743885397911,-0.05523349344730377
1769666926474795000,1.367794921875,0.022305291146039963,0.02612617239356041,-0.05773620307445526
1769666926484784000,1.3777841796875,0.029398620128631592,0.02131703495979309,-0.06039191037416458
1769666926494772200,1.387772216796875,0.028532257303595543,0.01595090888440609,-0.06346912682056427
1769666926504761300,1.39776123046875,0.027416659519076347,0.011379326693713665,-0.07029160857200623
1769666926514749000,1.4077490234375,0.01714119128882885,0.0016760779544711113,-0.0645395815372467
1769666926524738000,1.417738037109375,0.004858159460127354,0.0006036229897290468,-0.054375097155570984
1769666926534726100,1.42772607421875,0.000734969973564148,0.01493443176150322,-0.05719370022416115
1769666926544715300,1.43771533203125,-0.003613971872255206,0.04328271374106407,-0.06674512475728989
1769666926554703400,1.447703369140625,-0.008412395603954792,0.06947120279073715,-0.07712583243846893
1769666926564692000,1.45769189453125,-0.009868877939879894,0.09078820794820786,-0.08504421263933182
1769666926574680000,1.46768017578125,-0.005549068097025156,0.09629536420106888,-0.08045889437198639
1769666926584669200,1.477669189453125,-0.006640964187681675,0.10590218752622604,-0.08021015673875809
1769666926594657300,1.4876572265625,0.0043031759560108185,0.11837106198072433,-0.07313979417085648
1769666926604646100,1.497646240234375,-0.005032268352806568,0.11305113136768341,-0.07007556408643723
1769666926614634000,1.507634033203125,-0.001424255664460361,0.11765668541193008,-0.07424066960811615
1769666926624623000,1.517623046875,-0.00003701506648212671,0.10590282082557678,-0.055449407547712326
1769666926634611200,1.527611083984375,0.004350458271801472,0.10742223262786865,-0.050467561930418015
1769666926644600000,1.53760009765625,0.004694539122283459,0.1112758219242096,-0.06241530179977417
1769666926654588200,1.547588134765625,0.00473460229113698,0.11175087094306946,-0.06501757353544235
1769666926664577000,1.557576904296875,0.0013617086224257946,0.1400402933359146,-0.07852645963430405
1769666926674565000,1.567565185546875,0.002896560588851571,0.1590227484703064,-0.09741485118865967
1769666926684554000,1.577553955078125,-0.003742433851584792,0.14791497588157654,-0.08917183429002762
1769666926694542000,1.5875419921875,0.0010784692130982876,0.16958172619342804,-0.10870853811502457
1769666926704531200,1.59753125,-0.0028188005089759827,0.1779903918504715,-0.10996821522712708
1769666926714519000,1.60751904296875,0.00003479607403278351,0.19785133004188538,-0.12501470744609833
1769666926724508200,1.617508056640625,0.0028313815128058195,0.21337971091270447,-0.14688405394554138
1769666926734496000,1.62749609375,0.0020959540270268917,0.24160468578338623,-0.16061994433403015
1769666926744485000,1.637485107421875,0.0016954147722572088,0.2663939297199249,-0.17181934416294098
1769666926754473200,1.64747314453125,-0.0008535402594134212,0.2829098105430603,-0.18567025661468506
1769666926764462300,1.65746240234375,-0.0019728667102754116,0.28529441356658936,-0.1965159773826599
1769666926774450200,1.6674501953125,-0.008573848754167557,0.2882516384124756,-0.19807188212871552
1769666926784439000,1.67743896484375,-0.008877716027200222,0.2933776378631592,-0.1893543004989624
1769666926794427100,1.68742724609375,-0.012807736173272133,0.298025518655777,-0.18521106243133545
1769666926804416300,1.697416259765625,-0.01761713996529579,0.29414716362953186,-0.17948873341083527
1769666926814404000,1.707404052734375,-0.020451270043849945,0.267133504152298,-0.16451653838157654
1769666926824393000,1.71739306640625,-0.02161480486392975,0.2498202919960022,-0.14936155080795288
1769666926834381000,1.727381103515625,-0.019624097272753716,0.226607546210289,-0.14560052752494812
1769666926844370200,1.7373701171875,-0.020752212032675743,0.2107662558555603,-0.141029492020607
1769666926854358300,1.747358154296875,-0.022396285086870193,0.19898150861263275,-0.14823424816131592
1769666926864347100,1.75734716796875,-0.021800268441438675,0.18717969954013824,-0.14858019351959229
1769666926874335000,1.7673349609375,-0.02234659343957901,0.1823481172323227,-0.14244240522384644
1769666926884324000,1.777323974609375,-0.01800777018070221,0.17774483561515808,-0.1382463276386261
1769666926894312200,1.787312255859375,-0.02031746879220009,0.1763584166765213,-0.13714855909347534
1769666926904301000,1.797301025390625,-0.01821730099618435,0.16391906142234802,-0.13335780799388885
1769666926914289200,1.8072890625,-0.017185278236865997,0.15671740472316742,-0.13893049955368042
1769666926924278000,1.817278076171875,-0.01208585686981678,0.12663806974887848,-0.1453186273574829
1769666926934266000,1.82726611328125,-0.01557763572782278,0.16202446818351746,-0.13730837404727936
1769666926944255200,1.837255126953125,-0.017934001982212067,0.17589446902275085,-0.13885512948036194
1769666926954243000,1.8472431640625,-0.010704844258725643,0.1819162517786026,-0.1434159129858017
1769666926964232200,1.857232177734375,-0.01321061234921217,0.190257266163826,-0.14529477059841156
1769666926974221300,1.86722119140625,-0.009441331960260868,0.19954301416873932,-0.14308805763721466
1769666926984209200,1.877209228515625,-0.015779389068484306,0.19960586726665497,-0.1349228024482727
1769666926994197200,1.887197265625,-0.018255973234772682,0.19534896314144135,-0.1261327862739563
1769666927004186000,1.89718603515625,-0.019953470677137375,0.1838318556547165,-0.11886795610189438
1769666927014174200,1.90717431640625,-0.017195772379636765,0.1752883344888687,-0.11851631104946136
1769666927024163000,1.9171630859375,-0.019797414541244507,0.16769646108150482,-0.10432405769824982
1769666927034152000,1.92715185546875,-0.02082548663020134,0.1569572240114212,-0.08998645842075348
1769666927044140000,1.93714013671875,-0.019960759207606316,0.14953473210334778,-0.08359700441360474
1769666927054129200,1.947129150390625,-0.019490722566843033,0.14078763127326965,-0.0769743099808693
1769666927064117200,1.9571171875,-0.017474176362156868,0.13360242545604706,-0.06126672029495239
1769666927074106000,1.967106201171875,-0.016934668645262718,0.12756682932376862,-0.03774379566311836
1769666927084094000,1.977093994140625,-0.017700061202049255,0.1279042512178421,-0.026463445276021957
1769666927094083000,1.9870830078125,-0.01587643101811409,0.12024367600679398,-0.01924826018512249
1769666927104071200,1.9970712890625,-0.013936851173639297,0.11337006092071533,-0.014323540963232517
1769666927114060300,2.007060302734375,-0.01257849857211113,0.10711599886417389,-0.013858772814273834
1769666927124048100,2.017048095703125,-0.01348264142870903,0.08952395617961884,-0.00844802800565958
1769666927134037000,2.027037109375,-0.010731270536780357,0.08254995942115784,-0.014829465188086033
1769666927144025000,2.037025146484375,-0.015466103330254555,0.08928456157445908,-0.025886910036206245
1769666927154014200,2.04701416015625,-0.016373654827475548,0.09943512082099915,-0.03376573324203491
1769666927164002300,2.057002197265625,-0.01825757324695587,0.11404415220022202,-0.049486640840768814
1769666927173991200,2.0669912109375,-0.019463999196887016,0.11895720660686493,-0.050040360540151596
1769666927183979000,2.07697900390625,-0.018839487805962563,0.11042682826519012,-0.047144439071416855
1769666927193968000,2.086968017578125,-0.017608128488063812,0.11070013791322708,-0.04756832495331764
1769666927203956200,2.096956298828125,-0.017730899155139923,0.11704804748296738,-0.047344617545604706
1769666927213945000,2.106945068359375,-0.017439022660255432,0.11553073674440384,-0.0505211316049099
1769666927223933200,2.11693310546875,-0.019270211458206177,0.12172844260931015,-0.056579820811748505
1769666927233922300,2.12692236328125,-0.018288958817720413,0.12868671119213104,-0.06434192508459091
1769666927243910100,2.13691015625,-0.016728345304727554,0.1321546733379364,-0.07060461491346359
1769666927253899000,2.14689892578125,-0.014364221133291721,0.13381724059581757,-0.08102817833423615
1769666927263887000,2.15688720703125,-0.014635597355663776,0.12544585764408112,-0.08532705157995224
1769666927273876200,2.166876220703125,-0.014823604375123978,0.11219089478254318,-0.08436332643032074
1769666927283864000,2.176864013671875,-0.015086458995938301,0.097063347697258,-0.08282162249088287
1769666927293853000,2.18685302734375,-0.014993272721767426,0.09077145159244537,-0.07648983597755432
1769666927303841000,2.196841064453125,-0.013386587612330914,0.08604034036397934,-0.07195021212100983
1769666927313830100,2.206830078125,-0.01252707839012146,0.09154998511075974,-0.07194674015045166
1769666927323818200,2.216818359375,-0.009744873270392418,0.09294814616441727,-0.0802166536450386
1769666927333807000,2.22680712890625,-0.007783920969814062,0.09675580263137817,-0.08938968181610107
1769666927343795000,2.236794921875,-0.007717341650277376,0.0893426313996315,-0.09408589452505112
1769666927353784000,2.2467841796875,-0.005355576518923044,0.07215243577957153,-0.09265517443418503
1769666927363772200,2.256772216796875,-0.001192789408378303,0.059818800538778305,-0.0916181355714798
1769666927373761300,2.26676123046875,-0.0019198994850739837,0.040780000388622284,-0.09009898453950882
1769666927383749000,2.2767490234375,-0.0001174720237031579,0.028211742639541626,-0.08922360092401505
1769666927393738000,2.286738037109375,0.000404288643039763,0.024661650881171227,-0.09036999940872192
1769666927403726000,2.29672607421875,0.002166236052289605,0.02792748436331749,-0.09080488979816437
1769666927413715200,2.306715087890625,0.002295859856531024,0.021716652438044548,-0.0787050724029541
1769666927423703300,2.316703369140625,0.0021725555416196585,0.008063958026468754,-0.06737891584634781
1769666927433692200,2.326692138671875,0.00401653815060854,-0.0003327750600874424,-0.05658905580639839
1769666927443680000,2.336679931640625,0.004445573315024376,-0.008229047991335392,-0.03936159983277321
1769666927453669000,2.346669189453125,0.004647800698876381,-0.006664399057626724,-0.027282504364848137
1769666927463657500,2.356657470703125,0.0008288277313113213,-0.0002618937287479639,-0.02279268205165863
1769666927473646300,2.366646240234375,-0.00028586818370968103,0.00678002554923296,-0.021271899342536926
1769666927483634200,2.37663427734375,-0.0003708230797201395,0.013241120614111423,-0.015390041284263134
1769666927493623300,2.386623291015625,-0.0019276525126770139,0.025331253185868263,-0.014667652547359467
1769666927503611400,2.396611328125,-0.0013798403088003397,0.032150279730558395,-0.020568152889609337
1769666927513600300,2.406600341796875,-0.0014358211774379015,0.03756963089108467,-0.024612832814455032
1769666927523588400,2.41658837890625,-0.002272852696478367,0.034033749252557755,-0.03679546341300011
1769666927533577500,2.426577392578125,-0.004813937935978174,0.033103231340646744,-0.04439068213105202
1769666927543565300,2.4365654296875,-0.002725220751017332,0.03457063063979149,-0.05945485085248947
1769666927553554200,2.44655419921875,-0.0035478551872074604,0.03213096410036087,-0.06721695512533188
1769666927563542300,2.456542236328125,-0.0025363867171108723,0.03243483603000641,-0.07688795775175095
1769666927573531400,2.466531494140625,-0.003275163471698761,0.031592950224876404,-0.08410294353961945
1769666927583519200,2.476519287109375,-0.003884494537487626,0.03734777495265007,-0.08499110490083694
1769666927593508400,2.48650830078125,-0.0021195034496486187,0.03264404088258743,-0.07514096796512604
1769666927603496200,2.49649609375,0.0035144139546900988,0.02972707897424698,-0.07733887434005737
1769666927613485300,2.5064853515625,0.0049118176102638245,0.02358339913189411,-0.07136425375938416
1769666927623473400,2.516473388671875,0.007017046213150024,0.015393645502626896,-0.05244249105453491
1769666927633462500,2.526462646484375,0.006970185786485672,0.010827071964740753,-0.03612072765827179
1769666927643450400,2.536450439453125,0.006851142272353172,0.014210086315870285,-0.023820649832487106
1769666927653439200,2.546439208984375,0.0038611083291471004,0.020391294732689857,-0.015795331448316574
1769666927663427300,2.55642724609375,0.0032903929241001606,0.0253349207341671,-0.009440497495234013
1769666927673416400,2.56641650390625,0.003142266534268856,0.02747618779540062,0.003843744285404682
1769666927683404500,2.576404541015625,0.0044179209508001804,0.02628122642636299,0.010434268973767757
1769666927693393200,2.58639306640625,0.004857820458710194,0.02370736561715603,0.011716974899172783
1769666927703381200,2.59638134765625,0.0042029498144984245,0.02105778641998768,0.010842393152415752
1769666927713370400,2.606370361328125,0.0023892875760793686,0.015104749239981174,0.010060243308544159
1769666927723358500,2.6163583984375,0.0014734265860170126,0.012408033013343811,0.01159768644720316
1769666927733347300,2.626347412109375,-0.00018347904551774263,0.012707307934761047,0.014729202724993229
1769666927743335200,2.636335205078125,0.00003356859087944031,0.014510801061987877,0.01597156748175621
1769666927753324300,2.64632421875,-0.0008836992201395333,0.011774590238928795,0.013154764659702778
1769666927763312400,2.6563125,0.000470518134534359,0.009986278600990772,0.012686580419540405
1769666927773301200,2.66630126953125,-0.0005580378347076476,0.012306991964578629,0.011572493240237236
1769666927783289300,2.676289306640625,-0.0017154476372525096,0.011909913271665573,0.010813758708536625
1769666927793278200,2.6862783203125,-0.0008427896536886692,0.00816868245601654,0.01122066006064415
1769666927803266300,2.696266357421875,-0.0005631577223539352,0.010133296251296997,0.0022221042308956385
1769666927813255400,2.70625537109375,-0.0028558732010424137,0.005845873616635799,-0.00687711825594306
1769666927823243300,2.7162431640625,-0.00030483107548207045,0.004502308554947376,-0.014013059437274933
1769666927833232400,2.726232421875,-0.0015818168176338077,0.005601927638053894,-0.018656546249985695
1769666927843220200,2.73622021484375,0.0006975827272981405,0.003522531595081091,-0.019756965339183807
1769666927853209300,2.746209228515625,0.0010926683899015188,0.003327431855723262,-0.020374765619635582
1769666927863197400,2.756197509765625,0.0010718957055360079,0.002935414668172598,-0.021306073293089867
1769666927873186300,2.766186279296875,-0.0010023129871115088,0.010278172791004181,-0.02536345086991787
1769666927883174400,2.77617431640625,0.0006235467735677958,0.012188191525638103,-0.025813791900873184
1769666927893163500,2.78616357421875,-0.0011292858980596066,0.00903609674423933,-0.020039228722453117
1769666927903151400,2.7961513671875,0.00040442857425659895,0.002326528774574399,-0.016481244936585426
1769666927913140200,2.80614013671875,-0.0002066583838313818,-0.004228479694575071,-0.017587779089808464
1769666927923128300,2.81612841796875,0.0014663394540548325,-0.007549974136054516,-0.017173390835523605
1769666927933117400,2.826117431640625,0.0010326569899916649,-0.006130288355052471,-0.01314089260995388
1769666927943105300,2.836105224609375,-0.00020784337539225817,-0.0033563401084393263,-0.005754349287599325
1769666927953094100,2.84609423828125,0.00027920573484152555,0.00022964086383581161,-0.005654302425682545
1769666927963082200,2.856082275390625,-0.001990073826164007,-0.0006081897299736738,-0.0037408212665468454
1769666927973071400,2.8660712890625,-0.0005637392168864608,0.0024936790578067303,-0.00396759482100606
1769666927983059500,2.8760595703125,-0.0006707982975058258,0.004797846078872681,-0.0037936903536319733
1769666927993048300,2.88604833984375,0.0008660806342959404,0.008027547039091587,-0.005243650637567043
1769666928003037400,2.896037353515625,-0.0019741805735975504,0.013122973963618279,-0.007433301769196987
1769666928013025300,2.906025390625,-0.001285939710214734,0.01486919540911913,-0.00305707985535264
1769666928023013400,2.916013427734375,-0.0012071101227775216,0.0157480388879776,-0.0007526467088609934
1769666928033002500,2.92600244140625,-0.0016237806994467974,0.009393674321472645,0.005652957130223513
1769666928042991400,2.935991455078125,0.00034323008731007576,-0.0009551031980663538,0.01383365597575903
1769666928052979200,2.945979248046875,0.0007856353186070919,-0.00896011758595705,0.03010224550962448
1769666928062968300,2.95596826171875,0.002090318128466606,-0.015876345336437225,0.03411829099059105
1769666928072956400,2.965956298828125,0.002607965376228094,-0.015823855996131897,0.03670573979616165
1769666928082945300,2.9759453125,0.00315338047221303,-0.01033028680831194,0.0340481698513031
1769666928092933400,2.985933349609375,0.002329316921532154,-0.0029084135312587023,0.02824299782514572
1769666928102922500,2.995922607421875,0.0010605871211737394,0.00010974681936204433,0.029765794053673744
1769666928112910300,3.005910400390625,-0.0010276022367179394,-0.0018142277840524912,0.03818148747086525
1769666928122899200,3.015899169921875,-0.00276105385273695,-0.0016951847355812788,0.03949256241321564
1769666928132887300,3.02588720703125,-0.002072676084935665,-0.003991968929767609,0.03870588541030884
1769666928142876400,3.03587646484375,-0.003833025461062789,-0.0009261379018425941,0.03674020618200302
1769666928152864300,3.0458642578125,-0.005311997607350349,0.004892291501164436,0.02702067233622074
1769666928162853000,3.05585302734375,-0.005914404988288879,0.012970725074410439,0.01696830429136753
1769666928172841200,3.06584130859375,-0.00715505238622427,0.02205081656575203,0.011273196898400784
1769666928182830300,3.075830322265625,-0.006198445335030556,0.022698763757944107,0.0015667733969166875
1769666928192818400,3.085818359375,-0.006718353368341923,0.02271125838160515,-0.0016703305300325155
1769666928202807600,3.0958076171875,-0.0052283150143921375,0.015595026314258575,-0.004155592992901802
1769666928212795100,3.105795166015625,-0.003799040801823139,0.00902291014790535,-0.008056942373514175
1769666928222784300,3.1157841796875,-0.005242474377155304,0.008283883333206177,-0.013661297969520092
1769666928232772400,3.1257724609375,-0.0063382829539477825,0.010142061859369278,-0.020558340474963188
1769666928242761500,3.135761474609375,-0.0058447993360459805,0.008383842185139656,-0.022755447775125504
1769666928252749600,3.14574951171875,-0.006898817606270313,0.005395798943936825,-0.02134127914905548
1769666928262738200,3.15573828125,-0.004405033774673939,-0.002296475227922201,-0.01983153261244297
1769666928272726300,3.165726318359375,-0.005076085217297077,-0.012740197591483593,-0.01834290288388729
1769666928282715400,3.17571533203125,-0.003776995465159416,-0.020493725314736366,-0.00852515920996666
1769666928292703500,3.185703369140625,-0.0003850411158055067,-0.02247345633804798,-0.0029667788185179234
1769666928302692400,3.1956923828125,-0.0009706702549010515,-0.031107956543564796,-0.001941461581736803
1769666928312680200,3.20568017578125,0.00019063102081418037,-0.03452957421541214,-0.0007894956506788731
1769666928322669300,3.21566943359375,-0.0002338768681511283,-0.02972576394677162,-0.005269731394946575
1769666928332657400,3.225657470703125,-0.002011640230193734,-0.03029859997332096,-0.00815298780798912
1769666928342646300,3.235646240234375,-0.0012089634547010064,-0.028473002836108208,-0.00573004363104701
1769666928352634400,3.24563427734375,-0.002049723407253623,-0.026574701070785522,-0.004042664542794228
1769666928362623500,3.25562353515625,-0.0020422665402293205,-0.02548759989440441,-0.004399794153869152
1769666928372611300,3.265611328125,-0.002611655741930008,-0.02459634654223919,-0.007096137851476669
1769666928382600200,3.27560009765625,-0.002289945725351572,-0.02195395901799202,-0.004687574692070484
1769666928392588300,3.28558837890625,-0.0014487022999674082,-0.021083710715174675,-0.006824474781751633
1769666928402577400,3.295577392578125,-0.0011826524278149009,-0.02465634047985077,-0.000658457400277257
1769666928412565200,3.305565185546875,-0.000019400613382458687,-0.021051278337836266,0.005807221867144108
1769666928422554400,3.315554443359375,0.0004477178445085883,-0.027019686996936798,0.01021209079772234
1769666928432542200,3.325542236328125,0.0026535221841186285,-0.02941284328699112,0.01609521172940731
1769666928442531300,3.33553125,0.0020495173521339893,-0.03144856542348862,0.019742676988244057
1769666928452519400,3.34551953125,0.0028070781845599413,-0.034869756549596786,0.027689538896083832
1769666928462507500,3.355507568359375,0.0006816093809902668,-0.04540016129612923,0.033361539244651794
1769666928472495600,3.36549560546875,0.0007734827231615782,-0.05289360508322716,0.046081170439720154
1769666928482484200,3.375484130859375,0.0008563071023672819,-0.049870651215314865,0.05177713930606842
1769666928492472300,3.385472412109375,0.0002747424878180027,-0.04358961805701256,0.04387295991182327
1769666928502461400,3.39546142578125,0.0015123134944587946,-0.04028889536857605,0.04114774614572525
1769666928512449500,3.405449462890625,-0.0002583098830655217,-0.04097791761159897,0.04181956872344017
1769666928522438400,3.4154384765625,0.0005568836349993944,-0.04074009880423546,0.041075482964515686
1769666928532426200,3.42542626953125,-0.0020719473250210285,-0.04435773938894272,0.04356527328491211
1769666928542415400,3.435415283203125,-0.0014879159862175584,-0.046795863658189774,0.049436211585998535
1769666928552403500,3.445403564453125,-0.001591519103385508,-0.05016593635082245,0.047182220965623856
1769666928562392600,3.455392578125,-0.004413404501974583,-0.04233464598655701,0.04355526342988014
1769666928572380400,3.46538037109375,-0.006792297121137381,-0.04035980999469757,0.04265352711081505
1769666928582369500,3.47536962890625,-0.00531637342646718,-0.04956396296620369,0.04940330609679222
1769666928592357400,3.485357421875,-0.007622067350894213,-0.060071226209402084,0.05458217114210129
1769666928602346500,3.495346435546875,-0.006475310306996107,-0.06125020608305931,0.050173044204711914
1769666928612334600,3.50533447265625,-0.005739158019423485,-0.056862201541662216,0.040537066757678986
1769666928622323500,3.515323486328125,-0.006120788864791393,-0.04913077875971794,0.03791385143995285
1769666928632311300,3.525311279296875,-0.0062443106435239315,-0.04290956258773804,0.033492717891931534
1769666928642300400,3.535300537109375,-0.004523109644651413,-0.03991563618183136,0.028810612857341766
1769666928652288500,3.54528857421875,-0.0037726364098489285,-0.03230629488825798,0.019680604338645935
1769666928662277400,3.55527734375,-0.0026554404757916927,-0.02327551506459713,0.00833553820848465
1769666928672265500,3.565265380859375,-0.0008740366902202368,-0.02296333760023117,0.0064606196247041225
1769666928682254600,3.575254638671875,0.001326266909018159,-0.02314390055835247,0.005584972444921732
1769666928692242400,3.585242431640625,0.0022037518210709095,-0.02279236912727356,0.0020930394530296326
1769666928702231300,3.595231201171875,0.0026279934681952,-0.021969186142086983,0.0002309572882950306
1769666928712219400,3.605219482421875,0.0040790182538330555,-0.015714649111032486,0.0009196579921990633
1769666928722208500,3.61520849609375,0.003123742528259754,-0.011515377089381218,-0.006550508551299572
1769666928732196600,3.625196533203125,0.0013789928052574396,-0.006295251660048962,-0.014163326472043991
1769666928742185500,3.635185546875,0.001671940553933382,-0.0038832267746329308,-0.019367409870028496
1769666928752173300,3.64517333984375,0.001976556610316038,-0.0039916918613016605,-0.01916152611374855
1769666928762162400,3.655162353515625,0.000563483452424407,-0.004891840275377035,-0.014607786200940609
1769666928772150500,3.665150634765625,0.0015789316967129707,0.0025287363678216934,-0.01348547451198101
1769666928782139600,3.6751396484375,0.0012476344127207994,0.0038177063688635826,-0.014676174148917198
1769666928792128500,3.68512841796875,0.0023641453590244055,0.003924170508980751,-0.012871980667114258
1769666928802116400,3.695116455078125,0.0007065939716994762,0.007448864169418812,-0.011449053883552551
1769666928812104400,3.7051044921875,0.0003029078943654895,0.008257473818957806,-0.009317746385931969
1769666928822093600,3.715093505859375,0.0009881393052637577,0.0077565331012010574,-0.01038327720016241
1769666928832082400,3.72508251953125,0.00265750614926219,0.010731963440775871,-0.007517756894230843
1769666928842070300,3.7350703125,0.002437528921291232,0.007817932404577732,-0.002734985901042819
1769666928852059400,3.745059326171875,0.003246978158131242,0.006496143992990255,0.0015297024510800838
1769666928862047500,3.755047607421875,0.003514892188832164,0.009465035051107407,0.0056434874422848225
1769666928872036400,3.765036376953125,0.0028971030842512846,0.011117656715214252,-0.0008554994128644466
1769666928882024400,3.7750244140625,0.0020837734919041395,0.009841203689575195,-0.0007162159308791161
1769666928892013600,3.785013671875,0.0016568282153457403,0.005813480354845524,0.002989264903590083
1769666928902001400,3.79500146484375,0.002434737514704466,0.0033007878810167313,0.00597333675250411
1769666928911990500,3.804990478515625,0.00232621468603611,-0.0002824964467436075,0.0038634208030998707
1769666928921978400,3.814978271484375,0.0012210027780383825,0.0021207400131970644,-0.0023108520545065403
1769666928931967500,3.824967529296875,0.00155134336091578,0.0032436251640319824,-0.005845922045409679
1769666928941955600,3.83495556640625,-0.0002713241847231984,0.004959233570843935,-0.003883705008774996
1769666928951944400,3.8449443359375,0.0007017948664724827,0.0016680990811437368,-0.003933239728212357
1769666928961932500,3.8549326171875,0.0022538851480931044,0.0009253434836864471,0.004462375305593014
1769666928971921400,3.86492138671875,0.0015874479431658983,0.004598969593644142,0.0029396777972579002
1769666928981909500,3.874909423828125,0.004774719011038542,0.0035054758191108704,0.00405181385576725
1769666928991898600,3.884898681640625,0.0035256133414804935,0.001766072935424745,0.003665110794827342
1769666929001886500,3.894886474609375,0.0032798037864267826,0.006845519877970219,0.007393269799649715
1769666929011875300,3.904875244140625,0.0057001616805791855,0.006703025195747614,0.004178955219686031
1769666929021863400,3.914863525390625,0.005329449661076069,0.007099037058651447,-0.0010264595039188862
1769666929031852500,3.9248525390625,0.004954596981406212,0.0054047806188464165,-0.005320746451616287
1769666929041840600,3.934840576171875,0.002906625857576728,0.007208539173007011,-0.007484831847250462
1769666929051829500,3.94482958984375,0.003592774737626314,0.004133963957428932,-0.006845342926681042
1769666929061817300,3.9548173828125,0.0026612011715769768,0.0004827701486647129,-0.006943613290786743
1769666929071806500,3.964806396484375,0.003952915780246258,-0.0019725735764950514,-0.0009980916511267424
1769666929081794600,3.974794677734375,0.0019928293768316507,-0.0019257019739598036,0.006650240626186132
1769666929091783400,3.984783447265625,0.003470085095614195,-0.0027390311006456614,0.00965907983481884
1769666929101771300,3.994771240234375,0.003894858993589878,-0.0009528491646051407,0.009337636642158031
1769666929111760400,4.004760498046875,0.0032209977507591248,-0.0017585461027920246,0.01019249577075243
1769666929121748500,4.01474853515625,0.003934991080313921,-0.00038595288060605526,0.005768985487520695
1769666929131737300,4.0247373046875,0.0024843032006174326,-0.0009320301469415426,0.0022278553806245327
1769666929141725400,4.034725341796875,0.001981498207896948,0.0006397676188498735,0.00009892461821436882
1769666929151714600,4.044714599609375,0.0013102672528475523,0.001062207156792283,-0.0018059373833239079
1769666929161702400,4.054702392578125,0.0005712402053177357,0.0014299897011369467,-0.0008647760841995478
1769666929171691500,4.06469140625,0.0016675658989697695,0.0009712461614981294,-0.004146815277636051
1769666929181679400,4.074679443359375,0.0005359887145459652,0.0005035951035097241,-0.00591488741338253
1769666929191668500,4.08466845703125,-0.0012684714747592807,0.002639331156387925,-0.00582118472084403
1769666929201656300,4.09465625,-0.00027777557261288166,0.004418322816491127,-0.0035034362226724625
1769666929211645400,4.1046455078125,-0.0006900763837620616,0.005405058152973652,-0.000679507153108716
1769666929221633500,4.114633544921875,0.0005895725917071104,0.0036303275264799595,-0.000843557994812727
1769666929231622400,4.124622314453125,0.001922842813655734,0.0005778510821983218,-0.0038808255922049284
1769666929241610500,4.134610595703125,0.0009654364548623562,-0.005527711473405361,-0.00039900862611830235
1769666929251599600,4.144599609375,0.00011443137191236019,-0.00940745510160923,0.004290335346013308
1769666929261587500,4.15458740234375,0.00028647156432271004,-0.010396819561719894,0.007555637042969465
1769666929271576300,4.164576416015625,0.0018825593870133162,-0.014148958027362823,0.010046076960861683
1769666929281564400,4.174564453125,-0.00022240309044718742,-0.015447249636054039,0.006404737010598183
1769666929291553500,4.184553466796875,-0.0008865821291692555,-0.014963597059249878,0.003994873259216547
1769666929301541600,4.194541748046875,-0.0012530330568552017,-0.015328982844948769,0.0013740563299506903
1769666929311530200,4.2045302734375,-0.0012867406476289034,-0.017605600878596306,-0.004427597392350435
1769666929321518300,4.214518310546875,-0.0020542636048048735,-0.01732410304248333,-0.008145369589328766
1769666929331507500,4.224507568359375,0.00034887215588241816,-0.015127234160900116,-0.010687174275517464
1769666929341495600,4.23449560546875,-0.0008527460740879178,-0.010634480975568295,-0.012011297978460789
1769666929351484400,4.244484375,0.001426173490472138,-0.00977732427418232,-0.011579112149775028
1769666929361472300,4.25447216796875,0.0008317559259012341,-0.010124865919351578,-0.013635870069265366
1769666929371461400,4.26446142578125,0.001471550902351737,-0.008677449077367783,-0.018333569169044495
1769666929381449500,4.274449462890625,-0.0003758838865906,-0.009202358312904835,-0.021044135093688965
1769666929391438600,4.2844384765625,0.0015065312618389726,-0.0066874949261546135,-0.016677550971508026
1769666929401426400,4.294426513671875,0.0016876262379810214,-0.010830308310687542,-0.01116640493273735
1769666929411415600,4.30441552734375,0.0015233788872137666,-0.012333692982792854,-0.009767362847924232
1769666929421403400,4.3144033203125,0.002298092469573021,-0.011551255360245705,-0.007468788884580135
1769666929431392500,4.324392578125,0.002528440672904253,-0.010706023313105106,-0.0037674731574952602
1769666929441380600,4.334380615234375,0.0033707981929183006,-0.006884654052555561,-0.0028452202677726746
1769666929451369500,4.344369384765625,0.0026141945272684097,-0.004073687829077244,-0.0017842170782387257
1769666929461357600,4.354357666015625,0.0015009931521490216,-0.002773798769339919,0.0008179576834663749
1769666929471346700,4.3643466796875,0.004008685238659382,0.0005245490465313196,0.0020528961904346943
1769666929481334800,4.374334716796875,0.0018094467232003808,0.002034561475738883,-0.00033915508538484573
1769666929491323600,4.38432373046875,0.0018314477056264877,0.006094029173254967,-0.00435904785990715
1769666929501312800,4.394312744140625,0.0015374345239251852,0.010192899964749813,-0.00515746371820569
1769666929511300600,4.404300537109375,0.0019937376491725445,0.010952422395348549,-0.00394693948328495
1769666929521289500,4.41428955078125,0.0030070701614022255,0.011832330375909805,-0.0013447648379951715
1769666929531277600,4.424277587890625,0.002444127108901739,0.010426787659525871,0.0011575205717235804
1769666929541266700,4.4342666015625,0.0023474539630115032,0.007131659425795078,-0.0018710261210799217
1769666929551254500,4.444254638671875,0.0024398057721555233,0.009061362594366074,-0.003784803906455636
1769666929561243600,4.45424365234375,0.0038267802447080612,0.011242492124438286,-0.003273743437603116
1769666929571231500,4.4642314453125,0.004127499647438526,0.01069581788033247,-0.0032031890004873276
1769666929581220600,4.474220703125,0.005220727063715458,0.0067082662135362625,0.002388117602095008
1769666929591208700,4.484208740234375,0.006133034825325012,0.0063114166259765625,0.0023142802529037
1769666929601197800,4.49419775390625,0.004109032452106476,0.010308021679520607,0.0040482645854353905
1769666929611185700,4.504185546875,0.004063062369823456,0.0112619549036026,0.0031234659254550934
1769666929621174500,4.514174560546875,0.00294586643576622,0.007501572370529175,0.0029346479568630457
1769666929631162600,4.52416259765625,0.005599059630185366,0.004630213603377342,0.0037986759562045336
1769666929641151700,4.53415185546875,0.0022301608696579933,-0.005556643009185791,0.004511604085564613
1769666929651139800,4.544139892578125,0.0037614721804857254,-0.002892792224884033,0.004921573214232922
1769666929661128400,4.55412841796875,0.0026844898238778114,0.0008103332947939634,0.005092548206448555
1769666929671116500,4.564116455078125,-0.0004194070352241397,-0.005217141006141901,0.005958283320069313
1769666929681105700,4.574105712890625,-0.0006393841467797756,-0.0046189953573048115,0.0030391926411539316
1769666929691093800,4.58409375,-0.0003071696264669299,-0.004410159774124622,0.001916468027047813
1769666929701082600,4.59408251953125,0.0006835262756794691,-0.007366268429905176,0.002014738507568836
1769666929711070500,4.604070556640625,0.0014864488039165735,-0.007486273068934679,0.0011672158725559711
1769666929721059600,4.6140595703125,0.0007058761548250914,-0.004323237109929323,-0.0027119447477161884
1769666929731047700,4.624047607421875,-0.0002330824499949813,-0.003795449621975422,-0.0038695691619068384
1769666929741036500,4.63403662109375,0.0008580146823078394,-0.00591825507581234,-0.006806236691772938
1769666929751024600,4.644024658203125,-0.0007806866778992116,-0.007776565384119749,-0.008372643031179905
1769666929761013500,4.654013427734375,-0.0001636322122067213,-0.007445002440363169,-0.007510045543313026
1769666929771001600,4.664001708984375,0.0004336113343015313,-0.00956624187529087,-0.005368513986468315
1769666929780990700,4.67399072265625,0.0020618680864572525,-0.010584901086986065,-0.002228646771982312
1769666929790978600,4.683978515625,0.0019809752702713013,-0.008725770749151707,-0.004636708647012711
1769666929800967700,4.6939677734375,0.0005713641876354814,-0.009739370085299015,-0.006521693430840969
1769666929810955500,4.70395556640625,0.001880793133750558,-0.013399738818407059,-0.008096195757389069
1769666929820944600,4.713944580078125,0.0019164795521646738,-0.009956270456314087,-0.0016374972183257341
1769666929830932700,4.7239326171875,0.002307926770299673,-0.010233726352453232,0.0018920518923550844
1769666929840921600,4.733921630859375,0.002885033842176199,-0.0060578896664083,0.0014590219361707568
1769666929850909700,4.74390966796875,0.0016546888509765267,-0.003188781440258026,-0.00017123715952038765
1769666929860898800,4.75389892578125,0.002907173242419958,0.00036387541331350803,-0.001871665706858039
1769666929870886700,4.76388671875,0.0011247346410527825,0.0034513105638325214,-0.0011931776534765959
1769666929880875500,4.77387548828125,-0.0005706337396986783,0.00420738197863102,-0.0007281897123903036
1769666929890863600,4.783863525390625,-0.0006174570298753679,0.006845509167760611,-0.00047652097418904305
1769666929900852700,4.793852783203125,0.00206913985311985,0.006761087104678154,0.0014015402412042022
1769666929910840600,4.803840576171875,0.00041932694148272276,0.005092669278383255,0.003819104516878724
1769666929920829400,4.813829345703125,0.0004805796779692173,0.005512649659067392,0.005269195884466171
1769666929930817500,4.823817626953125,0.0019059820333495736,0.010045371949672699,0.0062641846016049385
1769666929940806700,4.833806640625,0.0014833383029326797,0.012245941907167435,0.003968273289501667
1769666929950794800,4.843794677734375,0.0015494524268433452,0.011545353569090366,0.000745598110370338
1769666929960783600,4.85378369140625,0.002761190291494131,0.008594038896262646,0.001990359742194414
1769666929970771500,4.863771484375,0.0024351803585886955,0.01243793684989214,0.003454409074038267
1769666929980760600,4.873760498046875,0.0030660834163427353,0.01331278495490551,0.0039260550402104855
1769666929990748700,4.883748779296875,0.0027493941597640514,0.013000601902604103,0.0013765108305960894
1769666930000737800,4.89373779296875,0.0036178510636091232,0.014662681147456169,-0.00037984387017786503
1769666930010725600,4.9037255859375,0.0029418685007840395,0.015028911642730236,0.0007800225866958499
1769666930020714500,4.913714599609375,0.003848674474284053,0.014519449323415756,-0.0023417347110807896
1769666930030702600,4.92370263671875,0.0016403463669121265,0.015684807673096657,-0.004559946246445179
1769666930040691700,4.933691650390625,0.0022163880057632923,0.017007865011692047,-0.006634281948208809
1769666930050679800,4.9436796875,0.002912127412855625,0.014401085674762726,-0.008429760113358498
1769666930060668700,4.953668701171875,0.0015155656728893518,0.01051979511976242,-0.009235100820660591
1769666930070656500,4.963656494140625,-0.00020915817003697157,0.007872339338064194,-0.008706348948180676
1769666930080645600,4.973645751953125,0.00218156143091619,0.002194745931774378,-0.0071420082822442055
1769666930090633700,4.9836337890625,-0.001313925487920642,-0.0030081800650805235,-0.0059699369594454765
1769666930100622600,4.99362255859375,-0.00011283985804766417,-0.0023887285497039557,-0.005383775569498539
1769666930110610700,5.003610595703125,-0.00015048100613057613,-0.0011034086346626282,-0.006870909593999386
1769666930120599600,5.013599609375,-0.001158753875643015,0.0021246089600026608,-0.008537515066564083
1769666930130587600,5.023587646484375,-0.0005586108309216797,0.0055945441126823425,-0.010662822052836418
1769666930140576500,5.033576416015625,-0.0008084153523668647,0.0066715264692902565,-0.010136846452951431
1769666930150564600,5.043564697265625,-0.0003654217580333352,0.006717525888234377,-0.009075557813048363
1769666930160553700,5.0535537109375,-0.001340937684290111,0.0042397212237119675,-0.010390892624855042
1769666930170541600,5.06354150390625,-0.00005390518344938755,0.00486799469217658,-0.007490530610084534
1769666930180530400,5.073530517578125,0.0004963040119037032,0.004645886830985546,-0.007013559341430664
1769666930190518500,5.0835185546875,0.0002970424247905612,0.003355588996782899,-0.006873053498566151
1769666930200507600,5.093507568359375,0.0016656408552080393,0.0059566982090473175,-0.006179566495120525
1769666930210495700,5.103495849609375,0.001793237286619842,0.006632146425545216,-0.006190396845340729
1769666930220484600,5.113484619140625,0.0012499523581936955,0.0055732736364007,-0.006510241888463497
1769666930230473500,5.123473388671875,-0.00029434263706207275,0.008461035788059235,-0.004342685453593731
1769666930240461600,5.133461669921875,0.0009818440303206444,0.004973093047738075,-0.003835352836176753
1769666930250449700,5.14344970703125,0.0015346647705882788,0.006193064618855715,-0.003772266674786806
1769666930260438800,5.153438720703125,0.0010568934958428144,0.006670037284493446,-0.0020489352755248547
1769666930270427600,5.163427734375,0.0007655046647414565,0.004186639096587896,-0.0007474482990801334
1769666930280415500,5.17341552734375,0.0000959859462454915,0.00532274367287755,-0.0006925873458385468
1769666930290404600,5.183404541015625,0.0008626880589872599,0.008010853081941605,0.0000819982960820198
1769666930300392700,5.193392822265625,0.001640064874663949,0.008016979321837425,-0.0012035095132887363
1769666930310381600,5.203381591796875,0.0012545448262244463,0.006220954470336437,-0.0004012170247733593
1769666930320369700,5.21336962890625,0.0009032739326357841,0.0034507340751588345,0.00046431017108261585
1769666930330358800,5.22335888671875,0.0004924993263557553,-0.002825408708304167,-0.0012250079307705164
1769666930340346600,5.2333466796875,0.00020487781148403883,0.0026979874819517136,0.0012530633248388767
1769666930350335500,5.24333544921875,0.0004437664756551385,0.003762108040973544,0.002253904240205884
1769666930360323600,5.253323486328125,0.0009449733188375831,0.004210051614791155,0.0029220914002507925
1769666930370312700,5.263312744140625,0.0012542963959276676,0.0010057362960651517,0.0026011804584413767
1769666930380300500,5.273300537109375,0.0014625554904341698,-0.00312376138754189,0.005024390760809183
1769666930390289700,5.28328955078125,0.001198466750793159,-0.0034230323508381844,0.005288402549922466
1769666930400277500,5.293277587890625,0.0021545416675508022,-0.0017020977102220058,0.007084970362484455
1769666930410266600,5.3032666015625,0.002380779944360256,0.002501028124243021,0.0076793162152171135
1769666930420254700,5.313254638671875,0.0018169886898249388,0.004852333106100559,0.009335535578429699
1769666930430243800,5.323243896484375,0.0008678183658048511,0.005655214190483093,0.007927956990897655
1769666930440231700,5.333231689453125,0.0013754168758168817,0.0022820541635155678,0.0068741450086236
1769666930450220500,5.343220458984375,0.0024011970963329077,0.0029451700393110514,0.009205859154462814
1769666930460208600,5.353208740234375,0.0014656286220997572,0.0016652548220008612,0.007146170828491449
1769666930470197800,5.36319775390625,0.0010151779279112816,-0.0000903010368347168,0.006525121629238129
1769666930480185900,5.373185791015625,0.0018333010375499725,-0.001863167155534029,0.00448860228061676
1769666930490174700,5.3831748046875,0.0014568681363016367,-0.0027488055638968945,0.0021862247958779335
1769666930500162600,5.39316259765625,-0.000347689725458622,-0.0026931455358862877,0.0002447802107781172
1769666930510151700,5.403151611328125,-0.0000870205694809556,-0.0015279832296073437,-0.0003838092088699341
1769666930520139800,5.413139892578125,0.00021498184651136398,-0.0010776426643133163,-0.0003097732551395893
1769666930530128600,5.423128662109375,0.00032704323530197144,-0.0016793711110949516,-0.0011210113298147917
1769666930540116700,5.43311669921875,-0.0003398122498765588,-0.000684680650010705,-0.0013039708137512207
1769666930550105900,5.44310595703125,-0.000012921402230858803,-0.0017377324402332306,-0.0009937810245901346
1769666930560093700,5.45309375,-0.00038922601379454136,-0.0014370614662766457,-0.0009319956880062819
1769666930570082600,5.46308251953125,0.0009724164847284555,-0.0019611383322626352,-0.00018613017164170742
1769666930580070700,5.473070556640625,0.0006946488283574581,-0.0008356866892427206,-0.00016216165386140347
1769666930590059800,5.483059814453125,0.0011987162288278341,-0.0013790563680231571,-0.0012632401194423437
1769666930600047900,5.4930478515625,0.00042746495455503464,0.00042843096889555454,-0.0016099836211651564
1769666930610036700,5.50303662109375,-0.00037370319478213787,-0.00019069109112024307,-0.001552363159134984
1769666930620024600,5.513024658203125,0.0009315120987594128,0.005585705395787954,-0.0030234933365136385
1769666930630013700,5.523013671875,-0.0005140968132764101,0.0025541328359395266,-0.0009297267533838749
1769666930640001800,5.533001708984375,-0.0002712165005505085,0.0032561421394348145,-0.002043194603174925
1769666930649991000,5.542990966796875,0.0012515169801190495,0.0051067727617919445,-0.0016184202395379543
1769666930659978800,5.552978759765625,0.0001998345833271742,0.005009567365050316,-0.000882322434335947
1769666930669967600,5.562967529296875,-0.00007865566294640303,0.0050488971173763275,-0.001713623059913516
1769666930679955700,5.572955810546875,0.0005567745538428426,0.003571907989680767,-0.0002696570008993149
1769666930689944800,5.58294482421875,0.0007145912386476994,0.003584753256291151,-0.0006213630549609661
1769666930699933000,5.592932861328125,0.00039368029683828354,0.006009561475366354,-0.0015334957279264927
1769666930709921500,5.602921630859375,0.00023588258773088455,0.006015199236571789,-0.0011898863594979048
1769666930719909600,5.61290966796875,-0.00034655071794986725,0.003496115328744054,-0.001478306483477354
1769666930729898800,5.622898681640625,-0.0003897579153999686,0.005212998017668724,-0.0002324229571968317
1769666930739886800,5.632886962890625,0.00028854922857135534,0.0022827221546322107,0.000032295240089297295
1769666930749875700,5.642875732421875,0.0009661315707489848,0.004073551390320063,0.0018392897909507155
1769666930759863600,5.652863525390625,0.00008675572462379932,0.0041089714504778385,0.0024108041543513536
1769666930769852700,5.662852783203125,0.0010965982219204307,0.003566103521734476,0.0032912029419094324
1769666930779840800,5.6728408203125,0.0007634366629645228,0.003322158008813858,0.0026693549007177353
1769666930789829600,5.68282958984375,-0.00032918830402195454,0.005476708523929119,0.0005401030648499727
1769666930799817700,5.692817626953125,0.0007123739924281836,0.0023730602115392685,0.00027858070097863674
1769666930809806800,5.702806884765625,0.0000022460008040070534,0.0027425652369856834,0.0005493531934916973
1769666930819794700,5.712794677734375,-0.00003077730070799589,0.002082900144159794,0.00014162319712340832
1769666930829783600,5.722783447265625,-0.0005897246301174164,0.0026689886581152678,-0.00014517968520522118
1769666930839771600,5.732771728515625,0.00002147082705050707,0.004538261331617832,-0.0015811561606824398
1769666930849760800,5.7427607421875,0.0012444418389350176,0.002495022024959326,-0.0038281625602394342
1769666930859748600,5.75274853515625,0.0003991544945165515,0.0012867457699030638,-0.0012052152305841446
1769666930869737700,5.76273779296875,-0.0012766916770488024,0.0010866574011743069,-0.0035571802873164415
1769666930879725600,5.7727255859375,-0.0011528547620400786,0.0005034251371398568,-0.0038780912291258574
1769666930889714700,5.782714599609375,-0.0007132538594305515,0.0011889617890119553,-0.0019336501136422157
1769666930899702800,5.792702880859375,-0.00019846484065055847,0.0005359547212719917,-0.0017397720366716385
1769666930909692000,5.80269189453125,0.0003096327418461442,0.0002774614840745926,-0.001494486117735505
1769666930919679700,5.8126796875,0.0009381386917084455,-0.0014155099634081125,-0.0009235045872628689
1769666930929668600,5.822668701171875,-0.00015301699750125408,-0.0022703201975673437,-0.0008629562798887491
1769666930939656700,5.83265673828125,-0.0008379819919355214,0.000014405464753508568,-0.00113832694478333
1769666930949645800,5.842645751953125,0.0012005280004814267,0.00015844940207898617,-0.00040747039020061493
1769666930959634000,5.852634033203125,0.0002708184765651822,0.000205587362870574,0.0005712413694709539
1769666930969622500,5.86262255859375,-0.000030123395845294,0.0031686825677752495,0.00041421246714890003
1769666930979610600,5.872610595703125,-0.0009308044682256877,0.0036568399518728256,0.0006970401154831052
1769666930989599700,5.882599853515625,-0.0006746225408278406,0.0012317656073719263,-0.00013120286166667938
1769666930999587800,5.892587890625,-0.00009325449354946613,0.0008413461036980152,0.0002972995862364769
1769666931009576700,5.90257666015625,0.001359173678793013,0.0016621665563434362,0.001659685978665948
1769666931019564500,5.912564453125,0.00036181986797600985,0.0012784049613401294,0.0026317397132515907
1769666931029553700,5.9225537109375,-0.0005925190052948892,0.0024482463486492634,0.0015628852415829897
1769666931039541800,5.932541748046875,-0.0005344620440155268,-0.0031169611029326916,-0.00051864143460989
1769666931049530600,5.942530517578125,0.0002875810023397207,-0.0033272872678935528,-0.0021028572227805853
1769666931059519700,5.952519775390625,0.0006737393559888005,0.0034440658055245876,-0.0018482592422515154
1769666931069507600,5.962507568359375,0.0005368631100282073,-0.0028216391801834106,0.0014893504558131099
1769666931079496700,5.97249658203125,0.0010828111553564668,-0.00293908454477787,0.0014576588291674852
1769666931089484800,5.98248486328125,-0.0013587013818323612,-0.001350652426481247,-0.0000663332175463438
1769666931099473700,5.9924736328125,-0.0006407131440937519,-0.005618900991976261,0.0001720197033137083
1769666931109461800,6.002461669921875,0.0006057097343727946,-0.002634405391290784,0.0005089463666081429
1769666931119451000,6.012450927734375,0.0007335414411500096,0.0017299831379204988,0.00007272069342434406
1769666931129438700,6.022438720703125,-0.0009817932732403278,0.004350457340478897,-0.00006303214468061924
1769666931139427600,6.032427490234375,0.001270175795070827,0.006711616180837154,-0.00028567248955368996
1769666931149415700,6.042415771484375,0.0008174903923645616,0.004904446192085743,-0.002052093856036663
1769666931159404800,6.05240478515625,0.0005319995107129216,0.005224823951721191,-0.001001743134111166
1769666931169393000,6.062392822265625,-0.0002243958879262209,0.00450053159147501,-0.000513122184202075
1769666931179381500,6.072381591796875,0.0005388660356402397,0.0034136956091970205,-0.0011637324932962656
1769666931189369600,6.08236962890625,-0.00019510521087795496,0.0027197508607059717,-0.0025942481588572264
1769666931199358700,6.092358642578125,-0.0000065534841269254684,0.0009159919572994113,-0.004106391221284866
1769666931209346800,6.102346923828125,-0.0001341553870588541,-0.0008732818532735109,-0.0033817568328231573
1769666931219335700,6.112335693359375,0.00032444088719785213,0.0010159645462408662,-0.0023346019443124533
1769666931229323500,6.122323486328125,-0.0007910049171186984,0.0004426197847351432,-0.0030717765912413597
1769666931239312600,6.132312744140625,0.0007128821453079581,0.0021049650385975838,-0.0018906649202108383
1769666931249300700,6.14230078125,0.0005634899716824293,0.004326794762164354,0.0001272244844585657
1769666931259289900,6.152289794921875,-0.00006048870272934437,0.0013674902729690075,-0.00004428299143910408
1769666931269277700,6.162277587890625,0.000015481957234442234,0.0010847818339243531,-0.0014900628011673689
1769666931279266600,6.1722666015625,0.0010392010444775224,0.002128474647179246,0.0002649605739861727
1769666931289254700,6.182254638671875,0.00008101784624159336,0.0009824202861636877,-0.0014507290907204151
1769666931299243800,6.192243896484375,0.0003667749697342515,-0.00005115242674946785,0.0005184123292565346
1769666931309231900,6.20223193359375,-0.00003160559572279453,0.0004918249323964119,-0.00029180990532040596
1769666931319220700,6.212220703125,-0.0007647738675586879,0.0008540147682651877,-0.000681430334225297
1769666931329208600,6.22220849609375,-0.000035177567042410374,0.0006241840310394764,-0.0025332511868327856
1769666931339197700,6.23219775390625,-0.00019390194211155176,0.004772323649376631,-0.001353204483166337
1769666931349185800,6.242185791015625,-0.0006116018630564213,0.004332896322011948,-0.00079130451194942
1769666931359174700,6.252174560546875,0.0005753689911216497,0.0028069051913917065,0.000790879363194108
1769666931369162800,6.262162841796875,-0.0006671477458439767,0.0012190596899017692,-0.00043598003685474396
1769666931379152000,6.27215185546875,-0.00003491330426186323,0.00006111711263656616,-0.0014328013639897108
1769666931389139700,6.2821396484375,0.0007956357439979911,-0.0007776743732392788,-0.001956890569999814
1769666931399128600,6.292128662109375,-0.0002299476182088256,0.002237556502223015,-0.0019225359428673983
1769666931409116700,6.30211669921875,-0.0008346260292455554,0.0003138929605484009,-0.00285799871198833
1769666931419105800,6.312105712890625,0.001588051556609571,0.00041695742402225733,-0.002506727585569024
1769666931429093600,6.32209375,0.000041963765397667885,0.00023269932717084885,-0.0015875000972300768
1769666931439082500,6.33208251953125,-0.0005306159146130085,-0.000010447343811392784,-0.00035605416633188725
1769666931449070600,6.342070556640625,-0.001273897010833025,0.00046507560182362795,0.0003844976890832186
1769666931459060500,6.352060546875,-0.00022594316396862268,0.0002472291234880686,-0.000381427351385355
1769666931469048600,6.362048583984375,0.0012852770742028952,0.0003869143547490239,-0.00021476764231920242
1769666931479037400,6.372037353515625,0.0005393256433308125,0.0023853504098951817,0.0010590223828330636
1769666931489025500,6.382025634765625,0.000744436401873827,0.0033084871247410774,-0.0002325456589460373
1769666931499014700,6.3920146484375,0.0013604257255792618,0.00391062768176198,-0.0000035138800740242004
1769666931509002500,6.40200244140625,-0.00028573430608958006,0.0037629855796694756,0.00022713234648108482
1769666931518991400,6.411991455078125,0.0007773995166644454,0.0022218143567442894,-0.0015976654831320047
1769666931528979500,6.4219794921875,0.000205144751816988,0.0027221781201660633,-0.0014012902975082397
1769666931538968600,6.431968505859375,0.0012632186990231276,0.00161163997836411,-0.0016364473849534988
1769666931548956400,6.441956298828125,-0.0009503926266916096,0.003121685702353716,-0.0003865724429488182
1769666931558945500,6.451945556640625,0.001434201723895967,0.0026292672846466303,-0.0007610130123794079
1769666931568933400,6.461933349609375,0.000016699661500751972,0.0007217300590127707,0.0005665810313075781
1769666931578922500,6.471922607421875,0.0011354937450960279,0.0012620853958651423,0.0028497090097516775
1769666931588910600,6.48191064453125,0.000870969844982028,0.0006453489186242223,-0.00011101271957159042
1769666931598899700,6.491899658203125,0.00005577621050179005,0.00024667358957231045,0.00013985694386065006
1769666931608887600,6.501887451171875,0.0000732451444491744,-0.001623919466510415,0.0010834590066224337
1769666931618876400,6.51187646484375,-0.00015125935897231102,-0.001921128248795867,-0.00014798669144511223
1769666931628864500,6.521864501953125,0.0003047037171199918,-0.0003662160597741604,-0.001647641882300377
1769666931638853600,6.531853515625,0.0013055196031928062,-0.001227748580276966,-0.0008790534920990467
1769666931648841700,6.541841796875,-0.00005433103069663048,0.0003460322041064501,-0.000346173532307148
1769666931658830300,6.551830322265625,0.0005771045107394457,-0.0016374900005757809,-0.0013717568945139647
1769666931668818400,6.561818359375,0.00026887422427535057,-0.0016206796281039715,0.0001287453342229128
1769666931678807600,6.5718076171875,-0.00021076109260320663,0.0004443353973329067,-0.0010981729719787836
1769666931688795600,6.581795654296875,-0.000001896522007882595,0.0000937003642320633,-0.0018375732470303774
1769666931698784500,6.591784423828125,0.0005882600089535117,-0.00009671575389802456,-2.582091838121414e-7
1769666931708772400,6.6017724609375,-0.00006736477371305227,-0.001187365036457777,0.001649889163672924
1769666931718761500,6.611761474609375,-0.0004990631714463234,-0.0002611174713820219,0.0002583875320851803
1769666931728749600,6.62174951171875,-0.00002057407982647419,-0.00005681905895471573,0.0002492114435881376
1769666931738738400,6.631738525390625,-0.00015213422011584044,0.0006651639705523849,-0.0006184463854879141
1769666931748726500,6.6417265625,-0.001335532171651721,0.0025349073112010956,-0.0010283912997692823
1769666931758715400,6.65171533203125,0.0002948549808934331,0.0015631199348717928,-0.0004922968801110983
1769666931768703500,6.661703369140625,0.00042577425483614206,0.0015221169451251626,0.00012918561697006226
1769666931778692600,6.671692626953125,0.00024334760382771492,0.001505605410784483,0.0003028237260878086
1769666931788680400,6.681680419921875,0.0015794693026691675,0.00021770643070340157,-0.0008644512854516506
1769666931798669600,6.691669677734375,0.0005754576995968819,0.0012235823087394238,-0.0006151795387268066
1769666931808657400,6.701657470703125,0.0005544439190998673,0.003967751283198595,-0.001263860845938325
1769666931818646500,6.711646484375,0.00014964339789003134,0.004858312197029591,-0.004457256756722927
1769666931828634600,6.721634521484375,0.0011015874333679676,-0.0002482496201992035,-0.0031021921895444393
1769666931838623500,6.73162353515625,0.0002128904452547431,-0.005107186734676361,-0.004056402947753668
1769666931848611600,6.741611572265625,-0.0008754057344049215,-0.00005058641545474529,-0.002354076597839594
1769666931858600700,6.7516005859375,0.0013350179651752114,0.0019025758374482393,-0.0006475229747593403
1769666931868588500,6.761588623046875,0.000385960447601974,-0.0023533545900136232,-0.00040863105095922947
1769666931878577400,6.771577392578125,-0.0005224436754360795,-0.0014382926747202873,-0.0017295589204877615
1769666931888565500,6.7815654296875,-0.0007226832094602287,-0.0025429758243262768,-0.003731244709342718
1769666931898554600,6.7915546875,0.00011488096788525581,-0.0036260834895074368,-0.001887005753815174
1769666931908542500,6.80154248046875,0.0011739450274035335,-0.003348511876538396,0.000014055287465453148
1769666931918531300,6.81153125,0.0005342537770047784,0.0012731379829347134,0.00019195443019270897
1769666931928520400,6.8215205078125,-0.00002578983549028635,0.0017208775971084833,0.0011151336366310716
1769666931938508500,6.831508544921875,-0.0007038306212052703,-0.00001656869426369667,-0.00019780476577579975
1769666931948497400,6.841497314453125,-0.000029470305889844894,0.000916410586796701,0.0004005699884146452
1769666931958485500,6.851485595703125,0.0009130224352702498,0.0021121699828654528,-0.00045883189886808395
1769666931968474400,6.861474365234375,0.0016779971774667501,0.0008971089264377952,-0.000509070698171854
1769666931978462500,6.87146240234375,0.0026846721302717924,0.0022960675414651632,0.00003874138928949833
1769666931988451600,6.88145166015625,0.0008028560550883412,-0.0009125696960836649,-0.004509919323027134
1769666931998439400,6.891439453125,0.0008699676254764199,-0.0013988630380481482,-0.0019045490771532059
1769666932008428500,6.901428466796875,0.0018987456569448113,-0.0008601290173828602,-0.0016770632937550545
1769666932018416400,6.91141650390625,0.00156664929818362,-0.0008484111167490482,-0.0018293960019946098
1769666932028405500,6.921405517578125,0.0006980642210692167,-0.001710701733827591,-0.003029996994882822
1769666932038393600,6.9313935546875,0.0012754376512020826,-0.003070778213441372,-0.0007569887675344944
1769666932048382500,6.941382568359375,0.0006111982511356473,-0.003600333584472537,-0.0008191356901079416
1769666932058370600,6.95137060546875,-0.0009600667981430888,-0.0035691747907549143,0.00021443725563585758
1769666932068359700,6.961359619140625,0.0021814662031829357,-0.0013860624749213457,-0.0010555097833275795
1769666932078347500,6.971347412109375,0.0010855755535885692,0.00006908876821398735,0.001567970379255712
1769666932088336400,6.98133642578125,0.0011172463418915868,-0.0011168632190674543,0.0021527991630136967
1769666932098324500,6.991324462890625,0.001353735220618546,0.00006078672595322132,0.0013402686454355717
1769666932108313600,7.001313720703125,-0.00008595851249992847,-0.0007384123746305704,0.0001432646531611681
1769666932118301400,7.011301513671875,-0.00012723752297461033,-0.0008191061206161976,-0.0017105615697801113
1769666932128290300,7.021290283203125,0.001585363526828587,0.003206875640898943,-0.0005994320381432772
1769666932138278400,7.0312783203125,0.0016862972406670451,0.002962930127978325,-0.0010806655045598745
1769666932148267500,7.041267578125,0.00024157564621418715,0.00034656748175621033,0.000013001030310988426
1769666932158255600,7.051255615234375,0.001811509020626545,0.0011990453349426389,-0.002712477697059512
1769666932168244500,7.061244384765625,-0.00034230854362249374,0.0007379266899079084,-0.005125072319060564
1769666932178232300,7.071232421875,0.0003032416570931673,0.00040476524736732244,-0.0034134588204324245
1769666932188221400,7.081221435546875,-0.00037797586992383003,0.0015015510143712163,-0.005484372843056917
1769666932198209500,7.09120947265625,-0.00043150538112968206,-0.00008995411917567253,-0.0038691661320626736
1769666932208198700,7.10119873046875,-0.0023311360273510218,0.002855558879673481,-0.0026198786217719316
1769666932218186500,7.1111865234375,-0.0014131444040685892,0.00022542104125022888,-0.00425692368298769
1769666932228175400,7.12117529296875,-0.000248622614890337,-0.0010472906287759542,-0.0030548134818673134
1769666932238163500,7.13116357421875,0.0009982693009078503,0.0001255655661225319,-0.000595650402829051
1769666932248152600,7.141152587890625,0.002275381702929735,-0.0013731608632951975,0.0002478058449923992
1769666932258140700,7.151140625,0.0014367521507665515,-0.0021518694702535868,0.0005191818345338106
1769666932268129500,7.161129638671875,0.00029681960586458445,0.000996605260297656,-0.0006307198200374842
1769666932278117400,7.171117431640625,0.000976724666543305,0.000743604963645339,-0.0015372596681118011
1769666932288106500,7.1811064453125,0.0005014025373384356,0.001551310415379703,0.0009361011907458305
1769666932298094600,7.191094482421875,0.0003626517718657851,0.002217633416876197,0.0004809668753296137
1769666932308083500,7.20108349609375,0.001960350666195154,0.0013889718102291226,-0.001470652874559164
1769666932318071600,7.211071533203125,-0.0001693792873993516,-0.000639025354757905,0.0014162135776132345
1769666932328060400,7.221060302734375,0.0000824598828330636,0.00006794254295527935,-0.00033695646561682224
1769666932338048500,7.231048583984375,0.0003439823631197214,0.0003459765575826168,-0.0008299075998365879
1769666932348037400,7.241037353515625,0.0005104260053485632,0.0007162627298384905,0.0006419643759727478
1769666932358025500,7.251025390625,-0.0007620322867296636,0.0015402447897940874,-0.0014651287347078323
1769666932368014600,7.2610146484375,-0.0002883946290239692,0.0024307877756655216,-0.0009482281748205423
1769666932378002400,7.27100244140625,0.0007744728354737163,0.0021421010605990887,-0.0007700626738369465
1769666932387991600,7.280991455078125,0.0008112376090139151,0.0022968968842178583,0.00014421925880014896
1769666932397979400,7.2909794921875,-0.0007144873379729688,0.000805526738986373,-0.0011487454175949097
1769666932407968500,7.300968505859375,-0.000020431471057236195,0.002070874208584428,-0.0014820066280663013
1769666932417956600,7.31095654296875,-0.0005850216839462519,0.002265551360324025,-0.0024868170730769634
1769666932427945700,7.32094580078125,0.0002937562530860305,0.0027722122613340616,-0.0027076448313891888
1769666932437933600,7.33093359375,0.0004711227957159281,0.0038153724744915962,-0.0033441404812037945
1769666932447922400,7.34092236328125,0.0005441674729809165,0.003652522573247552,-0.0029436417389661074
1769666932457910500,7.35091064453125,-0.0004864758811891079,0.0033547813072800636,-0.0015316337812691927
1769666932467899000,7.36089892578125,-0.0013456556480377913,0.0036908877082169056,0.00007287552580237389
1769666932477887000,7.370886962890625,0.0001715472899377346,0.004427518229931593,-0.0013894662261009216
1769666932487875800,7.380875732421875,-0.0013726153410971165,0.0036282818764448166,0.0001974699553102255
1769666932497863700,7.39086376953125,-0.00032279721926897764,0.0024125489871948957,-0.00010053766891360283
1769666932507852800,7.400852783203125,-0.0004109240835532546,0.002466881647706032,-0.0006659445352852345
1769666932517841000,7.4108408203125,-0.00056352315004915,0.003699658904224634,-0.0010864576324820518
1769666932527829800,7.420829833984375,-0.001135126338340342,0.0036751199513673782,0.0003875046968460083
1769666932537817600,7.430817626953125,0.001206324901431799,0.002840751549229026,0.00025461288169026375
1769666932547806700,7.440806640625,-0.000660447811242193,0.004172014072537422,0.0009768421296030283
1769666932557794800,7.450794921875,0.0011145491153001785,0.0010971284937113523,-0.000687367282807827
1769666932567784000,7.460783935546875,0.0006058077560737729,0.00392722524702549,-0.0000586644746363163
1769666932577771800,7.470771728515625,0.001784522901289165,0.002781533170491457,-0.0005854377523064613
1769666932587761000,7.480760986328125,-0.000025698798708617687,0.0023465766571462154,0.0006338483653962612
1769666932597748700,7.490748779296875,0.00005339703056961298,0.0026765423826873302,0.0016977812629193068
1769666932607737900,7.50073779296875,0.0030547091737389565,0.0007711243815720081,0.0014142539585009217
1769666932617726000,7.510725830078125,0.0005755728343501687,0.0025690244510769844,0.0025801858864724636
1769666932627714800,7.52071484375,0.0011373069137334824,0.004555040039122105,0.0033871238119900227
1769666932637703000,7.530702880859375,0.0003854965325444937,0.002992030465975404,0.00428993534296751
1769666932647691800,7.54069189453125,0.0000980942277237773,0.0029239384457468987,0.0013933429727330804
1769666932657680000,7.550679931640625,0.0006725380662828684,-0.0063611725345253944,-0.0013694202061742544
1769666932667668700,7.560668701171875,-0.0005812935996800661,-0.0013684898149222136,0.0021794550120830536
1769666932677656800,7.57065673828125,0.0008301817579194903,-0.00024570105597376823,0.0035001165233552456
1769666932687646000,7.58064599609375,-0.00009604683145880699,-0.0010174433700740337,0.002590977121144533
1769666932697633800,7.5906337890625,0.0004411127883940935,0.0008443724364042282,0.002117733471095562
1769666932707622700,7.60062255859375,-0.0015836242819204926,-0.0018363755661994219,0.0030932603403925896
1769666932717610800,7.61061083984375,0.0007104226388037205,-0.006076128222048283,0.003537209238857031
1769666932727599900,7.620599853515625,-0.0002697274321690202,-0.0035353507846593857,0.0015180382179096341
1769666932737588000,7.630587890625,-0.000005009234882891178,-0.00017763720825314522,0.0006503802724182606
1769666932747576800,7.640576904296875,-0.0006392482900992036,0.001530853216536343,0.0016157570062205195
1769666932757564700,7.650564697265625,-0.0008901181281544268,-0.0004095258191227913,0.0011720743495970964
1769666932767553800,7.6605537109375,0.0010696601821109653,-0.0002723489888012409,0.0031604189425706863
1769666932777542000,7.6705419921875,0.00111360230948776,0.000935128191486001,0.0009188363328576088
1769666932787531000,7.680531005859375,0.0009748745942488313,0.0002473540371283889,0.0019194254418835044
1769666932797518800,7.690518798828125,-0.000011027790606021881,0.0030079868156462908,-0.000030274735763669014
1769666932807507700,7.7005078125,-0.00011595012620091438,0.001657638931646943,-0.0027692634612321854
1769666932817495800,7.710495849609375,-0.0006344675784930587,0.00028344779275357723,-0.003707761410623789
1769666932827485000,7.72048486328125,-0.002101103076711297,0.0015729503938928246,-0.003956500440835953
1769666932837473000,7.73047314453125,-0.0010547471465542912,0.0021010551135987043,-0.00258710328489542
1769666932847462000,7.7404619140625,-0.0013609019806608558,0.0028836943674832582,-0.0005117966793477535
1769666932857449700,7.75044970703125,0.00020876515191048384,0.0031787725165486336,-0.0008622687309980392
1769666932867438800,7.76043896484375,0.0007467768155038357,0.0013654453214257956,0.0006573635619133711
1769666932877427000,7.770427001953125,-0.001248729764483869,0.0029268567450344563,-0.0005051062908023596
1769666932887415800,7.780415771484375,-0.0006382034625858068,0.0029485360719263554,-0.000020785024389624596
1769666932897403600,7.790403564453125,0.00003744044806808233,0.0012944466434419155,-0.001668216660618782
1769666932907392800,7.800392822265625,-0.0012053597019985318,0.00358056859113276,-0.0007629108149558306
1769666932917382000,7.8103818359375,0.00018640828784555197,0.004392033442854881,-0.0014081946574151516
1769666932927369700,7.82036962890625,0.00016804342158138752,0.004861059132963419,-0.0018797782249748707
1769666932937358800,7.83035888671875,-0.0019017653539776802,0.0009728440782055259,-0.0004323504399508238
1769666932947347000,7.840346923828125,0.0002357293851673603,0.0033991318196058273,-0.004613288678228855
1769666932957336000,7.850336181640625,-0.001219954458065331,0.005058014765381813,-0.0022484015207737684
1769666932967324000,7.860323974609375,-0.0018363288836553693,0.00187454535625875,-0.0034993086010217667
1769666932977312800,7.870312744140625,-0.00007278367411345243,0.002384274499490857,-0.004740607924759388
1769666932987300900,7.88030078125,-0.0002745121018961072,0.002372726332396269,-0.005090557504445314
1769666932997290000,7.8902900390625,-0.0007019494078122079,0.003903245087713003,-0.0026226062327623367
1769666933007277800,7.90027783203125,-0.002253955928608775,0.004692577291280031,-0.0037186802364885807
1769666933017266700,7.9102666015625,0.0009338479721918702,0.0035247812047600746,-0.0038350606337189674
1769666933027254800,7.9202548828125,-0.000056923599913716316,0.004008609801530838,-0.00196534744463861
1769666933037244000,7.930243896484375,-0.0011674617417156696,0.0038389661349356174,-0.00276189879514277
1769666933047232000,7.94023193359375,-0.0007071677828207612,0.0020174100063741207,-0.001850238535553217
1769666933057220900,7.950220947265625,-0.0005401875823736191,0.0008413579780608416,-0.001247831154614687
1769666933067208700,7.960208740234375,-0.0005131080979481339,0.0003086294746026397,-0.00020148558542132378
1769666933077197800,7.97019775390625,0.0010120841907337308,0.0018556596478447318,-0.0006038893479853868
1769666933087186000,7.98018603515625,0.00048045022413134575,0.0018860197160393,0.0001532474998384714
1769666933097174800,7.9901748046875,-0.000055377837270498276,0.0023632582742720842,-0.002293398603796959
1769666933107163000,8.000162841796875,-0.0002075863303616643,0.002183545148000121,-0.0020484381821006536
1769666933117151700,8.01015185546875,-0.0007202448905445635,0.0016378634609282017,-0.0023272710386663675
1769666933127139800,8.020139892578126,-0.0012044887989759445,0.001411301433108747,-0.0009973079431802034
1769666933137128700,8.030128662109375,0.00003574520815163851,0.0024147804360836744,0.000027476344257593155
1769666933147116800,8.04011669921875,-0.002168097998946905,0.0014250597450882196,-0.0014479304663836956
1769666933157106000,8.05010595703125,-0.0007196046644821763,0.0025422556791454554,-0.0018223710358142853
1769666933167093800,8.06009375,0.00020897132344543934,0.0017330581322312355,-0.001292593078687787
1769666933177083000,8.070082763671875,0.00017195346299558878,0.002157299779355526,-0.0012569066602736712
1769666933187070700,8.08007080078125,-0.0006240798393264413,0.0004698128905147314,-0.0013766412157565355
1769666933197059800,8.090059814453125,0.0008358650375157595,0.0019928747788071632,-0.0015891615767031908
1769666933207048000,8.1000478515625,-0.0015811956254765391,0.001943362643942237,-0.0008903176058083773
1769666933217036800,8.110036865234376,-0.0008360430947504938,0.0028001016471534967,0.0002298080362379551
1769666933227025000,8.12002490234375,-0.0006051685195416212,0.003280014730989933,-0.001268870197236538
1769666933237013800,8.130013671875,0.00045663374476134777,0.002573744161054492,0.001330907572992146
1769666933247001900,8.140001953125,-0.00021298346109688282,0.002184622222557664,-0.0004759600851684809
1769666933256991000,8.149990966796874,0.0004426868399605155,-0.0001285993494093418,-0.0011926169972866774
1769666933266978800,8.159978759765625,-0.0002499214606359601,0.0011217661667615175,-0.0009434625972062349
1769666933276967700,8.1699677734375,0.0006755269132554531,0.001834161696024239,-0.0019168478902429342
1769666933286955800,8.179955810546875,0.0010110625298693776,0.001619209535419941,-0.0008693384006619453
1769666933296945000,8.18994482421875,0.0006808304460719228,0.001622671727091074,0.0002776850014925003
1769666933306933000,8.19993310546875,-0.001519956742413342,0.001362697221338749,0.00021393713541328907
1769666933316921900,8.209921875,0.0024641321506351233,0.001255904440768063,-0.001893155975267291
1769666933326909700,8.21990966796875,0.000854753190651536,0.0002655324060469866,-0.00024773133918643
1769666933336898800,8.22989892578125,0.0006499560549855232,0.0003776515368372202,-0.0022919736802577972
1769666933346887000,8.239886962890624,-0.0006359325489029288,-0.0005901878466829658,-0.00157228484749794
1769666933356875800,8.249875732421875,0.00008391996379941702,-0.00004823447670787573,-0.0013656234368681908
1769666933366863600,8.259863525390625,-0.0005121242720633745,0.00016878405585885048,0.00042555900290608406
1769666933376852700,8.269852783203126,-0.0013981580268591642,0.00007424177601933479,-0.00010840478353202343
1769666933386840800,8.2798408203125,-0.00015710992738604546,0.000069267931394279,-0.00025201705284416676
1769666933396830000,8.289829833984374,0.0007861816557124257,-0.0009408690966665745,0.00035012373700737953
1769666933406817800,8.29981787109375,0.0008668837836012244,-0.0007406361401081085,0.0019180004019290209
1769666933416807000,8.309806884765624,0.0007766025373712182,-0.0009438351262360811,0.001686571747995913
1769666933426794800,8.319794677734375,-0.0002563224406912923,-0.0008971154456958175,0.0004213722422719002
1769666933436783900,8.329783935546875,-0.0007833620766177773,0.00033299881033599377,0.0024483040906488895
1769666933446772000,8.33977197265625,0.0012318935478106141,-0.0014338763430714607,0.0021999222226440907
1769666933456760800,8.3497607421875,-0.00008850172162055969,0.0004383259220048785,0.0009485029149800539
1769666933466748700,8.359748779296876,-0.00009862007573246956,-0.002182187046855688,0.0009521301835775375
1769666933476737800,8.36973779296875,-0.00010394642595201731,0.000902285915799439,-0.0010311256628483534
1769666933486726000,8.379725830078126,-0.0016950721619650722,0.000196529901586473,0.0014353463193401694
1769666933496714500,8.389714599609375,0.0011526459129527211,0.001070845639333129,0.001534948474727571
1769666933506702600,8.39970263671875,0.00022335152607411146,-0.0013615399366244674,-0.0006701303645968437
1769666933516691700,8.409691650390625,-0.0015860000858083367,-0.006837265565991402,-0.002962579717859626
1769666933526679800,8.4196796875,-0.00019114138558506966,-0.0023570149205625057,-0.00039425515569746494
1769666933536668700,8.429668701171876,-0.00082923483569175,0.0007058867486193776,0.00006194435991346836
1769666933546656500,8.439656494140625,-0.0003503570333123207,-0.004921451676636934,-0.0012436597608029842
1769666933556645600,8.449645751953126,-0.0012707454152405262,-0.004396808799356222,-0.00007293419912457466
1769666933566633700,8.4596337890625,-0.0002753788139671087,-0.003498205915093422,-0.0003448051866143942
1769666933576622800,8.469622802734374,-0.00022903981152921915,-0.0041272444650530815,0.0006040791049599648
1769666933586610700,8.479610595703125,0.0014152040239423513,-0.003146255388855934,-0.0003447623457759619
1769666933596599800,8.489599853515625,-0.0000580567866563797,0.0002801676746457815,0.00024246471002697945
1769666933606587600,8.499587646484375,-0.0007094611064530909,0.0019219947280362248,0.00009361677803099155
1769666933616576800,8.50957666015625,-0.00006870448123663664,0.002936658915132284,-0.0019271897617727518
1769666933626564900,8.51956494140625,0.00015172106213867664,0.004403080325573683,0.001314029679633677
1769666933636553700,8.5295537109375,-0.00004535284824669361,0.002270154654979706,0.0004708727356046438
1769666933646541600,8.53954150390625,-0.000027712085284292698,0.005124650429934263,0.0009644750971347094
1769666933656530700,8.54953076171875,-0.0006935023120604455,0.0036681676283478737,0.0023517156951129436
1769666933666518800,8.559518798828124,0.0006563017377629876,-0.00001590896863490343,-0.0004176648799329996
1769666933676507600,8.569507568359375,-0.0003703468246385455,-0.0010904945665970445,-0.00018304050900042057
1769666933686495700,8.579495849609375,-0.0017372971633449197,-0.0010750809451565146,-0.00019631488248705864
1769666933696484900,8.58948486328125,-0.0018190562259405851,-0.0021725697442889214,-0.0006447911728173494
1769666933706472700,8.59947265625,0.0007946854457259178,-0.005695313680917025,-0.0014022716786712408
1769666933716461600,8.609461669921876,0.0004002712666988373,-0.006174949463456869,-0.00006403308361768723
1769666933726449700,8.61944970703125,0.0006772109773010015,-0.004622762557119131,0.0018069363432005048
1769666933736438800,8.629438720703124,0.0004090305883437395,-0.004783085081726313,0.0035545025020837784
1769666933746427000,8.639427001953125,-0.0002370272995904088,-0.003715021535754204,0.001930435188114643
1769666933756415500,8.64941552734375,-0.00036965275648981333,-0.001666784635744989,0.0035994381178170443
1769666933766403600,8.659403564453125,-0.0002729687839746475,0.0004146173596382141,0.004849627614021301
1769666933776392700,8.669392822265625,-0.0007848283858038485,-0.00017607177142053843,0.003190478542819619
1769666933786380800,8.679380859375,0.0007178179221227765,-0.00023791368585079908,0.0027194819413125515
1769666933796369700,8.68936962890625,-0.00030164013151079416,-0.000675204792059958,0.001843301928602159
1769666933806357500,8.699357421875,-0.0003176870523020625,-0.0011123878648504615,-0.000009923940524458885
1769666933816346600,8.7093466796875,0.0008375922916457057,0.003643485251814127,0.00006917188875377178
1769666933826334700,8.719334716796874,-0.0011258377926424146,0.0026649883948266506,0.0014514831127598882
1769666933836323800,8.72932373046875,-0.0010565957054495811,-0.00022028025705367327,-0.0005344361998140812
1769666933846311700,8.739311767578124,-0.0006772616179659963,-0.00020107731688767672,0.0004897052422165871
1769666933856300500,8.749300537109375,0.0002801447408273816,0.00017948844470083714,-0.0007867477834224701
1769666933866288600,8.75928857421875,-0.00021573633421212435,0.0009074612171389163,-0.0006097240839153528
1769666933876277800,8.76927783203125,0.00006789027247577906,-0.00011466001160442829,-0.003544261446222663
1769666933886265900,8.779265869140625,-0.0014821209479123354,0.00023969903122633696,-0.002196048852056265
1769666933896254700,8.789254638671874,-0.0004099322250112891,-0.000563510344363749,-0.002911107614636421
1769666933906242600,8.79924267578125,0.00020602124277502298,-0.0019501332426443696,-0.0012796688824892044
1769666933916231700,8.809231689453124,0.00008058629464358091,-0.000496579916216433,-0.0020392024889588356
1769666933926219800,8.8192197265625,0.00037156918551772833,0.0000414862297475338,-0.000749008497223258
1769666933936208600,8.829208740234375,-0.00028436747379601,-0.0014000829542055726,-0.0003993355203419924
1769666933946196700,8.83919677734375,0.0003592799184843898,-0.00019543583039194345,0.0006430584471672773
1769666933956185900,8.849185791015625,-0.00022661557886749506,0.00005570019129663706,-0.00028878170996904373
1769666933966173700,8.859173583984376,-0.0008698448655195534,-0.002093882765620947,0.0005653512198477983
1769666933976162600,8.86916259765625,-0.0005065896548330784,-0.0009114391868934035,0.00092114950530231
1769666933986150700,8.879150634765624,-0.0004003418143838644,0.00024576205760240555,-0.00013653049245476723
1769666933996139800,8.889139892578125,0.00004041136708110571,0.00042659067548811436,0.00025974796153604984
1769666934006127600,8.899127685546874,-0.0018782155821099877,-0.0001116069033741951,-0.00014815246686339378
1769666934016116700,8.90911669921875,-0.00012399139814078808,0.001575771952047944,0.0011948796454817057
1769666934026104600,8.9191044921875,0.0013935735914856195,0.0019318602280691266,0.0018497164128348231
1769666934036093700,8.92909375,0.0014670768287032843,0.0017915116623044014,0.0010528985876590014
1769666934046081800,8.939081787109375,0.0008366621332243085,0.00040443369653075933,0.0024170847609639168
1769666934056071000,8.94907080078125,0.0006563662318512797,0.001076349290087819,0.002350505907088518
1769666934066058800,8.959058837890625,0.00006157520692795515,-0.00011241796892136335,0.002032219199463725
1769666934076047600,8.969047607421874,0.0002770250430330634,-0.0006383921718224883,0.001103308517485857
1769666934086035700,8.97903564453125,-0.00038173911161720753,0.0006078094011172652,-0.0003574565052986145
1769666934096024800,8.98902490234375,0.00014290364924818277,0.00006798666436225176,-0.0017316474113613367
1769666934106013000,8.999012939453126,0.002099448349326849,0.00017911347094923258,0.0001802260521799326
1769666934116001500,9.00900146484375,-0.0012891578953713179,-0.0011577933328226209,0.0017890416784211993
1769666934125989600,9.01898974609375,-0.0008803686359897256,-0.0010236819507554173,0.0017002577660605311
1769666934135978800,9.028978759765625,0.0001236430834978819,-0.00246578361839056,0.00249441247433424
1769666934145966800,9.038966796875,0.0005194181576371193,-0.002501277718693018,0.0026760632172226906
1769666934155955700,9.048955810546875,-0.0012089733500033617,-0.0005358647322282195,0.0020305130165070295
1769666934165943600,9.058943603515624,0.0008228089427575469,-0.002157242503017187,0.003111537778750062
1769666934175932700,9.0689326171875,0.0014308086829259992,-0.002358044497668743,0.002683834172785282
1769666934185921800,9.078921875,0.0004502357915043831,-0.0022765756584703922,0.002029199618846178
1769666934195909600,9.08890966796875,0.00039537460543215275,-0.0019274350488558412,0.0014771261485293508
1769666934205898800,9.098898681640625,-0.0006089669186621904,-0.0030082808807492256,0.0014245834900066257
1769666934215886600,9.108886474609376,-0.0007226839079521596,-0.002276976592838764,0.0016823774203658104
1769666934225874700,9.118874755859375,-0.0021448014304041862,-0.0031269611790776253,0.001516206655651331
1769666934235863800,9.12886376953125,-0.0005594216054305434,-0.0034257681109011173,0.0018778640078380704
1769666934245851600,9.1388515625,0.0010016714222729206,-0.004094861913472414,0.0015828934265300632
1769666934255840800,9.1488408203125,0.0006357531528919935,-0.00327434204518795,0.0008071146439760923
1769666934265830000,9.158829833984376,0.0006666630506515503,-0.0029127812013030052,0.0019384153420105577
1769666934275817700,9.168817626953125,0.00035613845102488995,-0.0027681714855134487,0.0010457236785441637
1769666934285806600,9.178806640625,-0.0008232223917730153,-0.003432958386838436,0.0016970353899523616
1769666934295794700,9.188794677734375,0.0015898678684607148,-0.0032859519124031067,0.0019854556303471327
1769666934305783800,9.19878369140625,0.0006083473563194275,-0.0020590070635080338,0.001691362471319735
1769666934315772000,9.20877197265625,0.0008570866193622351,-0.0026022917591035366,0.00018135015852749348
1769666934325760500,9.218760498046874,0.00010046211536973715,-0.001988275907933712,0.000009329989552497864
1769666934335748600,9.22874853515625,0.0008024713024497032,-0.0026263692416250706,0.0017787342658266425
1769666934345737700,9.23873779296875,-0.0005669341189786792,-0.002595469355583191,0.0006463364697992802
1769666934355725800,9.248725830078126,0.0009795635705813766,-0.0016074368031695485,0.0014524752041324973
1769666934365714700,9.258714599609375,-0.00010400067549198866,-0.0026209380012005568,0.0006979473400861025
1769666934375702500,9.26870263671875,0.0009884280152618885,-0.002298695733770728,-0.0002663831692188978
1769666934385691600,9.278691650390625,0.00014830660074949265,-0.0017430313164368272,0.0007106068078428507
1769666934395679700,9.2886796875,0.0006188871338963509,-0.0015800459077581763,0.00037291785702109337
1769666934405668600,9.298668701171875,0.0014641012530773878,-0.0016431005205959082,-0.0016879145987331867
1769666934415656700,9.30865673828125,0.000513352919369936,-0.0025946481619030237,-0.0007614009082317352
1769666934425645800,9.318645751953126,-0.00010372884571552277,-0.0042126174084842205,0.001072414219379425
1769666934435633700,9.328633544921875,0.00011145463213324547,-0.0031841048039495945,0.0010135583579540253
1769666934445622800,9.338622802734376,-0.0011233175173401833,-0.003512181108817458,0.0015031660441309214
1769666934455611000,9.34861083984375,0.0008378343190997839,-0.0026503822300583124,0.000799558823928237
1769666934465599500,9.358599609375,0.00023231725208461285,-0.0026741591282188892,0.0012604432413354516
1769666934475587300,9.36858740234375,-0.0008726282394491136,-0.00023896433413028717,-0.0002857879735529423
1769666934485576400,9.378576416015624,-0.00027063314337283373,-0.0005406241398304701,-0.00008418876677751541
1769666934495564500,9.388564453125,0.0013046265812590718,-0.0010341079905629158,0.00023086322471499443
1769666934505553400,9.398553466796875,0.0013526729308068752,-0.002113484311848879,0.0016621024115011096
1769666934515541500,9.40854150390625,0.0007353522814810276,-0.0012671315344050527,0.0008740730118006468
1769666934525530600,9.418530517578125,0.000009102514013648033,-0.0033496490214020014,0.0019891145639121532
1769666934535518500,9.4285185546875,0.0006213632877916098,-0.0014449560549110174,0.0008364985696971416
1769666934545507300,9.43850732421875,0.0005468821618705988,-0.0012134639546275139,-0.00041485950350761414
1769666934555495400,9.448495361328124,-0.0010041429195553064,-0.001696028746664524,-0.0012889087665826082
1769666934565484500,9.458484619140625,0.00024163653142750263,-0.001566611579619348,-0.0006398844998329878
1769666934575472400,9.468472412109374,-0.0006161676719784737,-0.0024984516203403473,0.001784391002729535
1769666934585461500,9.47846142578125,-0.000024982960894703865,-0.004465371370315552,0.0016747271874919534
1769666934595449300,9.488449462890625,0.0004972629249095917,-0.00604728888720274,0.001316265668720007
1769666934605438500,9.4984384765625,-0.00021746836137026548,-0.002746588783338666,0.0012840585550293326
1769666934615426600,9.508426513671875,0.0005979915149509907,-0.002705842489376664,0.0006837821565568447
1769666934625415700,9.518415771484374,-0.0005696550942957401,-0.0025975373573601246,0.0001502949744462967
1769666934635403500,9.528403564453125,0.00008415093179792166,-0.00033624726347625256,0.0013934584567323327
1769666934645392400,9.538392333984374,0.00012247066479176283,-0.0009688667487353086,-0.0011665532365441322
1769666934655380500,9.54838037109375,-0.0005534396041184664,-0.0009201308712363243,-0.0003859808202832937
1769666934665369600,9.55836962890625,-0.0020494444761425257,-0.0010624232236295938,-0.0001974760089069605
1769666934675357400,9.568357421875,-0.0006648669950664043,-0.00034683174453675747,-0.0012808500323444605
1769666934685346300,9.57834619140625,0.00007969106081873178,0.002814481034874916,0.00027994741685688496
1769666934695334400,9.58833447265625,-0.0004105969564989209,0.00011163880117237568,-0.001718488521873951
1769666934705323500,9.598323486328125,-0.00042319903150200844,-0.0024348890874534845,-0.0039751166477799416
1769666934715311600,9.6083115234375,0.0005888021551072598,-0.0032535449136048555,-0.003522645914927125
1769666934725300500,9.618300537109375,0.0011514757061377168,-0.0014969632029533386,-0.0022349697537720203
1769666934735288300,9.628288330078124,0.0012510778615251184,-0.001899633090943098,0.0009459098801016808
1769666934745277400,9.63827734375,0.00008056173101067543,-0.0004944831598550081,-0.0005051563493907452
1769666934755265500,9.648265625,-0.0018619479378685355,0.00038302841130644083,-0.0025571216829121113
1769666934765254400,9.65825439453125,-0.00038341188337653875,-0.006201989948749542,-0.0002133974339812994
1769666934775242500,9.668242431640625,0.00035162048880010843,-0.005681874230504036,-0.0009170044213533401
1769666934785231400,9.6782314453125,0.00003309501335024834,-0.0017976535018533468,-0.0002706344239413738
1769666934795219500,9.688219482421875,0.00028210063464939594,-0.0005678057204931974,0.0030825515277683735
1769666934805208300,9.698208251953124,0.001308852108195424,-0.003039772855117917,0.0040398892015218735
1769666934815196400,9.708196533203125,0.0006249523721635342,-0.005047529935836792,0.002956249052658677
1769666934825185500,9.718185546875,0.000971507397480309,-0.0018059187568724155,0.0024573400150984526
1769666934835173400,9.72817333984375,0.0003331477055326104,-0.001931619830429554,0.0010858121095225215
1769666934845162500,9.73816259765625,0.0005438808584585786,-0.002585633657872677,-0.0018471959047019482
1769666934855150300,9.748150390625,0.0004245712189003825,-0.0002340623177587986,-0.0013473201543092728
1769666934865139500,9.758139404296875,-0.0009114917484112084,-0.0008160530123859644,-0.003102518618106842
1769666934875127600,9.76812744140625,-0.001410035532899201,-0.0010152575559914112,-0.0032705641351640224
1769666934885116700,9.77811669921875,0.0005555890966206789,0.0005249908426776528,-0.0035301377065479755
1769666934895104500,9.7881044921875,-0.0007102112285792828,0.0014019698137417436,-0.003114950843155384
1769666934905093400,9.79809326171875,0.0001336716813966632,0.0021811656188219786,-0.0038548854645341635
1769666934915081500,9.80808154296875,-0.0013917869655415416,-0.00022739730775356293,-0.004244771786034107
1769666934925070600,9.818070556640626,-0.00035931391175836325,0.0004417839227244258,-0.0033044135197997093
1769666934935058400,9.828058349609375,-0.0011089937761425972,0.0005930515471845865,-0.0019597834907472134
1769666934945047300,9.83804736328125,-0.00023807201068848372,-0.00045544025488197803,-0.0005029789172112942
1769666934955035400,9.848035400390625,0.001310289721004665,0.002072964794933796,0.00051514757797122
1769666934965024500,9.8580244140625,-0.0017844426911324263,0.0015099330339580774,0.001534753362648189
1769666934975012600,9.8680126953125,-0.0004438074538484216,0.0019056787714362144,-0.000019467435777187347
1769666934985001500,9.87800146484375,-0.0007691109203733504,0.00009199418127536774,-0.001119275577366352
1769666934994989300,9.8879892578125,-0.0007294297683984041,0.004157043062150478,-0.0003909009974449873
1769666935004978400,9.897978515625,-0.0005860637174919248,0.002219921676442027,-0.001557180192321539
1769666935014966500,9.907966552734376,-0.0010372032411396503,0.000639868201687932,-0.0025079287588596344
1769666935024955400,9.917955322265625,-0.00008177629206329584,0.0005184510955587029,-0.0028193292673677206
1769666935034943200,9.927943115234376,-0.0007733991951681674,0.0010769159998744726,-0.0034140131901949644
1769666935044932400,9.937932373046875,0.001622572890482843,0.002780081005766988,-0.001848361687734723
1769666935054920400,9.94792041015625,0.00009019009303301573,0.0008450282039120793,-0.002639320446178317
1769666935064909600,9.95790966796875,-0.001535944757051766,-0.001608735416084528,-0.003590887412428856
1769666935074897400,9.9678974609375,0.0003780690021812916,-0.0006489322986453772,-0.0023194942623376846
1769666935084886500,9.977886474609376,-0.000336578581482172,0.000318860518746078,-0.002722430508583784
1769666935094874400,9.987874267578125,0.0003364022122696042,0.00024935207329690456,-0.003064114134758711
1769666935104863500,9.997863525390626,0.0008653899421915412,-0.000816483749076724,-0.0002651992253959179
1769666935114851600,10.0078515625,0.0008693846175447106,-0.0012974508572369814,-0.0011325906962156296
1769666935124840400,10.01784033203125,-0.00027617719024419785,-0.0011514099314808846,0.00044017285108566284
1769666935134828500,10.02782861328125,0.0003818898694589734,-0.0007308966014534235,0.000262007350102067
1769666935144817400,10.0378173828125,0.0013611393515020609,0.000710236607119441,-0.0001523708924651146
1769666935154805500,10.047805419921875,0.0017768586985766888,-0.0008413211908191442,0.000044436659663915634
1769666935164794400,10.05779443359375,0.0002781980438157916,-0.00047874427400529385,-0.0002910830080509186
1769666935174782500,10.067782470703126,0.001090728328563273,0.0008075623773038387,0.0009464879985898733
1769666935184771600,10.077771484375,0.0017031474271789193,0.00020837434567511082,0.0010889972327277064
1769666935194759400,10.087759521484376,0.0017484213458374143,0.001524242339655757,-0.0003360603004693985
1769666935204748300,10.097748291015625,-0.00011328526306897402,0.0021489730570465326,0.0006716204807162285
1769666935214736400,10.107736328125,0.0012238880153745413,0.0026813389267772436,0.0004220823757350445
1769666935224725500,10.1177255859375,-0.0005865980638191104,0.0034699244424700737,0.00017337221652269363
1769666935234713600,10.127713623046875,0.0021260976791381836,0.0034105360973626375,0.0001877534668892622
1769666935244702500,10.137702392578126,-0.0003266234416514635,0.0030284090898931026,-0.0003067187499254942
1769666935254690300,10.147690185546875,0.0008997621480375528,0.004263583570718765,-0.000487281009554863
1769666935264679400,10.157679443359376,0.0008580827852711082,0.006364949978888035,-0.0018836113158613443
1769666935274667500,10.16766748046875,-0.0004852156853303313,0.006525272503495216,-0.00011447328142821789
1769666935284656600,10.17765673828125,0.00045292009599506855,0.0070791710168123245,0.0004750187508761883
1769666935294644500,10.18764453125,0.000011900672689080238,0.006547071505337954,0.0006079105660319328
1769666935304633300,10.19763330078125,0.0006178761832416058,0.005831059534102678,0.0003360491245985031
1769666935314621400,10.207621337890625,0.0017089731991291046,0.006407367531210184,0.0009693487081676722
1769666935324610600,10.217610595703125,-0.0006427838234230876,0.007045279256999493,0.00036331312730908394
1769666935334598700,10.2275986328125,0.00015083816833794117,0.005579741671681404,-0.0005552112124860287
1769666935344587500,10.23758740234375,0.00015877035912126303,0.00744454562664032,0.0013938583433628082
1769666935354575400,10.247575439453126,-0.00040768401231616735,0.006102312356233597,0.00013764528557658195
1769666935364564500,10.257564453125,-0.0009204684756696224,0.007166318595409393,0.0009409028571099043
1769666935374552600,10.267552490234374,0.000018295831978321075,0.00352231552824378,-0.0010524732060730457
1769666935384541400,10.27754150390625,0.00087169767357409,0.005336024798452854,-0.00008890288881957531
1769666935394529300,10.287529296875,0.0005595751572400331,0.0024267875123769045,0.0021622672211378813
1769666935404518400,10.297518310546875,0.0005947501631453633,0.0021939645521342754,0.0004925206303596497
1769666935414506500,10.307506591796875,-0.0009336379589512944,0.0020565453451126814,0.0012318141525611281
1769666935424495400,10.317495361328126,-0.0004352217074483633,0.002500074217095971,0.0005951675120741129
1769666935434483500,10.3274833984375,-0.0015966262435540557,0.003216730896383524,-0.0005121747963130474
1769666935444472600,10.33747265625,-0.0006386480526998639,0.0029500755481421947,-0.0003784974105656147
1769666935454460400,10.34746044921875,0.000011962256394326687,0.002197466092184186,-0.0009846328757703304
1769666935464449500,10.357449462890624,-0.0016645382856950164,0.002921749372035265,-0.0003731928300112486
1769666935474437600,10.367437744140625,-0.0007220455445349216,0.0013984213583171368,0.0013674491783604026
1769666935484426800,10.3774267578125,-0.00014668423682451248,0.000939388875849545,0.0001944864634424448
1769666935494414800,10.387414794921876,-0.00018956116400659084,0.001954319654032588,-0.00039673526771366596
1769666935504403700,10.39740380859375,-0.0013763136230409145,0.0020820428617298603,-0.0005976494867354631
1769666935514391600,10.4073916015625,-0.0007488729315809906,0.0013440810143947601,-0.000745454803109169
1769666935524380700,10.417380615234375,-0.0006936787394806743,0.0000551687553524971,0.0008281639311462641
1769666935534368800,10.42736865234375,-0.00031684141140431166,0.002693562302738428,0.00107796851079911
1769666935544358000,10.43735791015625,-0.000241554225794971,0.0014311663107946515,0.0004313504323363304
1769666935554345700,10.447345703125,0.0005456763319671154,-0.0006905740592628717,0.0001429300755262375
1769666935564334600,10.45733447265625,-0.00016566133126616478,-0.0007236823439598083,0.0012626976240426302
1769666935574322700,10.46732275390625,-0.0010415749857202172,0.00028032949194312096,-0.0008971260394901037
1769666935584311800,10.477311767578126,-0.00032526254653930664,-0.00025692093186080456,-0.00013909908011555672
1769666935594300000,10.4872998046875,-0.0017300799954682589,0.00043017452117055655,-0.00016812747344374657
1769666935604288800,10.497288818359374,-0.0005405592964962125,0.0013222267152741551,-0.0006150659173727036
1769666935614276600,10.507276611328125,0.00001897092442959547,0.0029443581588566303,-0.001942385220900178
1769666935624265700,10.517265625,0.0009612845024093986,0.00148611213080585,-0.001681658672168851
1769666935634253800,10.52725390625,-0.0010720391292124987,0.0021748056169599295,-0.0005863006226718426
1769666935644242700,10.53724267578125,-0.00028772198129445314,0.0004699226701632142,0.00003815419040620327
1769666935654230500,10.54723046875,-0.00041901576332747936,0.00032158452086150646,0.0005140609573572874
1769666935664219600,10.5572197265625,-0.00003848155029118061,0.002169197192415595,0.0014963737921789289
1769666935674207700,10.567207763671876,0.0004581980174407363,0.0016980839427560568,0.0022388631477952003
1769666935684196600,10.577196533203125,-0.001110773766413331,0.0009347881423309445,0.0008060075342655182
1769666935694184700,10.587184814453124,-0.000596251105889678,0.00020028837025165558,-0.002769818529486656
1769666935704173800,10.597173828125,-0.000653774244710803,-0.0027053523808717728,-0.003089304780587554
1769666935714161700,10.60716162109375,-0.0018050586804747581,0.0017194899264723063,-0.0007497179321944714
1769666935724150800,10.61715087890625,-0.0005252474220469594,-0.0007193363271653652,-0.0028808906208723783
1769666935734138600,10.627138671875,0.00014293973799794912,-0.00003756699152290821,-0.001097904285416007
1769666935744127700,10.637127685546876,-0.00005402753595262766,0.0009015483083203435,-0.0019824153278023005
1769666935754115800,10.64711572265625,-0.00018825079314410686,-0.0014010206796228886,-0.0022908092942088842
1769666935764104700,10.657104736328124,0.0008905119029805064,-0.003668559482321143,-0.0000843442976474762
1769666935774092800,10.6670927734375,0.00003989832475781441,-0.002899971092119813,-0.002003950532525778
1769666935784081700,10.67708154296875,0.0007307082414627075,0.0003699655644595623,-0.001026397105306387
1769666935794069800,10.68706982421875,0.0008345714304596186,-0.00024282792583107948,0.0012482086895033717
1769666935804059000,10.697058837890625,0.0008697845041751862,-0.001570617314428091,-0.0005910464096814394
1769666935814046700,10.707046630859375,-0.00022051355335861444,-0.0006102812476456165,0.0004803433548659086
1769666935824035600,10.71703564453125,0.001381726935505867,-0.00038012233562767506,-0.00018750387243926525
1769666935834023700,10.727023681640626,-0.0013709163758903742,0.0006084429332986474,0.00030065374448895454
1769666935844012800,10.7370126953125,-0.000329021830111742,-0.000042761676013469696,-0.0012088487856090069
1769666935854001000,10.7470009765625,-0.000649932655505836,0.0001327407080680132,-0.0011036540381610394
1769666935863989500,10.756989501953125,-0.001274866983294487,0.0010157612850889564,-0.0029274022672325373
1769666935873977600,10.7669775390625,-0.0011126805329695344,-0.0001861231867223978,-0.0031034371349960566
1769666935883966700,10.776966796875,0.000694043468683958,0.002013224409893155,-0.0027279583737254143
1769666935893954800,10.786954833984375,0.0003654093015938997,0.000003869412466883659,-0.001985468901693821
1769666935903943700,10.796943603515626,0.0007200444815680385,0.0023132290225476027,-0.0017392945010215044
1769666935913931500,10.806931640625,-0.0017905173590406775,0.0014255973510444164,-0.0010199749376624823
1769666935923920600,10.816920654296876,0.00033311324659734964,0.0002209291560575366,-0.0013153159525245428
1769666935933908700,10.82690869140625,-0.00010391161777079105,-0.0004544486291706562,0.0004972314927726984
1769666935943897600,10.836897705078124,0.0005480899708345532,-0.0009054793044924736,-0.0014667140785604715
1769666935953885700,10.8468857421875,0.000012528384104371071,0.0017094784416258335,0.0025432074908167124
1769666935963874800,10.856874755859375,-0.0008572220685891807,0.0009952172404155135,0.0011450374731794
1769666935973862700,10.866862548828125,0.0006181692006066442,0.0019318510312587023,0.0012361175613477826
1769666935983851800,10.876851806640625,0.0008040610700845718,0.002178729511797428,-0.0013910660054534674
1769666935993839600,10.886839599609376,-0.0006606775568798184,0.0011033449554815888,-0.00339296436868608
1769666936003828700,10.896828857421875,0.0004732105880975723,0.0004518709611147642,-0.004572175908833742
1769666936013816600,10.906816650390626,-0.0010754176182672381,0.00575742032378912,-0.0010663904249668121
1769666936023805700,10.9168056640625,-0.0012371219927445054,0.003340731840580702,-0.0018884039018303156
1769666936033793800,10.926793701171874,-0.000611279159784317,0.00026478071231395006,-0.001025007339194417
1769666936043782700,10.93678271484375,-0.00156386848539114,0.001595651963725686,-0.002208039630204439
1769666936053770800,10.946770751953125,-0.0009441509610041976,0.0021738242357969284,-0.001454897690564394
1769666936063760000,10.956759765625,-0.0005950183840468526,0.0020015311893075705,-0.001542532118037343
1769666936073747700,10.966747802734375,-0.0001012684078887105,0.004027930554002523,-0.004208356142044067
1769666936083736600,10.976736572265626,-0.0010187849402427673,0.00211242469958961,-0.0016213743947446346
1769666936093724700,10.986724609375,-0.0011543398723006248,0.001620805123820901,-0.002877853810787201
1769666936103713800,10.9967138671875,-0.0001985963899642229,0.0008412423776462674,-0.002339776372537017
1769666936113702000,11.006701904296875,0.00047971063759177923,0.0001232541399076581,-0.0014963529538363218
1769666936123690500,11.0166904296875,0.000881471554748714,0.0005844573024660349,-0.0005653079133480787
1769666936133678600,11.0266787109375,0.0005243417108431458,0.0009343967540189624,-0.00041563832201063633
1769666936143667700,11.036667724609375,-0.00044970004819333553,0.0015560032334178686,0.0009292832110077143
1769666936153655800,11.04665576171875,0.001355124288238585,0.0016358981374651194,0.00025337282568216324
1769666936163644700,11.056644775390625,0.00041975127533078194,0.0016409355448558927,0.002484274562448263
1769666936173632500,11.066632568359376,-0.00003911135718226433,0.001626820769160986,0.00023630005307495594
1769666936183621600,11.07662158203125,-0.0012620612978935242,0.002224450698122382,-0.001778309466317296
1769666936193609700,11.086609619140624,-0.0011153211817145348,0.0019341660663485527,-0.001251269830390811
1769666936203598800,11.096598876953125,-0.0006384077714756131,0.0005419471999630332,-0.002022556960582733
1769666936213586700,11.106586669921874,-0.0007108458084985614,0.0012090690433979034,-0.0010989727452397346
1769666936223575600,11.116575439453126,0.00018007028847932816,0.00010951620060950518,-0.001704953145235777
1769666936233563600,11.126563720703125,0.0005262811901047826,0.0018528214422985911,-0.000847148708999157
1769666936243552800,11.136552734375,-0.0006304682465270162,0.0024440030101686716,-0.0007829673122614622
1769666936253540900,11.146540771484375,-0.0010264802258461714,0.0022442659828811884,-0.0020644802134484053
1769666936263529700,11.15652978515625,-0.0013152528554201126,0.0022525798995047808,-0.0017642262391746044
1769666936273517600,11.166517578125,-0.0005195003468543291,0.0029548555612564087,-0.0015495754778385162
1769666936283506700,11.176506591796874,-0.00033666985109448433,0.0011935231741517782,-0.0012429214548319578
1769666936293494800,11.186494873046875,-0.0015718439826741815,0.0015501204179599881,-0.0009545010980218649
1769666936303483600,11.196483642578125,-0.0010581541573628783,0.00012282386887818575,-0.0004046184476464987
1769666936313471700,11.2064716796875,0.00039886124432086945,0.0007380140013992786,-0.0021892026998102665
1769666936323460900,11.2164609375,-0.0004167347215116024,0.0012112510157749057,-0.0000021494925022125244
1769666936333448700,11.22644873046875,0.00032974930945783854,0.0018181854393333197,-0.00018910341896116734
1769666936343437600,11.2364375,-0.0012653107987716794,0.0009064057376235723,-0.002445597667247057
1769666936353425700,11.24642578125,-0.00017581158317625523,0.002286455826833844,-0.0014461129903793335
1769666936363414800,11.256414794921875,-0.00026344507932662964,0.0010314726969227195,-0.0020268212538212538
1769666936373402600,11.266402587890624,-0.001183300861157477,0.0007105617551133037,-0.0018100396264344454
1769666936383391700,11.276391845703126,-0.0010860527399927378,0.0009974314598366618,-0.0013119927607476711
1769666936393380600,11.286380615234375,-0.0003920330200344324,0.0007236584788188338,-0.00022036326117813587
1769666936403368700,11.29636865234375,-0.0009127262164838612,0.0007594843627884984,-0.0013607416767627
1769666936413356800,11.306356689453125,0.0004766448400914669,-0.00036410335451364517,-0.0004992089234292507
1769666936423346000,11.316345947265624,0.0002726686652749777,0.0014693535631522536,-0.0007313874084502459
1769666936433333800,11.326333740234375,-0.001559053547680378,0.000007544411346316338,-0.0005116765387356281
1769666936443322600,11.336322509765624,0.0008646559435874224,-0.0003600929630920291,0.0003377597313374281
1769666936453310700,11.346310791015625,0.00003055401612073183,-0.00010096735786646605,0.000382500933483243
1769666936463299600,11.356299560546875,-0.00046043191105127335,-0.00039091194048523903,0.0010525102261453867
1769666936473287700,11.36628759765625,-0.0006236837361939251,-0.00031021819449961185,0.0014687622897326946
1769666936483276500,11.376276611328125,-0.0001696813851594925,-0.0005716319428756833,0.0008641332387924194
1769666936493265700,11.386265625,0.0005807975539937615,0.00013437203597277403,-0.0006533360574394464
1769666936503253800,11.396253662109375,0.0005727080861106515,-0.0007405629148706794,-0.002136808820068836
1769666936513241600,11.40624169921875,0.0016134715406224132,-0.00009368115570396185,0.0012011972721666098
1769666936523230500,11.41623046875,0.0003247238928452134,-0.0005419080844148993,0.0012718135258182883
1769666936533218600,11.426218505859374,0.0004656051751226187,-0.00018051720689982176,0.0013117608614265919
1769666936543207700,11.436207763671876,-0.0000959604512900114,-0.0019053638679906726,0.001850196160376072
1769666936553195800,11.44619580078125,-0.0004384429194033146,-0.0024342676624655724,0.0018834855873137712
1769666936563184600,11.4561845703125,0.00008161808364093304,-0.0016944792587310076,0.0012616727035492659
1769666936573172500,11.46617236328125,-0.00033862877171486616,-0.001841752091422677,0.0013972275191918015
1769666936583161600,11.47616162109375,0.0008372169686481357,-0.0010304352035745978,0.0009677691850811243
1769666936593150700,11.486150634765625,0.0002723605139181018,0.0004963551182299852,0.0007275519892573357
1769666936603138600,11.496138671875,-0.002599977422505617,0.0009860992431640625,0.0026315622963011265
1769666936613126400,11.50612646484375,0.0009657288901507854,0.00023934885393828154,0.0003351185005158186
1769666936623115500,11.516115478515625,-0.00041793915443122387,-0.00030401849653571844,-0.0008492507040500641
1769666936633104600,11.526104736328126,0.000774890766479075,-0.0011556973913684487,0.00002879323437809944
1769666936643092700,11.5360927734375,0.0014493349008262157,-0.002144397236406803,-0.0013634616043418646
1769666936653081600,11.54608154296875,0.0009265562985092402,-0.00187302113045007,0.0006237889174371958
1769666936663069700,11.556069580078125,-0.00040371750947088003,0.0006906205089762807,0.0011133409570902586
1769666936673058600,11.56605859375,-0.00018720247317105532,0.0011843706015497446,-0.0007894875016063452
1769666936683046700,11.576046630859375,0.0010323695605620742,-0.00026365090161561966,-0.001830456079915166
1769666936693035500,11.586035400390625,-0.00043636374175548553,-0.004363320767879486,-0.002125001745298505
1769666936703023600,11.596023681640625,0.0003737581428140402,-0.0001222963910549879,-0.0005109959747642279
1769666936713011700,11.60601171875,-0.00017618457786738873,0.0006239213980734348,-0.0012284517288208008
1769666936723000600,11.61600048828125,-0.0003943184856325388,-0.005074456334114075,-0.00108522386290133
1769666936732989400,11.625989501953125,-0.0007019135518930852,-0.0012608099495992064,-0.0002876068465411663
1769666936742977500,11.6359775390625,-0.0018049838254228234,-0.0011325094383209944,0.0013417241862043738
1769666936752966700,11.645966552734375,-0.0006172140128910542,-0.0034443996846675873,0.0010692828800529242
1769666936762954800,11.655954833984374,-0.00014647352509200573,-0.00245817843824625,0.0007883494254201651
1769666936772943600,11.665943603515625,0.0009582056663930416,0.000639876932837069,-0.0006345775909721851
1769666936782931500,11.675931396484375,0.00043964723590761423,0.0026141535490751266,-0.0017421762458980083
1769666936792920600,11.685920654296876,0.0011754786828532815,0.0034053786657750607,-0.0014196676202118397
1769666936802908700,11.69590869140625,0.00031103251967579126,0.001983324298635125,-0.0014209412038326263
1769666936812897800,11.705897705078126,-0.0019052501302212477,0.0020853234454989433,0.00013647554442286491
