time,seconds_elapsed,z,y,x
1769668193935792400,0.07179248046875,-0.4792950169961899,-0.3026099049001932,-0.4524789793282747
1769668193945781500,0.081781494140625,-0.46267596369385716,-0.29710721583068367,-0.46312195389568805
1769668193955769300,0.091769287109375,-0.45962234827689824,-0.2980956423461437,-0.417794911698997
1769668193965758200,0.10175830078125,-0.44018180781304833,-0.23409809421002864,-0.4320797499001026
1769668193975747300,0.111747314453125,-0.42038573190979656,-0.19007658165395258,-0.44206016890555616
1769668193985736400,0.121736328125,-0.4185848930329084,-0.18251812909841536,-0.43320816940814255
1769668193995724500,0.131724609375,-0.4911790776658803,-0.1764940465033054,-0.4006058764889836
1769668194005713400,0.14171337890625,-0.5769633640658111,-0.11790098775923251,-0.4015902113512158
1769668194015702300,0.151702392578125,-0.653642260729149,-0.04112988276779651,-0.3309419731542468
1769668194025691400,0.16169140625,-0.5817139195937663,-0.16444178965985773,-0.15603431905955076
1769668194035679200,0.17167919921875,-0.2991547594776377,-0.21114099699258804,-0.2528863813102245
1769668194045668400,0.18166845703125,-0.43716907239574937,0.22202304101288317,-0.20168518638312816
1769668194055657500,0.191657470703125,-0.821568239242956,0.08869593606293201,-0.6397600850448012
1769668194065645600,0.2016455078125,-0.7899748311053961,-0.10589140101373196,-0.6596385054692626
1769668194075634200,0.21163427734375,-0.49822600050270555,-0.11555062524080276,-0.76565937808156
1769668194085623300,0.221623291015625,-0.3387737262258306,-0.19972177735567093,-0.8575099787831306
1769668194095612200,0.231612060546875,-0.13724336507823318,-0.16952946818768977,-0.25727000322192906
1769668194105600300,0.241600341796875,-0.2792208825388923,0.0541015925437212,-0.01703296786546707
1769668194115589400,0.25158935546875,-0.2795452739213593,0.10101356584429741,-0.1961626235693693
1769668194125578500,0.26157861328125,-0.17091067514671013,0.01477729789316654,-0.3644420916959643
1769668194135567400,0.2715673828125,-0.121560085655516,-0.061443187478184697,-0.28710692308098074
1769668194145555200,0.28155517578125,-0.06372399645831901,-0.2008247701615095,-0.25415976224690673
1769668194155544300,0.29154443359375,-0.03678162443041801,-0.2773690806597471,-0.25326661279946566
1769668194165533200,0.301533203125,-0.029599010316794735,-0.2558329561561346,-0.287813317784667
1769668194175522300,0.311522216796875,-0.11836451361775398,-0.30061259360313414,-0.340833544832468
1769668194185510400,0.321510498046875,-0.20327451966749502,-0.2082230637192726,-0.35913287937194105
1769668194195499500,0.33149951171875,-0.0653320298765786,0.030022797819972035,-0.3791346339151263
1769668194205488400,0.34148828125,-0.04579144483804703,-0.042021278649568554,-0.4076964192718267
1769668194215477500,0.3514775390625,-0.1437257493674755,-0.19887012896239756,-0.4888751115724444
1769668194225465300,0.36146533203125,-0.23909860591106116,-0.2561456753671169,-0.4956643333211541
1769668194235454200,0.3714541015625,-0.2395451075695455,-0.2888648726642132,-0.5099027020320296
1769668194245443300,0.381443359375,-0.17158172454237938,-0.2698299173265695,-0.5154904390364885
1769668194255432400,0.391432373046875,-0.06065707860179245,-0.15909984411001205,-0.4950622757747769
1769668194265420500,0.401420654296875,0.014193141329661011,-0.1308294429153204,-0.400690924423933
1769668194275409400,0.411409423828125,0.001954495068639517,-0.3312672595858574,-0.3404112277671695
1769668194285398300,0.421398193359375,0.09250862621888518,-0.6985632794082164,-0.47961248544752594
1769668194295386400,0.431386474609375,0.1122187043391168,-0.8340683129191399,-0.5983849953442811
1769668194305375200,0.441375244140625,0.3368108651876449,-0.851908505514264,-0.7055339952036738
1769668194315364400,0.4513642578125,0.6847426977179945,-0.6603945845335721,-0.4852320788949728
1769668194325353500,0.461353515625,0.8897687189616262,-0.6041869596213102,-0.324535320982337
1769668194335341600,0.471341552734375,0.9319136239908635,-0.45493806291818617,-0.4279772830173373
1769668194345330200,0.481330078125,1.0010019193947315,-0.34209143593907354,-0.36571897976398465
1769668194355319300,0.4913193359375,0.9290307620309293,-0.31995266936719413,-0.37292818049043414
1769668194365308200,0.50130810546875,0.7032645889669656,-0.33545945057868953,-0.45260202118605375
1769668194375296300,0.511296142578125,0.5563213388577103,-0.40978666954934595,-0.43081893618404865
1769668194385285400,0.521285400390625,0.4644935345098376,-0.4625783485382795,-0.37825463621020317
1769668194395274500,0.5312744140625,0.4112763235852122,-0.5106570275306701,-0.4490191942632198
1769668194405263400,0.541263427734375,0.49768999392986296,-0.6068477032631635,-0.5114826646998525
1769668194415251200,0.551251220703125,0.7402490424931049,-0.707421124124527,-0.4071358627796173
1769668194425240300,0.561240234375,1.1626140385866164,-0.7611147203892469,-0.22407179023623466
1769668194435229200,0.571229248046875,0.7403785140916704,-0.371647200769186,0.149879303561151
1769668194445218300,0.58121826171875,0.492048188650608,-0.03816811035275459,0.23440584498494862
1769668194455206400,0.591206298828125,0.746644004227221,-0.1355611476123333,0.12771394124329088
1769668194465195500,0.601195556640625,0.8275827502921224,0.16180559593737123,0.39581981125622984
1769668194475184400,0.611184326171875,0.48922377887964247,0.31896774998307226,0.6528232724964619
1769668194485173500,0.621173583984375,0.21255817031413315,0.380187065577507,0.6368468279466033
1769668194495161300,0.631161376953125,-0.2954629557549953,0.6213613817840814,0.4843547115385532
1769668194505150200,0.641150146484375,-0.18613310472518205,0.5975128886848687,0.21368132912516594
1769668194515139300,0.651139404296875,0.024246260245144365,0.33051848704516884,0.28316987589299675
1769668194525127400,0.66112744140625,-0.8777531408667564,0.8859861316829919,0.5953422666475177
1769668194535116500,0.671116455078125,-0.264771172632277,0.5155985755860805,0.06113572896420955
1769668194545105400,0.68110546875,-0.06218699158281087,0.18428689233660697,-0.020136194577813148
1769668194555094300,0.69109423828125,-0.5792337201505899,-0.10685060143470763,-0.08697919527292251
1769668194565082400,0.701082275390625,-0.5805439259663224,-0.23217151006162165,-0.08476677992045879
1769668194575071200,0.7110712890625,-0.39242490812093017,-0.48425183568596836,-0.2174576327934861
1769668194585060400,0.721060302734375,-0.4021037138313055,-0.46185295687317846,-0.0922948373377323
1769668194595049500,0.731049560546875,-0.2500646018877625,-0.46643736205399033,0.42500908086150885
1769668194605037600,0.74103759765625,0.30070787067115307,-0.6169821437865496,0.7088707384109497
1769668194615026200,0.751026123046875,1.2812503548830747,-0.8504629828810691,0.8712851138964295
1769668194625015300,0.761015380859375,1.7930705809742211,-0.8709563203334808,1.2067673608288167
1769668194635004200,0.771004150390625,1.2114002813264726,-1.0658628063619136,1.8836986541435121
1769668194644992000,0.780991943359375,0.7734487167835236,-1.047016067072749,2.192977077022195
1769668194654981000,0.790981201171875,0.9272676978811621,-0.9235422476172447,1.9652303976655006
1769668194664970200,0.80097021484375,1.2665560590982436,-0.8419944297432899,1.4675260829493402
1769668194674959000,0.810958984375,1.1349883650362491,-0.9322077846318483,1.0183291940316557
1769668194684947200,0.820947265625,0.2646826175659895,-1.0540817676752805,0.8512965110957622
1769668194694936300,0.830936279296875,-0.031523557771742344,-0.8804536319971084,0.7250809917166828
1769668194704925200,0.84092529296875,-0.3167296156674623,-0.662093789666891,0.5590715143486857
1769668194714914300,0.850914306640625,-0.5643515005782246,-0.3738303900271654,0.46166737117320295
1769668194724902100,0.860902099609375,-0.6941308499187231,-0.1260059682816267,0.42763679901659485
1769668194734891300,0.870891357421875,-0.7722925324857235,-0.03529576978683471,0.5145969973281026
1769668194744880000,0.880880126953125,-0.31107728899419307,-0.01977788265943527,0.5703489874273538
1769668194754868200,0.8908681640625,0.43998482393622396,-0.2515361357450485,0.4305509328976273
1769668194764857300,0.900857421875,1.0804589024692772,-0.5201531701505184,0.5052677357077598
1769668194774846200,0.91084619140625,1.7317133182138205,-0.7024380750149488,0.5819169678851962
1769668194784835300,0.92083544921875,2.1918957115262745,-0.9106336662054061,0.8447399290591477
1769668194794823200,0.9308232421875,2.2731553601086136,-1.3348825763493775,0.7323015906199812
1769668194804812300,0.940812255859375,1.9201210898727177,-1.4064578662633895,0.7669324667572974
1769668194814801200,0.95080126953125,1.3159031505912542,-1.0808850189268588,0.5481476770132779
1769668194824790300,0.960790283203125,0.9166922355920076,-0.691477120539546,0.022222353202104566
1769668194834778400,0.9707783203125,0.8657529064714908,-0.29485096133649347,-0.3899368906974792
1769668194844767200,0.980767333984375,0.4036915675446391,0.38247137712240215,-0.794136407764256
1769668194854756000,0.990756103515625,-0.6616013299748301,0.7788146277308463,-1.2344874346643686
1769668194864745200,1.0007451171875,-1.3478048940256238,0.9822574714362621,-1.2011544893831014
1769668194874733300,1.0107333984375,-1.3429729438245295,0.9399228890538215,-0.7693710920810699
1769668194884722200,1.02072216796875,-0.8761842841148376,0.7986883719801903,-0.3410954106390476
1769668194894711300,1.030711181640625,-0.07101707150936126,0.7005489002674817,-0.06296294439136982
1769668194904700200,1.0407001953125,0.3166203100740909,0.7540431745678186,0.34417671778053044
1769668194914688000,1.05068798828125,0.2237885893806815,0.7825666737407445,0.8954843201294541
1769668194924677000,1.060677001953125,0.6059618603393435,0.3383808909833431,1.0047381833136082
1769668194934666200,1.070666259765625,0.835097363705933,0.07887363022863865,1.0921928871437907
1769668194944655000,1.080655029296875,0.5185191392078995,-0.03134849346578121,1.0863549747705459
1769668194954643200,1.090643310546875,0.21759499543756244,0.04884557171165943,1.0553238766908646
1769668194964632300,1.10063232421875,-0.029015374343097207,0.09873743760585785,0.8470382691293954
1769668194974621200,1.11062109375,-0.23199410766810177,0.19217209262847898,0.7238114101722836
1769668194984609000,1.120609130859375,-0.13707505930662153,0.20849077474474906,0.45776656434237956
1769668194994598100,1.13059814453125,0.06256020880937575,0.2584901926666498,0.32557664672881365
1769668195004587300,1.140587158203125,0.08825696012377739,0.31853637282848357,0.08720423620045184
1769668195014576000,1.150576171875,-0.1577744407251477,0.4777788402795791,0.0331657720208168
1769668195024564200,1.160564208984375,-0.3438414944767952,0.6216741009950637,0.1650759959101677
1769668195034553300,1.17055322265625,-0.28608342525213953,0.6918231574982404,0.1665922456920147
1769668195044542200,1.180542236328125,-0.28253245477229355,0.6731622961699962,0.03204875068962574
1769668195054531300,1.19053125,-0.3698638244837522,0.5866150625735521,0.04910656073540449
1769668195064519200,1.200519287109375,-0.5557794870659709,0.371246218752861,0.17215046434104442
1769668195074508300,1.21050830078125,-0.47179070578068494,0.04146481381058693,0.0031897359520196913
1769668195084497200,1.2204970703125,-0.04176613484472036,0.1792915682673454,0.26325609189420934
1769668195094486300,1.230486328125,0.2507271574497223,0.17740356256365775,0.3044616702467203
1769668195104474400,1.240474365234375,0.3625453181639314,-0.10263327600061893,0.0037149288699030872
1769668195114463200,1.250463134765625,0.09953969389945268,-0.4527788390576839,-0.07402882054597139
1769668195124452000,1.2604521484375,-0.20874124237447975,-0.5046785376429558,-0.05551145934164524
1769668195134441200,1.270441162109375,0.19280659113973378,-0.3309901962101459,-0.06748714381754398
1769668195144429300,1.28042919921875,0.5000660754114389,-0.05578560010790824,0.07272592125385999
1769668195154418200,1.290418212890625,0.5509934218332171,0.4485802183240652,0.29921412498205896
1769668195164407300,1.3004072265625,0.33538054012358187,0.57854339979887,0.277257436978817
1769668195174395400,1.3103955078125,0.12692132956087587,0.0948135421603918,0.10225158320665359
1769668195184384300,1.32038427734375,-0.09277239172160624,-0.3171346893370151,-0.07190700608640908
1769668195194373000,1.330373046875,-0.332107217541337,-0.636677608859539,-0.12586685207188128
1769668195204362200,1.3403623046875,-0.07514847222566604,-0.5839432130157948,-0.05382832856029272
1769668195214350300,1.350350341796875,-0.013247019585967064,-0.7644663689047098,0.11170680929422377
1769668195224339200,1.360339111328125,0.12559388034939764,-1.010195279675722,-0.17954817337691784
1769668195234328300,1.370328369140625,0.2841834368497133,-0.83738781273067,-0.30971213812083004
1769668195244317200,1.380317138671875,0.6598673457890749,-0.46394437619447704,-0.28053543573617934
1769668195254305000,1.390304931640625,0.6950818670332432,-0.39104339063465593,-0.50192894667387
1769668195264294100,1.400294189453125,0.5948135665982961,0.08822948759496212,-0.3550178452685475
1769668195274283300,1.410283203125,0.7784425795480608,0.8322714926302432,-0.18864158041477203
1769668195284272000,1.420272216796875,0.8753715064272284,1.4269810143321753,-0.3335024712920189
1769668195294260200,1.43026025390625,0.20799977635741232,1.4071043474733829,-0.3807648654654622
1769668195304249300,1.440249267578125,-0.306222834700346,1.408296187606454,-0.09430851524770259
1769668195314238200,1.45023828125,-0.5321791235089302,1.2367723307311533,0.12743658560663462
1769668195324227300,1.460227294921875,-0.5272200397968292,0.8321130871981381,0.256486743889749
1769668195334215200,1.470215087890625,-0.252616916719079,0.6913929493874311,0.383984119772911
1769668195344204300,1.480204345703125,0.13075403959155082,0.6611228988081217,0.5511041887313127
1769668195354193200,1.490193115234375,0.20318974572718143,0.22230828769505023,0.4304039256423712
1769668195364181200,1.50018115234375,0.185911278668046,-0.2764548884242773,0.3478983686521649
1769668195374170400,1.51017041015625,0.41396892367005345,-0.42974516947269437,0.16026771884560584
1769668195384159200,1.5201591796875,0.5692980170696973,-0.4606920964002609,-0.0251423323020339
1769668195394148000,1.530148193359375,0.33229192645847794,-0.8089385478377342,0.013614683854579925
1769668195404136200,1.54013623046875,0.38512101484835143,-0.6577899549931288,-0.34646044480353594
1769668195414125300,1.550125244140625,0.06625438715219498,-0.2749649421274662,-0.24960166055113076
1769668195424114200,1.5601142578125,-0.16446283244788645,-0.3171411190778017,-0.3204921830713749
1769668195434103300,1.570103271484375,-0.23914368716180323,-0.36323476173281666,-0.43605391422808165
1769668195444091400,1.58009130859375,-0.21428104858398436,-0.16485855376720426,-0.42872780912369485
1769668195454080300,1.590080322265625,-0.20675591377615926,0.0167658413618803,-0.31683366056382656
1769668195464069000,1.600069091796875,-0.29208851088583465,0.12116671155691146,-0.2066758342772722
1769668195474058200,1.610058349609375,-0.24783143600821494,0.1300578740209341,-0.01338788936138153
1769668195484046300,1.62004638671875,0.1621671227261424,0.16520342168211935,0.08927432047277689
1769668195494035200,1.63003515625,0.3408841059759259,-0.046105917614698406,-0.06346154156327247
1769668195504024300,1.6400244140625,0.2882499556362629,-0.13079554064571858,-0.002964695024490356
1769668195514013200,1.65001318359375,-0.06296031404286623,-0.09490238948762417,0.18184096048921344
1769668195524001000,1.6600009765625,-0.3866793502062559,0.017004326292872428,0.12854863850176335
1769668195533990100,1.669990234375,-0.3853217981174588,0.0919248349815607,0.24427023639529943
1769668195543979300,1.679979248046875,0.16478578079193829,0.15782207925915717,0.15878274098485706
1769668195553968000,1.689968017578125,0.3689253745898604,-0.5549199476271868,0.1199883154273033
1769668195563956200,1.699956298828125,0.8199827966824174,-0.5237526559472083,-0.10757190144658088
1769668195573945300,1.7099453125,0.980116660015285,-0.12563479688167573,-0.16887597271502017
1769668195583934200,1.719934326171875,0.8402806115627288,-0.01614624815881252,-0.04784428571462631
1769668195593923300,1.72992333984375,0.5600266231164336,-0.08724456821084021,-0.07794248685836791
1769668195603911200,1.7399111328125,0.2994748217448592,-0.1604050814896822,-0.10006517907828091
1769668195613899800,1.749899658203125,0.11714783130437136,-0.29515841985046865,-0.15284838249981403
1769668195623888600,1.759888671875,-0.15874796193242072,-0.12864391556978225,-0.21926643578112123
1769668195633876700,1.769876708984375,-0.33976766916662454,0.0901776990532875,-0.17918898467570543
1769668195643865600,1.779865478515625,-0.32925416619777675,0.14985679946839808,-0.025941081464290618
1769668195653854700,1.789854736328125,-0.22101912466734647,0.06990764896273613,0.162874686473608
1769668195663843600,1.799843505859375,0.07732318591624499,0.015498597905039786,0.19656886628270148
1769668195673831700,1.809831787109375,0.18111849143356085,-0.2679594472795725,-0.021929799996316432
1769668195683820800,1.81982080078125,-0.0688940880060196,-0.24610242025852203,-0.14394202246665955
1769668195693809700,1.8298095703125,-0.053721653315424917,-0.022398878812789916,-0.26146774717271326
1769668195703798800,1.839798828125,0.05117079978883266,0.06977846962511539,-0.23298282644450663
1769668195713786600,1.84978662109375,0.1597407723620534,-0.012640285864472389,-0.09481003502905368
1769668195723775700,1.859775634765625,0.08091770327687263,-0.09535480943024158,0.006513035155832767
1769668195733764600,1.8697646484375,0.008492226274311543,-0.13107143497765064,-0.03339753495007753
1769668195743753700,1.879753662109375,-0.11433394292742013,-0.05263093546926975,-0.03587240063101053
1769668195753741800,1.889741943359375,-0.28555209485441446,0.08620821090042591,-0.08141191653460264
1769668195763730700,1.899730712890625,-0.24455548307746647,0.03539046233296394,-0.22978110779374836
1769668195773719800,1.9097197265625,-0.14072218363732097,-0.006973346143960953,-0.11525631846934556
1769668195783707600,1.919707763671875,0.07515197935700416,-0.027947160589694976,-0.03955839566737413
1769668195793696800,1.92969677734375,0.0976172014042735,-0.21229835033416747,0.024295944605767724
1769668195803685600,1.939685546875,-0.01057546228915453,-0.22762392975986004,0.036032267367839814
1769668195813674800,1.9496748046875,-0.20209172135740516,-0.10788403613567352,-0.09663725045621395
1769668195823662800,1.959662841796875,-0.34686376490741966,0.02763502590060234,-0.04844225160777568
1769668195833651700,1.969651611328125,-0.29534166746288537,-0.08065525294840335,0.05909194817692041
1769668195843640800,1.979640869140625,-0.056306701372563835,-0.17737784360051154,0.09090104489177465
1769668195853629700,1.989629638671875,0.08341039687544106,-0.19970599526464938,0.0859820009291172
1769668195863617500,1.999617431640625,0.1370519706919789,-0.29511341166496274,0.07454086172133684
1769668195873606700,2.009606689453125,0.025098493160307406,-0.13944588009119033,0.013036883966624736
1769668195883595800,2.019595703125,-0.14727029010653495,-0.04910977560579777,0.11032266145944594
1769668195893584600,2.029584716796875,-0.12803221341222523,-0.16100012477338313,0.07658990320563316
1769668195903572700,2.03957275390625,-0.045451545359194274,-0.21024667850136755,0.1462903391584754
1769668195913561600,2.0495615234375,0.04095861785411835,-0.24147417593598364,0.24207769478708505
1769668195923550700,2.05955078125,0.14294512038379906,-0.23437515758574007,0.23843115497827527
1769668195933539600,2.06953955078125,0.2050657687321305,-0.24375673391520974,0.2941097875803709
1769668195943527700,2.079527587890625,0.4422928086176514,-0.21896832961738108,0.26716537429243326
1769668195953516800,2.089516845703125,0.4414277162209153,-0.4755670094490051,0.08874591268450022
1769668195963505700,2.099505615234375,0.19746113894730805,-0.5361100332170724,0.22396277690380811
1769668195973494800,2.109494873046875,0.26297961304038764,-0.3327741570174694,0.2944534864515066
1769668195983482600,2.119482666015625,0.26016952405571936,-0.21446108132600783,0.2893096938222647
1769668195993471700,2.1294716796875,0.1260851709976792,-0.13449907133877276,0.26283260578513146
1769668196003460600,2.139460693359375,0.07339373751282692,-0.07568272523283957,0.15162527044564483
1769668196013449700,2.14944970703125,-0.01624386331439018,-0.029480361506342888,0.09757628487199545
1769668196023437800,2.159437744140625,-0.055496261772513385,-0.09448211824893951,0.028778642977774143
1769668196033426700,2.1694267578125,-0.0029845687687397003,-0.1656464892745018,-0.07927811937630176
1769668196043415800,2.179415771484375,-0.054530339349806306,-0.14888357052206994,-0.06893120514601468
1769668196053403600,2.189403564453125,-0.04540127647668123,-0.12415186484754084,-0.10374708246141671
1769668196063392500,2.199392578125,-0.05683949307501316,-0.07981471047103404,-0.0785790311962366
1769668196073381600,2.209381591796875,-0.15194909557253122,-0.08745324252545833,-0.07558247972875833
1769668196083370800,2.219370849609375,-0.15817425369769333,-0.043861938080191606,-0.10814531742036342
1769668196093358800,2.22935888671875,-0.1750496929138899,-0.010271218645572662,-0.1605517964839935
1769668196103347700,2.23934765625,-0.2200587552025914,0.0018050035953521728,-0.15273177038282154
1769668196113336800,2.2493369140625,-0.18180501239299773,0.07455284442007541,-0.15559008242338895
1769668196123325700,2.25932568359375,-0.030905133612453936,0.044864393121004105,-0.188557701523602
1769668196133313500,2.2693134765625,0.07289484807997941,-0.015976736810803412,-0.1933791303306818
1769668196143302700,2.279302734375,0.1190039805650711,-0.1052051723152399,-0.18857903657257555
1769668196153291800,2.289291748046875,0.1591954134389758,0.0028039515048265454,-0.16222878978550434
1769668196163280600,2.29928076171875,0.05554243900179863,0.03416062827706337,-0.04947597856968641
1769668196173268700,2.309268798828125,0.01057020159214735,-0.01042903955578804,-0.029556641612946986
1769668196183257600,2.319257568359375,-0.0019485037192702292,-0.044592005920410155,-0.08234159860014915
1769668196193246700,2.329246826171875,-0.014619476982951164,-0.08041969062685966,0.021179858411848544
1769668196203235600,2.339235595703125,0.027195173178613183,-0.13286182552576065,-0.022078560817241667
1769668196213223700,2.3492236328125,0.015815993291139602,-0.06645546268224715,0.03463379874676466
1769668196223212800,2.359212890625,0.04598989001959562,0.07463935365974902,0.09275310249924659
1769668196233201700,2.36920166015625,0.037270284730195995,0.14193828142881393,0.037411154505610465
1769668196243190800,2.379190673828125,0.06079699852913618,0.1462140590518713,0.042403555965423584
1769668196253178600,2.3891787109375,0.11766864030808209,0.12852058145105838,0.0414727048560977
1769668196263167700,2.399167724609375,0.15278963804990053,0.07310381465554237,0.03650923722982406
1769668196273156600,2.409156494140625,0.17953502163439988,0.1602870080679655,-0.0025379940450191494
1769668196283144700,2.419144775390625,0.11956541384011507,0.1741378387659788,-0.03567161736190319
1769668196293133800,2.4291337890625,-0.005284370143711567,0.12657470808029175,-0.05821867247372865
1769668196303122700,2.439122802734375,-0.09322802653461694,0.08628829039931296,-0.04223638270497322
1769668196313111800,2.44911181640625,-0.08280483219772576,0.10862520989179611,0.012322890478372574
1769668196323099600,2.459099609375,-0.009948270301520824,0.08015373316705227,-0.05164806191176176
1769668196333088500,2.469088623046875,0.04994008895009756,0.0939513723731041,-0.11237579459697007
1769668196343077600,2.47907763671875,0.04168663986772299,0.17491759096682072,-0.19302724815309047
1769668196353066800,2.489066650390625,0.022424597775936125,0.2072393133789301,-0.22592004845142363
1769668196363054800,2.499054931640625,0.031876316732168196,0.24290391647815704,-0.2108107421249151
1769668196373043700,2.509043701171875,0.009263210646808146,0.24807985781133174,-0.18551146569550037
1769668196383032800,2.51903271484375,-0.09580985972136259,0.18234101896584032,-0.2953931053891778
1769668196393021700,2.529021728515625,-0.1810465952411294,0.32685295027494427,-0.27077187435179945
1769668196403009500,2.539009521484375,-0.03877630537897348,0.4054273052960634,-0.2571945998981595
1769668196412998700,2.54899853515625,-0.08375847966074942,0.25297230602800846,-0.2857610614299774
1769668196422987800,2.55898779296875,-0.16667758588790893,0.21268296573758125,-0.24043781862556932
1769668196432976600,2.5689765625,-0.20458996791392564,0.08071019800603389,-0.24557401247024535
1769668196442964700,2.57896484375,-0.07472586289942264,0.09676876788139342,-0.15569704992920158
1769668196452953600,2.58895361328125,-0.11628010855913161,0.14353227262198925,-0.053093000023066994
1769668196462942700,2.598942626953125,-0.18144933082312345,-0.010308628046512603,-0.02504033323228359
1769668196472931600,2.608931640625,-0.06093523795604706,-0.0920160203963518,0.08376023322641848
1769668196482919700,2.618919677734375,0.13777794687896966,-0.18520342265963552,0.15144173057228325
1769668196492908800,2.62890869140625,0.2728054260060191,-0.2705886267393827,0.14066840762346983
1769668196502897700,2.638897705078125,0.26377865446358917,-0.27312369817495347,0.18999708667695522
1769668196512885500,2.648885498046875,0.22412322816252708,-0.21129297268390654,0.19777590398490427
1769668196522874600,2.65887451171875,0.18188421510905026,-0.259649884095788,0.143486095392704
1769668196532863700,2.66886376953125,0.18838526756614446,-0.2016349175006151,0.16236264529824257
1769668196542852600,2.6788525390625,0.19957769270986317,-0.20669453897774218,0.1459928175166249
1769668196552840700,2.6888408203125,0.0368888841971755,-0.16652736376225946,0.14506488901674747
1769668196562829800,2.698829833984375,0.018578151480853556,-0.15154372964203358,0.10066811340749263
1769668196572818700,2.708818603515625,0.1357224756538868,-0.16763853987455368,0.13164894260466098
1769668196582807800,2.718807861328125,0.1568535264879465,-0.13952654411196708,0.09711071318686008
1769668196592795600,2.728795654296875,0.06749415808022022,-0.1223193887233734,0.029405542704463
1769668196602784500,2.738784423828125,0.008017302238941192,-0.09716565824449062,0.03432867832034826
1769668196612774400,2.7487744140625,0.058868660815060134,-0.09121990158259868,0.03876256911456585
1769668196622763500,2.758763427734375,0.06107435416579246,-0.11181611488759517,0.0004293313279747963
1769668196632751000,2.768751220703125,0.019643442624807356,-0.13088614153862,-0.011191840621829032
1769668196642740200,2.778740234375,-0.035026889717578884,-0.14596271463930607,0.054797758114337916
1769668196652729300,2.788729248046875,-0.07893938894122839,-0.17855039451122282,0.07260872461497783
1769668196662718200,2.79871826171875,-0.10214783057123422,-0.2142927390217781,0.03842237737476825
1769668196672706300,2.808706298828125,-0.14162790030539035,-0.19065701189041137,0.031764380790293215
1769668196682695400,2.8186953125,-0.1695844132453203,-0.2719008783817291,0.035515842278301714
1769668196692684300,2.828684326171875,-0.18197218565344808,-0.32092882092297076,-0.05191168128401041
1769668196702673200,2.838673095703125,0.007253039868175983,-0.08450432959198952,-0.031219898650050162
1769668196712661200,2.8486611328125,0.1855705024063587,-0.05158171867728233,-0.010815116263926028
1769668196722650400,2.858650390625,0.17567542359679936,0.01803893003761768,0.030302491544187068
1769668196732639200,2.86863916015625,0.2274462351053953,0.03577741582393646,0.015606149932742118
1769668196742628400,2.87862841796875,0.2204483390420675,0.10755319674611091,-0.04961714060604572
1769668196752616400,2.888616455078125,0.11908844397813081,0.15874153219163417,-0.0759340696454048
1769668196762605300,2.898605224609375,0.039005730220675466,0.1346849492996931,-0.14225626133680344
1769668196772594200,2.90859423828125,-0.07372194655388593,0.17219371896088123,-0.18109627960175276
1769668196782583300,2.918583251953125,-0.23097119436115024,0.2406312953710556,-0.1747542170986533
1769668196792571400,2.9285712890625,-0.36934769165515896,0.23780571655631064,-0.12884236075133085
1769668196802560300,2.938560302734375,-0.3684349607244134,0.23152210624217986,-0.13464315598458051
1769668196812549400,2.94854931640625,-0.26848639376312494,0.24310148487687108,-0.1911480102777481
1769668196822537500,2.958537353515625,-0.013018763788044452,0.10207914924919605,-0.1486982770830393
1769668196832526000,2.968526123046875,0.17689327495396137,0.06881167041957378,-0.09575959083884954
1769668196842515200,2.97851513671875,0.14171499406695365,0.09986731841862201,-0.09276917685121297
1769668196852504300,2.98850439453125,0.08896773874163627,0.045672202372550964,-0.07229454409927129
1769668196862492400,2.998492431640625,-0.04388502669483423,0.018539865297079086,-0.041429450236260885
1769668196872481300,3.008481201171875,-0.2123275764286518,-0.021267828956246376,-0.031571780827641484
1769668196882470400,3.018470458984375,-0.06285217749327421,-0.07005202586948871,-0.07232786184698344
1769668196892459500,3.02845947265625,0.09279226546585559,-0.02920271360874176,-0.0648746232315898
1769668196902447000,3.038447021484375,0.16334434981197118,0.033837387672066684,-0.08775719390809536
1769668196912436200,3.048436279296875,0.13737959521114826,0.09682079032957554,-0.13219634735435246
1769668196922425300,3.05842529296875,0.02762070511430502,0.13677461505532265,-0.12803542828261852
1769668196932414200,3.068414306640625,-0.026902035450935363,0.14019523715376853,-0.1282324121594429
1769668196942402300,3.07840234375,-0.016700374910235405,0.09839783038794994,-0.14019348358809947
1769668196952391400,3.088391357421875,0.06322744054645299,0.04241407735943794,-0.16085224073529242
1769668196962380300,3.09838037109375,0.10492430954724549,0.010250760379433631,-0.1581619787380099
1769668196972369200,3.108369140625,0.04253215078115463,0.02218260571360588,-0.13709727113842962
1769668196982357200,3.118357177734375,-0.027707798875868318,0.0319067118704319,-0.026801205424964426
1769668196992346400,3.128346435546875,0.0008916881427168846,-0.06409983946681022,0.03894055602997541
1769668197002335200,3.138335205078125,0.12933511270433665,-0.16253917090892792,0.0704907095476985
1769668197012324400,3.148324462890625,0.2512429980173707,-0.22888123634457586,0.08813479504883288
1769668197022312400,3.1583125,0.29282676203250885,-0.15068506698608397,0.0835942290097475
1769668197032301300,3.16830126953125,0.15612667351812123,-0.03807517137229442,-0.02232902844697237
1769668197042290200,3.178290283203125,-0.09958148721456526,-0.009539397239685058,-0.07601414914429187
1769668197052279300,3.188279296875,-0.1792436374723911,-0.01490238557755947,-0.07237550038099289
1769668197062267400,3.198267333984375,-0.055038873393833634,-0.05446107350587844,-0.03171908034384251
1769668197072256300,3.20825634765625,0.16359657100737093,-0.06067220310568809,-0.007875263419747352
1769668197082245400,3.218245361328125,0.2410579963505268,-0.08137479939460754,0.02848755107671022
1769668197092234500,3.228234375,0.1359063077881932,-0.09184884713590144,-0.004926350486278533
1769668197102222000,3.23822216796875,0.02112988179028034,-0.04312485597729682,-0.05123918884992599
1769668197112211200,3.248211181640625,-0.014799509724974631,-0.013438742765784262,-0.07155833877921104
1769668197122200300,3.258200439453125,-0.04195084376186132,-0.013943769678473472,-0.07502338454127311
1769668197132188400,3.2681884765625,-0.05016483761668205,0.005015782335400581,-0.09267302300035953
1769668197142177300,3.27817724609375,-0.08151742273569107,0.041889761224389074,-0.1036018287718296
1769668197152166400,3.28816650390625,-0.02861848398000002,0.03199965085089206,-0.07404898655116558
1769668197162155300,3.2981552734375,0.0026139818906784056,-0.028273908326029776,-0.025274141988158225
1769668197172143000,3.30814306640625,-0.05404927783459425,-0.06485679531395434,0.00554740499407053
1769668197182132200,3.31813232421875,-0.09266396291106939,-0.06476151824593544,-0.051285073818266386
1769668197192121300,3.328121337890625,-0.1572577233746648,-0.03173077078163623,-0.07617547718584537
1769668197202110200,3.338110107421875,-0.14629063141942023,0.0039139585733413695,-0.07070698264688254
1769668197212098300,3.348098388671875,-0.023892624501883983,0.0236065010368824,-0.025185002399981022
1769668197222087400,3.35808740234375,0.08017126882374286,0.02011515178978443,-0.019028525596857068
1769668197232076300,3.368076171875,0.05562894824147224,0.0033376199901103973,0.014701894569396972
1769668197242065400,3.3780654296875,-0.02751432213038206,-0.021147417446970938,0.00026975685209035873
1769668197252053200,3.38805322265625,-0.05839812069386244,-0.032867081335186954,-0.010579553942382336
1769668197262042400,3.39804248046875,-0.04406798204630613,-0.06088496907353401,-0.03809709094315767
1769668197272031200,3.40803125,-0.013967735075950621,-0.08934007918536663,0.0035652912661433217
1769668197282020400,3.418020263671875,0.010131225652992725,-0.10611351933181286,0.07777268324941396
1769668197292008400,3.428008544921875,0.039948564028739926,-0.10678747307062149,0.031601883704960344
1769668197301997300,3.437997314453125,0.038298750995099544,-0.07471241889595985,-0.00015197569131851195
1769668197311986200,3.447986083984375,-0.011155308003723621,-0.05508300479650497,-0.0029088731840252874
1769668197321975300,3.457975341796875,0.012256547243893147,-0.04109188884496689,-0.0052402387410402295
1769668197331963400,3.46796337890625,0.015681260995566843,-0.015041501787304878,-0.015413842231035231
1769668197341952300,3.4779521484375,0.0343640418946743,-0.020724808120727536,-0.044828445024788374
1769668197351941400,3.48794140625,0.039788697291910646,-0.0110363577991724,-0.0005810147583484649
1769668197361930500,3.497930419921875,0.001771101325750351,0.005056114345788955,0.010993979962170124
1769668197371918000,3.50791796875,-0.06654109513908624,-0.0035720132678747174,-0.042164194251596926
1769668197381907200,3.5179072265625,-0.07096767940968275,-0.009373393023014069,-0.038300504560768604
1769668197391896300,3.527896240234375,-0.06079466044157743,0.008898761248588561,-0.02016395936757326
1769668197401885200,3.53788525390625,-0.04160743715167045,-0.022106033346056937,-0.0364008084192872
1769668197411873300,3.547873291015625,-0.06242196938246488,-0.007604045262932777,-0.04668634785115718
1769668197421862400,3.5578623046875,-0.03542202651500702,-0.03429331474602222,-0.03962473890185356
1769668197431851300,3.567851318359375,-0.10241086542159318,-0.021878069809079168,-0.025277064597606657
1769668197441840400,3.57784033203125,-0.10175473960041999,-0.01888297964632511,-0.06148468853235244
1769668197451828200,3.587828125,-0.08304039451926946,-0.00820610280930996,-0.03286445098668336
1769668197461817300,3.5978173828125,-0.042055180919170376,-0.025447160467505454,-0.03254150264263153
1769668197471806200,3.60780615234375,-0.010777414602041244,-0.03336743207275867,-0.019006021504104135
1769668197481794300,3.617794189453125,-0.03417699488997459,-0.04541033656597137,-0.016160276684165
1769668197491783400,3.627783447265625,-0.015642390289902688,-0.035223289072513576,-0.03136719816625118
1769668197501772300,3.637772216796875,0.04882540570646524,-0.021499884146451948,-0.040838790866732595
1769668197511761400,3.647761474609375,0.09206307440847158,-0.014162380865216255,-0.04412234258204698
1769668197521749200,3.657749267578125,0.06215425835698843,-0.03248948019444942,-0.014071487711369991
1769668197531738400,3.66773828125,-0.0197875272706151,-0.007954173874855041,-0.025423487330973146
1769668197541727200,3.677727294921875,-0.08050999925881623,-0.0022743746727705,-0.05915244619250297
1769668197551716400,3.68771630859375,-0.06483867513537407,0.009613046997785568,-0.05494622667431831
1769668197561704400,3.697704345703125,-0.029138416200876233,-0.022684125494956967,-0.04816431144922972
1769668197571693300,3.707693359375,0.05027034381777048,-0.037141105392575265,-0.023356910189986226
1769668197581682200,3.71768212890625,0.01777940231859684,-0.03150631437599659,-0.006631108577549457
1769668197591671300,3.72767138671875,-0.01807692396044731,-0.02127367417514324,-0.030794951236248015
1769668197601659400,3.737659423828125,-0.024579145461320874,-0.027204233267903326,-0.06571341214329005
1769668197611648000,3.74764794921875,-0.04575900387316942,-0.009196867412328719,-0.07068301724940539
1769668197621637000,3.75763720703125,-0.06259001942574978,-0.01151040505170822,-0.04576046517789364
1769668197631626200,3.767626220703125,-0.0422024804353714,-0.03740355572104454,-0.03572393207103014
1769668197641614000,3.777614013671875,0.009865560454130172,-0.0570814851373434,-0.005818915411829948
1769668197651603000,3.78760302734375,-0.014167933823168277,-0.10182546674907207,0.02312982343584299
1769668197661592000,3.797592041015625,-0.05643763427585363,-0.07158055061101913,-0.026129005251824853
1769668197671581000,3.807580810546875,-0.04465601106733084,-0.021391163074970243,-0.0352943084821105
1769668197681569000,3.817569091796875,-0.02671615749001503,0.0019049568384885787,-0.032226737605035305
1769668197691558100,3.82755810546875,-0.05965192014724016,0.04316226537823677,-0.06294482421278953
1769668197701547300,3.83754736328125,0.0054535892307758325,0.03475391799509525,-0.05526040719002485
1769668197711536000,3.8475361328125,0.11689999402314424,-0.0012497078001499175,-0.015531331130862235
1769668197721524000,3.85752392578125,0.0983016765370965,-0.04150456129908561,0.01996317609846592
1769668197731513000,3.86751318359375,0.015603519584238529,-0.06863865194022654,0.0064484454870223995
1769668197741502000,3.877501953125,-0.03789806123971939,-0.060710781550407406,-0.014480068512260913
1769668197751491000,3.887490966796875,-0.09759878896474837,-0.030794951236248015,-0.036087504686415195
1769668197761479200,3.897479248046875,-0.1277539809927344,-0.032471944537758826,-0.022231997813284395
1769668197771468300,3.90746826171875,-0.08744330565333366,-0.038031916752457616,-0.04522942704111337
1769668197781457000,3.917456787109375,-0.04104717292040586,-0.004407295048236846,-0.05317863247990608
1769668197791446000,3.927446044921875,0.026115561248362062,-0.002896305963397026,-0.026031682357192037
1769668197801434000,3.93743408203125,0.030815117241442203,-0.010545943933725356,-0.037671559007465834
1769668197811423000,3.947423095703125,-0.009255027340352535,-0.007473112359642982,-0.05497428372502327
1769668197821412000,3.957412109375,-0.05362608398646116,-0.01094224977493286,-0.04946574943661689
1769668197831401200,3.967401123046875,-0.05798924763202667,-0.00819382784962654,-0.0457926138818264
1769668197841389000,3.97738916015625,-0.022889000417292117,-0.017512860336899756,-0.03461158691495657
1769668197851378000,3.9873779296875,0.003026362083852291,-0.03250993846058845,-0.03459405125826597
1769668197861367000,3.997366943359375,0.0115440150603652,-0.025820669955015182,-0.03257715847790241
1769668197871355100,4.007355224609375,-0.009764730428159236,-0.018387305083870886,-0.03960252707004547
1769668197881344000,4.017343994140625,-0.037767128336429596,-0.025255437287688254,-0.03673778528869152
1769668197891333000,4.0273330078125,-0.01590396383553743,-0.013626958814263342,-0.022958266261219978
1769668197901322200,4.037322265625,0.0016729016482830046,-0.02154255424439907,-0.02188537633270025
1769668197911310000,4.04731005859375,-0.046586686868965624,-0.02857610614299774,-0.015653788466751573
1769668197921299000,4.057298828125,-0.07855974197387695,-0.05149404039382934,-0.0288458629950881
1769668197931288000,4.0672880859375,-0.029560441005229948,-0.027100772893428802,-0.029909692834317683
1769668197941277000,4.07727685546875,0.03750876966118812,-0.024628245300054547,-0.0006669394761323928
1769668197951265000,4.08726513671875,0.05896861405819654,-0.04584697441756725,-0.0026090134546160695
1769668197961254100,4.097254150390625,0.08089169205278157,-0.051662382698059076,-0.017708090648055074
1769668197971243300,4.1072431640625,0.0633361616179347,-0.04525485374331474,-0.019891572166979312
1769668197981232000,4.117232177734375,-0.010409165811538695,-0.03664426178634166,-0.03647942661345005
1769668197991220000,4.127219970703125,-0.08067688025832176,-0.024092823249101638,-0.04684650684893131
1769668198001209000,4.137208984375,-0.06236059458404779,-0.04527706557512283,-0.03304214564114809
1769668198011198000,4.147197998046875,-0.04209171353727579,-0.05461772537231445,-0.03129851684421301
1769668198021187000,4.15718701171875,0.006334755979478359,-0.02277589543163776,-0.04281330581009388
1769668198031175200,4.167175048828125,0.04893208095133304,0.009708908587694168,-0.02222264546304941
1769668198041164000,4.1771640625,-0.010002630837261677,-0.003319499811530113,-0.019146891279518602
1769668198051153000,4.18715283203125,-0.051210255016386506,0.0069517188340425485,-0.042134675896167754
1769668198061142000,4.19714208984375,-0.05612696089148521,-0.004253565791249275,-0.053145606993138785
1769668198071130000,4.207130126953125,-0.06231237152814865,-0.009151859226822852,-0.03923807767182588
1769668198081119000,4.217118896484375,-0.046722880469262595,0.004513093510270119,-0.03707534667998552
1769668198091108000,4.227108154296875,0.012518120789527892,-0.004848609074950218,-0.013638356991112231
1769668198101097200,4.23709716796875,0.000007306523621082306,0.00253448691368103,-0.02722059988081455
1769668198111085000,4.2470849609375,0.023495734138786792,0.009889525851607323,-0.05195435138195753
1769668198121074000,4.257073974609375,0.015965338633954523,-0.010700842234492301,-0.030466449934244154
1769668198131063000,4.26706298828125,-0.019786358226835728,-0.026875731965899465,-0.03216156341433525
1769668198141052000,4.277052001953125,-0.01961187844276428,-0.010140870264172553,-0.058197337424755094
1769668198151040000,4.2870400390625,-0.047860944588482376,-0.018610007923841477,-0.04802870237082243
1769668198161029000,4.297029052734375,-0.011408990503847598,-0.025166005438566206,-0.01773760900348425
1769668198171018200,4.307018310546875,0.04524988530725241,-0.0033668460845947264,-0.029966391457617283
1769668198181007000,4.317007080078125,0.08943214138299226,-0.01750876868367195,-0.0303054141536355
1769668198190995000,4.326994873046875,0.07758242137432098,-0.03240589356422424,0.0031608021184802056
1769668198200984000,4.336984130859375,-0.00980330887287855,-0.023893501284718514,-0.014832535211741923
1769668198210973000,4.346972900390625,-0.07064882271885871,-0.02734393399953842,-0.028700024783611295
1769668198220962000,4.356962158203125,-0.06855535757094622,-0.049505496925115584,-0.014442951372265814
1769668198230950100,4.3669501953125,0.006764379568397998,-0.05052081144750118,-0.06673223379701376
1769668198240939300,4.376939208984375,0.0343465062379837,-0.023608839124441144,0.006497545325756073
1769668198250928000,4.38692822265625,0.07231471010446548,-0.0472042342454195,0.03736760762482881
1769668198260917000,4.3969169921875,0.051341187919676304,-0.04304477647840976,-0.00492518144249916
1769668198270905000,4.406905029296875,-0.029174948818981646,-0.04312076432406902,-0.0002902151182293892
1769668198280894000,4.41689404296875,-0.07223258477896452,-0.04019640130996704,-0.014443535894155502
1769668198290883000,4.426883056640625,-0.030839374899864196,-0.012470189994573593,-0.047779111523926256
1769668198300872200,4.4368720703125,0.032278467792272565,0.0008919804036617279,-0.05831424180269241
1769668198310860000,4.446860107421875,0.03588409106880426,0.027118893072009084,-0.054772331412136555
1769668198320849000,4.456848876953125,0.025868308489024636,0.000018120178580284118,-0.03464256657510996
1769668198330838000,4.466838134765625,0.04393938723057508,-0.038747371545434,-0.023065818288922308
1769668198340826000,4.476826171875,0.030897242566943168,-0.04894786304235458,-0.007976677967607974
1769668198350815000,4.48681494140625,0.034814416010677814,-0.0403898780554533,-0.032331074762344356
1769668198360804000,4.49680419921875,0.0012438625812530516,0.006498129847645759,-0.03162088066637516
1769668198370793200,4.506793212890625,-0.09037059127688407,0.02174655238389969,-0.0417731491073966
1769668198380781000,4.516781005859375,-0.13008417750596998,0.05691372735500335,-0.062278469258546826
1769668198390770000,4.52677001953125,-0.1285612057223916,0.04376256935894489,-0.09261369402855635
1769668198400759000,4.536759033203125,-0.050531040580570695,-0.003232406049966812,-0.045939621137082574
1769668198410748000,4.546747802734375,0.021783669523894787,-0.07002455334067344,0.015783552326261996
1769668198420736000,4.556736083984375,0.058280631794035434,-0.07445522926449775,0.03457622334063053
1769668198430725000,4.56672509765625,0.026712942619621753,-0.058930912396311756,0.019529753117263318
1769668198440714200,4.57671435546875,-0.018496318416297435,-0.05011690682172775,0.016087211447954178
1769668198450703000,4.586703125,-0.03152706490308046,-0.04171908083260059,-0.001875146222114563
1769668198460691000,4.59669091796875,-0.018199965818226336,-0.02163140157163143,-0.03519055584669113
1769668198470680000,4.60668017578125,0.035732699899375435,-0.0031371289819478987,-0.034768238781392576
1769668198480669000,4.6166689453125,0.06577537146359681,-0.00670329703092575,-0.03435790441483259
1769668198490658000,4.626657958984375,0.07470861950367688,-0.033467385315895076,-0.01598170524686575
1769668198500646100,4.636646240234375,0.06481091034561395,-0.03821194949448108,0.0019908815562725067
1769668198510635300,4.64663525390625,-0.0037143443480134007,-0.021481763967871666,-0.05504793348312378
1769668198520624000,4.6566240234375,0.016436463277041912,-0.012952420553565025,-0.058307519800961015
1769668198530613000,4.666613037109375,0.06297931100428104,-0.03331657866835594,-0.03247399036437273
1769668198540601000,4.67660107421875,0.07611293334364891,-0.03847849147617817,0.008153203578293322
1769668198550590000,4.68658984375,0.003895253872871399,-0.03415945923328399,0.011103870077431202
1769668198560579000,4.6965791015625,-0.049376902109384536,-0.03435352050065994,-0.01999707836806774
1769668198570568200,4.706568115234375,-0.01608838049173355,-0.03181728002130985,-0.027068331928551195
1769668198580556000,4.71655615234375,0.06235007319003343,-0.02940788079202175,-0.02742109088897705
1769668198590545200,4.726545166015625,0.12176204710155725,-0.01583995868861675,-0.030788521495461463
1769668198600534000,4.736533935546875,0.054880760222673415,-0.005412672698497772,-0.034085809475183484
1769668198610523400,4.7465234375,-0.002755143927037716,0.011342062747478484,-0.024212065714597702
1769668198620511200,4.75651123046875,-0.035900165420770645,-0.005980243453383445,-0.04312894763052463
1769668198630500400,4.766500244140625,-0.05643588071018457,-0.04196341098248958,-0.0317149886906147
1769668198640489200,4.7764892578125,0.0048012628018856045,-0.036086627903580665,0.0006859364375472069
1769668198650478300,4.786478271484375,0.04115384816527366,-0.03166004363298416,0.0018605331748723982
1769668198660466400,4.796466552734375,0.0163324183806777,-0.008835048362612724,-0.0011254968985915184
1769668198670455600,4.80645556640625,0.003930325186252593,-0.012747253370285034,-0.022177052755653858
1769668198680444200,4.816444091796875,-0.011849135486781596,-0.0002852466821670532,-0.05542758045047521
1769668198690433300,4.826433349609375,-0.02088409033566713,-0.010695581537485122,-0.0628089228734374
1769668198700421400,4.83642138671875,0.039032033705711365,-0.010977321088314056,0.015872107392549514
1769668198710410200,4.84641015625,0.0520122190490365,-0.0469295089572668,0.03150660663694143
1769668198720399400,4.8563994140625,-0.026547522924840448,-0.05372282235920429,-0.013326222302019596
1769668198730388500,4.866388427734375,-0.08822510368078947,-0.02414367665350437,-0.03758592655062675
1769668198740376300,4.876376220703125,-0.06162000534981489,-0.022580080598592758,-0.05920359185785055
1769668198750365200,4.886365234375,-0.046593701131641865,-0.022913842597603797,-0.04367898272871971
1769668198760354300,4.896354248046875,-0.017474574153125286,0.000004091653227806091,-0.01715104128718376
1769668198770343400,4.906343505859375,0.036544308543205256,-0.02778407898247242,-0.006753565913438796
1769668198780331300,4.916331298828125,0.049996495312452316,-0.06206570329070091,-0.024213234758377073
1769668198790320400,4.9263203125,0.05189443788826465,-0.041724926051497455,-0.021410744558274745
1769668198800309500,4.9363095703125,0.03261544466167688,-0.03588146072030067,-0.014645488207042217
1769668198810298400,4.94629833984375,-0.04979278943389654,-0.044622985580563546,-0.03196954797357321
1769668198820286200,4.9562861328125,-0.07642506803274154,-0.04409399327039718,-0.011371288841962814
1769668198830275300,4.966275390625,-0.0680637746617198,-0.05105447993278503,-0.003207271608710289
1769668198840264400,4.976264404296875,0.018422084136307238,-0.046696284723281856,-0.02543371646404266
1769668198850253300,4.98625341796875,0.03860883985757828,-0.07403145089447498,0.013021686397492885
1769668198860241400,4.996241455078125,0.019178163200616834,-0.054952071893215174,0.01940846482515335
1769668198870230500,5.00623046875,-0.015364742392301558,-0.017515198424458502,-0.014612462720274924
1769668198880219400,5.016219482421875,-0.10236059653908014,-0.0212058696359396,-0.028790333415567873
1769668198890208300,5.026208251953125,-0.15044921240359543,-0.02359948677420616,-0.06647095251232385
1769668198900196400,5.0361962890625,-0.1663856172040105,0.024534721797704696,-0.07790536971837282
1769668198910185200,5.046185302734375,-0.024051029933989047,0.05079086056053638,-0.03526946630179882
1769668198920174300,5.05617431640625,-0.025682722789049147,0.01779576893150806,-0.030144086112082004
1769668198930163500,5.06616357421875,-0.05819032316207885,-0.03635258536338806,-0.03388035003095865
1769668198940151600,5.076151611328125,-0.01668137794882059,-0.049288054782152174,-0.01634936951547861
1769668198950140200,5.08614013671875,0.04859656538665295,-0.04409165518283844,0.022691724279522894
1769668198960129300,5.09612939453125,0.017854805642366408,-0.05055062206387519,0.02123275764286518
1769668198970118400,5.106118408203125,0.03857610663175583,-0.06493862837851047,-0.005196399599313736
1769668198980106200,5.116106201171875,0.06176730486601591,-0.03254442525207996,-0.0015410919621586798
1769668198990095400,5.126095458984375,0.04575783482939005,-0.04236439299881458,0.01910305213779211
1769668199000084500,5.13608447265625,0.0024795418560504914,-0.045128597015142435,0.0211120538726449
1769668199010073300,5.1460732421875,0.06752893713265656,-0.04349193572402,0.006522387506067752
1769668199020061200,5.156061279296875,0.14571575414091348,-0.038059389281272886,0.000495090040564537
1769668199030050300,5.16605029296875,0.08734656728059052,-0.06550619913339614,-0.053420624542236325
1769668199040039400,5.176039306640625,-0.0736906746327877,0.028159342035651205,-0.11200754580646753
1769668199050028300,5.1860283203125,-0.1744537728473544,0.042351533517241476,-0.13093436459451913
1769668199060016400,5.196016357421875,-0.21320552830696105,0.04317863199114799,-0.1238598961636424
1769668199070005500,5.206005615234375,-0.16642945634573697,0.018079846569895742,-0.06530512360334396
1769668199079994400,5.215994384765625,-0.10441548324227333,-0.022860651105642317,-0.028386721050739288
1769668199089983500,5.2259833984375,-0.18838672887086866,-0.03107785983085632,-0.036515666970610615
1769668199099971300,5.235971435546875,-0.21458967614173888,0.0070651160806417465,-0.03920388314127922
1769668199109960200,5.245960205078125,0.035999826402962204,-0.10618307743668555,0.014477730424702167
1769668199119949300,5.25594921875,0.2842018492892384,-0.17282091094851493,0.11099047771841287
1769668199129938400,5.2659384765625,0.42119478327035903,-0.19351941558420657,0.14466595282703637
1769668199139926500,5.275926513671875,0.3199973852917552,-0.15920447352826594,0.02472059975862503
1769668199149915400,5.285915283203125,-0.02570084296762943,0.101833065533638,0.05999941841065883
1769668199159904300,5.295904296875,-0.42411183976083994,0.1425882697701454,-0.1502118965163827
1769668199169893400,5.305893310546875,-0.812322052796185,0.13630173684656618,-0.23153818059414624
1769668199179881200,5.315881103515625,-0.7527183557048439,0.06702770961225032,-0.1855745940595865
1769668199189870300,5.325870361328125,-0.06566285099983216,-0.03351414706707,-0.05024170224517584
1769668199199859500,5.335859375,0.2719064313396811,-0.0902431655049324,0.0757449768140912
1769668199209848300,5.345848388671875,0.3387900563061237,-0.16873451841771603,0.15261077435165643
1769668199219836200,5.355836181640625,0.5243137969613075,-0.2448562195897102,0.15166998637020587
1769668199229825300,5.3658251953125,0.4250876990556717,-0.16541034243106842,0.13947159905433654
1769668199239814400,5.375814453125,0.12678601274341345,-0.07726911764144898,0.040407998234033585
1769668199249803300,5.38580322265625,-0.13287000883221625,-0.007238134559988975,-0.07205547464638948
1769668199259791400,5.395791259765625,-0.24759908855706453,0.020254852521419522,-0.11372019494324923
1769668199269780500,5.405780517578125,-0.13688801230192182,-0.007115969485044479,-0.1041553710013628
1769668199279769300,5.415769287109375,0.01253390288054943,-0.03545592878460884,-0.06882686798870563
1769668199289758500,5.425758544921875,0.03613514322042465,0.02696048763990402,-0.07157324408739804
1769668199299746300,5.435746337890625,0.015801964765787123,0.07044248649179935,-0.1134244268670678
1769668199309735400,5.4457353515625,0.038648879607021805,0.0383767846673727,-0.11780892556160688
1769668199319724300,5.455724365234375,0.06898498115986586,0.0330219796359539,-0.07294862409383059
1769668199329713400,5.46571337890625,0.12636866411417721,0.013581950628757476,-0.027832009777426718
1769668199339701500,5.475701416015625,0.20770167019367217,-0.04147533520460128,0.006625847880542278
1769668199349690400,5.4856904296875,0.17059242124408483,0.004828150808811187,0.045670156545937056
1769668199359679500,5.495679443359375,0.14871873534917832,0.0075385788112878795,0.023717852456867694
1769668199369668400,5.50566845703125,0.21790011586397884,-0.03153378690481186,0.03436667224317789
1769668199379656200,5.51565625,0.19488632002323864,-0.04670797516107559,0.015983166551589965
1769668199389645300,5.525645263671875,-0.046966333836317056,-0.033655601364374156,-0.01767915681451559
1769668199399634400,5.535634521484375,-0.19321634098440407,-0.04424012374281883,-0.06680909842550754
1769668199409623300,5.545623291015625,-0.297742591124773,0.006670563805103302,-0.12764262957274913
1769668199419611400,5.555611328125,-0.376494348539412,-0.006787468183040619,-0.12840367707312106
1769668199429600300,5.565600341796875,-0.09218494722247123,-0.016374796217679975,-0.0489034393787384
1769668199439589400,5.57558935546875,0.027613983112573622,-0.012835516175627708,0.014330430908501147
1769668199449578200,5.585578125,-0.009888649068772792,-0.06625380263030528,0.043425592489540574
1769668199459566300,5.59556640625,0.021400223164260386,-0.058522331595420835,0.10446545986384152
1769668199469555500,5.605555419921875,0.04804331541806459,-0.12649696666896343,0.11277210043817758
1769668199479544300,5.61554443359375,0.0656125821173191,-0.07798164982497692,0.07094079140275716
1769668199489533400,5.625533447265625,-0.1059916465178132,-0.0018196166425943374,-0.005076280350983143
1769668199499521300,5.635521240234375,-0.15448767413944006,-0.055492754641175264,-0.08167319781929254
1769668199509510400,5.645510498046875,-0.1701581214800477,0.022633856612443923,-0.08942688068598509
1769668199519499300,5.655499267578125,-0.2524044430121779,0.04014847051501274,-0.124914373652637
1769668199529488400,5.66548828125,-0.20525223121494054,-0.01822071634531021,-0.1288373923152685
1769668199539476500,5.6754765625,0.0007753682866692542,-0.06476210276782512,-0.03853431331664323
1769668199549465300,5.68546533203125,0.1330208154797554,-0.08435352294445038,0.011003332312405108
1769668199559454500,5.695454345703125,0.18236819923371075,-0.03413607835769653,0.0007464344531297683
1769668199569443600,5.705443603515625,0.18653467126339673,0.02222059963643551,-0.01667085655480623
1769668199579431200,5.71543115234375,0.20619009658694265,-0.0025841712743043897,-0.00436316364556551
1769668199589420300,5.725420166015625,0.19250848497599363,0.006979775884747505,-0.03269026346355677
1769668199599409400,5.735409423828125,0.05013561152219772,0.05776303766071796,-0.026467443425953387
1769668199609398300,5.745398193359375,-0.06985182712227106,0.027807459858059883,-0.08390928630828857
1769668199619385900,5.7553857421875,0.040942835763096805,-0.0003372691303491592,-0.06605623423159122
1769668199629374700,5.765374755859375,0.029301497808098792,-0.025490999609231946,0.003178337775170803
1769668199639363800,5.77536376953125,0.2830336822926998,-0.18746552237272263,0.10973872409164905
1769668199649352700,5.785352783203125,0.185314481818676,0.005344868159294128,-0.012885785058140755
1769668199659340800,5.7953408203125,-0.01199585048109293,-0.03240355547666549,0.014779343719780444
1769668199669330000,5.805329833984375,-0.09970160646289586,0.05184592257142066,-0.041808512681722636
1769668199679318800,5.81531884765625,-0.11029343536496161,0.02207330012023449,-0.13835370094031094
1769668199689308000,5.825307861328125,-0.0719955611526966,-0.042397710746526714,-0.06347644687145948
1769668199699297000,5.835297119140625,-0.0026081366717815397,-0.035521395236253736,0.04390402365624904
1769668199709284900,5.845284912109375,-0.08533698102384805,-0.09906710795164107,-0.002288110937178135
1769668199719273700,5.855273681640625,-0.2820999085739255,-0.03129764006137848,0.024661563047766684
1769668199729262800,5.865262939453125,-0.4066884112730622,-0.016800912675261497,0.02910889784544706
1769668199739252000,5.875251953125,-0.2970706832125783,-0.09737608612477779,-0.0020315058276057243
1769668199749239800,5.88523974609375,-0.14110153834372757,-0.07045242336392402,-0.01849485711157322
1769668199759229000,5.89522900390625,-0.06507482197880744,-0.026467151165008543,-0.06941665057539939
1769668199769218000,5.905218017578125,-0.003121346890926361,0.03680968148112297,-0.07369242819845676
1769668199779206700,5.91520654296875,0.11934446456581353,0.03798866213262081,-0.09950286902040242
1769668199789194800,5.92519482421875,0.20271014551669359,-0.0026741876453161236,-0.0544499675899744
1769668199799184000,5.935183837890625,0.13905629625171423,-0.02648527134358883,0.048001522102952
1769668199809173000,5.945173095703125,0.09628244566917418,-0.08057166631817818,0.11601005944609641
1769668199819161900,5.955161865234375,0.08372340834736823,-0.09098141665160656,0.08585194480866193
1769668199829150000,5.96514990234375,0.090118954603374,-0.025671032351255417,0.06683277156203984
1769668199839138800,5.975138916015625,0.15304039794057606,0.09904197351038456,0.008988777619600296
1769668199849127700,5.985127685546875,0.14111293652057647,-0.07820785979628563,0.07297960375398398
1769668199859116800,5.99511669921875,0.26552374456524847,-0.11594283942878246,0.11345657557100057
1769668199869105000,6.00510498046875,0.28078824145346876,-0.1428238320916891,0.10874620592296123
1769668199879093800,6.01509375,0.06316781931370496,-0.12284136677086352,-0.03442833930253982
1769668199889083000,6.025082763671875,-0.21911036843657491,-0.06734042882323264,-0.08320552195310592
1769668199899072000,6.035072021484375,-0.4135609273910522,-0.08004501209557056,-0.13009995959699153
1769668199909059800,6.045059814453125,-0.41660511739253997,-0.054497313863039014,-0.10792203005850315
1769668199919048700,6.055048583984375,-0.2693219678044319,-0.016018822386860847,-0.0599397971779108
1769668199929037800,6.065037841796875,-0.14689824192374945,-0.03174830643832684,0.014694003523886202
1769668199939027000,6.07502685546875,0.015866262173652647,-0.03699263683259487,0.03202536981403827
1769668199949014800,6.085014892578125,0.20876813038140535,-0.030618425625562665,0.03441664886474609
1769668199959004000,6.09500390625,0.30698300541788337,-0.02474281159043312,0.02324702007472515
1769668199968993000,6.104992919921875,0.2174921195849776,0.012125322079658508,-0.020580431213974952
1769668199978982000,6.11498193359375,0.1439773860409856,0.007232873862981796,-0.06305763693749904
1769668199988969700,6.1249697265625,0.13555296430587768,0.0001344400346279144,-0.07588555432856083
1769668199998958800,6.134958740234375,0.0958659738227725,-0.008731003466248511,-0.08596417301148175
1769668200008948000,6.144947998046875,0.09606149639487266,-0.04579495196938514,-0.07332651749551296
1769668200018936800,6.154936767578125,0.10149053570628165,0.0013040683358907699,-0.06137187580764293
1769668200028925000,6.164925048828125,-0.13977788852453232,0.11023206056654453,-0.09028992725610732
1769668200038914000,6.1749140625,-0.2963108047559857,0.09271744666397572,-0.11796470064520835
1769668200048902700,6.184902587890625,-0.1412158123731613,0.03415127592682838,-0.08828998561054467
1769668200058891800,6.194891845703125,-0.047292497050762175,0.02070551889836788,-0.07655190928280353
1769668200068880000,6.2048798828125,-0.038675475353002545,0.04229775750339031,-0.08257979127019643
1769668200078869000,6.214868896484375,0.0029138416200876235,0.02882218985855579,-0.11288929707705973
1769668200088857900,6.22485791015625,0.042671266990900035,0.07725625815987587,-0.11691869872361421
1769668200098847000,6.234846923828125,-0.023757015423476694,0.06688742435872555,-0.0958092751994729
1769668200108834800,6.244834716796875,-0.053010582436621184,0.05470189652442932,-0.08295885371565818
1769668200118823700,6.25482373046875,-0.08771569285392761,0.020189386069774627,-0.05945932018458843
1769668200128812800,6.264812744140625,-0.05265402408391237,-0.056416883748769756,-0.04237140726149082
1769668200138802000,6.274802001953125,0.06076864921748638,-0.03954816653430462,-0.020923253302276134
1769668200148789800,6.284789794921875,0.042645548027753825,-0.036873394367098807,-0.027170038737356662
1769668200158779000,6.29477880859375,-0.026806466121971604,-0.05263970329761505,-0.017179098337888717
1769668200168768000,6.30476806640625,0.0027130583509802817,-0.03299859876036644,-0.064939505161345
1769668200178756900,6.3147568359375,-0.04314736007004976,-0.01027998647391796,-0.1204088789269328
1769668200188745700,6.324745849609375,-0.06589081453680992,-0.01931260323524475,-0.06645137102901935
1769668200198733800,6.33473388671875,-0.021608605217933653,-0.03773731772005558,0.015802549287676812
1769668200208723000,6.344722900390625,-0.07647153752297163,-0.025249592068791387,0.007555529946088791
1769668200218711800,6.3547119140625,-0.09628127662539482,-0.03855331027805805,-0.06768675804287194
1769668200228701000,6.364700927734375,-0.13238193305432797,-0.07455401346385479,-0.016610650800168512
1769668200238689000,6.37468896484375,-0.09586772738844156,-0.04218260669112205,0.0179445297524333
1769668200248678000,6.384677978515625,-0.021910510773956775,-0.08149462638199328,0.025876784056425094
1769668200258666800,6.394666748046875,-0.04014291755706072,-0.0773807613223791,0.06195990482866764
1769668200268655900,6.40465576171875,-0.06636164691895247,-0.0645756402850151,0.06478577590435743
1769668200278644000,6.41464404296875,0.05591536396741867,-0.10026771591305732,0.03396685927063226
1769668200288632800,6.4246328125,0.03200140441656112,-0.08909574903547764,0.0606371317923069
1769668200298622000,6.4346220703125,0.011773732163012028,-0.08131342459619045,0.05206453375816345
1769668200308610800,6.44461083984375,0.07591068876981735,-0.04589198260307312,-0.00791501090824604
1769668200318598700,6.4545986328125,-0.007181435936689376,0.04449906693994999,-0.08327478779703378
1769668200328587800,6.464587890625,-0.12260405088365077,0.004589665877819061,-0.08155044822245835
1769668200338577000,6.474576904296875,-0.1163178102210164,-0.019712416207790375,-0.05775894600749015
1769668200348565800,6.484565673828125,-0.1525330329403281,0.005070142871141433,-0.06671089874804019
1769668200358553900,6.494553955078125,-0.21013269673287868,-0.021647183662652968,-0.04486497764289379
1769668200368543000,6.50454296875,-0.1276890990629792,-0.030664602854847907,-0.018165186765789983
1769668200378531800,6.51453173828125,0.02057663182169199,-0.02398819383084774,0.022087036384642125
1769668200388521000,6.52452099609375,0.1353998195707798,-0.06757540662288665,0.05205518140792846
1769668200398508800,6.5345087890625,0.21045506055504082,-0.10469780731499194,0.08178571828305721
1769668200408498000,6.544497802734375,0.28028847523778677,-0.07438333307206631,0.07772825958579778
1769668200418486800,6.55448681640625,0.12306114700138568,-0.053715223574638364,0.07373509829640389
1769668200428476000,6.564475830078125,-0.01887041242569685,-0.1160585747629404,0.038385844756662846
1769668200438464000,6.574464111328125,-0.09601502690464257,-0.022867665368318555,-0.03512392035126686
1769668200448452900,6.584452880859375,-0.1855468292698264,0.020645897665619847,-0.0773246472209692
1769668200458441700,6.594441650390625,-0.2195584044650197,0.02208499055802822,-0.030682138511538504
1769668200468430800,6.604430908203125,-0.18177257142812012,-0.009217910200357437,-0.025330256089568137
1769668200478419000,6.6144189453125,-0.1513353475883603,-0.06218202314674854,-0.028509762908518314
1769668200488407800,6.62440771484375,-0.10179273352324962,-0.0376058002948761,-0.012922902198135851
1769668200498397000,6.63439697265625,-0.10927373692840336,-0.020792028138041495,-0.016916063487529755
1769668200508385800,6.6443857421875,-0.02074000568985939,-0.026692192092537877,-0.007792845833301544
1769668200518374000,6.654373779296875,0.04165887507796287,-0.06072247198820114,0.01806727934926748
1769668200528362800,6.66436279296875,0.026681086176633832,-0.014605448457598685,0.034552550204098226
1769668200538351900,6.674351806640625,0.06543576424568891,0.02415244448184967,0.015690321084856986
1769668200548340700,6.6843408203125,0.04708937569409609,-0.0035129765570163724,0.03244797914028168
1769668200558328800,6.694328857421875,0.09126286394149065,-0.0639525399506092,0.013886194272339343
1769668200568318000,6.70431787109375,0.05637246008515358,-0.04136953674256801,-0.028749416883289813
1769668200578306800,6.714306884765625,-0.05707154826521873,0.05499708007872104,-0.06906856779009103
1769668200588296000,6.7242958984375,0.034310265880823136,-0.002474281159043312,-0.061309039704501626
1769668200598285000,6.73428515625,0.1868929831817746,-0.06975099709630012,-0.029800387240946292
1769668200608273000,6.74427294921875,0.1654945135831833,-0.050451253342628476,0.01146422782242298
1769668200618262300,6.75426220703125,0.13839958590865134,-0.030720716956257818,0.005465279668569564
1769668200628251400,6.76425146484375,0.09882745397686958,-0.06821721165776252,-0.044855917553603644
1769668200638240300,6.774240234375,0.16638883207440375,-0.0792237588405609,0.04136778317689895
1769668200648228400,6.784228271484375,0.1728194496437907,-0.04436228881776333,0.08175707671046256
1769668200658217500,6.794217529296875,-0.021134265704452992,-0.03533259466588497,0.10435001679062843
1769668200668206300,6.804206298828125,-0.19750790069848298,-0.07273030516803264,0.07998626764565706
1769668200678195200,6.8141953125,-0.12531710923463105,-0.0505897850304842,0.007181435936689376
1769668200688183300,6.824183349609375,-0.04832710079550743,-0.018128946408629415,-0.08026391554325818
1769668200698172400,6.83417236328125,-0.04986117849498987,0.0033417116433382033,-0.1170867487668991
1769668200708161300,6.844161376953125,0.0022904490247368813,-0.004707739299535751,-0.11304127276837825
1769668200718150400,6.854150390625,0.017393910132348537,0.0403939697086811,-0.09391542427688837
1769668200728138500,6.864138427734375,0.02172112568169832,0.10331775113344192,-0.04891396077275276
1769668200738127400,6.87412744140625,0.0885980286464095,-0.04805763620436191,-0.1491103650152683
1769668200748116200,6.8841162109375,-0.03973813614845276,0.009352350234985351,-0.1778434152856469
1769668200758105300,6.894105224609375,-0.2736734410122037,0.12940087141692638,-0.06378770477771759
1769668200768093400,6.904093505859375,-0.1736570695117116,-0.04013794912099838,-0.05779986253976822
1769668200778082300,6.914082275390625,0.08925532351136208,-0.13837211337983607,0.03469254319667816
1769668200788071400,6.924071533203125,0.18643237993270156,-0.17879706274867058,0.08060206145644187
1769668200798060500,6.934060546875,0.14121961176544426,-0.14872107343673704,0.08462883275449276
1769668200808048000,6.944048095703125,0.11899024430066346,-0.03794131585955619,0.03466974684298038
1769668200818037200,6.954037353515625,0.09366174177676438,0.026040450185537335,-0.005958616143465042
1769668200828026400,6.9640263671875,0.059546706207096574,0.02850245638489723,-0.03972498440593481
1769668200838015200,6.97401513671875,0.06736088708937167,0.024427169770002363,-0.04340747231096029
1769668200848003300,6.98400341796875,0.039195407573878766,0.010794365736842155,-0.05338555322885513
1769668200857992400,6.993992431640625,-0.006193593943119049,-0.04337386230230331,-0.04873480481356382
1769668200867981300,7.003981201171875,0.01358662680387497,-0.09432721994817256,0.02130114670395851
1769668200877970400,7.013970458984375,-0.11217910298109054,-0.04872749828994274,0.023828034833073615
1769668200887959300,7.023959228515625,-0.24795038621276616,0.029405542704463,-0.06876783127784729
1769668200897947400,7.033947509765625,-0.2349707853913307,0.10945055480003356,-0.06833470055758953
1769668200907936300,7.043936279296875,-0.009590835165977477,-0.05983692132532596,-0.012620412120223044
1769668200917925400,7.05392529296875,0.09080430651903151,-0.05515022481381893,-0.14708967284262178
1769668200927914500,7.06391455078125,0.0685714319229126,0.020056115078926084,-0.08873217642009258
1769668200937902300,7.07390234375,-0.1453682558774948,0.12410393405258655,-0.204811209449172
1769668200947891200,7.08389111328125,-0.16983721896260975,-0.0888835675895214,-0.13318915778398513
1769668200957880300,7.09388037109375,0.0027095512196421622,-0.054444122371077534,0.017152210330963133
1769668200967869200,7.103869140625,-0.14841887561976908,-0.04533434872031212,0.06452420235872268
1769668200977857300,7.113857177734375,-0.21660656892210245,-0.04090191923081875,0.025182079790532587
1769668200987846400,7.123846435546875,-0.15429975035190582,-0.018552140256762502,0.0013680734828114508
1769668200997835500,7.13383544921875,-0.0361807359278202,-0.07523088981211185,0.005541267514228821
1769668201007824400,7.143824462890625,0.10498393077999353,-0.09462064993679523,0.014075287103652953
1769668201017812200,7.153812255859375,0.148890877045691,-0.01731003124117851,-0.003391396003961563
1769668201027801300,7.16380126953125,0.04871083941608667,0.030160160464048385,-0.01943155343979597
1769668201037790200,7.173790283203125,-0.11902239300459623,-0.019826982498168944,0.009264671951532364
1769668201047779300,7.183779296875,-0.11884411382824182,-0.0020306290447711945,-0.018676643419265747
1769668201057767400,7.193767333984375,-0.08536854520589113,0.007242810735106468,-0.03797960204333067
1769668201067756300,7.20375634765625,-0.11745149042606354,-0.010841712009906768,-0.05381371551305055
1769668201077745400,7.213745361328125,-0.06102174719572067,-0.003736848440766334,-0.04938946933001279
1769668201087734500,7.223734619140625,-0.07463993818163871,-0.009942717343568802,-0.02983867342472076
1769668201097722400,7.233722412109375,-0.0640679830238223,-0.006819032365083694,-0.011108546252548694
1769668201107711200,7.243711181640625,-0.010447451995313167,-0.06530979977846145,0.016852935123443602
1769668201117700400,7.253700439453125,0.00507511130720377,-0.06604512831568718,-0.009683481885492801
1769668201127689500,7.263689453125,0.010716624325513839,-0.06563245586156845,-0.08285013264417648
1769668201137677300,7.27367724609375,-0.029084640187025067,-0.05776011505126953,-0.048740065510571
1769668201147666400,7.28366650390625,0.000042377837002277374,-0.06088438455164432,-0.005790858361124992
1769668201157655300,7.2936552734375,0.03054594491124153,-0.07585223658084869,0.013643325427174568
1769668201167644200,7.30364404296875,-0.0027069208711385725,-0.07139233456254004,0.02572890001833439
1769668201177632300,7.31363232421875,-0.058303428147733205,-0.06684884591400624,0.012947452117502688
1769668201187621400,7.323621337890625,-0.049609541821479794,-0.06093932960927486,-0.0020078326910734174
1769668201197610500,7.333610595703125,-0.048425008212029934,-0.0402548534989357,-0.010439268688857554
1769668201207599400,7.343599365234375,-0.02136778219938278,-0.041458384069800375,0.009189560888707636
1769668201217588500,7.35358837890625,-0.02267272731810808,-0.04945873517394066,-0.0023579613029956815
1769668201227576300,7.363576416015625,-0.043812545980513096,-0.022089082211256026,-0.012488310173153877
1769668201237565200,7.373565185546875,-0.09000643413960933,0.008032499808073043,-0.008731587988138199
1769668201247554300,7.38355419921875,-0.06519231087863445,-0.009492050966620445,-0.0004088730618357658
1769668201257543400,7.39354345703125,-0.0005178863942623138,-0.0412047015696764,-0.007923486475646495
1769668201267531500,7.403531494140625,0.03659107029438018,-0.048155251359939574,-0.015304244376718998
1769668201277520400,7.413520263671875,0.013312778298556803,-0.042994507595896715,-0.020414134736359116
1769668201287509500,7.423509521484375,-0.01690349626690149,-0.035198739153146745,-0.015185878694057464
1769668201297498400,7.433498291015625,-0.0376166139498353,-0.0448556252926588,-0.024124679692089555
1769668201307486200,7.443486328125,-0.0352417015120387,-0.013024901267886161,-0.02763414911776781
1769668201317475300,7.453475341796875,-0.04825462008118629,0.008892331507802009,-0.0365884399458766
1769668201327464400,7.46346435546875,-0.04082300877571106,-0.008560907596349716,-0.02787731022387743
1769668201337453300,7.473453369140625,-0.02160305225998163,-0.045265959659218785,0.010678922663629055
1769668201347441400,7.48344140625,0.05387041413635015,-0.04058393932282924,-0.013091829024255274
1769668201357430500,7.493430419921875,0.062005205275118346,-0.029986557462811467,-0.015030688132345675
1769668201367419100,7.503419189453125,0.072740826562047,-0.021680501410365104,-0.026656536257266997
1769668201377408300,7.513408203125,0.06464315256327391,-0.024830489873886107,-0.03777618842571973
1769668201387396400,7.523396240234375,0.029223756396770474,-0.00954582698047161,-0.025590952852368353
1769668201397385500,7.533385498046875,-0.0009638765960931778,-0.02678746916055679,0.008876257155835628
1769668201407374300,7.543374267578125,0.01956277860403061,-0.0442588284432888,0.0033180385068058964
1769668201417363500,7.553363525390625,0.04996960730552673,-0.04853577511012554,-0.012988660910725593
1769668201427351300,7.563351318359375,-0.004800970540940762,-0.012760697373747824,-0.025841420482099055
1769668201437340200,7.573340087890625,-0.057608139359951016,0.00029050737917423245,-0.047180561108887194
1769668201447329300,7.583329345703125,-0.05821136595010757,-0.0015513210952281952,-0.04925035312026739
1769668201457318400,7.593318359375,-0.03427256421893835,-0.005429039311408996,-0.04166822742819786
1769668201467306500,7.603306396484375,-0.04432809428721666,-0.01593991193175316,-0.015807517723739145
1769668201477295400,7.61329541015625,-0.04573533073663711,-0.016582301488518712,-0.019672084197402
1769668201487284500,7.623284423828125,-0.036975685697793956,-0.0497837293446064,-0.038275662380456925
1769668201497273300,7.6332734375,-0.01633972490429878,-0.058195583859086034,-0.0037251580029726027
1769668201507262500,7.643262451171875,0.0030792613148689267,-0.06655950757861137,-0.002178220821917057
1769668201517250300,7.653250244140625,0.006168751762807369,-0.05619534995257854,-0.023701778104901313
1769668201527239400,7.663239501953125,-0.023921266074478625,-0.026835399955511093,-0.0577545620933175
1769668201537228300,7.673228271484375,-0.07797872721552848,-0.006296469795703887,-0.0572974659755826
1769668201547217400,7.683217529296875,-0.07887070761919021,0.01467500656247139,-0.022887246851623057
1769668201557205500,7.69320556640625,-0.06771423057168721,0.0034808278530836104,-0.00007920271605253219
1769668201567194400,7.7031943359375,-0.026941490678489208,-0.04025368445515633,0.04284019381701946
1769668201577183200,7.713183349609375,0.07628741312772035,-0.07084346850812434,0.02322393146008253
1769668201587172400,7.72317236328125,0.06306289763450622,-0.0650678077161312,-0.0027525135785341263
1769668201597160400,7.733160400390625,0.051214931191504,-0.04816577275395393,-0.03183890733122825
1769668201607149300,7.7431494140625,0.018234452609717844,0.004867313775420189,-0.08247048567682504
1769668201617138700,7.753138671875,-0.07529080330580472,0.05278174211680889,-0.08062076615691184
1769668201627127600,7.76312744140625,-0.12403525273054837,0.04070961152911186,-0.05075491246432066
1769668201637115600,7.77311572265625,-0.011133972954750061,-0.01914016927778721,-0.02053425398468971
1769668201647104800,7.783104736328125,0.06710428197979927,-0.060764557564258574,0.00753507167994976
1769668201657094000,7.793093994140625,0.0992380806043744,-0.058814592540264124,0.014753332495689392
1769668201667082800,7.803082763671875,0.07004647291153669,-0.06349485931098461,0.0025116905599832534
1769668201677070600,7.813070556640625,-0.04721563242226839,-0.02131809783875942,-0.026312837386131285
1769668201687059700,7.823059814453125,-0.1284957392707467,-0.00983516531586647,-0.04950783501267433
1769668201697048600,7.833048583984375,-0.1849830579072237,-0.12040975570976734,-0.049563364592194556
1769668201707037700,7.84303759765625,-0.07468202375769614,-0.0022509937971830368,-0.04616261623799801
1769668201717025800,7.85302587890625,0.0677849577203393,0.0502718051224947,-0.01813011545240879
1769668201727014700,7.8630146484375,-0.07518588162660599,-0.003143558722734451,-0.03167348763644695
1769668201737003800,7.873003662109375,-0.03394669326543808,-0.015457681372761725,-0.02727379137277603
1769668201746992600,7.88299267578125,0.04633651150017976,-0.018527590337395667,-0.010542144541442394
1769668201756981500,7.8929814453125,-0.004059796784818172,-0.04516600641608238,0.0038958383947610854
1769668201766969600,7.902969482421875,-0.017568097655475137,-0.06765139446854591,0.022826748836040495
1769668201776958700,7.912958740234375,0.04428337836265564,-0.059845689153671264,0.03283727071881294
1769668201786947800,7.92294775390625,0.03551233514696359,-0.021507482931017875,-0.012303601256012917
1769668201796936700,7.932936767578125,0.046960780878365034,-0.007490648016333579,-0.033710838682949544
1769668201806924500,7.942924560546875,0.05193243181109428,0.008556231421232224,-0.03755553141236305
1769668201816913700,7.95291357421875,0.0006526186898350715,-0.004852116206288337,-0.05802198085784912
1769668201826902500,7.962902587890625,-0.009665069445967674,-0.024319033220410347,-0.02834785034507513
1769668201836891600,7.9728916015625,-0.03645721478164196,-0.044077626657485956,-0.02894084780216217
1769668201846879700,7.982879638671875,-0.09880845701545476,-0.10827391223609446,-0.01196837795227766
1769668201856868900,7.992868896484375,0.05839753617197275,-0.019411387434601784,0.014206804528832434
1769668201866857700,8.002857666015625,0.09455839835554361,-0.0161690445125103,0.0021586393386125564
1769668201876846800,8.012846923828125,-0.039516894613206385,0.035897827333211896,-0.01702478455901146
1769668201886834700,8.022834716796876,-0.07405074011683464,0.00558919830918312,-0.04385463155657053
1769668201896823600,8.032823486328125,-0.021335341234505176,-0.026065000104904174,-0.03672404902428388
1769668201906812700,8.042812744140624,-0.029261165797710417,-0.0295101721227169,-0.012869418445229529
1769668201916801800,8.0528017578125,-0.042216508960723875,-0.024425416204333306,-0.04282353494316339
1769668201926790000,8.062789794921875,-0.030868600994348523,-0.00047755438387393946,-0.029044308176636693
1769668201936778800,8.07277880859375,-0.023834756834805012,-0.015846388429403304,-0.0006064414605498313
1769668201946767600,8.082767578125,-0.010877660106122494,-0.03049976768195629,-0.010430793121457099
1769668201956756500,8.092756591796874,0.011625555863976478,-0.035302784049510955,-0.01837239977568388
1769668201966744600,8.10274462890625,0.029008652341365813,-0.05138648836612701,-0.011109715296328067
1769668201976733700,8.112733642578124,0.03912994112223386,-0.04496259279847145,-0.0024631752431392667
1769668201986722800,8.122722900390626,0.0171101247549057,-0.02721884631514549,-0.013383505447208881
1769668201996711700,8.132711669921875,-0.011527648447453975,-0.01852349868416786,-0.017351824556291102
1769668202006699800,8.14269970703125,0.0038090368941426276,-0.043699440994858736,-0.005144084890186786
1769668202016688600,8.152688720703125,0.05310235237330198,-0.053391982969641684,0.003325345030426979
1769668202026677500,8.162677490234374,0.03241027747839689,-0.03539864563941955,-0.03218845142126083
1769668202036666600,8.17266650390625,0.015586568449437618,-0.02693827580809593,-0.03898264160603285
1769668202046655700,8.18265576171875,0.025058453410863876,-0.037034137886762616,-0.023253449815511702
1769668202056643800,8.192643798828126,0.01501958221644163,-0.028575521621108053,-0.023702070365846154
1769668202066632700,8.2026328125,-0.022531857542693615,-0.0191056824862957,-0.020942834785580632
1769668202076621800,8.212621826171874,-0.04603694403171539,-0.025058453410863876,-0.03267740398198366
1769668202086610700,8.222610595703125,-0.03444850530773401,-0.037754853376746174,-0.024751579418778417
1769668202096598500,8.2325986328125,-0.005836743329465389,-0.043837388160824775,-0.021247370690107344
1769668202106587600,8.242587646484376,-0.01798193915337324,-0.016140402939915657,-0.028880349786579607
1769668202116576800,8.25257666015625,0.01374123284369707,-0.03064998980760574,-0.024679390965402125
1769668202126565600,8.262565673828124,0.02878302689194679,-0.040840544432401656,-0.0032341596156358716
1769668202136553700,8.2725537109375,-0.0075248425468802446,-0.042401802399754523,-0.02052431711256504
1769668202146542800,8.28254296875,-0.033680151283740994,-0.027695231655240057,-0.034114158786833285
1769668202156531500,8.292531494140626,-0.014353519523143768,-0.032901568126678465,-0.03994008846133947
1769668202166520600,8.3025205078125,-0.011537585319578648,-0.026194179442524907,-0.027824703253805635
1769668202176508700,8.3125087890625,0.010162789835035801,-0.027706922093033787,-0.018142974933981895
1769668202186497800,8.322497802734375,-0.007572481080889701,-0.027262685456871986,-0.025746435675024985
1769668202196486700,8.332486572265625,-0.01581833137869835,-0.017646715849637985,-0.008807868094742297
1769668202206475800,8.342475830078126,-0.035978783614933486,-0.028402503141760824,-0.0005988426759839057
1769668202216464000,8.3524638671875,0.03805354406237602,-0.05626958423256874,-0.01137801084369421
1769668202226452500,8.362452392578126,0.046916064953804015,-0.040004093608260155,-0.03111234662234783
1769668202236441600,8.372441650390625,0.031771395052969456,-0.020751111605763435,-0.03682984748631716
1769668202246430700,8.3824306640625,-0.0003179799079895019,-0.004030278429389,-0.018861060075461865
1769668202256418800,8.392418701171875,-0.01586655443459749,-0.006669979283213615,-0.03250000158846378
1769668202266407700,8.40240771484375,-0.025480478215217588,-0.011592238116264343,-0.02647591899335384
1769668202276396800,8.412396728515626,-0.03885200096368789,-0.011381225714087485,-0.01575081910043955
1769668202286385700,8.4223857421875,-0.03877893572747707,-0.017225275567173955,-0.016199731911718845
1769668202296374800,8.432374755859374,-0.02000847654491663,-0.009723521634936332,-0.006089549046754837
1769668202306362600,8.442362548828125,0.03204991973340511,-0.021931261301040648,-0.017794015365839005
1769668202316351700,8.452351806640625,0.04665156879872084,-0.022405893075466154,-0.02195464217662811
1769668202326340600,8.462340576171876,0.007915595430135727,-0.016044541350007057,-0.0374532400816679
1769668202336329700,8.472329833984375,-0.039411388412117956,-0.004319032242894172,-0.03126899848878383
1769668202346317800,8.48231787109375,-0.049904433114826674,-0.01152268001139164,-0.013978840991854667
1769668202356306700,8.492306640625,-0.028045360267162322,-0.052065118280053134,0.00452303038239479
1769668202366295600,8.502295654296875,-0.010475801306962967,-0.03220657159984112,-0.023132746045291423
1769668202376284700,8.51228466796875,0.0011184826359152793,-0.016941197928786275,-0.05107639950364828
1769668202386272800,8.522272705078125,-0.0007224690556526184,0.008898761248588561,-0.050908933982253074
1769668202396261600,8.53226171875,-0.011471826606988906,0.004513678032159805,-0.0027229952231049535
1769668202406250800,8.542250732421875,-0.006285071618854999,-0.04765665418803692,0.028264263714849948
1769668202416239600,8.552239501953125,0.03985007209032774,-0.06786006878316402,0.021998189057409762
1769668202426227500,8.5622275390625,0.03413023313879966,-0.0679261197566986,-0.0019847440764307975
1769668202436216600,8.572216552734375,-0.009886895503103732,-0.047917350950837136,-0.027028292179107665
1769668202446205700,8.582205810546874,0.00701572398096323,-0.026318682605028152,-0.03107873661369085
1769668202456194600,8.592194580078125,-0.031055647999048232,-0.02262391974031925,-0.030234687004983423
1769668202466182700,8.6021826171875,-0.046584348781406874,-0.004723521390557289,-0.03935732013732195
1769668202476171800,8.612171875,-0.007549100205302238,-0.0009393266767263412,-0.020225626426935196
1769668202486160600,8.62216064453125,0.03936725700944662,-0.02212298448085785,0.0032338673546910284
1769668202496149800,8.632149658203126,0.03816197287291288,-0.020986089405417442,0.004750993919372558
1769668202506139000,8.642138916015625,-0.0024678514182567596,-0.03796820386648178,-0.0005284077882766723
1769668202516126700,8.652126708984374,-0.03501695284545421,-0.04154664687514305,-0.020735329514741895
1769668202526115600,8.662115478515625,-0.07146013910174369,-0.030945757883787152,-0.030401568004488944
1769668202536104700,8.672104736328125,-0.0628352263584733,-0.025590952852368353,-0.017770342229306697
1769668202546093800,8.68209375,-0.04539396995306015,-0.032761282873153684,-0.03523351820558309
1769668202556081700,8.69208154296875,-0.03271978181898594,-0.012143442258238792,-0.04364011202305555
1769668202566070800,8.70207080078125,0.011833937917649745,0.0045341362982988355,-0.03435439728349447
1769668202576059600,8.7120595703125,-0.004809446108341216,0.0010924714118242262,-0.021242986775934693
1769668202586048500,8.722048583984375,-0.0052425768285989756,-0.021933014866709708,-0.02155599824786186
1769668202596036600,8.73203662109375,0.017715397171676157,-0.04063654629290104,-0.020817747101187705
1769668202606025700,8.742025634765625,-0.002530102999508381,-0.04392272835671902,-0.023295535391569137
1769668202616013800,8.752013916015626,-0.016107377453148365,-0.03712532330155372,-0.03258504952341318
1769668202626002700,8.762002685546875,0.012953005075454712,-0.033038346248865126,-0.011318389610946177
1769668202635990500,8.771990478515624,0.010382570065557956,-0.020588614520430565,-0.01850917789787054
1769668202645979600,8.781979736328125,0.0025330256089568137,-0.0044195700079202645,-0.04667787228375673
1769668202655968800,8.79196875,-0.03826367968171835,0.013347557350993156,-0.05483078360110521
1769668202665957600,8.80195751953125,-0.04116992251724005,-0.005920622220635414,-0.03149170132875442
1769668202675945700,8.81194580078125,-0.01884557024538517,-0.025650574085116385,-0.0146352590739727
1769668202685934800,8.821934814453124,-0.026300270165503025,-0.016031097346544263,-0.019218202950060367
1769668202695923700,8.831923828125,-0.014237784188985823,0.012490063738822936,-0.067091714759171
1769668202705912600,8.84191259765625,-0.055037412089109415,0.033633974054455756,-0.08785714715123176
1769668202715900700,8.851900634765625,-0.07598316948413848,0.05505027157068252,-0.08866378735899924
1769668202725889800,8.861889892578125,-0.047962066875398154,0.05770692355930805,-0.04330781132876873
1769668202735878700,8.871878662109374,-0.028157588469982144,0.032713352078199386,-0.017393617871403692
1769668202745867800,8.88186767578125,-0.02145107656866312,0.020665186887979508,-0.0159489720210433
1769668202755856600,8.891856689453125,-0.06879267345815897,0.028438158977031707,-0.02474281159043312
1769668202765844500,8.901844482421875,-0.14297668456584214,0.07870821053385733,-0.0674339523255825
1769668202775833600,8.91183349609375,-0.1968275172188878,0.14624386966824532,-0.04919716162830591
1769668202785822700,8.92182275390625,-0.1927878864392638,0.14405834232270717,-0.029598142667114732
1769668202795811600,8.9318115234375,-0.1527577816069126,0.12506254995167254,-0.022771511517465114
1769668202805799700,8.941799560546874,-0.00184825821518898,0.10898819798529147,-0.06547638851702213
1769668202815788800,8.951788818359375,0.17399959933906792,0.1181412262558937,-0.0780626061066985
1769668202825777700,8.961777587890625,0.22746757015436886,0.08510054191946982,-0.041052433617413044
1769668202835766800,8.971766845703126,0.3156654935672879,-0.000263034850358963,-0.10005758029371499
1769668202845754600,8.981754638671875,0.46221828305423257,-0.22489888871014116,-0.033793840791285036
1769668202855743700,8.99174365234375,0.7684475474953651,-0.5749450830459595,0.2645420400515199
1769668202865732600,9.001732666015625,0.6084767657697201,-0.5881377420961856,0.33012831868380305
1769668202875721700,9.0117216796875,0.25969489228129383,-0.4928285253733396,0.4016089160516858
1769668202885709800,9.021709716796876,0.8009607008263468,-0.7256213822036981,0.5973603284716605
1769668202895698700,9.03169873046875,0.711454909685254,-0.39623745214641093,0.4112959050685167
1769668202905687600,9.0416875,-0.19397095874398945,-0.040837037301063535,0.012324936304986477
1769668202915676700,9.0516767578125,-0.7547498615324497,0.12956395302414894,-0.1714510839000344
1769668202925664800,9.061664794921874,-0.7621937477976083,0.012658990564942359,-0.24609745182245968
1769668202935653600,9.071653564453126,-0.9625640521898865,0.0196457807123661,-0.2644835878625512
1769668202945642800,9.081642822265625,-1.0234373308256268,0.30626316671073434,-0.2797723424091935
1769668202955631600,9.091631591796874,-0.7881938659727573,0.42807285234630105,-0.18506226062327621
1769668202965620700,9.101620849609375,-0.24801643718630073,0.2956266218841076,-0.02985708586424589
1769668202975608600,9.111608642578124,0.10689151796698569,-0.046641339665651316,-0.03812193312346935
1769668202985597700,9.12159765625,0.22615298042446375,-0.20405133099257944,-0.03552577915042639
1769668202995586600,9.131586669921875,0.17155162166506052,-0.1463788942247629,0.04072334779351949
1769668203005575700,9.14157568359375,0.15381605848819016,-0.10260463442802428,0.1232543314859271
1769668203015563800,9.151563720703125,0.2985050999298692,-0.07257423782348632,-0.045755789002776145
1769668203025552600,9.161552734375,0.2085942351192236,-0.027671850779652594,-0.12907061654925345
1769668203035541800,9.171541748046875,0.10299334148466587,0.0007990414232015609,-0.06895984671860933
1769668203045531000,9.18153076171875,0.07887976770848035,-0.013473814079165458,-0.08557809630334377
1769668203055518700,9.191518798828126,-0.041753859885036944,0.005800795233249664,-0.09137421536147594
1769668203065507600,9.201507568359375,-0.09160656281262636,0.03755845402181148,-0.10142769960314035
1769668203075496700,9.21149658203125,-0.12865940539985896,0.07762275338470935,-0.07915186264812946
1769668203085485800,9.22148583984375,-0.13616788133382796,0.08415244741439819,-0.08620908768326044
1769668203095473700,9.2314736328125,-0.05031739782989025,0.04549100058674812,-0.0720630734309554
1769668203105462800,9.241462890625,0.047691140979528424,0.01965162593126297,-0.035359482672810555
1769668203115451600,9.25145166015625,0.08703764746189117,0.0019961422532796856,-0.037383974237740036
1769668203125440500,9.2614404296875,0.030160160464048385,0.015296353331208228,-0.03309942878633737
1769668203135428600,9.2714287109375,-0.0477294271633029,-0.012969371688365936,-0.008495733405649662
1769668203145417700,9.281417724609375,-0.06696165863871574,-0.023026655322313308,-0.030827099940180777
1769668203155406600,9.291406494140626,-0.0653776043176651,-0.03964695073366165,-0.07120353399217129
1769668203165395700,9.301395751953125,0.0008203764721751212,-0.025341946527361867,-0.08640899416953325
1769668203175383600,9.311383544921876,0.02655366040468216,-0.01534369960427284,-0.06557838758677244
1769668203185372700,9.32137255859375,0.04271715195924043,-0.022796353697776793,-0.053500704041123386
1769668203195361500,9.331361572265624,0.013847323566675186,-0.01027472577691078,-0.048615854609012604
1769668203205350700,9.3413505859375,-0.02094517287313938,-0.005749941828846931,-0.04628536583483219
1769668203215339800,9.35133984375,-0.001239186406135559,-0.029703064346313476,-0.050559097631275654
1769668203225327600,9.36132763671875,0.0637047026693821,-0.04319909025728702,-0.057470776715874666
1769668203235316700,9.371316650390625,0.08425035483092069,-0.02620586988031864,-0.04857201546728611
1769668203245305900,9.381305908203124,0.07831921121627092,-0.008648585879802703,-0.014666530995070934
1769668203255294700,9.391294677734376,0.05664367824196815,-0.005847556984424591,-0.013325930041074753
1769668203265282600,9.401282470703125,0.030541268736124037,-0.01385842948257923,0.0015215104788541792
1769668203275271700,9.411271728515626,-0.011870470535755157,-0.02528524790406227,0.013827742083370684
1769668203285260800,9.4212607421875,-0.021492285361886024,-0.020703765332698822,0.0303621127769351
1769668203295249700,9.431249755859374,0.020461773270368574,-0.03341594738960266,0.039510757133364674
1769668203305237800,9.44123779296875,0.04710398874133825,-0.027243396234512326,0.035708734501898286
1769668203315227000,9.451226806640625,0.04424947609305382,-0.02265139226913452,0.011337971094250679
1769668203325215500,9.461215576171876,0.00792582456320524,-0.02543430098593235,0.00039250644892454146
1769668203335204600,9.47120458984375,0.005115151056647301,-0.029569208833575247,-0.013918342976272105
1769668203345192700,9.481192626953124,0.006027589726448059,-0.04360007227361202,-0.01210427929162979
1769668203355181600,9.491181640625,-0.019580606521666048,-0.06424421637356281,-0.006655073975026607
1769668203365170700,9.501170654296875,-0.12424041991382836,-0.07316402041018008,-0.013693302048742771
1769668203375159800,9.511159912109376,-0.23128186774551868,-0.05693827727437019,-0.03172287973612547
1769668203385147600,9.521147705078125,-0.2953998273909092,-0.046154432931542394,-0.06239771172404289
1769668203395136500,9.531136474609376,-0.2904211621955037,-0.04203939882814884,-0.033328853628039355
1769668203405125600,9.541125732421875,-0.2268096907675266,-0.04949205292165279,-0.0023617606952786446
1769668203415114800,9.55111474609375,-0.09347440251111984,-0.02774433149397373,-0.006804419317841529
1769668203425103600,9.561103515625,0.0062044075980782504,-0.026410452541708946,0.015398936922848223
1769668203435091700,9.571091796875,0.05305471383929252,-0.034904140120744706,0.060845221585035324
1769668203445080800,9.581080810546876,0.0545978516280651,-0.050038580888509744,0.06199059222787618
1769668203455069700,9.591069580078125,0.07801964374780654,-0.10027999087274074,0.02798690807819366
1769668203465058800,9.601058837890625,0.08359042961746453,-0.10537702175080775,-0.00000263034850358963
1769668203475046700,9.611046630859375,0.08405512451976538,-0.075851652058959,-0.0074365797415375705
1769668203485035800,9.621035888671875,0.09126461750715971,-0.04775719195306301,-0.030864217080175876
1769668203495024600,9.631024658203126,0.01967033063173294,-0.0010796119302511214,-0.050744098809361454
1769668203505013800,9.641013671875,-0.12063245854973792,-0.01177227085828781,-0.0632119507163763
1769668203515001900,9.651001953125,-0.1497159296929836,-0.031574703437089915,-0.04701806402355432
1769668203524990700,9.66099072265625,-0.07014759519845247,-0.037919104027748105,-0.02612695942521095
1769668203534979600,9.6709794921875,-0.03413461705297231,-0.032789924445748325,-0.02762070511430502
1769668203544968700,9.68096875,0.014255319845676422,-0.029247721794247627,-0.03213847479969263
1769668203554956800,9.690956787109375,0.03871697640717029,-0.02583645204603672,-0.013803484424948692
1769668203564945700,9.700945556640624,0.013799392771720886,-0.043031332474946976,-0.02314998944103718
1769668203574934800,9.710934814453125,-0.036493162877857685,-0.05980594166517257,-0.0207677704796195
1769668203584923600,9.720923583984375,-0.07729512886554002,-0.05294599276781082,-0.023836218139529228
1769668203594911500,9.730911376953125,-0.027084406280517576,-0.06252513749599456,-0.019027356553077697
1769668203604900600,9.740900634765625,0.006697451812028884,-0.04352349990606308,-0.0037102526947855948
1769668203614889500,9.750889404296874,0.03494096499979496,-0.03631692952811718,-0.004102759143710136
1769668203624878300,9.76087841796875,0.06961480349600314,-0.0611333908766508,-0.021740707165002822
1769668203634867500,9.770867431640625,0.025879414404928684,-0.020125088661909103,-0.00956716202944517
1769668203644855600,9.78085546875,-0.016302023242413997,-0.0244996504843235,0.0013031915530562401
1769668203654844400,9.790844482421875,-0.06773585788160562,-0.034037878680229186,-0.010644143611192702
1769668203664833500,9.80083349609375,-0.07644844890832901,-0.052525137007236475,-0.016183073037862778
1769668203674822400,9.810822509765625,-0.03893704889863729,-0.0400064316958189,-0.017788170146942138
1769668203684810500,9.820810546875,-0.02645984464138746,-0.017965280279517173,-0.014311726208031176
1769668203694799400,9.83079931640625,-0.023859306754171847,-0.06242986042797565,-0.020265666176378726
1769668203704788500,9.84078857421875,-0.0023839725270867348,-0.09054477880001068,0.0014265256717801093
1769668203714777300,9.85077734375,-0.05111293212175369,-0.054098669934272765,-0.0048287353307008745
1769668203724765400,9.860765380859375,-0.18125556181669233,-0.013452186769247055,-0.036569442984461784
1769668203734754300,9.87075439453125,-0.2372889992058277,-0.04226210166811943,-0.0497094950646162
1769668203744743400,9.880743408203125,-0.13936755415797233,-0.05793313353061676,-0.032145489062368866
1769668203754732300,9.890732177734375,-0.10357698659151791,-0.048453942045569416,-0.020675708281993863
1769668203764720400,9.900720458984376,-0.14533815300017594,-0.08270166408419609,0.013824527212977408
1769668203774709500,9.91070947265625,-0.13957389038503168,-0.07597557069957256,0.03531622805297375
1769668203784698400,9.920698486328124,-0.12123743870556354,-0.07853402301073074,0.023380583326518534
1769668203794687500,9.9306875,0.19192776247859,-0.21245207959115503,0.09527005375623702
1769668203804675300,9.94067529296875,0.09973813908100128,-0.09340250631868839,0.0691965780839324
1769668203814664400,9.95066455078125,-0.025765724897384643,-0.12549451162815092,0.03820493523180485
1769668203824653300,9.9606533203125,0.16217501377165316,-0.048608255824446674,0.056336511988937854
1769668203834642400,9.970642333984374,0.09964023166447877,-0.06060790569782257,0.01745177779942751
1769668203844631600,9.980631591796875,0.005552957952022552,-0.13326222302019594,0.0773684863626957
1769668203854619400,9.990619384765624,0.04255056322067976,-0.15194178904891012,0.07643032872974873
1769668203864608500,10.0006083984375,0.0804942171677947,-0.1656289536178112,0.04670680611729622
1769668203874597600,10.01059765625,0.05866232458800077,-0.13444587984681128,0.027479835338890552
1769668203884586200,10.020586181640626,-0.04808540099412203,-0.07963643129467964,-0.05267682043761015
1769668203894574300,10.03057421875,0.0170250768199563,-0.07639876454770565,-0.1544514337822795
1769668203904563500,10.0405634765625,0.014819383469223976,0.16949088974297047,-0.21110037272125481
1769668203914552600,10.050552490234375,-0.08145166402310132,0.19064181432127952,-0.13874328477978706
1769668203924541400,10.06054150390625,0.025372049404680727,-0.01085866314470768,-0.0010994856745004653
1769668203934529500,10.070529541015626,0.027503216214478016,0.0012765958070755003,0.09873919117152691
1769668203944518400,10.080518310546875,0.05051525848954916,0.10608195514976977,-0.03129851684421301
1769668203954507300,10.09050732421875,0.04009323319643736,0.07152619007527827,-0.07397650583684444
1769668203964496400,10.100496337890625,0.3819078980207443,-0.05990823299586773,0.12399550524204969
1769668203974484500,10.110484375,0.683577014939487,-0.1673404337108135,0.19787585722804069
1769668203984473300,10.120473388671876,0.7027227371752262,-0.19514964713454244,-0.04736000932902097
1769668203994462500,10.13046240234375,0.19132599719315765,-0.0425508554816246,-0.17414982146471739
1769668204004451600,10.14045166015625,-0.6389116515219211,0.24216683437526224,-0.2198340065360069
1769668204014439400,10.150439453125,-1.014063353280723,0.26873919948041436,-0.1526964068084955
1769668204024428300,10.16042822265625,-0.6777680363997817,0.10306874480843543,-0.12492255695909261
1769668204034417400,10.17041748046875,-0.24342063382863996,-0.031055647999048232,0.023519407275319097
1769668204044406500,10.180406494140625,0.08396686171442269,-0.12694938661158084,0.08199848425090313
1769668204054395400,10.1903955078125,0.30159838977009057,-0.19192659343481064,0.10138386046141386
1769668204064383500,10.200383544921875,0.28377865544110537,-0.2714800226211548,0.11983897008448839
1769668204074372600,10.21037255859375,0.24375877974182367,-0.1154962647050619,0.14523703071326016
1769668204084361500,10.220361572265626,0.37436961147040126,-0.12662205435335636,0.11158113708794117
1769668204094350300,10.230350341796875,0.3521817450597882,-0.09511749354302883,0.18008242638409136
1769668204104338400,10.24033837890625,0.32379122461676596,0.002388356441259384,0.11380465835630893
1769668204114327600,10.25032763671875,0.32697160821855065,0.011162614527344702,0.20838526854366063
1769668204124316400,10.26031640625,0.1694561106905341,-0.004583820658922195,0.016926877142488955
1769668204134305500,10.270305419921876,0.08389876491427421,0.033688919112086296,-0.006900280907750129
1769668204144293600,10.280293701171875,0.061438803564012046,-0.00730067840218544,-0.06011982991993427
1769668204154282200,10.2902822265625,-0.03189706725925207,-0.07753916675448418,-0.12721534407138824
1769668204164271400,10.300271240234375,-0.11793576681166887,-0.11716273661255835,-0.07936462861597537
1769668204174260500,10.310260498046874,-0.11605886702388524,0.031068507480621337,-0.06202390997558832
1769668204184248300,10.320248291015625,-0.16333675102740525,0.09597557167708873,-0.12082564303427934
1769668204194237400,10.330237548828125,-0.22739187456965446,0.1226852994263172,-0.12957768928855656
1769668204204226600,10.3402265625,-0.2739502121269703,0.10589081649184226,-0.15516630405336618
1769668204214215400,10.35021533203125,-0.3387237130716443,0.04111643876433372,-0.18144523916989563
1769668204224204500,10.36020458984375,-0.33892069694846866,0.030832945159077644,-0.1710743595421314
1769668204234192400,10.3701923828125,-0.34313656107783314,0.0980114614188671,-0.16652999411076305
1769668204244181500,10.380181396484375,-0.35366233900636435,0.08068623260855674,-0.1818169950917363
1769668204254170400,10.39017041015625,-0.2853843370720744,0.11313596531450748,-0.10249620561748743
1769668204264159500,10.400159423828125,-0.1656520422324538,0.08255670265555382,-0.050120121692121024
1769668204274147600,10.410147705078124,0.13308540514856576,-0.0605669891655445,0.01412292563766241
1769668204284136400,10.420136474609375,0.32542847042977807,-0.11414017392098903,0.04357786044180393
1769668204294125300,10.430125244140624,0.34397505772858855,-0.034816461837291715,0.025515841789543626
1769668204304114400,10.440114501953126,0.19864947194904087,-0.019954992792010306,0.014867606525123119
1769668204314102500,10.4501025390625,0.0042716859698295594,-0.061435004171729084,-0.017936930967867373
1769668204324091400,10.46009130859375,-0.001985328598320484,-0.06769874074161052,0.007546177595853805
1769668204334080500,10.47008056640625,0.04055412870645523,-0.049286301216483114,-0.006937398047745227
1769668204344069400,10.4800693359375,-0.0370960972070694,-0.044643443846702574,-0.03140869922041893
1769668204354057500,10.490057373046875,-0.011521218706667422,-0.03865443256497383,-0.031180443422496318
1769668204364046300,10.50004638671875,0.001531155090034008,-0.05785597664117813,-0.015939035148918628
1769668204374035500,10.510035400390626,0.05930851353704929,-0.01881634415090084,0.013896715666353702
1769668204384024300,10.5200244140625,0.085648531191051,-0.02718845117688179,-0.0059749827563762665
1769668204394012400,10.530012451171874,0.06015314766764641,-0.07151800676882267,-0.0009060089290142059
1769668204404001500,10.54000146484375,0.03904167831689119,-0.0453524688988924,0.01605477048307657
1769668204413990400,10.549990478515625,-0.03542290329784155,-0.055742345488071436,-0.025440438465774057
1769668204423979500,10.5599794921875,-0.06748246764242649,0.014268179327249527,-0.045863048769533635
1769668204433968600,10.56996875,-0.11306436138302087,-0.03541618129611015,-0.025449206294119356
1769668204443956500,10.57995654296875,-0.0780544228002429,-0.027796938464045524,-0.006008885025978088
1769668204453945300,10.5899453125,-0.025677169831097125,-0.0630552988499403,0.0034396190598607063
1769668204463934500,10.5999345703125,0.026461013685166835,-0.03353051367998123,0.026442308984696863
1769668204473923300,10.60992333984375,0.009172317492961882,-0.042048166656494135,0.00947656113654375
1769668204483911400,10.619911376953125,0.028961890590190886,-0.03558101646900177,0.01269201605170965
1769668204493900500,10.629900634765624,0.020690029068291187,-0.008608253869414328,0.008502455407381057
1769668204503889400,10.639889404296875,-0.07203969255536795,-0.04813888474702835,0.006703004769980907
1769668204513878300,10.649878173828125,-0.026314883212745187,-0.04165595246851444,-0.026238310845196247
1769668204523866400,10.659866455078125,-0.02151858884692192,-0.06496610090732574,-0.031233342653512953
1769668204533855500,10.66985546875,0.0635170711427927,-0.016547814697027204,-0.03404430842101574
1769668204543844400,10.67984423828125,0.041650984032452106,-0.07800386165678501,-0.025562311279773712
1769668204553833500,10.68983349609375,0.05016016144156456,-0.030700843212008475,-0.024064766198396682
1769668204563821600,10.699821533203124,-0.012595277678966522,0.004002221378684044,-0.05227613068222999
1769668204573810400,10.709810546875,-0.11242021826058625,-0.001312251642346382,-0.02798223190307617
1769668204583799300,10.71979931640625,-0.08639730373173951,-0.033279169267415996,-0.033766368262469766
1769668204593788400,10.729788330078126,0.006516250026226043,-0.014174655824899672,-0.052794017076492304
1769668204603776500,10.739776611328125,0.05786737481802701,-0.030193478211760518,-0.029827275247871873
1769668204613765400,10.749765380859374,0.0203431153267622,-0.07721826423704624,-0.0006549567773938179
1769668204623754500,10.75975439453125,0.04557721756547689,-0.02214285822510719,0.0011246201157569884
1769668204633743600,10.76974365234375,-0.017655483677983284,-0.053501288563013075,0.00339022696018219
1769668204643732500,10.779732421875,-0.06279197173863649,-0.03272270442843437,0.024481238044798372
1769668204653720300,10.78972021484375,-0.08069733852446079,-0.050391632109880444,0.028796763156354425
1769668204663709400,10.79970947265625,-0.08433131111264228,-0.05229483538269997,0.018662907154858112
1769668204673698300,10.8096982421875,-0.05052227275222539,-0.07319324650466441,-0.004570668916404247
1769668204683687400,10.8196875,0.02565992643535137,-0.0920598595380783,-0.03931085064709186
1769668204693675500,10.829675537109376,0.08322656474113464,-0.01062426986694336,0.0023626374781131744
1769668204703664600,10.83966455078125,0.015150515119731426,-0.0032031799554824826,0.010095569817721844
1769668204713653200,10.8496533203125,-0.007161854453384876,-0.02720014161467552,0.005026888251304626
1769668204723642400,10.859642333984375,-0.004044891476631164,-0.021800328397750854,-0.020619594180583952
1769668204733630500,10.86963037109375,0.008660568578541278,-0.06505611727833747,-0.017116554495692254
1769668204743619300,10.879619384765626,0.05561608875989914,-0.12001228082478045,-0.02856646153181791
1769668204753608400,10.8896083984375,0.05176759663820266,-0.10136953967511653,-0.030056407828629016
1769668204763597600,10.89959765625,0.055606736409664154,-0.05630114841461181,-0.0044505496680736535
1769668204773585400,10.90958544921875,0.03307370982319116,-0.003361585387587547,0.003333820597827434
1769668204783574300,10.91957421875,-0.03813099321275949,0.014265841239690779,0.0019867899030447003
1769668204793563400,10.9295634765625,-0.05765110171884298,0.022453823870420456,0.012158639827370643
1769668204803552500,10.939552490234375,-0.004984802675247192,0.028528759869933126,-0.018369184905290603
1769668204813540400,10.949540283203126,0.06087707802802324,0.005658756414055824,-0.03307575564980507
1769668204823529500,10.959529541015625,0.04811170447915792,-0.004456394886970519,-0.05114040465056896
1769668204833518600,10.9695185546875,-0.014605156196653842,0.01820727234184742,-0.043617607930302615
1769668204843507500,10.979507568359375,-0.022636486960947513,-0.007636193966865539,0.0024389175847172734
1769668204853496600,10.98949658203125,0.0005222703084349631,-0.057122401669621466,-0.028004151473939417
1769668204863484400,10.999484375,-0.08955226063132285,-0.19007950426340103,-0.10663695868402719
1769668204873473300,11.009473388671875,-0.12300678646564484,-0.17511808197498321,-0.08694529300332068
1769668204883462400,11.01946240234375,0.06333499257415533,-0.020475801795721053,0.03085661829560995
1769668204893451500,11.029451416015625,0.03366115432232618,0.0773813458442688,0.024522446838021277
1769668204903439600,11.039439697265625,-0.019905600692331788,0.08815466879308223,-0.013290566466748715
1769668204913428500,11.049428466796876,0.0045090018570423124,0.03396013726890087,0.004575052830576897
1769668204923417300,11.059417236328125,0.05178747038245201,-0.004403203395009041,0.01321662444770336
1769668204933406500,11.069406494140624,0.09240735780149698,-0.008581365862488746,0.013563830450177191
1769668204943394300,11.079394287109375,0.036659167094528676,-0.04697510166466236,0.0036751813814044
1769668204953383400,11.089383544921875,-0.05141659124344587,-0.08065876007974147,-0.016148586246371267
1769668204963372500,11.09937255859375,-0.0646606882199645,-0.08464519936740397,-0.022427228124439716
1769668204973361400,11.109361328125,-0.08865122013837098,-0.05421674335598945,-0.022367022369802
1769668204983349200,11.119349365234376,-0.06811696615368128,-0.05115034152269363,-0.023984394438564777
1769668204993338400,11.12933837890625,-0.03169511494636536,-0.04556465034484863,-0.016918109314143656
1769668205003327500,11.139327392578124,-0.04081336416453123,-0.03270049259662628,-0.023161972139775753
1769668205013316400,11.14931640625,-0.003984101200103759,-0.017559037566184998,-0.02824760484099388
1769668205023305500,11.159305419921875,-0.009391513201594353,0.0020166005194187163,-0.019943302354216576
1769668205033293600,11.16929345703125,-0.03783376383185386,0.00514613071680069,0.02179477543979883
1769668205043282400,11.179282470703125,-0.039249768109619616,-0.012806874603033066,-0.013187398353219032
1769668205053271600,11.189271484375,-0.04102203847914934,-0.010502104791998862,-0.02879617863446474
1769668205063260700,11.1992607421875,-0.046749183954298494,0.010017536145448685,-0.014964344897866248
1769668205073248500,11.20924853515625,-0.037324937526881694,-0.03814706756472588,-0.02438946810811758
1769668205083237400,11.2192373046875,0.010724807631969452,-0.11420096419751644,-0.05202420174777508
1769668205093226500,11.2292265625,0.0631572979196906,-0.04635960011482238,-0.026397008538246152
1769668205103215400,11.23921533203125,0.07235182724446058,0.014244798451662063,0.02864449520409107
1769668205113203500,11.249203369140625,-0.008114625133574008,0.01794365296959877,0.015278525413572787
1769668205123192600,11.259192626953125,-0.034358488936722276,-0.013068155887722968,0.01300707335025072
1769668205133181400,11.269181396484376,-0.015392799443006514,-0.04324994366168976,0.0022390110984444617
1769668205143170300,11.27917041015625,-0.0187505854383111,-0.05235504113733768,-0.025806056907773017
1769668205153158400,11.289158447265624,-0.00772241094559431,-0.003111410018801689,-0.02240910794585943
1769668205163147500,11.2991474609375,-0.01664952150583267,-0.017693477600812912,-0.02830021181106567
1769668205173136400,11.309136474609375,-0.017038813084363936,-0.05248012882173061,-0.0022816811963915825
1769668205183125500,11.31912548828125,-0.05135433966219425,-0.04705927281677723,-0.00031008886247873305
1769668205193113300,11.32911328125,-0.04068769195824861,-0.026178981873393056,-0.02811024219691753
1769668205203102500,11.3391025390625,-0.030480770720541474,-0.02187105554640293,-0.04118190521597862
1769668205213091300,11.34909130859375,-0.02845014167577028,-0.03737549867033958,-0.03974807302057743
1769668205223080400,11.35908056640625,-0.03991495402008295,-0.030923546051979063,-0.02289279980957508
1769668205233069300,11.3690693359375,-0.054495852558314795,-0.028078678014874455,-0.007891337771713733
1769668205243057400,11.379057373046875,-0.033656770408153534,-0.025455343773961067,-0.018135083888471126
1769668205253046500,11.389046630859376,0.010815408524870871,-0.03298807736635208,-0.007727379381656646
1769668205263035600,11.39903564453125,0.034567163251340384,-0.03068739920854568,-0.03582067044377327
1769668205273024300,11.409024169921874,0.02063625305444002,-0.027217677271366116,-0.01299362934678793
1769668205283012400,11.419012451171875,0.01958615947961807,-0.03317804698050022,0.010391922415792941
1769668205293001500,11.42900146484375,0.03112812871336937,-0.03136602912247181,-0.006023790334165096
1769668205302990300,11.438990234375,0.00931581761687994,-0.0368342314004898,-0.026750644281506537
1769668205312979500,11.4489794921875,-0.009214403069019318,-0.018009703943133355,-0.00658434682637453
1769668205322967600,11.458967529296874,-0.008011457020044327,-0.020049100816249846,0.0021896189987659453
1769668205332956700,11.468956787109375,0.009329846142232418,-0.04982406135499477,-0.006675824502110481
1769668205342945300,11.4789453125,0.026468320208787918,-0.04063888438045978,-0.020045301423966884
1769668205352934400,11.488934326171876,0.021046002899110315,-0.014357026654481887,-0.02081716257929802
1769668205362923300,11.49892333984375,0.014623568636178969,-0.017778817796707154,-0.012712474317848681
1769668205372911400,11.508911376953124,0.011624679081141948,-0.025187048226594923,-0.015234101749956607
1769668205382900500,11.518900390625,-0.03307575564980507,-0.012471943560242652,-0.03946896381825209
1769668205392889600,11.5288896484375,-0.04838233811408281,0.0000602057546377182,-0.030112814190983772
1769668205402878500,11.53887841796875,-0.025611411118507385,-0.015908932271599768,-0.048852585974335665
1769668205412866300,11.5488662109375,-0.004783727145195007,-0.01887304277420044,-0.03045271366983652
1769668205422855400,11.55885546875,0.008826280534267424,-0.013075170150399208,-0.025723639321327207
1769668205432844300,11.56884423828125,0.016743337269127367,-0.032487142106890673,-0.008707330329716205
1769668205442833400,11.57883349609375,-0.017003741770982742,-0.040756957802176474,-0.01861585314273834
1769668205452821500,11.588821533203125,-0.04011456824541092,-0.024408465069532394,-0.020729192034900187
1769668205462810600,11.598810546875,-0.006303484058380127,-0.028273908326029776,-0.03665945935547352
1769668205472799500,11.608799560546874,-0.0014028525352478027,-0.027788170635700223,-0.004013619555532932
1769668205482788400,11.618788330078125,-0.0029679098948836324,-0.01691664800941944,-0.00530599745362997
1769668205492776400,11.6287763671875,0.018270985227823257,-0.00843172825872898,-0.007526303851604461
1769668205502765300,11.638765380859375,0.007800736878812313,-0.009257073166966438,-0.006904372560977936
1769668205512754400,11.64875439453125,-0.0029600188493728637,-0.0013028992921113966,-0.016070552574098108
1769668205522743600,11.65874365234375,-0.004845686465501785,-0.028123101678490636,-0.011740414415299891
1769668205532731600,11.668731689453125,0.023832418747246262,-0.054034957048296924,-0.013745909018814563
1769668205542720300,11.67872021484375,0.02389145545810461,-0.03299859876036644,-0.027912381537258623
1769668205552709400,11.68870947265625,-0.013586919064819812,-0.014165303474664687,0.0002627425894141197
1769668205562698200,11.6986982421875,-0.04681815753728151,-0.026379472881555555,-0.005678922419250011
1769668205572687400,11.708687255859376,-0.0415901937559247,-0.030707857474684713,-0.00692161595672369
1769668205582675500,11.718675537109375,-0.004955284319818019,-0.043413609790802,-0.030150808113813397
1769668205592664600,11.72866455078125,0.002785539065301418,-0.035054362246394154,-0.04940700498670339
1769668205602653400,11.7386533203125,-0.005793488709628582,0.007931377521157265,-0.049532969453930854
1769668205612642600,11.748642578125,-0.0023939093992114066,0.003069324442744255,-0.03059212214052677
1769668205622631400,11.75863134765625,-0.0022597616255283356,-0.039379239708185194,-0.01220978549271822
1769668205632620300,11.768620361328125,-0.0025648820519447325,-0.056470075240731235,-0.003449263671040535
1769668205642609400,11.778609375,-0.014243044885993003,-0.06923427974581718,0.004807400281727314
1769668205652598300,11.788598388671875,0.0017976970717310905,-0.07992460058629512,0.0065951604813337325
1769668205662586400,11.79858642578125,0.03507482051253319,-0.04035013056695461,-0.01115881513506174
1769668205672575200,11.8085751953125,0.008572305773198605,-0.02185878058671951,-0.024702479580044744
1769668205682564400,11.818564453125,-0.024769991858303544,-0.005847556984424591,-0.053831543430685996
1769668205692553200,11.82855322265625,-0.015496844339370727,-0.012577157500386238,-0.023039514803886413
1769668205702541300,11.838541259765625,0.01528846228569746,-0.026405191844701765,-0.00765139153599739
1769668205712530400,11.848530517578125,0.012854220876097678,-0.02726853067576885,0.009463409394025802
1769668205722519300,11.858519287109376,0.0037979309782385823,-0.036005963882803915,0.0051841246396303175
1769668205732508400,11.86850830078125,-0.007161854453384876,-0.04702478602528572,-0.014008651608228683
1769668205742497500,11.87849755859375,-0.046259354610741134,-0.0387210680603981,-0.0238853179782629
1769668205752485400,11.8884853515625,-0.05915975271612405,-0.028407763838768002,-0.033196459420025345
1769668205762474200,11.89847412109375,-0.01959229695945978,-0.027907997623085976,-0.0367754869505763
1769668205772463400,11.90846337890625,0.026019115136563777,-0.04811258126199245,-0.0211032860442996
1769668205782452200,11.9184521484375,0.02762538128942251,-0.060898997598886485,0.0007914426386356353
1769668205792440300,11.9284404296875,0.0253448691368103,-0.04630874671041965,-0.0032248072654008863
1769668205802429400,11.938429443359375,0.033334991107881067,-0.02250292370915413,-0.024684943923354147
1769668205812418600,11.94841845703125,-0.016091595362126825,-0.042300095590949056,-0.002821487161517143
1769668205822407200,11.9584072265625,0.001175181259214878,-0.05467734660506248,0.018446926316618917
1769668205832395300,11.968395263671875,0.026050971579551694,-0.04595628001093864,0.002571604053676128
1769668205842384400,11.97838427734375,0.04328501497507095,-0.029126725763082503,0.00717909784913063
1769668205852373200,11.988373291015625,0.023402795158326623,-0.012217092016339302,-0.03432283310145139
1769668205862362400,11.9983623046875,0.0013584288716316222,-0.009682020580768584,-0.043157881464064116
1769668205872350500,12.0083505859375,-0.02858925788551569,-0.018663199415802953,-0.04619096554964781
1769668205882339300,12.01833935546875,-0.009370178152620793,-0.034115620091557504,-0.03828647603541612
1769668205892328200,12.028328125,-0.004584989702701568,0.005340776506066322,-0.01733750376999378
1769668205902317300,12.0383173828125,-0.0280398073092103,-0.017596446967124937,-0.04644377126693725
1769668205912305400,12.048305419921874,-0.016195347997546194,-0.03212181592583656,-0.016871932084858418
1769668205922294300,12.058294189453125,0.01690408078879118,-0.04208382249176502,0.005277940402925015
1769668205932283400,12.068283447265625,0.01729571045488119,-0.028618191719055174,-0.01957739165127277
