time,seconds_elapsed,z,y,x
1769668193930797300,0.06679736328125,-0.1326446533203125,0.9310302734375,0.2209320068359375
1769668193940786400,0.076786376953125,-0.1321258544921875,0.9289703369140625,0.2189788818359375
1769668193950775300,0.086775390625,-0.1279754638671875,0.9294281005859375,0.2238311767578125
1769668193960764400,0.096764404296875,-0.1260986328125,0.931304931640625,0.2262115478515625
1769668193970752300,0.106752197265625,-0.1213226318359375,0.9384002685546875,0.22686767578125
1769668193980741400,0.116741455078125,-0.117523193359375,0.94122314453125,0.2277984619140625
1769668193990730200,0.126730224609375,-0.1188812255859375,0.9399261474609375,0.2320098876953125
1769668194000719400,0.13671923828125,-0.12554931640625,0.94268798828125,0.2351226806640625
1769668194010707500,0.14670751953125,-0.12860107421875,0.9503021240234375,0.238739013671875
1769668194020696300,0.1566962890625,-0.1328887939453125,0.9499664306640625,0.2535400390625
1769668194030685400,0.166685546875,-0.1014251708984375,0.9366455078125,0.2658843994140625
1769668194040674600,0.176674560546875,-0.0919342041015625,0.952362060546875,0.2571563720703125
1769668194050662400,0.186662353515625,-0.11962890625,0.9844818115234375,0.2438507080078125
1769668194060651300,0.1966513671875,-0.1361083984375,0.9516754150390625,0.2173614501953125
1769668194070640400,0.206640380859375,-0.11669921875,0.9430084228515625,0.218841552734375
1769668194080629200,0.216629150390625,-0.08062744140625,0.941375732421875,0.203826904296875
1769668194090617300,0.226617431640625,-0.0579833984375,0.9329681396484375,0.2337493896484375
1769668194100606500,0.2366064453125,-0.050567626953125,0.947265625,0.2944183349609375
1769668194110595600,0.246595703125,-0.05615234375,0.9641876220703125,0.29290771484375
1769668194120584200,0.256584228515625,-0.0439453125,0.958251953125,0.2771453857421875
1769668194130572300,0.266572265625,-0.02783203125,0.947601318359375,0.2762451171875
1769668194140561400,0.2765615234375,-0.018341064453125,0.9360809326171875,0.2899932861328125
1769668194150550300,0.28655029296875,-0.005340576171875,0.920623779296875,0.2945556640625
1769668194160538400,0.296538330078125,-0.0002899169921875,0.9189605712890625,0.300628662109375
1769668194170527500,0.306527587890625,0.00531005859375,0.9150390625,0.2957916259765625
1769668194180516400,0.316516357421875,-0.0025787353515625,0.91168212890625,0.303009033203125
1769668194190505200,0.326505126953125,0.010284423828125,0.932891845703125,0.3010101318359375
1769668194200493300,0.336493408203125,0.0298309326171875,0.9403228759765625,0.3066558837890625
1769668194210482400,0.346482421875,0.0329132080078125,0.9224853515625,0.30596923828125
1769668194220471300,0.35647119140625,0.0308074951171875,0.9082489013671875,0.305816650390625
1769668194230460400,0.36646044921875,0.03741455078125,0.9017333984375,0.31201171875
1769668194240448300,0.3764482421875,0.05157470703125,0.8972320556640625,0.3157501220703125
1769668194250437400,0.386437255859375,0.074951171875,0.9005279541015625,0.3226776123046875
1769668194260426200,0.39642626953125,0.097076416015625,0.9054718017578125,0.3361053466796875
1769668194270415400,0.406415283203125,0.113922119140625,0.8932037353515625,0.3507843017578125
1769668194280403500,0.416403564453125,0.1285858154296875,0.8572998046875,0.3553314208984375
1769668194290392300,0.426392333984375,0.154205322265625,0.8249053955078125,0.3445892333984375
1769668194300381400,0.43638134765625,0.173858642578125,0.8136444091796875,0.33648681640625
1769668194310370600,0.44637060546875,0.2198333740234375,0.8187713623046875,0.3436279296875
1769668194320358400,0.4563583984375,0.2662506103515625,0.8294677734375,0.3753204345703125
1769668194330347300,0.46634716796875,0.2836761474609375,0.8334808349609375,0.377410888671875
1769668194340336400,0.47633642578125,0.307647705078125,0.84527587890625,0.3765106201171875
1769668194350325200,0.4863251953125,0.3159942626953125,0.8461456298828125,0.38812255859375
1769668194360313300,0.496313232421875,0.316925048828125,0.841461181640625,0.3821868896484375
1769668194370302500,0.506302490234375,0.3037261962890625,0.8359375,0.3808441162109375
1769668194380291600,0.51629150390625,0.3095550537109375,0.8211669921875,0.390777587890625
1769668194390280200,0.5262802734375,0.308319091796875,0.811767578125,0.3909149169921875
1769668194400268300,0.536268310546875,0.3242645263671875,0.802520751953125,0.3836669921875
1769668194410257400,0.54625732421875,0.345794677734375,0.7830657958984375,0.38885498046875
1769668194420246300,0.556246337890625,0.3983612060546875,0.7751312255859375,0.4052734375
1769668194430234400,0.566234375,0.4075164794921875,0.7756805419921875,0.4367828369140625
1769668194440223500,0.576223388671875,0.3650665283203125,0.82940673828125,0.4726104736328125
1769668194450212400,0.58621240234375,0.3784637451171875,0.82550048828125,0.4603424072265625
1769668194460201200,0.596201171875,0.4094696044921875,0.8304595947265625,0.472564697265625
1769668194470189300,0.606189208984375,0.3962249755859375,0.8603363037109375,0.50885009765625
1769668194480178400,0.616178466796875,0.365509033203125,0.860443115234375,0.5227508544921875
1769668194490167300,0.626167236328125,0.334686279296875,0.873870849609375,0.51654052734375
1769668194500156400,0.636156494140625,0.2922821044921875,0.89453125,0.4896087646484375
1769668194510144300,0.646144287109375,0.3558197021484375,0.85211181640625,0.4827117919921875
1769668194520133400,0.65613330078125,0.2986297607421875,0.8827667236328125,0.5137939453125
1769668194530122200,0.666122314453125,0.272003173828125,0.8905181884765625,0.5031280517578125
1769668194540111400,0.676111328125,0.35736083984375,0.8455657958984375,0.4652557373046875
1769668194550099500,0.686099365234375,0.32379150390625,0.8091278076171875,0.4615325927734375
1769668194560088300,0.69608837890625,0.3000946044921875,0.786285400390625,0.4614105224609375
1769668194570077400,0.706077392578125,0.32513427734375,0.761993408203125,0.4535675048828125
1769668194580066600,0.716066650390625,0.3398284912109375,0.7464752197265625,0.45306396484375
1769668194590054400,0.726054443359375,0.3523101806640625,0.7428741455078125,0.4814300537109375
1769668194600043300,0.736043212890625,0.390228271484375,0.738494873046875,0.54290771484375
1769668194610032400,0.746032470703125,0.475189208984375,0.7036895751953125,0.5497589111328125
1769668194620021200,0.756021240234375,0.57379150390625,0.6956634521484375,0.5821990966796875
1769668194630009000,0.766009033203125,0.563446044921875,0.6767120361328125,0.6372833251953125
1769668194639998200,0.775998291015625,0.497955322265625,0.667266845703125,0.7017364501953125
1769668194649987300,0.7859873046875,0.483612060546875,0.6721038818359375,0.70477294921875
1769668194659975200,0.79597509765625,0.516754150390625,0.6876220703125,0.6622772216796875
1769668194669964300,0.80596435546875,0.5367431640625,0.6854400634765625,0.612457275390625
1769668194679953400,0.815953369140625,0.4731292724609375,0.6703338623046875,0.58209228515625
1769668194689942000,0.82594189453125,0.405059814453125,0.6733551025390625,0.5704345703125
1769668194699930000,0.83593017578125,0.3828582763671875,0.6957550048828125,0.557647705078125
1769668194709919200,0.845919189453125,0.34906005859375,0.72052001953125,0.54290771484375
1769668194719908400,0.855908447265625,0.331268310546875,0.751129150390625,0.5382843017578125
1769668194729897200,0.865897216796875,0.31658935546875,0.7685089111328125,0.5400390625
1769668194739885300,0.87588525390625,0.327362060546875,0.776031494140625,0.5524749755859375
1769668194749874200,0.885874267578125,0.39727783203125,0.766082763671875,0.545318603515625
1769668194759863000,0.895863037109375,0.466400146484375,0.737884521484375,0.5377349853515625
1769668194769852200,0.90585205078125,0.5304718017578125,0.7186737060546875,0.5401611328125
1769668194779840300,0.91584033203125,0.590057373046875,0.7048187255859375,0.5646209716796875
1769668194789829400,0.925829345703125,0.61541748046875,0.66949462890625,0.56646728515625
1769668194799818200,0.935818359375,0.6023406982421875,0.64154052734375,0.55999755859375
1769668194809807400,0.945807373046875,0.5474090576171875,0.65789794921875,0.5548553466796875
1769668194819795200,0.955795166015625,0.491424560546875,0.700775146484375,0.51019287109375
1769668194829784000,0.9657841796875,0.468292236328125,0.7386932373046875,0.4584503173828125
1769668194839773200,0.975773193359375,0.4524993896484375,0.79595947265625,0.42041015625
1769668194849762300,0.98576220703125,0.3617401123046875,0.8583526611328125,0.37353515625
1769668194859750100,0.995750244140625,0.2630462646484375,0.8868255615234375,0.3444671630859375
1769668194869739300,1.0057392578125,0.225555419921875,0.8976287841796875,0.37799072265625
1769668194879728400,1.015728271484375,0.2542572021484375,0.8853912353515625,0.418060302734375
1769668194889716200,1.02571630859375,0.3216552734375,0.8756256103515625,0.454681396484375
1769668194899705000,1.035705078125,0.3937530517578125,0.8706512451171875,0.4836578369140625
1769668194909694200,1.045694091796875,0.3970794677734375,0.884307861328125,0.5341339111328125
1769668194919683300,1.055683349609375,0.4089508056640625,0.8630218505859375,0.5667572021484375
1769668194929671200,1.065671142578125,0.4500732421875,0.824127197265625,0.5751190185546875
1769668194939660300,1.075660400390625,0.436920166015625,0.8050689697265625,0.57501220703125
1769668194949649400,1.0856494140625,0.39752197265625,0.80938720703125,0.577484130859375
1769668194959638000,1.095637939453125,0.3703155517578125,0.8168182373046875,0.5587615966796875
1769668194969626000,1.105626220703125,0.34197998046875,0.82781982421875,0.54583740234375
1769668194979615200,1.115615234375,0.3332977294921875,0.832061767578125,0.5204620361328125
1769668194989604400,1.125604248046875,0.354278564453125,0.838470458984375,0.4984588623046875
1769668194999593200,1.13559326171875,0.369476318359375,0.843017578125,0.4783172607421875
1769668195009581300,1.145581298828125,0.360107421875,0.8546295166015625,0.4559173583984375
1769668195019570200,1.155570068359375,0.33056640625,0.8740997314453125,0.4639434814453125
1769668195029559000,1.16555908203125,0.3277130126953125,0.8845977783203125,0.468353271484375
1769668195039547100,1.175547119140625,0.33123779296875,0.889862060546875,0.458740234375
1769668195049536300,1.185536376953125,0.326751708984375,0.884033203125,0.4463653564453125
1769668195059525400,1.195525390625,0.3115997314453125,0.8732147216796875,0.4597015380859375
1769668195069514200,1.20551416015625,0.3002471923828125,0.8408966064453125,0.4527435302734375
1769668195079502300,1.21550244140625,0.3317413330078125,0.829559326171875,0.449127197265625
1769668195089491200,1.2254912109375,0.3725433349609375,0.8463134765625,0.479248046875
1769668195099480000,1.23547998046875,0.3983001708984375,0.82708740234375,0.451934814453125
1769668195109469200,1.24546923828125,0.397857666015625,0.791900634765625,0.4300537109375
1769668195119457300,1.255457275390625,0.35064697265625,0.76934814453125,0.43212890625
1769668195129446100,1.265446044921875,0.367279052734375,0.7747344970703125,0.4287872314453125
1769668195139435300,1.275435302734375,0.4074249267578125,0.80096435546875,0.4338531494140625
1769668195149424400,1.28542431640625,0.4314422607421875,0.8336944580078125,0.456268310546875
1769668195159412200,1.295412109375,0.4266815185546875,0.8844451904296875,0.4673004150390625
1769668195169401000,1.305401123046875,0.397857666015625,0.849700927734375,0.4567108154296875
1769668195179390200,1.31539013671875,0.3889312744140625,0.8061065673828125,0.433929443359375
1769668195189379300,1.32537939453125,0.3574676513671875,0.760833740234375,0.423858642578125
1769668195199367200,1.3353671875,0.3624420166015625,0.7499542236328125,0.420440673828125
1769668195209356300,1.345356201171875,0.3895263671875,0.75152587890625,0.438995361328125
1769668195219345400,1.355345458984375,0.3946075439453125,0.717315673828125,0.4319915771484375
1769668195229334000,1.365333984375,0.41400146484375,0.709564208984375,0.3972015380859375
1769668195239322000,1.375322021484375,0.4449005126953125,0.753936767578125,0.4024658203125
1769668195249311200,1.385311279296875,0.4689178466796875,0.7659912109375,0.3831787109375
1769668195259300400,1.39530029296875,0.4608001708984375,0.795318603515625,0.3774261474609375
1769668195269289200,1.405289306640625,0.4611053466796875,0.85791015625,0.3977203369140625
1769668195279277300,1.41527734375,0.49005126953125,0.939605712890625,0.3974609375
1769668195289266200,1.42526611328125,0.4546356201171875,0.96514892578125,0.3793487548828125
1769668195299255000,1.435255126953125,0.384002685546875,0.9603118896484375,0.3934326171875
1769668195309243100,1.4452431640625,0.3470001220703125,0.958038330078125,0.423797607421875
1769668195319232300,1.455232177734375,0.3318634033203125,0.925506591796875,0.438262939453125
1769668195329221400,1.465221435546875,0.345550537109375,0.893157958984375,0.451690673828125
1769668195339210200,1.475210205078125,0.383148193359375,0.8929595947265625,0.471343994140625
1769668195349198300,1.4851982421875,0.410430908203125,0.8709869384765625,0.4717559814453125
1769668195359187200,1.495187255859375,0.407073974609375,0.8148040771484375,0.45733642578125
1769668195369176000,1.505176025390625,0.416778564453125,0.7773284912109375,0.4531097412109375
1769668195379165200,1.515165283203125,0.4479522705078125,0.778564453125,0.4182281494140625
1769668195389153300,1.5251533203125,0.4359130859375,0.7531280517578125,0.4276580810546875
1769668195399142100,1.53514208984375,0.42718505859375,0.734832763671875,0.4017181396484375
1769668195409131300,1.54513134765625,0.416168212890625,0.7765350341796875,0.3878631591796875
1769668195419120400,1.555120361328125,0.3789520263671875,0.7905426025390625,0.4007415771484375
1769668195429108200,1.565108154296875,0.35955810546875,0.7839813232421875,0.3819427490234375
1769668195439097000,1.57509716796875,0.3601226806640625,0.7903900146484375,0.3786163330078125
1769668195449086200,1.585086181640625,0.3581695556640625,0.8154296875,0.3875274658203125
1769668195459075300,1.595075439453125,0.3520965576171875,0.82958984375,0.398468017578125
1769668195469063200,1.605063232421875,0.3454132080078125,0.8351287841796875,0.413665771484375
1769668195479052300,1.61505224609375,0.368499755859375,0.8414154052734375,0.4327392578125
1769668195489041400,1.62504150390625,0.406036376953125,0.8293914794921875,0.426116943359375
1769668195499029200,1.635029296875,0.4083251953125,0.8132781982421875,0.417999267578125
1769668195509018000,1.64501806640625,0.387115478515625,0.8087615966796875,0.4394989013671875
1769668195519007200,1.65500732421875,0.3487701416015625,0.824920654296875,0.442230224609375
1769668195528996400,1.664996337890625,0.324066162109375,0.823455810546875,0.444732666015625
1769668195538984200,1.674984130859375,0.362884521484375,0.845794677734375,0.452667236328125
1769668195548973300,1.684973388671875,0.4045562744140625,0.80218505859375,0.43829345703125
1769668195558962400,1.69496240234375,0.431671142578125,0.7552337646484375,0.4345550537109375
1769668195568951000,1.704950927734375,0.47369384765625,0.7908782958984375,0.4072265625
1769668195578939100,1.714939208984375,0.4673309326171875,0.818878173828125,0.4203338623046875
1769668195588928300,1.72492822265625,0.445404052734375,0.8169403076171875,0.427032470703125
1769668195598917000,1.734917236328125,0.4126739501953125,0.8104095458984375,0.422637939453125
1769668195608905700,1.74490576171875,0.3915557861328125,0.7978515625,0.421234130859375
1769668195618893600,1.7548935546875,0.36572265625,0.7974395751953125,0.415130615234375
1769668195628882700,1.764882568359375,0.337799072265625,0.82147216796875,0.411651611328125
1769668195638871600,1.77487158203125,0.3271331787109375,0.83740234375,0.4246063232421875
1769668195648860700,1.784860595703125,0.3354034423828125,0.8365020751953125,0.4430084228515625
1769668195658848800,1.794848876953125,0.350067138671875,0.8251800537109375,0.45831298828125
1769668195668838000,1.804837890625,0.3828887939453125,0.81341552734375,0.4461822509765625
1769668195678826500,1.814826416015625,0.3649139404296875,0.7909698486328125,0.428497314453125
1769668195688815600,1.824815673828125,0.349517822265625,0.81231689453125,0.416717529296875
1769668195698803700,1.8348037109375,0.356658935546875,0.8304595947265625,0.4100341796875
1769668195708792600,1.84479248046875,0.367401123046875,0.8292694091796875,0.422393798828125
1769668195718781700,1.85478173828125,0.3672943115234375,0.8211212158203125,0.4352264404296875
1769668195728769800,1.864769775390625,0.35369873046875,0.8127899169921875,0.4385223388671875
1769668195738759000,1.874759033203125,0.3447113037109375,0.8190155029296875,0.434295654296875
1769668195748747500,1.88474755859375,0.323394775390625,0.8303985595703125,0.434906005859375
1769668195758736600,1.894736572265625,0.3154754638671875,0.841156005859375,0.4221343994140625
1769668195768724700,1.904724853515625,0.321502685546875,0.82928466796875,0.4179229736328125
1769668195778713600,1.914713623046875,0.3378143310546875,0.8343048095703125,0.432098388671875
1769668195788702700,1.92470263671875,0.348602294921875,0.8200836181640625,0.4361419677734375
1769668195798691800,1.93469189453125,0.34466552734375,0.810760498046875,0.4419097900390625
1769668195808679700,1.9446796875,0.3231353759765625,0.815643310546875,0.432952880859375
1769668195818668500,1.95466845703125,0.3056488037109375,0.834320068359375,0.424102783203125
1769668195828657700,1.96465771484375,0.2934417724609375,0.8384246826171875,0.436614990234375
1769668195838646500,1.974646484375,0.3115081787109375,0.823883056640625,0.4406585693359375
1769668195848634600,1.984634521484375,0.3292999267578125,0.823577880859375,0.438995361328125
1769668195858623700,1.994623779296875,0.336669921875,0.818115234375,0.439544677734375
1769668195868612900,2.00461279296875,0.33233642578125,0.8181610107421875,0.4303741455078125
1769668195878601700,2.014601806640625,0.3133697509765625,0.8417205810546875,0.432464599609375
1769668195888589600,2.024589599609375,0.3001556396484375,0.835113525390625,0.435089111328125
1769668195898578700,2.03457861328125,0.3089752197265625,0.8313140869140625,0.4329071044921875
1769668195908567600,2.044567626953125,0.3108673095703125,0.824951171875,0.443756103515625
1769668195918556700,2.054556640625,0.3263092041015625,0.82757568359375,0.4442138671875
1769668195928544800,2.064544677734375,0.329345703125,0.82733154296875,0.4474029541015625
1769668195938534000,2.074533935546875,0.3447113037109375,0.8297271728515625,0.4500579833984375
1769668195948522500,2.0845224609375,0.365814208984375,0.8199310302734375,0.4352569580078125
1769668195958510600,2.094510498046875,0.343658447265625,0.79541015625,0.42962646484375
1769668195968499700,2.104499755859375,0.33563232421875,0.8086090087890625,0.4463348388671875
1769668195978488600,2.114488525390625,0.3438568115234375,0.8267364501953125,0.4430084228515625
1769668195988477700,2.124477783203125,0.333038330078125,0.8365631103515625,0.44512939453125
1769668195998465800,2.1344658203125,0.3246612548828125,0.8431243896484375,0.43389892578125
1769668196008455000,2.144454833984375,0.3184661865234375,0.8488311767578125,0.4240570068359375
1769668196018443500,2.154443603515625,0.3114471435546875,0.8513031005859375,0.418853759765625
1769668196028432600,2.1644326171875,0.3131256103515625,0.838775634765625,0.40826416015625
1769668196038420700,2.174420654296875,0.3153839111328125,0.8387298583984375,0.4013671875
1769668196048409600,2.18440966796875,0.310943603515625,0.841217041015625,0.4013519287109375
1769668196058398700,2.194398681640625,0.3179931640625,0.84405517578125,0.396697998046875
1769668196068387800,2.204387939453125,0.3081817626953125,0.84796142578125,0.3999481201171875
1769668196078375700,2.214375732421875,0.3054046630859375,0.84796142578125,0.3963623046875
1769668196088364500,2.224364501953125,0.3063812255859375,0.8557281494140625,0.3893585205078125
1769668196098353700,2.234353759765625,0.301605224609375,0.8541717529296875,0.38629150390625
1769668196108342500,2.244342529296875,0.3023834228515625,0.8625640869140625,0.38433837890625
1769668196118330600,2.25433056640625,0.31182861328125,0.863433837890625,0.382598876953125
1769668196128319700,2.26431982421875,0.32891845703125,0.860870361328125,0.37738037109375
1769668196138308900,2.274308837890625,0.3342437744140625,0.85064697265625,0.3759307861328125
1769668196148297700,2.284297607421875,0.3404388427734375,0.853759765625,0.374786376953125
1769668196158285600,2.29428564453125,0.33709716796875,0.8647613525390625,0.3831024169921875
1769668196168274700,2.304274658203125,0.326019287109375,0.8610992431640625,0.3876190185546875
1769668196178263600,2.314263671875,0.325164794921875,0.8595123291015625,0.3831329345703125
1769668196188251600,2.324251708984375,0.3217315673828125,0.8561248779296875,0.3848724365234375
1769668196198240800,2.33424072265625,0.32415771484375,0.8530426025390625,0.38812255859375
1769668196208230000,2.34422998046875,0.32647705078125,0.851104736328125,0.38482666015625
1769668196218218800,2.35421875,0.326568603515625,0.8657684326171875,0.3912200927734375
1769668196228206600,2.36420654296875,0.3285064697265625,0.8777313232421875,0.3892059326171875
1769668196238195700,2.37419580078125,0.3276214599609375,0.8812713623046875,0.3838653564453125
1769668196248184600,2.3841845703125,0.333831787109375,0.881011962890625,0.384918212890625
1769668196258173700,2.394173583984375,0.3367156982421875,0.8764801025390625,0.3835601806640625
1769668196268161800,2.404161865234375,0.3415985107421875,0.8778228759765625,0.3795928955078125
1769668196278151000,2.41415087890625,0.3391571044921875,0.8862457275390625,0.37579345703125
1769668196288139500,2.424139404296875,0.3286590576171875,0.8834686279296875,0.371917724609375
1769668196298128600,2.434128662109375,0.31683349609375,0.878082275390625,0.37030029296875
1769668196308116700,2.44411669921875,0.3119049072265625,0.8784637451171875,0.374542236328125
1769668196318105600,2.454105712890625,0.3172607421875,0.8797760009765625,0.375640869140625
1769668196328094700,2.4640947265625,0.323486328125,0.8766937255859375,0.36639404296875
1769668196338083800,2.474083740234375,0.3264007568359375,0.884063720703125,0.3595428466796875
1769668196348071700,2.48407177734375,0.3227081298828125,0.890289306640625,0.3526458740234375
1769668196358060500,2.494060546875,0.3226776123046875,0.8929290771484375,0.3510894775390625
1769668196368049700,2.504049560546875,0.3218841552734375,0.8969573974609375,0.3548431396484375
1769668196378037800,2.514037841796875,0.3161163330078125,0.89532470703125,0.348846435546875
1769668196388026600,2.524026611328125,0.297821044921875,0.892852783203125,0.3431396484375
1769668196398015700,2.534015625,0.3047332763671875,0.9150848388671875,0.3473663330078125
1769668196408004900,2.5440048828125,0.3106689453125,0.9058990478515625,0.343719482421875
1769668196417992700,2.55399267578125,0.2995758056640625,0.8961639404296875,0.347137451171875
1769668196427981600,2.563981689453125,0.2921142578125,0.8904571533203125,0.3483734130859375
1769668196437970700,2.573970703125,0.2959442138671875,0.8805389404296875,0.3520050048828125
1769668196447959600,2.58395947265625,0.3029327392578125,0.889434814453125,0.363739013671875
1769668196457947600,2.59394775390625,0.2919464111328125,0.88330078125,0.368194580078125
1769668196467936800,2.603936767578125,0.29339599609375,0.86834716796875,0.3756103515625
1769668196477926000,2.61392578125,0.3113250732421875,0.8614654541015625,0.385467529296875
1769668196487914800,2.623914794921875,0.3287353515625,0.852081298828125,0.386932373046875
1769668196497902600,2.633902587890625,0.3340606689453125,0.8467864990234375,0.3874359130859375
1769668196507891700,2.6438916015625,0.3295440673828125,0.8541107177734375,0.3958587646484375
1769668196517880600,2.653880615234375,0.3252105712890625,0.8507232666015625,0.387603759765625
1769668196527869700,2.66386962890625,0.32073974609375,0.8541412353515625,0.388916015625
1769668196537857800,2.67385791015625,0.3246917724609375,0.856658935546875,0.3885345458984375
1769668196547847000,2.683846923828125,0.3148345947265625,0.857757568359375,0.3885955810546875
1769668196557835500,2.69383544921875,0.3018341064453125,0.8619232177734375,0.385284423828125
1769668196567824600,2.70382470703125,0.3094482421875,0.8591766357421875,0.384857177734375
1769668196577812700,2.713812744140625,0.31951904296875,0.8613739013671875,0.3869171142578125
1769668196587801600,2.723801513671875,0.3145599365234375,0.862701416015625,0.3805694580078125
1769668196597790700,2.733790771484375,0.306243896484375,0.8662261962890625,0.3759613037109375
1769668196607780000,2.743780029296875,0.3057403564453125,0.8654632568359375,0.379669189453125
1769668196617768200,2.753768310546875,0.3106842041015625,0.8663330078125,0.376617431640625
1769668196627757300,2.76375732421875,0.30853271484375,0.8624267578125,0.37359619140625
1769668196637746400,2.773746337890625,0.3037261962890625,0.8621063232421875,0.377410888671875
1769668196647734500,2.783734619140625,0.297882080078125,0.8589935302734375,0.38189697265625
1769668196657723400,2.793723388671875,0.297454833984375,0.854736328125,0.38116455078125
1769668196667712300,2.803712158203125,0.294281005859375,0.8543853759765625,0.3776092529296875
1769668196677701000,2.813701171875,0.2908172607421875,0.8532562255859375,0.3780059814453125
1769668196687689200,2.823689208984375,0.2894287109375,0.84027099609375,0.374359130859375
1769668196697678300,2.83367822265625,0.2975006103515625,0.85406494140625,0.3666839599609375
1769668196707667500,2.84366748046875,0.321685791015625,0.8687744140625,0.371002197265625
1769668196717656300,2.85365625,0.33099365234375,0.87286376953125,0.3727569580078125
1769668196727644200,2.86364404296875,0.33001708984375,0.8787078857421875,0.3753814697265625
1769668196737633300,2.87363330078125,0.33551025390625,0.880828857421875,0.368896484375
1769668196747622100,2.8836220703125,0.32867431640625,0.8896026611328125,0.3654937744140625
1769668196757611300,2.893611328125,0.32061767578125,0.8885345458984375,0.358642578125
1769668196767599400,2.903599365234375,0.3102874755859375,0.89013671875,0.353271484375
1769668196777588500,2.91358837890625,0.2968597412109375,0.8969573974609375,0.3503875732421875
1769668196787577300,2.923577392578125,0.2790679931640625,0.9014129638671875,0.354217529296875
1769668196797566500,2.93356640625,0.2737579345703125,0.8983154296875,0.356689453125
1769668196807554300,2.94355419921875,0.2789459228515625,0.8994598388671875,0.3524627685546875
1769668196817543200,2.953543212890625,0.2960205078125,0.8946990966796875,0.3516998291015625
1769668196827532300,2.9635322265625,0.3242950439453125,0.880828857421875,0.356658935546875
1769668196837521400,2.973521484375,0.3307647705078125,0.8862762451171875,0.3594970703125
1769668196847509500,2.983509521484375,0.3231048583984375,0.8827362060546875,0.3608856201171875
1769668196857498400,2.993498291015625,0.315887451171875,0.8782501220703125,0.3640899658203125
1769668196867487200,3.0034873046875,0.2950439453125,0.87677001953125,0.365692138671875
1769668196877476000,3.01347607421875,0.2943572998046875,0.8691253662109375,0.364410400390625
1769668196887464200,3.023464111328125,0.313262939453125,0.8698272705078125,0.3616790771484375
1769668196897453300,3.033453369140625,0.3252105712890625,0.8751983642578125,0.3615570068359375
1769668196907442400,3.0434423828125,0.3277740478515625,0.8826141357421875,0.357635498046875
1769668196917430500,3.053430419921875,0.319488525390625,0.8871917724609375,0.3564910888671875
1769668196927419400,3.06341943359375,0.309844970703125,0.8912353515625,0.35699462890625
1769668196937408300,3.073408203125,0.3058929443359375,0.888397216796875,0.356475830078125
1769668196947397000,3.083397216796875,0.31201171875,0.8834381103515625,0.3547515869140625
1769668196957385200,3.09338525390625,0.3190155029296875,0.8787689208984375,0.3549652099609375
1769668196967374300,3.103374267578125,0.3181304931640625,0.8777618408203125,0.3542938232421875
1769668196977363500,3.113363525390625,0.308197021484375,0.878631591796875,0.361907958984375
1769668196987352300,3.123352294921875,0.3038787841796875,0.876495361328125,0.3732757568359375
1769668196997340200,3.133340087890625,0.3135223388671875,0.863616943359375,0.3772735595703125
1769668197007329300,3.143329345703125,0.3260498046875,0.8557586669921875,0.3805999755859375
1769668197017318100,3.153318115234375,0.334747314453125,0.8551788330078125,0.3819427490234375
1769668197027307300,3.163307373046875,0.330657958984375,0.867340087890625,0.3761749267578125
1769668197037295400,3.17329541015625,0.304779052734375,0.875579833984375,0.367156982421875
1769668197047284500,3.183284423828125,0.2862548828125,0.8760833740234375,0.365020751953125
1769668197057273300,3.1932734375,0.2889251708984375,0.872955322265625,0.3677520751953125
1769668197067262500,3.203262451171875,0.3087005615234375,0.87005615234375,0.370941162109375
1769668197077250300,3.213250244140625,0.3258209228515625,0.8699493408203125,0.3754730224609375
1769668197087239200,3.2232392578125,0.32232666015625,0.8661956787109375,0.37628173828125
1769668197097228300,3.233228271484375,0.30889892578125,0.87042236328125,0.3726348876953125
1769668197107217400,3.243217529296875,0.3027191162109375,0.8738861083984375,0.36785888671875
1769668197117205500,3.25320556640625,0.298553466796875,0.87518310546875,0.36785888671875
1769668197127194400,3.2631943359375,0.29705810546875,0.8766021728515625,0.36663818359375
1769668197137183500,3.27318359375,0.2930145263671875,0.8788604736328125,0.3666839599609375
1769668197147172000,3.283172119140625,0.294708251953125,0.8801116943359375,0.3656005859375
1769668197157160200,3.29316015625,0.299835205078125,0.8768768310546875,0.3727569580078125
1769668197167149300,3.3031494140625,0.2982330322265625,0.8709564208984375,0.376190185546875
1769668197177138400,3.313138427734375,0.2922515869140625,0.869598388671875,0.3761749267578125
1769668197187127300,3.323127197265625,0.285919189453125,0.872039794921875,0.3701324462890625
1769668197197115400,3.333115478515625,0.28076171875,0.8751983642578125,0.3696441650390625
1769668197207104300,3.343104248046875,0.28887939453125,0.8781280517578125,0.37274169921875
1769668197217093000,3.353093017578125,0.3014984130859375,0.879638671875,0.3764190673828125
1769668197227082200,3.363082275390625,0.3049163818359375,0.8775177001953125,0.377960205078125
1769668197237070300,3.3730703125,0.297821044921875,0.875335693359375,0.3798370361328125
1769668197247059500,3.3830595703125,0.2912750244140625,0.874176025390625,0.3777008056640625
1769668197257048300,3.39304833984375,0.2899932861328125,0.872528076171875,0.377227783203125
1769668197267036200,3.4030361328125,0.2940216064453125,0.867828369140625,0.37518310546875
1769668197277025300,3.413025390625,0.2935943603515625,0.8672332763671875,0.3860931396484375
1769668197287014100,3.42301416015625,0.2980194091796875,0.8658599853515625,0.385589599609375
1769668197297003300,3.433003173828125,0.3000030517578125,0.867462158203125,0.38006591796875
1769668197306991400,3.442991455078125,0.29583740234375,0.8702392578125,0.380279541015625
1769668197316980500,3.45298046875,0.2932586669921875,0.871368408203125,0.3798980712890625
1769668197326969300,3.46296923828125,0.2966156005859375,0.8748016357421875,0.3795013427734375
1769668197336958500,3.47295849609375,0.2967376708984375,0.87493896484375,0.3779296875
1769668197346946300,3.4829462890625,0.29827880859375,0.8740997314453125,0.3786163330078125
1769668197356935200,3.49293505859375,0.29608154296875,0.87640380859375,0.3831939697265625
1769668197366924300,3.50292431640625,0.291290283203125,0.87652587890625,0.3799896240234375
1769668197376913400,3.512913330078125,0.2860870361328125,0.8755035400390625,0.376434326171875
1769668197386901500,3.522901611328125,0.2872467041015625,0.8774261474609375,0.37933349609375
1769668197396890400,3.532890380859375,0.2879486083984375,0.87542724609375,0.379730224609375
1769668197406879500,3.54287939453125,0.2883758544921875,0.873779296875,0.3782806396484375
1769668197416868000,3.5528681640625,0.288787841796875,0.87420654296875,0.3783721923828125
1769668197426856200,3.562856201171875,0.287567138671875,0.8727874755859375,0.38092041015625
1769668197436845300,3.57284521484375,0.28204345703125,0.8727264404296875,0.37847900390625
1769668197446834400,3.58283447265625,0.2840728759765625,0.875518798828125,0.3788909912109375
1769668197456823300,3.5928232421875,0.2870941162109375,0.87310791015625,0.38031005859375
1769668197466811400,3.602811279296875,0.2915802001953125,0.8720855712890625,0.38128662109375
1769668197476800300,3.61280029296875,0.2915496826171875,0.8713836669921875,0.382080078125
1769668197486789000,3.6227890625,0.2902984619140625,0.8707275390625,0.381561279296875
1769668197496778200,3.6327783203125,0.2955780029296875,0.872772216796875,0.3807830810546875
1769668197506766300,3.642766357421875,0.302276611328125,0.873321533203125,0.379638671875
1769668197516755500,3.65275537109375,0.302734375,0.8732147216796875,0.38128662109375
1769668197526744300,3.662744384765625,0.2961273193359375,0.8725433349609375,0.3834228515625
1769668197536733400,3.6727333984375,0.2881317138671875,0.8743133544921875,0.380340576171875
1769668197546721300,3.68272119140625,0.2863616943359375,0.8760223388671875,0.3787841796875
1769668197556710100,3.692710205078125,0.2881011962890625,0.8753662109375,0.3794403076171875
1769668197566699300,3.70269921875,0.2965850830078125,0.8708953857421875,0.3804931640625
1769668197576688400,3.7126884765625,0.297088623046875,0.8715667724609375,0.3843994140625
1769668197586676500,3.722676513671875,0.2929229736328125,0.8714752197265625,0.383148193359375
1769668197596665300,3.732665283203125,0.2911224365234375,0.87225341796875,0.380645751953125
1769668197606654500,3.742654541015625,0.290191650390625,0.8724212646484375,0.3780059814453125
1769668197616642000,3.75264208984375,0.2877349853515625,0.8741912841796875,0.379608154296875
1769668197626631000,3.762630859375,0.2870941162109375,0.8723297119140625,0.3823089599609375
1769668197636620000,3.7726201171875,0.2917022705078125,0.8698883056640625,0.3834381103515625
1769668197646609200,3.782609130859375,0.2938079833984375,0.8667144775390625,0.3880157470703125
1769668197656597200,3.79259716796875,0.2884063720703125,0.865570068359375,0.385833740234375
1769668197666586000,3.802586181640625,0.2869873046875,0.870147705078125,0.38104248046875
1769668197676575000,3.812574951171875,0.2894744873046875,0.8745269775390625,0.3841094970703125
1769668197686564000,3.822564208984375,0.289031982421875,0.87689208984375,0.3808135986328125
1769668197696552000,3.832552001953125,0.2873077392578125,0.8798828125,0.3798370361328125
1769668197706541000,3.842541015625,0.3010406494140625,0.87652587890625,0.382720947265625
1769668197716530200,3.8525302734375,0.3054351806640625,0.8723907470703125,0.3873138427734375
1769668197726519000,3.86251904296875,0.2989501953125,0.8685302734375,0.387603759765625
1769668197736507100,3.872507080078125,0.2919464111328125,0.8678741455078125,0.3858642578125
1769668197746496000,3.88249609375,0.2850341796875,0.8696441650390625,0.383636474609375
1769668197756484900,3.89248486328125,0.2793426513671875,0.8724517822265625,0.383148193359375
1769668197766474000,3.902473876953125,0.2801055908203125,0.8712005615234375,0.3839111328125
1769668197776462000,3.912462158203125,0.2858123779296875,0.872772216796875,0.38018798828125
1769668197786451200,3.922451171875,0.2910003662109375,0.874786376953125,0.382843017578125
1769668197796440000,3.932440185546875,0.295440673828125,0.873809814453125,0.3847808837890625
1769668197806429200,3.94242919921875,0.29290771484375,0.8740692138671875,0.38104248046875
1769668197816417000,3.9524169921875,0.287872314453125,0.8743896484375,0.3805694580078125
1769668197826406000,3.962406005859375,0.28515625,0.8747100830078125,0.381744384765625
1769668197836395000,3.97239501953125,0.2873687744140625,0.8730621337890625,0.3825531005859375
1769668197846384000,3.982384033203125,0.2905731201171875,0.87249755859375,0.383331298828125
1769668197856372200,3.992372314453125,0.2928009033203125,0.87152099609375,0.3835601806640625
1769668197866361000,4.002361083984375,0.29144287109375,0.8733367919921875,0.3821258544921875
1769668197876350200,4.01235009765625,0.288665771484375,0.8730926513671875,0.38250732421875
1769668197886339000,4.022339111328125,0.28759765625,0.8730316162109375,0.3826751708984375
1769668197896327000,4.032326904296875,0.290985107421875,0.873138427734375,0.3843994140625
1769668197906316000,4.04231591796875,0.2888946533203125,0.8725433349609375,0.3838348388671875
1769668197916305200,4.05230517578125,0.284393310546875,0.8714599609375,0.384246826171875
1769668197926294000,4.0622939453125,0.284820556640625,0.870361328125,0.3829803466796875
1769668197936282000,4.0722822265625,0.2928314208984375,0.8735504150390625,0.383819580078125
1769668197946271000,4.08227099609375,0.2969818115234375,0.8714752197265625,0.385833740234375
1769668197956259800,4.092259765625,0.2985687255859375,0.8701934814453125,0.3845977783203125
1769668197966249000,4.1022490234375,0.2986297607421875,0.870330810546875,0.3848876953125
1769668197976237000,4.112237060546875,0.2946929931640625,0.8707733154296875,0.383148193359375
1769668197986226200,4.12222607421875,0.2857818603515625,0.871917724609375,0.3811798095703125
1769668197996215000,4.132215087890625,0.2825164794921875,0.8719482421875,0.380645751953125
1769668198006204200,4.1422041015625,0.2862548828125,0.869659423828125,0.3828582763671875
1769668198016192000,4.15219189453125,0.288787841796875,0.8708953857421875,0.381744384765625
1769668198026180900,4.162180908203125,0.2958526611328125,0.875457763671875,0.3818817138671875
1769668198036170000,4.172169921875,0.2941131591796875,0.874725341796875,0.384246826171875
1769668198046159000,4.1821591796875,0.287750244140625,0.876739501953125,0.38262939453125
1769668198056147200,4.192147216796875,0.285614013671875,0.875274658203125,0.38031005859375
1769668198066136000,4.202135986328125,0.2857818603515625,0.87371826171875,0.381072998046875
1769668198076125200,4.212125244140625,0.2851715087890625,0.8754730224609375,0.381103515625
1769668198086114000,4.222114013671875,0.290435791015625,0.8761749267578125,0.382568359375
1769668198096102000,4.232101806640625,0.2924652099609375,0.875274658203125,0.3827362060546875
1769668198106091000,4.242091064453125,0.2928009033203125,0.8759002685546875,0.381072998046875
1769668198116080000,4.252080078125,0.294219970703125,0.8769989013671875,0.3811187744140625
1769668198126068200,4.262068115234375,0.2910614013671875,0.8731536865234375,0.381927490234375
1769668198136057000,4.27205712890625,0.289337158203125,0.8734283447265625,0.3803558349609375
1769668198146046200,4.282046142578125,0.2873077392578125,0.8740997314453125,0.37945556640625
1769668198156035000,4.29203515625,0.2877960205078125,0.872528076171875,0.3822479248046875
1769668198166023000,4.30202294921875,0.2928314208984375,0.8749847412109375,0.382293701171875
1769668198176012000,4.312011962890625,0.298309326171875,0.8744049072265625,0.381256103515625
1769668198186001200,4.322001220703125,0.3006591796875,0.8726043701171875,0.3837127685546875
1769668198195990000,4.331989990234375,0.29486083984375,0.8728179931640625,0.3848114013671875
1769668198205978000,4.34197802734375,0.286712646484375,0.873016357421875,0.382110595703125
1769668198215967200,4.35196728515625,0.28228759765625,0.8717041015625,0.3833770751953125
1769668198225955800,4.361955810546875,0.28765869140625,0.869598388671875,0.38092041015625
1769668198235945000,4.371945068359375,0.293548583984375,0.8733673095703125,0.3805084228515625
1769668198245933000,4.38193310546875,0.296783447265625,0.871124267578125,0.38873291015625
1769668198255922200,4.391922119140625,0.2980194091796875,0.87200927734375,0.386383056640625
1769668198265911000,4.4019111328125,0.29205322265625,0.8720550537109375,0.3838653564453125
1769668198275900200,4.411900146484375,0.283599853515625,0.871856689453125,0.38409423828125
1769668198285888000,4.421887939453125,0.2850341796875,0.87335205078125,0.381256103515625
1769668198295876900,4.431876953125,0.2904815673828125,0.8749847412109375,0.3780670166015625
1769668198305866000,4.441865966796875,0.2952880859375,0.87823486328125,0.3784332275390625
1769668198315855000,4.451855224609375,0.2924957275390625,0.878570556640625,0.380035400390625
1769668198325843200,4.46184326171875,0.293365478515625,0.8747711181640625,0.3805389404296875
1769668198335832000,4.47183203125,0.293609619140625,0.872344970703125,0.3832244873046875
1769668198345821200,4.4818212890625,0.2931060791015625,0.871917724609375,0.38134765625
1769668198355810000,4.49181005859375,0.2931060791015625,0.87493896484375,0.380035400390625
1769668198365798000,4.5017978515625,0.28533935546875,0.878326416015625,0.381256103515625
1769668198375787000,4.511787109375,0.277801513671875,0.880889892578125,0.378997802734375
1769668198385776000,4.521776123046875,0.2758941650390625,0.8824005126953125,0.3763580322265625
1769668198395765000,4.531764892578125,0.280426025390625,0.8795013427734375,0.3762054443359375
1769668198405753000,4.541753173828125,0.289581298828125,0.8716278076171875,0.384033203125
1769668198415742200,4.5517421875,0.294677734375,0.86822509765625,0.3874664306640625
1769668198425730800,4.561730712890625,0.2955169677734375,0.8695220947265625,0.386932373046875
1769668198435720000,4.571719970703125,0.290618896484375,0.8708343505859375,0.38653564453125
1769668198445708000,4.5817080078125,0.287567138671875,0.8706207275390625,0.38616943359375
1769668198455697200,4.591697265625,0.2878570556640625,0.8726654052734375,0.382354736328125
1769668198465686000,4.60168603515625,0.2915496826171875,0.87518310546875,0.3803863525390625
1769668198475675100,4.611675048828125,0.297027587890625,0.87542724609375,0.38232421875
1769668198485663200,4.621663330078125,0.2975921630859375,0.8738555908203125,0.3823394775390625
1769668198495651800,4.63165185546875,0.29840087890625,0.8721466064453125,0.3856353759765625
1769668198505641000,4.641640869140625,0.2941741943359375,0.872711181640625,0.38201904296875
1769668198515630000,4.651630126953125,0.291015625,0.8753204345703125,0.379150390625
1769668198525618200,4.6616181640625,0.2946929931640625,0.8736724853515625,0.380615234375
1769668198535607000,4.67160693359375,0.2975921630859375,0.8707122802734375,0.384765625
1769668198545596200,4.68159619140625,0.294891357421875,0.8723602294921875,0.38702392578125
1769668198555585000,4.6915849609375,0.286285400390625,0.8724517822265625,0.3850250244140625
1769668198565572900,4.70157275390625,0.284942626953125,0.87261962890625,0.382720947265625
1769668198575562000,4.71156201171875,0.291656494140625,0.8716888427734375,0.3836669921875
1769668198585551000,4.721551025390625,0.300018310546875,0.8734893798828125,0.3824310302734375
1769668198595540000,4.7315400390625,0.2997283935546875,0.8749847412109375,0.3831634521484375
1769668198605528000,4.741528076171875,0.2911529541015625,0.87542724609375,0.383026123046875
1769668198615517400,4.751517333984375,0.28729248046875,0.87689208984375,0.38372802734375
1769668198625506300,4.76150634765625,0.2835235595703125,0.872467041015625,0.3824310302734375
1769668198635495400,4.771495361328125,0.2855682373046875,0.8721466064453125,0.3856353759765625
1769668198645483300,4.781483154296875,0.2926788330078125,0.8719635009765625,0.3874359130859375
1769668198655472400,4.791472412109375,0.2907562255859375,0.8734893798828125,0.3876190185546875
1769668198665461200,4.801461181640625,0.2882537841796875,0.874603271484375,0.3863677978515625
1769668198675450400,4.811450439453125,0.288238525390625,0.875213623046875,0.3839263916015625
1769668198685438500,4.8214384765625,0.2845306396484375,0.876190185546875,0.380462646484375
1769668198695427300,4.83142724609375,0.28741455078125,0.874847412109375,0.385101318359375
1769668198705416400,4.84141650390625,0.29248046875,0.8733673095703125,0.3913421630859375
1769668198715404300,4.851404296875,0.2889862060546875,0.869384765625,0.3888702392578125
1769668198725393400,4.861393310546875,0.2793121337890625,0.871337890625,0.3856658935546875
1769668198735382300,4.87138232421875,0.278564453125,0.8730621337890625,0.38287353515625
1769668198745371400,4.881371337890625,0.281158447265625,0.872650146484375,0.3836822509765625
1769668198755360300,4.8913603515625,0.2823333740234375,0.8751220703125,0.3854522705078125
1769668198765348400,4.901348388671875,0.28741455078125,0.8742828369140625,0.3888397216796875
1769668198775337500,4.91133740234375,0.290496826171875,0.8711090087890625,0.38739013671875
1769668198785326300,4.921326416015625,0.2902679443359375,0.8695068359375,0.387481689453125
1769668198795315200,4.931315185546875,0.2902984619140625,0.8724517822265625,0.3890228271484375
1769668198805303300,4.94130322265625,0.283477783203125,0.8717041015625,0.3880157470703125
1769668198815292400,4.95129248046875,0.2782440185546875,0.8702545166015625,0.3875885009765625
1769668198825281300,4.96128125,0.275634765625,0.8707275390625,0.390594482421875
1769668198835270400,4.9712705078125,0.2829437255859375,0.8695831298828125,0.387542724609375
1769668198845258200,4.98125830078125,0.2864532470703125,0.8713836669921875,0.3908538818359375
1769668198855247400,4.991247314453125,0.2869415283203125,0.8682098388671875,0.393280029296875
1769668198865236200,5.001236328125,0.282562255859375,0.87176513671875,0.3917999267578125
1769668198875224300,5.011224365234375,0.2765960693359375,0.87518310546875,0.38916015625
1769668198885213400,5.02121337890625,0.268798828125,0.873199462890625,0.3870086669921875
1769668198895202300,5.031202392578125,0.2635650634765625,0.873748779296875,0.3829193115234375
1769668198905191400,5.04119140625,0.272308349609375,0.8824005126953125,0.3863525390625
1769668198915180500,5.0511806640625,0.2805938720703125,0.8789825439453125,0.3887176513671875
1769668198925168400,5.06116845703125,0.27447509765625,0.875,0.3892364501953125
1769668198935157200,5.0711572265625,0.2755126953125,0.8711700439453125,0.38873291015625
1769668198945146400,5.081146484375,0.2831573486328125,0.8717803955078125,0.3926544189453125
1769668198955135200,5.09113525390625,0.2831878662109375,0.8710784912109375,0.3946990966796875
1769668198965123300,5.101123291015625,0.2816925048828125,0.8711700439453125,0.39190673828125
1769668198975112400,5.111112548828125,0.2855072021484375,0.87042236328125,0.3915863037109375
1769668198985101600,5.1211015625,0.2848052978515625,0.8733673095703125,0.3926544189453125
1769668198995090200,5.131090087890625,0.2812042236328125,0.87091064453125,0.3944549560546875
1769668199005078300,5.141078369140625,0.2814788818359375,0.871734619140625,0.3934783935546875
1769668199015067400,5.1510673828125,0.2898712158203125,0.8740692138671875,0.3928375244140625
1769668199025056300,5.16105615234375,0.2924957275390625,0.8699188232421875,0.3903961181640625
1769668199035044400,5.17104443359375,0.2787322998046875,0.87420654296875,0.3834228515625
1769668199045033500,5.181033447265625,0.264007568359375,0.881988525390625,0.380126953125
1769668199055022300,5.191022216796875,0.2564697265625,0.88031005859375,0.380126953125
1769668199065011200,5.20101123046875,0.2570343017578125,0.881378173828125,0.382537841796875
1769668199074999300,5.210999267578125,0.263824462890625,0.876068115234375,0.3903045654296875
1769668199084988400,5.220988525390625,0.262451171875,0.873138427734375,0.3907012939453125
1769668199094977300,5.230977294921875,0.2536163330078125,0.876220703125,0.389434814453125
1769668199104966400,5.24096630859375,0.2660675048828125,0.8720550537109375,0.3928985595703125
1769668199114955500,5.25095556640625,0.294219970703125,0.8601837158203125,0.40020751953125
1769668199124943400,5.260943359375,0.3155517578125,0.8577728271484375,0.408905029296875
1769668199134932200,5.27093212890625,0.3180084228515625,0.856109619140625,0.405426025390625
1769668199144921300,5.28092138671875,0.291534423828125,0.874847412109375,0.397308349609375
1769668199154910200,5.29091015625,0.2533721923828125,0.8915252685546875,0.392242431640625
1769668199164898300,5.300898193359375,0.2132415771484375,0.890777587890625,0.3715972900390625
1769668199174887400,5.310887451171875,0.186279296875,0.8882904052734375,0.3729400634765625
1769668199184876500,5.32087646484375,0.23699951171875,0.87664794921875,0.3814697265625
1769668199194864400,5.330864501953125,0.2974700927734375,0.8692779541015625,0.3966064453125
1769668199204853200,5.340853271484375,0.311004638671875,0.862701416015625,0.407196044921875
1769668199214842400,5.35084228515625,0.32489013671875,0.8525390625,0.4106597900390625
1769668199224831200,5.360831298828125,0.3343353271484375,0.8517608642578125,0.4099884033203125
1769668199234820400,5.3708203125,0.30810546875,0.86334228515625,0.4045867919921875
1769668199244808400,5.380808349609375,0.279083251953125,0.870849609375,0.391845703125
1769668199254797600,5.390797607421875,0.2562713623046875,0.876739501953125,0.3839111328125
1769668199264786200,5.4007861328125,0.2579193115234375,0.8772430419921875,0.3819427490234375
1769668199274775300,5.410775390625,0.2742919921875,0.8726348876953125,0.38543701171875
1769668199284763400,5.420763427734375,0.284210205078125,0.8751983642578125,0.386474609375
1769668199294752300,5.430752197265625,0.2818603515625,0.8811187744140625,0.384613037109375
1769668199304741400,5.440741455078125,0.2834930419921875,0.8818817138671875,0.3808441162109375
1769668199314730500,5.45073046875,0.284820556640625,0.8793792724609375,0.383392333984375
1769668199324718300,5.46071826171875,0.2879638671875,0.879608154296875,0.387939453125
1769668199334707200,5.470707275390625,0.2966766357421875,0.874176025390625,0.3922119140625
1769668199344696300,5.4806962890625,0.298309326171875,0.8722991943359375,0.397064208984375
1769668199354685200,5.490685302734375,0.2939605712890625,0.8790435791015625,0.3974456787109375
1769668199364673300,5.50067333984375,0.2951507568359375,0.87384033203125,0.396820068359375
1769668199374662400,5.510662353515625,0.302154541015625,0.87274169921875,0.3976287841796875
1769668199384651500,5.520651611328125,0.2857818603515625,0.872314453125,0.394317626953125
1769668199394640400,5.530640380859375,0.26153564453125,0.8719940185546875,0.39007568359375
1769668199404628200,5.540628173828125,0.2527618408203125,0.87420654296875,0.384368896484375
1769668199414617300,5.550617431640625,0.2369232177734375,0.878143310546875,0.380859375
1769668199424606200,5.560606201171875,0.2494964599609375,0.8738250732421875,0.3850860595703125
1769668199434595300,5.57059521484375,0.276611328125,0.875732421875,0.3931427001953125
1769668199444583400,5.58058349609375,0.27581787109375,0.873199462890625,0.3979949951171875
1769668199454572500,5.590572509765625,0.2757568359375,0.86822509765625,0.40228271484375
1769668199464561400,5.6005615234375,0.27899169921875,0.8690338134765625,0.4071807861328125
1769668199474550300,5.61055029296875,0.28265380859375,0.86273193359375,0.40399169921875
1769668199484538400,5.620538330078125,0.2741241455078125,0.875244140625,0.3989410400390625
1769668199494527200,5.63052734375,0.2578887939453125,0.873504638671875,0.3891448974609375
1769668199504516400,5.640516357421875,0.2593841552734375,0.8735809326171875,0.38671875
1769668199514505500,5.65050537109375,0.252044677734375,0.882049560546875,0.383941650390625
1769668199524493600,5.66049365234375,0.2486114501953125,0.877838134765625,0.3802947998046875
1769668199534482200,5.670482177734375,0.2639312744140625,0.872650146484375,0.3858795166015625
1769668199544471300,5.68047119140625,0.28411865234375,0.8682708740234375,0.3943939208984375
1769668199554460200,5.690460205078125,0.2921600341796875,0.870025634765625,0.39544677734375
1769668199564448300,5.7004482421875,0.2948150634765625,0.876922607421875,0.39398193359375
1769668199574437400,5.710437255859375,0.294464111328125,0.8791656494140625,0.39349365234375
1769668199584426500,5.720426513671875,0.2968902587890625,0.8755950927734375,0.3927764892578125
1769668199594415400,5.730415283203125,0.2886962890625,0.8793182373046875,0.3917388916015625
1769668199604403200,5.7404033203125,0.2684478759765625,0.886993408203125,0.389190673828125
1769668199614391800,5.750391845703125,0.2734222412109375,0.874053955078125,0.3846893310546875
1769668199624381000,5.760380859375,0.2759857177734375,0.8819732666015625,0.387054443359375
1769668199634369800,5.770369873046875,0.2910614013671875,0.8596343994140625,0.4053192138671875
1769668199644358000,5.78035791015625,0.3033599853515625,0.869110107421875,0.3972320556640625
1769668199654347000,5.790346923828125,0.28070068359375,0.87872314453125,0.3928375244140625
1769668199664336000,5.8003359375,0.26971435546875,0.8766021728515625,0.3948211669921875
1769668199674324700,5.81032470703125,0.2624664306640625,0.88458251953125,0.3823394775390625
1769668199684312800,5.820312744140625,0.2625885009765625,0.875823974609375,0.3793182373046875
1769668199694302000,5.830302001953125,0.2724456787109375,0.874725341796875,0.3936767578125
1769668199704290800,5.840290771484375,0.271240234375,0.869903564453125,0.3942108154296875
1769668199714280000,5.850280029296875,0.2552490234375,0.870941162109375,0.3936309814453125
1769668199724268000,5.86026806640625,0.2369384765625,0.87677001953125,0.3955535888671875
1769668199734256600,5.870256591796875,0.235809326171875,0.8701171875,0.395538330078125
1769668199744245800,5.880245849609375,0.253448486328125,0.8687286376953125,0.392181396484375
1769668199754235000,5.89023486328125,0.2652130126953125,0.873626708984375,0.387664794921875
1769668199764223000,5.900222900390625,0.270904541015625,0.87701416015625,0.3849945068359375
1769668199774211800,5.9102119140625,0.282745361328125,0.8826904296875,0.382476806640625
1769668199784201000,5.920200927734375,0.29443359375,0.8776702880859375,0.3836212158203125
1769668199794189800,5.93018994140625,0.2954864501953125,0.8761749267578125,0.3914642333984375
1769668199804177700,5.940177734375,0.28778076171875,0.8710174560546875,0.4016265869140625
1769668199814166800,5.950166748046875,0.286407470703125,0.8676300048828125,0.4037322998046875
1769668199824156000,5.960156005859375,0.2849578857421875,0.86944580078125,0.40081787109375
1769668199834144800,5.970144775390625,0.290435791015625,0.879608154296875,0.396881103515625
1769668199844132900,5.9801328125,0.292572021484375,0.8815155029296875,0.396697998046875
1769668199854122000,5.9901220703125,0.2961273193359375,0.8626251220703125,0.402618408203125
1769668199864110800,6.00011083984375,0.31097412109375,0.8641510009765625,0.4071044921875
1769668199874100000,6.010099853515625,0.298858642578125,0.86114501953125,0.3978118896484375
1769668199884087800,6.020087890625,0.271209716796875,0.865020751953125,0.3858489990234375
1769668199894077000,6.030076904296875,0.245391845703125,0.870086669921875,0.382720947265625
1769668199904065800,6.040065673828125,0.23382568359375,0.8672943115234375,0.3816070556640625
1769668199914055000,6.050054931640625,0.2442626953125,0.8727874755859375,0.3849029541015625
1769668199924043800,6.060043701171875,0.2600555419921875,0.8731689453125,0.3919830322265625
1769668199934032000,6.070031982421875,0.272369384765625,0.8712005615234375,0.39788818359375
1769668199944020700,6.080020751953125,0.2940826416015625,0.871856689453125,0.3972930908203125
1769668199954009900,6.090009765625,0.3103485107421875,0.8708953857421875,0.398101806640625
1769668199963998700,6.099998779296875,0.312164306640625,0.873443603515625,0.3942413330078125
1769668199973986800,6.10998681640625,0.3002777099609375,0.8759613037109375,0.3906402587890625
1769668199983976000,6.119975830078125,0.2977447509765625,0.874176025390625,0.387847900390625
1769668199993964800,6.12996484375,0.2956085205078125,0.8729248046875,0.38714599609375
1769668200003954000,6.139953857421875,0.29144287109375,0.87200927734375,0.3872528076171875
1769668200013941800,6.149941650390625,0.2961273193359375,0.8672027587890625,0.3888092041015625
1769668200023931000,6.159930908203125,0.2838134765625,0.8817596435546875,0.3892059326171875
1769668200033919700,6.169919677734375,0.25531005859375,0.8836669921875,0.386138916015625
1769668200043908900,6.179908935546875,0.2597503662109375,0.87969970703125,0.385345458984375
1769668200053897000,6.18989697265625,0.275177001953125,0.8740081787109375,0.38885498046875
1769668200063885800,6.1998857421875,0.278778076171875,0.8768768310546875,0.38946533203125
1769668200073875000,6.209875,0.280975341796875,0.8753204345703125,0.38763427734375
1769668200083863800,6.21986376953125,0.286376953125,0.877899169921875,0.385955810546875
1769668200093852000,6.229851806640625,0.2845916748046875,0.8806610107421875,0.387603759765625
1769668200103840800,6.2398408203125,0.2784576416015625,0.87890625,0.389556884765625
1769668200113830000,6.249829833984375,0.276123046875,0.8773040771484375,0.3899688720703125
1769668200123818800,6.25981884765625,0.2728118896484375,0.870147705078125,0.3946533203125
1769668200133806800,6.269806884765625,0.284423828125,0.8661651611328125,0.3957977294921875
1769668200143796000,6.2797958984375,0.2882080078125,0.8693389892578125,0.397705078125
1769668200153784800,6.289784912109375,0.28106689453125,0.8680267333984375,0.398162841796875
1769668200163773700,6.299773681640625,0.2795562744140625,0.867279052734375,0.3959197998046875
1769668200173761800,6.30976171875,0.27947998046875,0.8704833984375,0.3904571533203125
1769668200183751000,6.3197509765625,0.273681640625,0.8709716796875,0.3895263671875
1769668200193739800,6.32973974609375,0.275970458984375,0.8692626953125,0.3978271484375
1769668200203729000,6.33972900390625,0.2728424072265625,0.869140625,0.404876708984375
1769668200213716700,6.349716796875,0.26995849609375,0.8698883056640625,0.3964385986328125
1769668200223705900,6.359705810546875,0.265594482421875,0.8670806884765625,0.396697998046875
1769668200233694700,6.36969482421875,0.2655029296875,0.8658905029296875,0.402374267578125
1769668200243683800,6.379683837890625,0.2714691162109375,0.867218017578125,0.4038238525390625
1769668200253672000,6.389671875,0.275848388671875,0.86334228515625,0.406219482421875
1769668200263660800,6.399660888671875,0.2695770263671875,0.8656005859375,0.410186767578125
1769668200273650000,6.40964990234375,0.2757568359375,0.86419677734375,0.40594482421875
1769668200283639000,6.41963916015625,0.283660888671875,0.8624420166015625,0.4067840576171875
1769668200293627000,6.429626953125,0.2757415771484375,0.864410400390625,0.408233642578125
1769668200303615700,6.43961572265625,0.2816619873046875,0.8661346435546875,0.40533447265625
1769668200313604900,6.44960498046875,0.280548095703125,0.8733062744140625,0.3972930908203125
1769668200323593700,6.45959375,0.26666259765625,0.8766937255859375,0.393096923828125
1769668200333581800,6.469581787109375,0.262542724609375,0.8712158203125,0.394989013671875
1769668200343571000,6.479571044921875,0.26251220703125,0.8724822998046875,0.3967742919921875
1769668200353560000,6.48956005859375,0.2558135986328125,0.8725128173828125,0.39642333984375
1769668200363548700,6.499548583984375,0.2551116943359375,0.8694000244140625,0.3997955322265625
1769668200373536800,6.509536865234375,0.2696075439453125,0.8710479736328125,0.4027557373046875
1769668200383526000,6.51952587890625,0.2838134765625,0.867950439453125,0.4058990478515625
1769668200393514800,6.5295146484375,0.2923431396484375,0.86358642578125,0.4091949462890625
1769668200403503900,6.53950390625,0.3014068603515625,0.8625030517578125,0.411956787109375
1769668200413493000,6.549492919921875,0.297943115234375,0.8683929443359375,0.410614013671875
1769668200423480800,6.559480712890625,0.2786407470703125,0.862060546875,0.40924072265625
1769668200433469700,6.5694697265625,0.2694244384765625,0.864410400390625,0.4026641845703125
1769668200443458800,6.579458740234375,0.2602386474609375,0.8751983642578125,0.3964996337890625
1769668200453448000,6.589447998046875,0.253753662109375,0.8741912841796875,0.396759033203125
1769668200463435800,6.599435791015625,0.2546539306640625,0.875091552734375,0.400909423828125
1769668200473425000,6.6094248046875,0.258575439453125,0.8685150146484375,0.3999481201171875
1769668200483414000,6.6194140625,0.2633514404296875,0.866455078125,0.401092529296875
1769668200493403000,6.62940283203125,0.2652740478515625,0.8708343505859375,0.401702880859375
1769668200503390700,6.639390625,0.269622802734375,0.870330810546875,0.4019775390625
1769668200513379800,6.6493798828125,0.2803497314453125,0.866668701171875,0.4031524658203125
1769668200523369000,6.659368896484375,0.2812042236328125,0.8682861328125,0.406951904296875
1769668200533357800,6.66935791015625,0.2826080322265625,0.87188720703125,0.405670166015625
1769668200543346000,6.679345947265625,0.2845916748046875,0.873748779296875,0.4052734375
1769668200553335000,6.6893349609375,0.285919189453125,0.86669921875,0.406280517578125
1769668200563323600,6.69932373046875,0.289398193359375,0.8653411865234375,0.4037017822265625
1769668200573312800,6.709312744140625,0.279632568359375,0.8732147216796875,0.398895263671875
1769668200583300900,6.71930078125,0.275054931640625,0.8751983642578125,0.3968505859375
1769668200593289700,6.729289794921875,0.2940826416015625,0.8653106689453125,0.3991241455078125
1769668200603278800,6.73927880859375,0.3005828857421875,0.864013671875,0.4029541015625
1769668200613268500,6.7492685546875,0.2965087890625,0.8668670654296875,0.4071807861328125
1769668200623256300,6.75925634765625,0.2924346923828125,0.8653106689453125,0.401580810546875
1769668200633245400,6.769245361328125,0.2924957275390625,0.862457275390625,0.4034423828125
1769668200643234300,6.779234375,0.3011322021484375,0.8638458251953125,0.412200927734375
1769668200653223200,6.78922314453125,0.2897796630859375,0.866302490234375,0.4132080078125
1769668200663211300,6.799211181640625,0.2664794921875,0.864532470703125,0.4166717529296875
1769668200673200400,6.809200439453125,0.261749267578125,0.8632659912109375,0.4095458984375
1769668200683189500,6.819189453125,0.274383544921875,0.865692138671875,0.3998260498046875
1769668200693178400,6.829178466796875,0.2746734619140625,0.8702545166015625,0.393768310546875
1769668200703166200,6.839166259765625,0.2798919677734375,0.8682098388671875,0.39361572265625
1769668200713155300,6.8491552734375,0.2820281982421875,0.8727264404296875,0.3945465087890625
1769668200723144200,6.859144287109375,0.2834625244140625,0.8762969970703125,0.397216796875
1769668200733133300,6.86913330078125,0.28546142578125,0.8795928955078125,0.3997650146484375
1769668200743121400,6.879121337890625,0.2871551513671875,0.8580474853515625,0.3835296630859375
1769668200753110500,6.889110595703125,0.2605743408203125,0.8844757080078125,0.3958892822265625
1769668200763099400,6.899099365234375,0.25262451171875,0.87457275390625,0.3984222412109375
1769668200773088500,6.909088623046875,0.273956298828125,0.8608245849609375,0.4040679931640625
1769668200783077000,6.9190771484375,0.295257568359375,0.85406494140625,0.41290283203125
1769668200793065200,6.929065185546875,0.2941131591796875,0.85107421875,0.4156494140625
1769668200803054300,6.939054443359375,0.2916259765625,0.861328125,0.4119873046875
1769668200813043500,6.94904345703125,0.288055419921875,0.8720855712890625,0.4075469970703125
1769668200823032300,6.9590322265625,0.284698486328125,0.874053955078125,0.4038848876953125
1769668200833020400,6.9690205078125,0.2828369140625,0.8726959228515625,0.401641845703125
1769668200843009500,6.979009521484375,0.2828369140625,0.8729095458984375,0.4021148681640625
1769668200852998100,6.988998046875,0.275115966796875,0.8702545166015625,0.401519775390625
1769668200862987300,6.9989873046875,0.276947021484375,0.8623809814453125,0.4052886962890625
1769668200872975400,7.008975341796875,0.27337646484375,0.86297607421875,0.410614013671875
1769668200882964500,7.018964599609375,0.2553558349609375,0.8681488037109375,0.4054718017578125
1769668200892953300,7.028953369140625,0.248931884765625,0.8805084228515625,0.39569091796875
1769668200902942500,7.0389423828125,0.2640533447265625,0.8751678466796875,0.409332275390625
1769668200912930300,7.048930419921875,0.283599853515625,0.858734130859375,0.3949432373046875
1769668200922919200,7.058919189453125,0.2865753173828125,0.87249755859375,0.396270751953125
1769668200932908300,7.068908203125,0.2788848876953125,0.8736572265625,0.3933563232421875
1769668200942897400,7.0788974609375,0.2513275146484375,0.878753662109375,0.385406494140625
1769668200952885500,7.088885498046875,0.27313232421875,0.856964111328125,0.40216064453125
1769668200962874400,7.098874267578125,0.2712554931640625,0.8684539794921875,0.4140777587890625
1769668200972863500,7.108863525390625,0.256622314453125,0.864776611328125,0.4121856689453125
1769668200982852400,7.118852294921875,0.255950927734375,0.867950439453125,0.4093170166015625
1769668200992840200,7.128840087890625,0.2669525146484375,0.8648681640625,0.40740966796875
1769668201002829300,7.138829345703125,0.279388427734375,0.859771728515625,0.4105682373046875
1769668201012818400,7.148818359375,0.2924957275390625,0.863739013671875,0.4082489013671875
1769668201022807300,7.158807373046875,0.2871856689453125,0.87286376953125,0.405059814453125
1769668201032795400,7.16879541015625,0.271728515625,0.871124267578125,0.4085235595703125
1769668201042784500,7.178784423828125,0.2601776123046875,0.8682861328125,0.4083404541015625
1769668201052773000,7.188773193359375,0.265350341796875,0.872039794921875,0.404632568359375
1769668201062762200,7.19876220703125,0.2630767822265625,0.87005615234375,0.4033203125
1769668201072751400,7.20875146484375,0.2643890380859375,0.8706512451171875,0.4029388427734375
1769668201082739500,7.218739501953125,0.2686614990234375,0.870025634765625,0.4042205810546875
1769668201092728300,7.228728271484375,0.266632080078125,0.870513916015625,0.4059906005859375
1769668201102717400,7.238717529296875,0.270599365234375,0.86737060546875,0.4092254638671875
1769668201112706300,7.248706298828125,0.27490234375,0.8625335693359375,0.409881591796875
1769668201122694100,7.258694091796875,0.2754058837890625,0.863555908203125,0.402984619140625
1769668201132683300,7.268683349609375,0.2733612060546875,0.8637542724609375,0.4012908935546875
1769668201142672400,7.27867236328125,0.271697998046875,0.865234375,0.406280517578125
1769668201152661200,7.2886611328125,0.2760467529296875,0.86383056640625,0.4087982177734375
1769668201162649300,7.2986494140625,0.2766571044921875,0.863922119140625,0.4112091064453125
1769668201172638500,7.308638427734375,0.270477294921875,0.8636474609375,0.40972900390625
1769668201182627300,7.31862744140625,0.267425537109375,0.86419677734375,0.4082794189453125
1769668201192616400,7.328616455078125,0.26934814453125,0.86602783203125,0.40692138671875
1769668201202604300,7.338604248046875,0.269744873046875,0.867462158203125,0.4073028564453125
1769668201212593400,7.348593505859375,0.271820068359375,0.86627197265625,0.408966064453125
1769668201222582300,7.358582275390625,0.2709808349609375,0.866729736328125,0.4065093994140625
1769668201232571400,7.3685712890625,0.2667236328125,0.870758056640625,0.406280517578125
1769668201242559500,7.3785595703125,0.2657318115234375,0.8708038330078125,0.407470703125
1769668201252548400,7.38854833984375,0.2719573974609375,0.8686370849609375,0.4068145751953125
1769668201262537200,7.398537109375,0.2775421142578125,0.8658599853515625,0.4058685302734375
1769668201272526300,7.4085263671875,0.2777099609375,0.86627197265625,0.40582275390625
1769668201282514400,7.418514404296875,0.273712158203125,0.8670654296875,0.4055633544921875
1769668201292503300,7.42850341796875,0.272491455078125,0.866546630859375,0.4058990478515625
1769668201302492400,7.438492431640625,0.270965576171875,0.866729736328125,0.4045867919921875
1769668201312481300,7.448481201171875,0.2712249755859375,0.8713836669921875,0.4033660888671875
1769668201322470400,7.458470458984375,0.2701263427734375,0.8717193603515625,0.4040374755859375
1769668201332458200,7.468458251953125,0.27178955078125,0.86798095703125,0.4057769775390625
1769668201342447400,7.478447265625,0.27783203125,0.866485595703125,0.4074859619140625
1769668201352436200,7.488436279296875,0.2825469970703125,0.8679046630859375,0.403961181640625
1769668201362425300,7.49842529296875,0.2823638916015625,0.868011474609375,0.4049530029296875
1769668201372413400,7.508413330078125,0.2831573486328125,0.8681640625,0.4031982421875
1769668201382402300,7.51840234375,0.281005859375,0.8690032958984375,0.4027862548828125
1769668201392391400,7.528391357421875,0.278106689453125,0.8690032958984375,0.4053802490234375
1769668201402380500,7.538380615234375,0.2761077880859375,0.8670196533203125,0.4069061279296875
1769668201412368400,7.548368408203125,0.280181884765625,0.8661651611328125,0.4057464599609375
1769668201422357200,7.558357177734375,0.2799530029296875,0.8680877685546875,0.4041595458984375
1769668201432346400,7.568346435546875,0.2725830078125,0.869903564453125,0.4029541015625
1769668201442335500,7.57833544921875,0.2701263427734375,0.870574951171875,0.401397705078125
1769668201452323300,7.5883232421875,0.272003173828125,0.8711700439453125,0.4014892578125
1769668201462312400,7.5983125,0.2731781005859375,0.8705902099609375,0.4031524658203125
1769668201472301300,7.60830126953125,0.2721405029296875,0.867584228515625,0.4044189453125
1769668201482290200,7.618290283203125,0.27264404296875,0.8685760498046875,0.40313720703125
1769668201492278300,7.6282783203125,0.274932861328125,0.8644256591796875,0.4033050537109375
1769668201502267400,7.638267333984375,0.276123046875,0.8649444580078125,0.4060516357421875
1769668201512256300,7.64825634765625,0.2777099609375,0.863922119140625,0.40484619140625
1769668201522245400,7.658245361328125,0.277313232421875,0.8665771484375,0.4016571044921875
1769668201532233200,7.668233154296875,0.27178955078125,0.8698272705078125,0.3992919921875
1769668201542222300,7.678222412109375,0.2692108154296875,0.8714752197265625,0.401458740234375
1769668201552211200,7.688211181640625,0.271026611328125,0.8730926513671875,0.4045562744140625
1769668201562200300,7.698200439453125,0.2710113525390625,0.86859130859375,0.4078521728515625
1769668201572188400,7.7081884765625,0.2810211181640625,0.8651580810546875,0.4091033935546875
1769668201582177300,7.71817724609375,0.285919189453125,0.8641815185546875,0.4050140380859375
1769668201592166400,7.72816650390625,0.2841339111328125,0.8642578125,0.40411376953125
1769668201602155500,7.738155517578125,0.281707763671875,0.8687286376953125,0.3994903564453125
1769668201612143400,7.748143310546875,0.2755584716796875,0.8748321533203125,0.3956146240234375
1769668201622132700,7.7581328125,0.265594482421875,0.877532958984375,0.39825439453125
1769668201632121900,7.768121826171875,0.269989013671875,0.871917724609375,0.4021148681640625
1769668201642110500,7.7781103515625,0.282379150390625,0.8664093017578125,0.40472412109375
1769668201652099600,7.788099609375,0.286590576171875,0.86517333984375,0.405975341796875
1769668201662087700,7.798087646484375,0.288116455078125,0.863311767578125,0.40594482421875
1769668201672076800,7.808076904296875,0.2798614501953125,0.866546630859375,0.4037933349609375
1769668201682065700,7.818065673828125,0.2681884765625,0.8703460693359375,0.4010772705078125
1769668201692054800,7.8280546875,0.26239013671875,0.8657989501953125,0.3992919921875
1769668201702042600,7.838042724609375,0.2585906982421875,0.859649658203125,0.3990478515625
1769668201712031500,7.848031494140625,0.2826690673828125,0.8779296875,0.4028167724609375
1769668201722020600,7.8580205078125,0.2771148681640625,0.8730316162109375,0.4029541015625
1769668201732009700,7.868009765625,0.2702789306640625,0.8703460693359375,0.4010162353515625
1769668201741997800,7.877997802734375,0.2797698974609375,0.868865966796875,0.403411865234375
1769668201751986700,7.887986572265625,0.28179931640625,0.8687286376953125,0.4042510986328125
1769668201761975800,7.897975830078125,0.2760772705078125,0.865386962890625,0.40594482421875
1769668201771964700,7.907964599609375,0.28009033203125,0.8645782470703125,0.40802001953125
1769668201781952500,7.917952392578125,0.2825164794921875,0.8668975830078125,0.4055328369140625
1769668201791941600,7.927941650390625,0.2823638916015625,0.8695220947265625,0.4017486572265625
1769668201801930800,7.9379306640625,0.2835845947265625,0.871734619140625,0.400909423828125
1769668201811919600,7.947919677734375,0.281890869140625,0.87158203125,0.3985137939453125
1769668201821907700,7.95790771484375,0.276885986328125,0.869384765625,0.3994903564453125
1769668201831896800,7.967896728515625,0.276519775390625,0.867218017578125,0.4023590087890625
1769668201841885400,7.977885498046875,0.2712860107421875,0.8630828857421875,0.4018096923828125
1769668201851874600,7.98787451171875,0.2732391357421875,0.8633880615234375,0.404876708984375
1769668201861862700,7.997862548828125,0.29022216796875,0.8698883056640625,0.4062042236328125
1769668201871851800,8.007851806640625,0.2813568115234375,0.87103271484375,0.4037628173828125
1769668201881840600,8.017840576171874,0.2712860107421875,0.8741607666015625,0.4004364013671875
1769668201891829800,8.027829833984375,0.273834228515625,0.8694915771484375,0.4000244140625
1769668201901819000,8.03781884765625,0.2773895263671875,0.8677825927734375,0.402008056640625
1769668201911806500,8.047806396484376,0.2739715576171875,0.8681793212890625,0.4026947021484375
1769668201921795600,8.057795654296875,0.2750701904296875,0.8695831298828125,0.399627685546875
1769668201931784700,8.06778466796875,0.2760162353515625,0.8707427978515625,0.40380859375
1769668201941773600,8.077773681640625,0.2771759033203125,0.86895751953125,0.4037017822265625
1769668201951761700,8.08776171875,0.278717041015625,0.867767333984375,0.40203857421875
1769668201961750800,8.097750732421876,0.2808380126953125,0.86627197265625,0.4025421142578125
1769668201971739600,8.10773974609375,0.28338623046875,0.8659515380859375,0.4039764404296875
1769668201981728800,8.117728759765624,0.2824249267578125,0.8670806884765625,0.4038848876953125
1769668201991716600,8.127716552734375,0.2794342041015625,0.868133544921875,0.4026031494140625
1769668202001705700,8.137705810546874,0.2779388427734375,0.8681488037109375,0.4033203125
1769668202011694600,8.147694580078126,0.282745361328125,0.8654632568359375,0.404388427734375
1769668202021683700,8.15768359375,0.283905029296875,0.866302490234375,0.4020843505859375
1769668202031671800,8.167671875,0.281097412109375,0.8677215576171875,0.4005126953125
1769668202041660700,8.17766064453125,0.280792236328125,0.8679046630859375,0.40203857421875
1769668202051649500,8.1876494140625,0.282012939453125,0.867156982421875,0.402069091796875
1769668202061638700,8.197638671875,0.2794952392578125,0.86932373046875,0.40118408203125
1769668202071626800,8.207626708984375,0.2745513916015625,0.8690032958984375,0.40185546875
1769668202081615600,8.21761572265625,0.2748870849609375,0.8672637939453125,0.4009552001953125
1769668202091604700,8.227604736328125,0.27740478515625,0.8666839599609375,0.4019622802734375
1769668202101593900,8.23759375,0.2783355712890625,0.8682098388671875,0.4005279541015625
1769668202111581700,8.247581787109375,0.2784271240234375,0.86932373046875,0.4012298583984375
1769668202121570600,8.257570556640625,0.281768798828125,0.86761474609375,0.403472900390625
1769668202131559700,8.2675595703125,0.28070068359375,0.866485595703125,0.4028472900390625
1769668202141548500,8.277548583984375,0.27655029296875,0.867340087890625,0.4008941650390625
1769668202151536600,8.28753662109375,0.27691650390625,0.867431640625,0.400787353515625
1769668202161525800,8.29752587890625,0.2778472900390625,0.868316650390625,0.4008941650390625
1769668202171514600,8.3075146484375,0.2794189453125,0.8688507080078125,0.4022369384765625
1769668202181503700,8.317503662109376,0.279052734375,0.867645263671875,0.4015045166015625
1769668202191492900,8.327492919921875,0.2788543701171875,0.8690948486328125,0.40106201171875
1769668202201480700,8.337480712890626,0.2752227783203125,0.86865234375,0.404205322265625
1769668202211469600,8.347469482421875,0.279327392578125,0.86669921875,0.403228759765625
1769668202221458700,8.357458740234375,0.2852325439453125,0.8662261962890625,0.4019317626953125
1769668202231447800,8.36744775390625,0.283294677734375,0.8680877685546875,0.3993988037109375
1769668202241435600,8.377435546875,0.281219482421875,0.869903564453125,0.4021148681640625
1769668202251424800,8.3874248046875,0.2779693603515625,0.8706207275390625,0.4009246826171875
1769668202261413600,8.39741357421875,0.2779388427734375,0.868988037109375,0.4005126953125
1769668202271402500,8.407402587890624,0.2763519287109375,0.8703765869140625,0.402313232421875
1769668202281390600,8.417390625,0.2758026123046875,0.8690948486328125,0.4017181396484375
1769668202291379700,8.427379638671875,0.2765655517578125,0.869873046875,0.402618408203125
1769668202301368800,8.437368896484376,0.2799072265625,0.86956787109375,0.402587890625
1769668202311357700,8.447357666015625,0.2852325439453125,0.8677825927734375,0.401641845703125
1769668202321345500,8.457345458984374,0.283599853515625,0.8691864013671875,0.401702880859375
1769668202331334700,8.467334716796875,0.2770538330078125,0.870635986328125,0.4004669189453125
1769668202341323500,8.477323486328125,0.2747802734375,0.8700714111328125,0.402008056640625
1769668202351312600,8.487312744140626,0.2765045166015625,0.8673248291015625,0.404754638671875
1769668202361300700,8.49730078125,0.277252197265625,0.8653106689453125,0.4029388427734375
1769668202371289900,8.507289794921874,0.2784881591796875,0.867919921875,0.399932861328125
1769668202381278700,8.51727880859375,0.2798614501953125,0.8696136474609375,0.398468017578125
1769668202391267800,8.527267822265625,0.2785797119140625,0.872528076171875,0.40106201171875
1769668202401256700,8.537256591796876,0.2782745361328125,0.868438720703125,0.406219482421875
1769668202411244500,8.54724462890625,0.281005859375,0.8650054931640625,0.4068145751953125
1769668202421233700,8.557233642578124,0.2840728759765625,0.8645477294921875,0.405242919921875
1769668202431222800,8.567222900390625,0.280731201171875,0.8646087646484375,0.402191162109375
1769668202441211600,8.577211669921875,0.2790679931640625,0.8679656982421875,0.400909423828125
1769668202451199700,8.58719970703125,0.2786865234375,0.868438720703125,0.4019012451171875
1769668202461188900,8.59718896484375,0.2752227783203125,0.8699493408203125,0.3997802734375
1769668202471177500,8.607177490234376,0.276123046875,0.87066650390625,0.401824951171875
1769668202481166600,8.61716650390625,0.28155517578125,0.86883544921875,0.404144287109375
1769668202491154700,8.62715478515625,0.28387451171875,0.868621826171875,0.405364990234375
1769668202501143800,8.637143798828125,0.28192138671875,0.8681182861328125,0.404754638671875
1769668202511132700,8.647132568359375,0.27685546875,0.8667144775390625,0.4042205810546875
1769668202521121800,8.657121826171876,0.2736663818359375,0.86737060546875,0.4024658203125
1769668202531109600,8.667109619140625,0.2717132568359375,0.86834716796875,0.4025421142578125
1769668202541098500,8.677098388671874,0.275054931640625,0.8677520751953125,0.402252197265625
1769668202551087600,8.687087646484375,0.274810791015625,0.8672637939453125,0.4005279541015625
1769668202561076700,8.69707666015625,0.2783966064453125,0.87078857421875,0.400787353515625
1769668202571064800,8.70706494140625,0.280670166015625,0.871002197265625,0.4020538330078125
1769668202581053700,8.7170537109375,0.2780303955078125,0.8699188232421875,0.4028472900390625
1769668202591042800,8.727042724609374,0.279998779296875,0.8672027587890625,0.4029693603515625
1769668202601031700,8.73703173828125,0.279937744140625,0.8657989501953125,0.4025115966796875
1769668202611020800,8.747020751953125,0.2774505615234375,0.8664398193359375,0.40185546875
1769668202621007600,8.757007568359375,0.2792510986328125,0.8670501708984375,0.403350830078125
1769668202630996700,8.766996826171875,0.28045654296875,0.8675384521484375,0.40478515625
1769668202640985600,8.776985595703126,0.2796630859375,0.868804931640625,0.40216064453125
1769668202650974700,8.786974609375,0.276611328125,0.87091064453125,0.39959716796875
1769668202660962600,8.796962646484374,0.2740478515625,0.871124267578125,0.4013671875
1769668202670951700,8.80695166015625,0.275909423828125,0.8686676025390625,0.4028472900390625
1769668202680940500,8.8169404296875,0.27642822265625,0.86810302734375,0.4051055908203125
1769668202690929700,8.8269296875,0.2764434814453125,0.870391845703125,0.4017181396484375
1769668202700917800,8.836917724609375,0.275634765625,0.8726806640625,0.397979736328125
1769668202710906600,8.84690673828125,0.27093505859375,0.8751068115234375,0.397796630859375
1769668202720895700,8.856895751953125,0.2720184326171875,0.8769378662109375,0.398284912109375
1769668202730884900,8.866884765625,0.2744598388671875,0.874053955078125,0.404266357421875
1769668202740872700,8.876872802734376,0.27642822265625,0.87335205078125,0.4041900634765625
1769668202750861600,8.886861572265625,0.2745361328125,0.8720245361328125,0.405548095703125
1769668202760850700,8.8968505859375,0.2682647705078125,0.87420654296875,0.4021148681640625
1769668202770839800,8.90683984375,0.261016845703125,0.8822479248046875,0.40057373046875
1769668202780827600,8.91682763671875,0.25860595703125,0.8843994140625,0.404815673828125
1769668202790816800,8.926816650390625,0.2619171142578125,0.882598876953125,0.4065704345703125
1769668202800805600,8.9368056640625,0.270263671875,0.8803253173828125,0.40460205078125
1769668202810794500,8.94679443359375,0.291015625,0.879974365234375,0.4016265869140625
1769668202820782600,8.956782470703125,0.3025665283203125,0.87921142578125,0.4051666259765625
1769668202830771700,8.966771728515624,0.308502197265625,0.87066650390625,0.4050445556640625
1769668202840760800,8.9767607421875,0.3203125,0.8580169677734375,0.400848388671875
1769668202850749700,8.986749755859375,0.3458404541015625,0.823394775390625,0.42462158203125
1769668202860738800,8.99673876953125,0.362274169921875,0.7995452880859375,0.4466705322265625
1769668202870726700,9.0067265625,0.32080078125,0.8160858154296875,0.448333740234375
1769668202880715500,9.016715576171874,0.328887939453125,0.7989959716796875,0.467681884765625
1769668202890704600,9.02670458984375,0.377655029296875,0.80352783203125,0.47137451171875
1769668202900693800,9.03669384765625,0.30718994140625,0.8456268310546875,0.435638427734375
1769668202910681600,9.046681640625,0.2211456298828125,0.8752288818359375,0.4032440185546875
1769668202920670700,9.056670654296875,0.1985015869140625,0.87738037109375,0.394134521484375
1769668202930659800,9.066659912109374,0.1909942626953125,0.8565521240234375,0.385528564453125
1769668202940648700,9.076648681640625,0.1728057861328125,0.89007568359375,0.3907928466796875
1769668202950636500,9.086636474609374,0.181793212890625,0.9017181396484375,0.3881378173828125
1769668202960625700,9.096625732421876,0.2263946533203125,0.908050537109375,0.40655517578125
1769668202970614800,9.10661474609375,0.278656005859375,0.876312255859375,0.4146270751953125
1769668202980603600,9.116603759765624,0.304656982421875,0.846954345703125,0.4108123779296875
1769668202990591700,9.126591796875,0.3067626953125,0.844573974609375,0.4180755615234375
1769668203000580900,9.136580810546874,0.3024444580078125,0.850189208984375,0.42694091796875
1769668203010569500,9.146569580078125,0.310638427734375,0.853179931640625,0.4254302978515625
1769668203020558600,9.15655859375,0.31976318359375,0.853302001953125,0.4062957763671875
1769668203030546700,9.166546630859376,0.30377197265625,0.8601837158203125,0.4084930419921875
1769668203040535800,9.176535888671875,0.30035400390625,0.8584747314453125,0.4113922119140625
1769668203050524700,9.186524658203124,0.2922210693359375,0.859619140625,0.410064697265625
1769668203060513800,9.196513671875,0.2816009521484375,0.8627471923828125,0.409332275390625
1769668203070502000,9.206501953125,0.2779693603515625,0.8661041259765625,0.4097137451171875
1769668203080490500,9.216490478515626,0.2752227783203125,0.869171142578125,0.41168212890625
1769668203090479600,9.226479736328125,0.279510498046875,0.8671417236328125,0.4107208251953125
1769668203100468700,9.23646875,0.290679931640625,0.861907958984375,0.413360595703125
1769668203110457600,9.24645751953125,0.29833984375,0.8613739013671875,0.4167938232421875
1769668203120445700,9.25644580078125,0.297027587890625,0.861175537109375,0.415557861328125
1769668203130434800,9.266434814453126,0.288970947265625,0.86090087890625,0.4180908203125
1769668203140423700,9.276423583984375,0.284027099609375,0.8582000732421875,0.4183502197265625
1769668203150412800,9.286412841796874,0.28192138671875,0.8567657470703125,0.4156951904296875
1769668203160400600,9.296400634765625,0.2864837646484375,0.8560791015625,0.411895751953125
1769668203170389800,9.3063896484375,0.2911834716796875,0.8583984375,0.4126129150390625
1769668203180378600,9.316378662109376,0.2936859130859375,0.8583831787109375,0.415130615234375
1769668203190367700,9.32636767578125,0.2928009033203125,0.8585662841796875,0.415496826171875
1769668203200355800,9.33635595703125,0.2882843017578125,0.85943603515625,0.415618896484375
1769668203210344700,9.3463447265625,0.2866973876953125,0.857391357421875,0.415863037109375
1769668203220333600,9.35633349609375,0.2923736572265625,0.8550872802734375,0.4154052734375
1769668203230322700,9.36632275390625,0.295806884765625,0.8553924560546875,0.4163055419921875
1769668203240310800,9.376310791015625,0.2962799072265625,0.858245849609375,0.418365478515625
1769668203250299600,9.386299560546876,0.294342041015625,0.8589630126953125,0.4205322265625
1769668203260288800,9.396288818359375,0.2919464111328125,0.8590240478515625,0.4203643798828125
1769668203270277600,9.406277587890624,0.2876129150390625,0.85870361328125,0.422698974609375
1769668203280265500,9.416265380859375,0.283050537109375,0.85797119140625,0.4240875244140625
1769668203290254600,9.426254638671875,0.28515625,0.8578948974609375,0.4257659912109375
1769668203300243700,9.43624365234375,0.2890167236328125,0.85736083984375,0.4261932373046875
1769668203310232600,9.446232666015625,0.2899932861328125,0.8586578369140625,0.4246826171875
1769668203320221700,9.4562216796875,0.286712646484375,0.85784912109375,0.422698974609375
1769668203330209800,9.466209716796875,0.284637451171875,0.858062744140625,0.421905517578125
1769668203340198700,9.47619873046875,0.284759521484375,0.8568115234375,0.4220428466796875
1769668203350187800,9.486187744140626,0.2837677001953125,0.8552703857421875,0.4220123291015625
1769668203360177000,9.496177001953125,0.2763824462890625,0.8531341552734375,0.4220123291015625
1769668203370164700,9.506164794921874,0.2641143798828125,0.8538360595703125,0.420806884765625
1769668203380153600,9.516153564453125,0.2552032470703125,0.8553619384765625,0.41900634765625
1769668203390142700,9.526142822265625,0.250732421875,0.8558502197265625,0.4187164306640625
1769668203400131600,9.536131591796876,0.2542724609375,0.8555450439453125,0.422607421875
1769668203410119700,9.54611962890625,0.2641448974609375,0.85748291015625,0.4227142333984375
1769668203420108800,9.55610888671875,0.277587890625,0.8592071533203125,0.42413330078125
1769668203430097700,9.56609765625,0.2857208251953125,0.857269287109375,0.4278411865234375
1769668203440086500,9.57608642578125,0.28729248046875,0.8571319580078125,0.43048095703125
1769668203450074600,9.58607470703125,0.2878875732421875,0.853546142578125,0.429840087890625
1769668203460063700,9.596063720703125,0.289337158203125,0.84991455078125,0.4247283935546875
1769668203470052600,9.606052490234376,0.289886474609375,0.8513946533203125,0.42413330078125
1769668203480041700,9.616041748046875,0.29022216796875,0.8531494140625,0.4218902587890625
1769668203490029600,9.626029541015624,0.2889556884765625,0.8594207763671875,0.4200286865234375
1769668203500018700,9.636018798828125,0.2755584716796875,0.86041259765625,0.4176483154296875
1769668203510007600,9.646007568359375,0.265472412109375,0.858245849609375,0.4188995361328125
1769668203519996700,9.65599658203125,0.27081298828125,0.8570404052734375,0.4207611083984375
1769668203529985800,9.66598583984375,0.276702880859375,0.856414794921875,0.4222869873046875
1769668203539973600,9.6759736328125,0.2793121337890625,0.8576812744140625,0.4203338623046875
1769668203549962800,9.685962646484375,0.284759521484375,0.8584442138671875,0.4219207763671875
1769668203559952000,9.695951904296875,0.2847747802734375,0.857574462890625,0.4214935302734375
1769668203569940500,9.7059404296875,0.2803955078125,0.854522705078125,0.4221649169921875
1769668203579928600,9.715928466796875,0.27587890625,0.8560638427734375,0.422149658203125
1769668203589917700,9.725917724609374,0.27410888671875,0.8553009033203125,0.42205810546875
1769668203599906600,9.735906494140625,0.281707763671875,0.855621337890625,0.422027587890625
1769668203609895700,9.745895751953125,0.2832183837890625,0.857666015625,0.4232025146484375
1769668203619883500,9.755883544921875,0.2869415283203125,0.8561553955078125,0.42193603515625
1769668203629872400,9.765872314453125,0.286651611328125,0.8569488525390625,0.4210357666015625
1769668203639861200,9.775861328125,0.281585693359375,0.858795166015625,0.4229888916015625
1769668203649850400,9.785850341796875,0.2768707275390625,0.85888671875,0.422637939453125
1769668203659838500,9.79583837890625,0.2723236083984375,0.858001708984375,0.4218902587890625
1769668203669827600,9.80582763671875,0.2748870849609375,0.85626220703125,0.4204559326171875
1769668203679816400,9.81581640625,0.2785491943359375,0.859161376953125,0.4208831787109375
1769668203689805600,9.8258056640625,0.277984619140625,0.8589935302734375,0.419769287109375
1769668203699794400,9.83579443359375,0.2805633544921875,0.8540496826171875,0.421051025390625
1769668203709782300,9.8457822265625,0.27972412109375,0.8544158935546875,0.4226226806640625
1769668203719771400,9.855771484375,0.2696533203125,0.8596649169921875,0.4205474853515625
1769668203729760500,9.865760498046875,0.257965087890625,0.859588623046875,0.4160614013671875
1769668203739749400,9.875749267578126,0.2615966796875,0.855743408203125,0.41717529296875
1769668203749737500,9.885737548828125,0.2707977294921875,0.857086181640625,0.4182891845703125
1769668203759726600,9.8957265625,0.268402099609375,0.855926513671875,0.4200439453125
1769668203769715500,9.905715576171875,0.2677459716796875,0.85321044921875,0.42333984375
1769668203779704300,9.915704345703125,0.267486572265625,0.8580780029296875,0.4211883544921875
1769668203789692400,9.9256923828125,0.2849273681640625,0.8449554443359375,0.424102783203125
1769668203799681500,9.935681640625,0.30596923828125,0.8472900390625,0.4289703369140625
1769668203809670400,9.94567041015625,0.281494140625,0.8532562255859375,0.422088623046875
1769668203819659500,9.955659423828125,0.2928314208984375,0.8536529541015625,0.4223480224609375
1769668203829647600,9.965647705078124,0.3020782470703125,0.8600006103515625,0.41876220703125
1769668203839636200,9.97563623046875,0.288848876953125,0.85321044921875,0.4203643798828125
1769668203849625300,9.985625244140625,0.287567138671875,0.8482513427734375,0.4243011474609375
1769668203859614500,9.995614501953124,0.293609619140625,0.8488616943359375,0.4199981689453125
1769668203869602600,10.0056025390625,0.29388427734375,0.8474884033203125,0.4176788330078125
1769668203879591400,10.01559130859375,0.2893524169921875,0.854156494140625,0.410919189453125
1769668203889580500,10.02558056640625,0.28143310546875,0.85626220703125,0.40179443359375
1769668203899569400,10.0355693359375,0.295379638671875,0.8669281005859375,0.389617919921875
1769668203909557200,10.04555712890625,0.2798919677734375,0.890045166015625,0.39117431640625
1769668203919546400,10.05554638671875,0.2868804931640625,0.8743133544921875,0.40155029296875
1769668203929535500,10.065535400390624,0.2918243408203125,0.86212158203125,0.416534423828125
1769668203939524400,10.0755244140625,0.294769287109375,0.870758056640625,0.4139251708984375
1769668203949513500,10.085513427734375,0.29376220703125,0.876800537109375,0.400054931640625
1769668203959501600,10.09550146484375,0.30975341796875,0.86395263671875,0.409576416015625
1769668203969490400,10.105490478515625,0.3498992919921875,0.8528594970703125,0.4312744140625
1769668203979479600,10.1154794921875,0.3698883056640625,0.84417724609375,0.4147796630859375
1769668203989468400,10.125468505859375,0.3462677001953125,0.8483734130859375,0.394744873046875
1769668203999456500,10.13545654296875,0.26934814453125,0.8767242431640625,0.3862762451171875
1769668204009445400,10.1454453125,0.19512939453125,0.8951568603515625,0.3894500732421875
1769668204019434500,10.1554345703125,0.201141357421875,0.8852691650390625,0.391815185546875
1769668204029423400,10.16542333984375,0.2454681396484375,0.867950439453125,0.4036865234375
1769668204039411500,10.175411376953125,0.2862396240234375,0.8561553955078125,0.413818359375
1769668204049400300,10.185400390625,0.3140106201171875,0.8491973876953125,0.416778564453125
1769668204059389400,10.195389404296876,0.326202392578125,0.839996337890625,0.4179840087890625
1769668204069378300,10.20537841796875,0.3180084228515625,0.8464508056640625,0.4193572998046875
1769668204079366400,10.215366455078126,0.324310302734375,0.8545989990234375,0.418304443359375
1769668204089355500,10.22535546875,0.3323822021484375,0.853790283203125,0.4205322265625
1769668204099344400,10.235344482421874,0.3271484375,0.858154296875,0.4222412109375
1769668204109333500,10.24533349609375,0.3275604248046875,0.8726043701171875,0.4218292236328125
1769668204119321300,10.2553212890625,0.3209686279296875,0.8623504638671875,0.4176177978515625
1769668204129310500,10.265310546875,0.3065185546875,0.8684234619140625,0.401214599609375
1769668204139299300,10.27529931640625,0.3034820556640625,0.8676605224609375,0.4032135009765625
1769668204149288400,10.285288330078124,0.2998504638671875,0.861419677734375,0.393524169921875
1769668204159277300,10.29527734375,0.287750244140625,0.8527679443359375,0.3922882080078125
1769668204169265400,10.305265380859375,0.2867279052734375,0.8601226806640625,0.3983306884765625
1769668204179254500,10.315254638671876,0.285430908203125,0.8731536865234375,0.393768310546875
1769668204189243400,10.325243408203125,0.2797088623046875,0.8754425048828125,0.3908233642578125
1769668204199232300,10.335232177734374,0.2753143310546875,0.877410888671875,0.389678955078125
1769668204209220400,10.345220458984375,0.2692718505859375,0.87237548828125,0.385986328125
1769668204219209500,10.35520947265625,0.2661285400390625,0.8662872314453125,0.3853759765625
1769668204229198300,10.3651982421875,0.266815185546875,0.871002197265625,0.3861541748046875
1769668204239187500,10.3751875,0.2651214599609375,0.8750152587890625,0.3842010498046875
1769668204249175600,10.385175537109374,0.2668609619140625,0.8731689453125,0.3871307373046875
1769668204259164400,10.395164306640625,0.2768707275390625,0.8767852783203125,0.395660400390625
1769668204269153300,10.4051533203125,0.2967529296875,0.864471435546875,0.39984130859375
1769668204279142400,10.415142333984376,0.3283843994140625,0.8546905517578125,0.4054107666015625
1769668204289130500,10.425130615234375,0.3350830078125,0.855712890625,0.4055633544921875
1769668204299119400,10.435119384765626,0.33056640625,0.8641815185546875,0.4037628173828125
1769668204309108500,10.4451083984375,0.308929443359375,0.8605499267578125,0.4024200439453125
1769668204319097600,10.45509765625,0.297149658203125,0.8596038818359375,0.40081787109375
1769668204329086500,10.46508642578125,0.30291748046875,0.857940673828125,0.4022216796875
1769668204339074300,10.47507421875,0.2993011474609375,0.8614349365234375,0.400115966796875
1769668204349063400,10.4850634765625,0.2958984375,0.8615875244140625,0.398162841796875
1769668204359052500,10.495052490234375,0.2991180419921875,0.8606719970703125,0.3997344970703125
1769668204369041400,10.50504150390625,0.30352783203125,0.859771728515625,0.401336669921875
1769668204379029500,10.515029541015625,0.3085784912109375,0.8645477294921875,0.4025115966796875
1769668204389018600,10.5250185546875,0.307647705078125,0.858917236328125,0.4017486572265625
1769668204399007200,10.53500732421875,0.3046722412109375,0.859954833984375,0.4020843505859375
1769668204408996400,10.544996337890625,0.3011932373046875,0.8592529296875,0.40191650390625
1769668204418984400,10.554984375,0.293701171875,0.8636474609375,0.39764404296875
1769668204428973300,10.564973388671875,0.291717529296875,0.8654022216796875,0.3972015380859375
1769668204438962400,10.57496240234375,0.28875732421875,0.86224365234375,0.4004974365234375
1769668204448951600,10.58495166015625,0.29443359375,0.8606719970703125,0.4007110595703125
1769668204458939600,10.594939697265625,0.3002471923828125,0.8603363037109375,0.403076171875
1769668204468928300,10.60492822265625,0.30242919921875,0.8626708984375,0.4033660888671875
1769668204478917400,10.61491748046875,0.300933837890625,0.8610076904296875,0.40228271484375
1769668204488906500,10.624906494140625,0.304443359375,0.8652191162109375,0.4019622802734375
1769668204498894300,10.634894287109375,0.2958984375,0.8619537353515625,0.4019927978515625
1769668204508883500,10.644883544921875,0.293914794921875,0.8605499267578125,0.4003143310546875
1769668204518872600,10.65487255859375,0.296875,0.860992431640625,0.397613525390625
1769668204528861400,10.664861328125,0.3009033203125,0.8611297607421875,0.39801025390625
1769668204538850600,10.6748505859375,0.3065643310546875,0.861907958984375,0.39764404296875
1769668204548838400,10.68483837890625,0.3019866943359375,0.85882568359375,0.3987274169921875
1769668204558827500,10.69482763671875,0.30328369140625,0.8660736083984375,0.39569091796875
1769668204568816400,10.70481640625,0.2919158935546875,0.8661651611328125,0.39593505859375
1769668204578805500,10.714805419921875,0.2880859375,0.8647918701171875,0.3973388671875
1769668204588793600,10.724793701171874,0.295623779296875,0.862701416015625,0.39520263671875
1769668204598782500,10.734782470703125,0.3047943115234375,0.8649749755859375,0.395355224609375
1769668204608771300,10.744771240234375,0.303070068359375,0.8597869873046875,0.3985137939453125
1769668204618760400,10.754760498046876,0.303009033203125,0.8613739013671875,0.3999176025390625
1769668204628748500,10.76474853515625,0.3024139404296875,0.8628387451171875,0.4007110595703125
1769668204638737400,10.7747373046875,0.295074462890625,0.8612060546875,0.40118408203125
1769668204648726500,10.7847265625,0.2924652099609375,0.8626251220703125,0.4034423828125
1769668204658715400,10.79471533203125,0.290985107421875,0.8603973388671875,0.40191650390625
1769668204668703200,10.804703125,0.292572021484375,0.861846923828125,0.40045166015625
1769668204678692400,10.8146923828125,0.2982025146484375,0.8563385009765625,0.3965301513671875
1769668204688681500,10.824681396484374,0.3065948486328125,0.86175537109375,0.3969573974609375
1769668204698670300,10.83467041015625,0.305145263671875,0.8668670654296875,0.40045166015625
1769668204708658400,10.844658447265624,0.3000335693359375,0.8639984130859375,0.4012451171875
1769668204718647600,10.8546474609375,0.2991180419921875,0.8642730712890625,0.39801025390625
1769668204728636400,10.864636474609375,0.2996063232421875,0.862457275390625,0.39788818359375
1769668204738625500,10.87462548828125,0.303131103515625,0.8561248779296875,0.396942138671875
1769668204748614700,10.88461474609375,0.3060302734375,0.8547210693359375,0.3950042724609375
1769668204758602500,10.8946025390625,0.3049163818359375,0.8585357666015625,0.397552490234375
1769668204768591400,10.90459130859375,0.3046875,0.8638763427734375,0.3988800048828125
1769668204778580500,10.91458056640625,0.2987823486328125,0.866790771484375,0.3990020751953125
1769668204788569300,10.9245693359375,0.29364013671875,0.869110107421875,0.4002685546875
1769668204798557400,10.934557373046875,0.2960205078125,0.869384765625,0.398529052734375
1769668204808546600,10.944546630859374,0.30145263671875,0.868927001953125,0.395538330078125
1769668204818535400,10.954535400390625,0.305877685546875,0.865875244140625,0.3950042724609375
1769668204828524300,10.964524169921875,0.3009490966796875,0.868133544921875,0.392852783203125
1769668204838512400,10.974512451171876,0.29669189453125,0.8679962158203125,0.3972625732421875
1769668204848501500,10.98450146484375,0.2978515625,0.863861083984375,0.3986358642578125
1769668204858490400,10.994490478515624,0.2982177734375,0.8567352294921875,0.3925018310546875
1769668204868479500,11.0044794921875,0.283660888671875,0.8436279296875,0.38482666015625
1769668204878467300,11.01446728515625,0.296051025390625,0.859405517578125,0.3974761962890625
1769668204888456400,11.02445654296875,0.3056793212890625,0.8708953857421875,0.4022216796875
1769668204898445300,11.0344453125,0.29840087890625,0.876739501953125,0.398681640625
1769668204908434400,11.044434326171874,0.29632568359375,0.874420166015625,0.3982696533203125
1769668204918422500,11.054422607421875,0.301513671875,0.8683929443359375,0.399078369140625
1769668204928411400,11.064411376953124,0.3065338134765625,0.865692138671875,0.3995513916015625
1769668204938400500,11.074400390625,0.306060791015625,0.865142822265625,0.399139404296875
1769668204948389600,11.0843896484375,0.2969970703125,0.8607177734375,0.3972015380859375
1769668204958378500,11.09437841796875,0.29205322265625,0.8589019775390625,0.3963623046875
1769668204968366300,11.104366455078125,0.2894287109375,0.8602142333984375,0.39556884765625
1769668204978355500,11.11435546875,0.290283203125,0.86187744140625,0.3954315185546875
1769668204988344300,11.12434423828125,0.29327392578125,0.8622589111328125,0.3957061767578125
1769668204998333400,11.13433349609375,0.2949371337890625,0.8638153076171875,0.395538330078125
1769668205008321500,11.144321533203126,0.29541015625,0.8645782470703125,0.395355224609375
1769668205018310700,11.154310546875,0.299468994140625,0.8668212890625,0.3952789306640625
1769668205028299300,11.16429931640625,0.2965850830078125,0.8681793212890625,0.397918701171875
1769668205038288400,11.174288330078125,0.295562744140625,0.8671722412109375,0.3991851806640625
1769668205048276500,11.1842763671875,0.294403076171875,0.866455078125,0.3941497802734375
1769668205058265300,11.194265380859376,0.2945556640625,0.8678741455078125,0.3950347900390625
1769668205068254500,11.20425439453125,0.2930755615234375,0.868072509765625,0.39642333984375
1769668205078243600,11.21424365234375,0.2981719970703125,0.858734130859375,0.393096923828125
1769668205088231400,11.2242314453125,0.3024749755859375,0.85711669921875,0.3916473388671875
1769668205098220300,11.23422021484375,0.3082275390625,0.8668060302734375,0.3976287841796875
1769668205108209400,11.24420947265625,0.3020172119140625,0.869598388671875,0.3998565673828125
1769668205118198300,11.2541982421875,0.2959136962890625,0.86883544921875,0.39892578125
1769668205128187400,11.2641875,0.2965240478515625,0.8642730712890625,0.3992919921875
1769668205138175500,11.274175537109375,0.2981414794921875,0.861785888671875,0.395751953125
1769668205148164600,11.28416455078125,0.2974700927734375,0.8651275634765625,0.3949737548828125
1769668205158153500,11.294153564453126,0.2977142333984375,0.8661041259765625,0.394439697265625
1769668205168142300,11.304142333984375,0.29815673828125,0.864013671875,0.39617919921875
1769668205178130400,11.31413037109375,0.29583740234375,0.8617095947265625,0.397430419921875
1769668205188119300,11.324119384765625,0.2946319580078125,0.863677978515625,0.395355224609375
1769668205198108400,11.3341083984375,0.2959442138671875,0.8656005859375,0.3927764892578125
1769668205208097500,11.34409765625,0.2965240478515625,0.8641510009765625,0.392303466796875
1769668205218085600,11.354085693359375,0.296722412109375,0.863616943359375,0.393402099609375
1769668205228074500,11.364074462890626,0.2952728271484375,0.8644866943359375,0.3962554931640625
1769668205238063400,11.3740634765625,0.2957000732421875,0.8646240234375,0.395599365234375
1769668205248052500,11.384052490234374,0.2987823486328125,0.8639373779296875,0.3958740234375
1769668205258040300,11.394040283203125,0.3031005859375,0.8630828857421875,0.39471435546875
1769668205268029400,11.404029541015625,0.3032989501953125,0.8641510009765625,0.393402099609375
1769668205278018600,11.4140185546875,0.3029632568359375,0.8645172119140625,0.397369384765625
1769668205288007400,11.42400732421875,0.302734375,0.86376953125,0.3967742919921875
1769668205297996500,11.43399658203125,0.303436279296875,0.862945556640625,0.394683837890625
1769668205307984400,11.443984375,0.3016815185546875,0.864654541015625,0.394866943359375
1769668205317973200,11.45397314453125,0.3005523681640625,0.8657989501953125,0.39691162109375
1769668205327962400,11.46396240234375,0.301666259765625,0.8631439208984375,0.3961334228515625
1769668205337951500,11.473951416015625,0.3038482666015625,0.8618316650390625,0.39520263671875
1769668205347939600,11.483939697265624,0.30523681640625,0.8638916015625,0.3948822021484375
1769668205357928400,11.493928466796875,0.303680419921875,0.8660430908203125,0.3934173583984375
1769668205367917600,11.50391748046875,0.3033599853515625,0.8647613525390625,0.3962249755859375
1769668205377906400,11.513906494140626,0.3014373779296875,0.8652801513671875,0.3928070068359375
1769668205387894300,11.523894287109375,0.296844482421875,0.866119384765625,0.393646240234375
1769668205397883400,11.53388330078125,0.2972564697265625,0.866546630859375,0.392059326171875
1769668205407872500,11.54387255859375,0.301483154296875,0.86505126953125,0.3922882080078125
1769668205417861400,11.553861328125,0.30181884765625,0.865966796875,0.3937225341796875
1769668205427849500,11.563849365234375,0.303497314453125,0.8649749755859375,0.3938140869140625
1769668205437838600,11.573838623046875,0.30218505859375,0.8629913330078125,0.3956298828125
1769668205447827500,11.583827392578126,0.298004150390625,0.8641204833984375,0.3943023681640625
1769668205457816300,11.59381640625,0.2993621826171875,0.8641510009765625,0.3927001953125
1769668205467805400,11.603805419921875,0.302581787109375,0.863983154296875,0.3936767578125
1769668205477793500,11.61379345703125,0.3017730712890625,0.865325927734375,0.396270751953125
1769668205487782400,11.623782470703125,0.3033599853515625,0.8658294677734375,0.3953857421875
1769668205497771500,11.633771484375,0.3031005859375,0.865814208984375,0.3955841064453125
1769668205507760600,11.6437607421875,0.301788330078125,0.866302490234375,0.39532470703125
1769668205517748500,11.65374853515625,0.3020172119140625,0.8658294677734375,0.39508056640625
1769668205527737300,11.6637373046875,0.3028717041015625,0.86273193359375,0.3954315185546875
1769668205537726500,11.6737265625,0.3056182861328125,0.8621368408203125,0.3941192626953125
1769668205547715300,11.68371533203125,0.3030242919921875,0.86468505859375,0.3952789306640625
1769668205557703400,11.693703369140625,0.298980712890625,0.86566162109375,0.39654541015625
1769668205567692500,11.703692626953124,0.2965240478515625,0.8629150390625,0.3961334228515625
1769668205577681700,11.713681640625,0.300445556640625,0.8632965087890625,0.3943328857421875
1769668205587670300,11.723670166015625,0.3024444580078125,0.862060546875,0.3930206298828125
1769668205597658400,11.733658447265626,0.3017578125,0.864990234375,0.391510009765625
1769668205607647500,11.7436474609375,0.3013916015625,0.8676605224609375,0.393035888671875
1769668205617637400,11.753637451171874,0.3017578125,0.8645782470703125,0.3946075439453125
1769668205627626500,11.76362646484375,0.3019866943359375,0.861419677734375,0.3956146240234375
1769668205637614300,11.7736142578125,0.3007659912109375,0.8610687255859375,0.39752197265625
1769668205647603200,11.783603271484376,0.300018310546875,0.8590850830078125,0.3977203369140625
1769668205657592300,11.79359228515625,0.3041229248046875,0.860687255859375,0.397003173828125
1769668205667581400,11.80358154296875,0.3049468994140625,0.8646240234375,0.3948822021484375
1769668205677570300,11.8135703125,0.300537109375,0.865631103515625,0.391845703125
1769668205687558400,11.823558349609375,0.2989044189453125,0.8665008544921875,0.3925933837890625
1769668205697547500,11.833547607421876,0.30120849609375,0.8645172119140625,0.3951416015625
1769668205707536400,11.843536376953125,0.303863525390625,0.8635101318359375,0.3978424072265625
1769668205717525200,11.853525146484374,0.301849365234375,0.86328125,0.398773193359375
1769668205727513300,11.863513427734375,0.302642822265625,0.862579345703125,0.397216796875
1769668205737502500,11.87350244140625,0.30047607421875,0.861846923828125,0.3961181640625
1769668205747491300,11.8834912109375,0.295928955078125,0.8626556396484375,0.3942718505859375
1769668205757480400,11.89348046875,0.29742431640625,0.8643035888671875,0.39398193359375
1769668205767468500,11.903468505859376,0.3034515380859375,0.86248779296875,0.39410400390625
1769668205777457200,11.91345703125,0.3058319091796875,0.8610076904296875,0.396087646484375
1769668205787446300,11.9234462890625,0.3045654296875,0.8614044189453125,0.397491455078125
1769668205797435400,11.933435302734376,0.3065032958984375,0.86334228515625,0.3953399658203125
1769668205807423200,11.94342333984375,0.3037109375,0.86431884765625,0.395111083984375
1769668205817412400,11.953412353515626,0.302093505859375,0.860687255859375,0.3979034423828125
1769668205827401500,11.9634013671875,0.304595947265625,0.8613128662109375,0.3983001708984375
1769668205837390300,11.973390380859374,0.3064422607421875,0.862579345703125,0.397491455078125
1769668205847379500,11.98337939453125,0.307708740234375,0.864593505859375,0.395050048828125
1769668205857367300,11.9933671875,0.30462646484375,0.8658294677734375,0.392730712890625
1769668205867356400,12.0033564453125,0.3023529052734375,0.864715576171875,0.39239501953125
1769668205877345300,12.01334521484375,0.299713134765625,0.8628082275390625,0.3926239013671875
1769668205887334400,12.02333447265625,0.304168701171875,0.8648834228515625,0.3953399658203125
1769668205897322500,12.033322509765625,0.3011016845703125,0.8668670654296875,0.394256591796875
1769668205907311400,12.043311279296875,0.300506591796875,0.86346435546875,0.393280029296875
1769668205917300500,12.053300537109376,0.302642822265625,0.8626861572265625,0.39666748046875
1769668205927289300,12.063289306640625,0.3056793212890625,0.8617401123046875,0.39666748046875
1769668205937277400,12.07327734375,0.301116943359375,0.8649444580078125,0.3947906494140625
1769668205947266300,12.083266357421875,0.2977447509765625,0.8646087646484375,0.39508056640625
1769668205957255400,12.09325537109375,0.2988433837890625,0.8619842529296875,0.396240234375
1769668205967244300,12.103244384765626,0.3059234619140625,0.8620147705078125,0.396270751953125
1769668205977232400,12.113232421875,0.305999755859375,0.862060546875,0.39453125
1769668205987221200,12.12322119140625,0.3045196533203125,0.86297607421875,0.3919219970703125
1769668205997210400,12.13321044921875,0.3044891357421875,0.8646697998046875,0.394287109375
1769668206007199200,12.14319921875,0.3001861572265625,0.8656005859375,0.393218994140625
1769668206017188400,12.153188232421876,0.2948455810546875,0.8651123046875,0.394012451171875
1769668206027176400,12.163176513671875,0.292449951171875,0.8655548095703125,0.3966827392578125
1769668206037165300,12.173165283203126,0.2960052490234375,0.865570068359375,0.3954925537109375
1769668206047154400,12.183154541015625,0.298065185546875,0.86651611328125,0.3953399658203125
1769668206057143600,12.1931435546875,0.3033447265625,0.8644256591796875,0.3919525146484375
1769668206067131400,12.20313134765625,0.3065948486328125,0.864044189453125,0.3934173583984375
1769668206077120300,12.213120361328125,0.3037109375,0.863494873046875,0.3958892822265625
1769668206087109400,12.223109375,0.30023193359375,0.86322021484375,0.397796630859375
1769668206097098200,12.23309814453125,0.2972564697265625,0.86285400390625,0.3969268798828125
1769668206107086300,12.24308642578125,0.3029327392578125,0.859832763671875,0.4000701904296875
1769668206117075500,12.253075439453125,0.310394287109375,0.8574676513671875,0.4010772705078125
1769668206127064600,12.263064697265625,0.30999755859375,0.858978271484375,0.39959716796875
1769668206137053200,12.27305322265625,0.30316162109375,0.8621978759765625,0.3969268798828125
1769668206147041300,12.283041259765625,0.302642822265625,0.8621978759765625,0.3954620361328125
1769668206157030400,12.293030517578124,0.3034820556640625,0.864501953125,0.3964996337890625
1769668206167019300,12.303019287109375,0.304412841796875,0.864593505859375,0.395721435546875
1769668206177008400,12.31300830078125,0.304595947265625,0.8630828857421875,0.397369384765625
1769668206186996500,12.32299658203125,0.3085784912109375,0.85943603515625,0.3971405029296875
1769668206196985300,12.3329853515625,0.3069305419921875,0.864227294921875,0.394287109375
1769668206206974200,12.34297412109375,0.3004150390625,0.8657379150390625,0.3927764892578125
1769668206216963300,12.35296337890625,0.297637939453125,0.8643951416015625,0.3947601318359375
1769668206226952200,12.3629521484375,0.296478271484375,0.86407470703125,0.39617919921875
1769668206236940300,12.372940185546875,0.296722412109375,0.8644866943359375,0.394683837890625
1769668206246929400,12.382929443359375,0.29815673828125,0.8656463623046875,0.394683837890625
1769668206256918500,12.39291845703125,0.30059814453125,0.8654632568359375,0.3941650390625
1769668206266907400,12.402907470703125,0.30645751953125,0.865447998046875,0.392303466796875
1769668206276895200,12.412895263671874,0.30718994140625,0.86572265625,0.3910980224609375
1769668206286884400,12.42288427734375,0.30267333984375,0.8680877685546875,0.393310546875
1769668206296873200,12.432873291015625,0.297210693359375,0.8664703369140625,0.3954010009765625
1769668206306862300,12.4428623046875,0.294647216796875,0.8627166748046875,0.3974761962890625
1769668206316850400,12.452850341796875,0.2972869873046875,0.85986328125,0.398773193359375
1769668206326839600,12.462839599609374,0.30145263671875,0.8607330322265625,0.3965301513671875
1769668206336828400,12.472828369140625,0.3034515380859375,0.863983154296875,0.394073486328125
1769668206346817300,12.4828173828125,0.3010711669921875,0.8657073974609375,0.3938140869140625
1769668206356805400,12.492805419921876,0.2990570068359375,0.866363525390625,0.3932647705078125
1769668206366794200,12.502794189453125,0.29962158203125,0.865478515625,0.3943328857421875
1769668206376783400,12.512783447265624,0.3020782470703125,0.8636322021484375,0.3957061767578125
1769668206386772500,12.5227724609375,0.2998199462890625,0.8617706298828125,0.399261474609375
1769668206396761300,12.53276123046875,0.3041229248046875,0.85565185546875,0.401153564453125
1769668206406749200,12.542749267578126,0.3136138916015625,0.855010986328125,0.3995361328125
1769668206416738300,12.55273828125,0.308624267578125,0.86077880859375,0.396942138671875
1769668206426727200,12.56272705078125,0.3009796142578125,0.8667144775390625,0.392547607421875
1769668206436716300,12.57271630859375,0.3014068603515625,0.86724853515625,0.3945465087890625
1769668206446704400,12.582704345703124,0.3020782470703125,0.8643035888671875,0.396759033203125
1769668206456693500,12.592693603515626,0.2966156005859375,0.8622283935546875,0.396026611328125
1769668206466682400,12.602682373046875,0.300994873046875,0.8607940673828125,0.3969879150390625
1769668206476671500,12.61267138671875,0.3072509765625,0.8616943359375,0.39996337890625
1769668206486659300,12.622659423828125,0.3124237060546875,0.8602752685546875,0.400146484375
1769668206496648200,12.632648193359374,0.31158447265625,0.8617095947265625,0.3986968994140625
1769668206506637300,12.64263720703125,0.305084228515625,0.8614044189453125,0.3969879150390625
1769668206516626400,12.65262646484375,0.302642822265625,0.8604888916015625,0.39544677734375
1769668206526615300,12.662615234375,0.2971343994140625,0.8624267578125,0.3947296142578125
1769668206536603400,12.672603271484375,0.292266845703125,0.8655853271484375,0.395111083984375
1769668206546592300,12.68259228515625,0.3035125732421875,0.8628387451171875,0.393341064453125
1769668206556581400,12.692581298828125,0.3033905029296875,0.8668212890625,0.3928375244140625
1769668206566570200,12.7025703125,0.2975921630859375,0.86651611328125,0.39630126953125
1769668206576558300,12.712558349609376,0.3097991943359375,0.85968017578125,0.3992156982421875
1769668206586547500,12.72254736328125,0.3151092529296875,0.8575592041015625,0.397003173828125
1769668206596536300,12.732536376953124,0.3050079345703125,0.8600006103515625,0.4000091552734375
1769668206606525400,12.742525390625,0.312164306640625,0.857635498046875,0.403289794921875
1769668206616513300,12.75251318359375,0.30615234375,0.863983154296875,0.3983306884765625
1769668206626502000,12.762501953125,0.28582763671875,0.8699798583984375,0.3902740478515625
1769668206636490500,12.772490478515625,0.2831268310546875,0.86968994140625,0.392730712890625
1769668206646479600,12.782479736328124,0.2999114990234375,0.8604278564453125,0.3951568603515625
1769668206656467700,12.7924677734375,0.3129730224609375,0.8581390380859375,0.3973846435546875
1769668206666456600,12.80245654296875,0.3064727783203125,0.862823486328125,0.3981475830078125
1769668206676445700,12.81244580078125,0.304840087890625,0.8593292236328125,0.399810791015625
1769668206686434800,12.822434814453125,0.3083953857421875,0.8560638427734375,0.403106689453125
1769668206696422700,12.832422607421876,0.3025665283203125,0.86114501953125,0.3976593017578125
1769668206706411500,12.84241162109375,0.299713134765625,0.8662261962890625,0.3950958251953125
1769668206716400600,12.852400634765624,0.297515869140625,0.8663787841796875,0.3959197998046875
1769668206726389800,12.8623896484375,0.304931640625,0.8624267578125,0.3997650146484375
1769668206736378600,12.872378662109375,0.30792236328125,0.8604888916015625,0.4011688232421875
1769668206746366700,12.88236669921875,0.309722900390625,0.8588714599609375,0.39825439453125
1769668206756355800,12.89235595703125,0.309112548828125,0.8607940673828125,0.3952178955078125
1769668206766344700,12.9023447265625,0.3034515380859375,0.862884521484375,0.3966217041015625
1769668206776333600,12.91233349609375,0.3045501708984375,0.864898681640625,0.3978118896484375
1769668206786321700,12.92232177734375,0.304962158203125,0.8627471923828125,0.397125244140625
1769668206796310800,12.932310791015626,0.3029937744140625,0.8619384765625,0.3984375
1769668206806299600,12.942299560546875,0.2994384765625,0.8618927001953125,0.3974761962890625
1769668206816288800,12.952288818359374,0.3016204833984375,0.862762451171875,0.3950042724609375
1769668206826276900,12.96227685546875,0.30517578125,0.86212158203125,0.394500732421875
1769668206836265700,12.972265625,0.303375244140625,0.8632049560546875,0.3943634033203125
1769668206846254600,12.982254638671876,0.3030548095703125,0.864776611328125,0.395294189453125
1769668206856243700,12.99224365234375,0.307708740234375,0.8619842529296875,0.3954620361328125
1769668206866232600,13.002232666015624,0.3058319091796875,0.8611297607421875,0.3983154296875
1769668206876220700,13.012220703125,0.302764892578125,0.8607940673828125,0.3982391357421875
1769668206886209800,13.022209716796874,0.302825927734375,0.8617095947265625,0.3971710205078125
1769668206896198700,13.03219873046875,0.3043060302734375,0.8616943359375,0.3980255126953125
1769668206906187800,13.042187744140625,0.305694580078125,0.85986328125,0.3984527587890625
1769668206916175600,13.052175537109376,0.3035888671875,0.8623046875,0.3982391357421875
1769668206926164700,13.062164794921875,0.3052215576171875,0.8613433837890625,0.3986968994140625
1769668206936153600,13.072153564453124,0.304290771484375,0.8625946044921875,0.3978424072265625
1769668206946142700,13.082142822265626,0.3005523681640625,0.86334228515625,0.398712158203125
1769668206956130800,13.092130859375,0.3015289306640625,0.861297607421875,0.4024505615234375
1769668206966119700,13.10211962890625,0.308319091796875,0.8592376708984375,0.40008544921875
1769668206976108800,13.11210888671875,0.306549072265625,0.8618316650390625,0.3936920166015625
1769668206986097700,13.12209765625,0.2960662841796875,0.8655242919921875,0.39337158203125
1769668206996085800,13.132085693359375,0.2956695556640625,0.8642730712890625,0.3966827392578125
1769668207006074600,13.14207470703125,0.301605224609375,0.860565185546875,0.3990936279296875
1769668207016063700,13.152063720703126,0.2982177734375,0.860595703125,0.3972930908203125
1769668207026052600,13.162052490234375,0.3004913330078125,0.86126708984375,0.397247314453125
1769668207036041700,13.172041748046874,0.3024444580078125,0.8600921630859375,0.3979644775390625
