time,seconds_elapsed,acc_z,acc_y,acc_x,gyro_z,gyro_y,gyro_x
1.76967E+18,0.07179248,-0.479295017,-0.302609905,-0.452478979,0.130277514,0.145198703,-0.156199321
1.76967E+18,0.081781494,-0.462675964,-0.297107216,-0.463121954,0.134826466,0.132275715,-0.173181772
1.76967E+18,0.091769287,-0.459622348,-0.298095642,-0.417794912,0.13767159,0.136797622,-0.180733293
1.76967E+18,0.101758301,-0.440181808,-0.234098094,-0.43207975,0.141071379,0.166297451,-0.186549634
1.76967E+18,0.111747314,-0.420385732,-0.190076582,-0.442060169,0.150701761,0.197275043,-0.194509253
1.76967E+18,0.121736328,-0.418584893,-0.182518129,-0.433208169,0.156463519,0.229615673,-0.199624658
1.76967E+18,0.131724609,-0.491179078,-0.176494047,-0.400605876,0.163524583,0.275643736,-0.202323467
1.76967E+18,0.141713379,-0.576963364,-0.117900988,-0.401590211,0.166827694,0.3240062,-0.209965676
1.76967E+18,0.151702393,-0.653642261,-0.041129883,-0.330941973,0.14289467,0.365163743,-0.218297839
1.76967E+18,0.161691406,-0.58171392,-0.16444179,-0.156034319,0.170473561,0.260342509,-0.223554388
1.76967E+18,0.171679199,-0.299154759,-0.211140997,-0.252886381,0.173327014,0.274654329,-0.263691992
1.76967E+18,0.181668457,-0.437169072,0.222023041,-0.201685186,0.17935802,0.333268911,-0.283875823
1.76967E+18,0.191657471,-0.821568239,0.088695936,-0.639760085,0.213517204,0.387742549,-0.305511713
1.76967E+18,0.201645508,-0.789974831,-0.105891401,-0.659638505,0.233557492,0.424803078,-0.334386259
1.76967E+18,0.211634277,-0.498226001,-0.115550625,-0.765659378,0.259878606,0.374264687,-0.37010321
1.76967E+18,0.221623291,-0.338773726,-0.199721777,-0.857509979,0.301734179,0.305751652,-0.417842746
1.76967E+18,0.231612061,-0.137243365,-0.169529468,-0.257270003,0.373417616,0.249312505,-0.458453447
1.76967E+18,0.241600342,-0.279220883,0.054101593,-0.017032968,0.425349534,0.258459926,-0.485138863
1.76967E+18,0.251589355,-0.279545274,0.101013566,-0.196162624,0.446585387,0.310761839,-0.506370604
1.76967E+18,0.261578613,-0.170910675,0.014777298,-0.364442092,0.454612166,0.339185476,-0.522568464
1.76967E+18,0.271567383,-0.121560086,-0.061443187,-0.287106923,0.472085625,0.31431514,-0.525025308
1.76967E+18,0.281555176,-0.063723996,-0.20082477,-0.254159762,0.497912973,0.273616731,-0.534619629
1.76967E+18,0.291544434,-0.036781624,-0.277369081,-0.253266613,0.52217418,0.26448673,-0.54742223
1.76967E+18,0.301533203,-0.02959901,-0.255832956,-0.287813318,0.530750096,0.293294936,-0.575038135
1.76967E+18,0.311522217,-0.118364514,-0.300612594,-0.340833545,0.540172994,0.347225547,-0.596064329
1.76967E+18,0.321510498,-0.20327452,-0.208223064,-0.359132879,0.548061848,0.395588845,-0.633426905
1.76967E+18,0.331499512,-0.06533203,0.030022798,-0.379134634,0.560428858,0.457899928,-0.704734862
1.76967E+18,0.341488281,-0.045791445,-0.042021279,-0.407696419,0.585217297,0.521328151,-0.786077678
1.76967E+18,0.351477539,-0.143725749,-0.198870129,-0.488875112,0.620151997,0.570316672,-0.855688035
1.76967E+18,0.361465332,-0.239098606,-0.256145675,-0.495664333,0.664170325,0.613057494,-0.921844721
1.76967E+18,0.371454102,-0.239545108,-0.288864873,-0.509902702,0.711105347,0.629871607,-0.987479448
1.76967E+18,0.381443359,-0.171581725,-0.269829917,-0.515490439,0.750115097,0.641852617,-1.057076931
1.76967E+18,0.391432373,-0.060657079,-0.159099844,-0.495062276,0.791013837,0.674256802,-1.130473256
1.76967E+18,0.401420654,0.014193141,-0.130829443,-0.400690924,0.827927887,0.699924111,-1.198620796
1.76967E+18,0.411409424,0.001954495,-0.33126726,-0.340411228,0.793135107,0.790250182,-1.221071362
1.76967E+18,0.421398193,0.092508626,-0.698563279,-0.479612485,0.711265266,0.862473488,-1.208854437
1.76967E+18,0.431386475,0.112218704,-0.834068313,-0.598384995,0.620521247,0.794053912,-1.153165936
1.76967E+18,0.441375244,0.336810865,-0.851908506,-0.705533995,0.549777567,0.748120248,-1.107209563
1.76967E+18,0.451364258,0.684742698,-0.660394585,-0.485232079,0.5359568,0.751676798,-1.090230942
1.76967E+18,0.461353516,0.889768719,-0.60418696,-0.324535321,0.557157159,0.728719294,-1.060555577
1.76967E+18,0.471341553,0.931913624,-0.454938063,-0.427977283,0.568937898,0.714770913,-1.063646674
1.76967E+18,0.481330078,1.001001919,-0.342091436,-0.36571898,0.566209495,0.754390776,-1.062094331
1.76967E+18,0.491319336,0.929030762,-0.319952669,-0.37292818,0.526620865,0.779838026,-1.050544381
1.76967E+18,0.501308105,0.703264589,-0.335459451,-0.452602021,0.485392451,0.810668111,-1.00635767
1.76967E+18,0.511296143,0.556321339,-0.40978667,-0.430818936,0.49463883,0.870037317,-0.956753075
1.76967E+18,0.5212854,0.464493535,-0.462578349,-0.378254636,0.514844239,0.8896451,-0.893461704
1.76967E+18,0.531274414,0.411276324,-0.510657028,-0.449019194,0.530117512,0.85139221,-0.82739687
1.76967E+18,0.541263428,0.497689994,-0.606847703,-0.511482665,0.540723264,0.768034518,-0.73504138
1.76967E+18,0.551251221,0.740249042,-0.707421124,-0.407135863,0.516559958,0.553840697,-0.742800534
1.76967E+18,0.561240234,1.162614039,-0.76111472,-0.22407179,0.437575191,0.342284769,-0.80501622
1.76967E+18,0.571229248,0.740378514,-0.371647201,0.149879304,0.399306625,0.243042871,-0.747725844
1.76967E+18,0.581218262,0.492048189,-0.03816811,0.234405845,0.340253681,0.133710265,-0.665623248
1.76967E+18,0.591206299,0.746644004,-0.135561148,0.127713941,0.277832001,-0.009257572,-0.628913999
1.76967E+18,0.601195557,0.82758275,0.161805596,0.395819811,0.246123344,-0.09663935,-0.579124331
1.76967E+18,0.611184326,0.489223779,0.31896775,0.652823272,0.248953655,-0.124835625,-0.504009724
1.76967E+18,0.621173584,0.21255817,0.380187066,0.636846828,0.290666491,0.004210769,-0.420808822
1.76967E+18,0.631161377,-0.295462956,0.621361382,0.484354712,0.389984697,0.338557214,-0.31084469
1.76967E+18,0.641150146,-0.186133105,0.597512889,0.213681329,0.422656357,0.217860639,-0.369056314
1.76967E+18,0.651139404,0.02424626,0.330518487,0.283169876,0.411464989,0.197609663,-0.292709768
1.76967E+18,0.661127441,-0.877753141,0.885986132,0.595342267,0.426498801,0.494464248,-0.14607507
1.76967E+18,0.671116455,-0.264771173,0.515598576,0.061135729,0.484437466,0.773012698,-0.141344085
1.76967E+18,0.681105469,-0.062186992,0.184286892,-0.020136195,0.55994761,0.968589664,-0.147070676
1.76967E+18,0.691094238,-0.57923372,-0.106850601,-0.086979195,0.620206416,1.088931203,-0.160728917
1.76967E+18,0.701082275,-0.580543926,-0.23217151,-0.08476678,0.641572416,1.158753753,-0.230221435
1.76967E+18,0.711071289,-0.392424908,-0.484251836,-0.217457633,0.636109412,1.141606688,-0.303961962
1.76967E+18,0.721060303,-0.402103714,-0.461852957,-0.092294837,0.615446508,0.959766626,-0.2956433
1.76967E+18,0.731049561,-0.250064602,-0.466437362,0.425009081,0.619885147,0.837672234,-0.263158768
1.76967E+18,0.741037598,0.300707871,-0.616982144,0.708870738,0.528508365,0.643477201,-0.274464697
1.76967E+18,0.751026123,1.281250355,-0.850462983,0.871285114,0.413787127,0.084833086,-0.37455228
1.76967E+18,0.761015381,1.793070581,-0.87095632,1.206767361,0.268426478,-0.401701957,-0.395718813
1.76967E+18,0.77100415,1.211400281,-1.065862806,1.883698654,0.126000866,-0.514946461,-0.356453806
1.76967E+18,0.780991943,0.773448717,-1.047016067,2.192977077,0.001221377,-0.405284375,-0.258101135
1.76967E+18,0.790981201,0.927267698,-0.923542248,1.965230398,-0.065743767,-0.274028748,-0.147129923
1.76967E+18,0.800970215,1.266556059,-0.84199443,1.467526083,-0.057478379,-0.311053336,-0.115370661
1.76967E+18,0.810958984,1.134988365,-0.932207785,1.018329194,-0.044534851,-0.343524486,-0.067642175
1.76967E+18,0.820947266,0.264682618,-1.054081768,0.851296511,-0.032531187,-0.333233237,0.000351521
1.76967E+18,0.830936279,-0.031523558,-0.880453632,0.725080992,-0.014354739,-0.303301156,0.016171684
1.76967E+18,0.840925293,-0.316729616,-0.66209379,0.559071514,-0.010956813,-0.266309857,0.030149018
1.76967E+18,0.850914307,-0.564351501,-0.37383039,0.461667371,0.007141949,-0.272012889,0.043540657
1.76967E+18,0.8609021,-0.69413085,-0.126005968,0.427636799,-0.003618554,-0.233535275,0.093358815
1.76967E+18,0.870891357,-0.772292532,-0.03529577,0.514596997,-0.0106779,-0.069066972,0.217804477
1.76967E+18,0.880880127,-0.311077289,-0.019777883,0.570348987,-0.010034214,0.23128514,0.361017555
1.76967E+18,0.890868164,0.439984824,-0.251536136,0.430550933,0.011302213,0.530572295,0.526203871
1.76967E+18,0.900857422,1.080458902,-0.52015317,0.505267736,0.058034565,0.716682553,0.645216286
1.76967E+18,0.910846191,1.731713318,-0.702438075,0.581916968,0.100416735,0.628121555,0.634369612
1.76967E+18,0.920835449,2.191895712,-0.910633666,0.844739929,0.066150904,0.523212731,0.535332739
1.76967E+18,0.930823242,2.27315536,-1.334882576,0.732301591,0.013442685,0.502464294,0.403305531
1.76967E+18,0.940812256,1.92012109,-1.406457866,0.766932467,-0.021667898,0.477293134,0.313699484
1.76967E+18,0.95080127,1.315903151,-1.080885019,0.548147677,-0.067664459,0.335219473,0.293931097
1.76967E+18,0.960790283,0.916692236,-0.691477121,0.022222353,-0.14047423,0.030595398,0.297529578
1.76967E+18,0.97077832,0.865752906,-0.294850961,-0.389936891,-0.166199341,-0.249631077,0.231825963
1.76967E+18,0.980767334,0.403691568,0.382471377,-0.794136408,-0.133758575,-0.251825273,0.108272605
1.76967E+18,0.990756104,-0.66160133,0.778814628,-1.234487435,-0.129343778,-0.14227125,0.081417501
1.76967E+18,1.000745117,-1.347804894,0.982257471,-1.201154489,-0.114780016,0.006203184,0.129499808
1.76967E+18,1.010733398,-1.342972944,0.939922889,-0.769371092,-0.086318403,0.234807581,0.198602125
1.76967E+18,1.020722168,-0.876184284,0.798688372,-0.341095411,-0.053889353,0.45431599,0.273758411
1.76967E+18,1.030711182,-0.071017072,0.7005489,-0.062962944,-0.021247117,0.599880874,0.320981085
1.76967E+18,1.040700195,0.31662031,0.754043175,0.344176718,-0.008364343,0.682517946,0.351898789
1.76967E+18,1.050687988,0.223788589,0.782566674,0.89548432,-0.002676551,0.504578948,0.43853575
1.76967E+18,1.060677002,0.60596186,0.338380891,1.004738183,-0.01513402,0.25018236,0.45849508
1.76967E+18,1.07066626,0.835097364,0.07887363,1.092192887,-0.061490182,0.034998413,0.404484451
1.76967E+18,1.080655029,0.518519139,-0.031348493,1.086354975,-0.119082108,-0.142038941,0.310146749
1.76967E+18,1.090643311,0.217594995,0.048845572,1.055323877,-0.192863092,-0.26543656,0.195530415
1.76967E+18,1.100632324,-0.029015374,0.098737438,0.847038269,-0.254700631,-0.28065601,0.081657112
1.76967E+18,1.110621094,-0.231994108,0.192172093,0.72381141,-0.313114405,-0.218185723,-0.027376091
1.76967E+18,1.120609131,-0.137075059,0.208490775,0.457766564,-0.342860311,-0.167937726,-0.148014084
1.76967E+18,1.130598145,0.062560209,0.258490193,0.325576647,-0.347866178,-0.151003689,-0.23889938
1.76967E+18,1.140587158,0.08825696,0.318536373,0.087204236,-0.355557919,-0.179541051,-0.262853175
1.76967E+18,1.150576172,-0.157774441,0.47777884,0.033165772,-0.37162444,-0.203743413,-0.197382227
1.76967E+18,1.160564209,-0.343841494,0.621674101,0.165075996,-0.397000641,-0.248457894,-0.11267931
1.76967E+18,1.170553223,-0.286083425,0.691823157,0.166592246,-0.380259305,-0.30158934,-0.063918225
1.76967E+18,1.180542236,-0.282532455,0.673162296,0.032048751,-0.346104264,-0.326487511,-0.065005064
1.76967E+18,1.19053125,-0.369863824,0.586615063,0.049106561,-0.282926202,-0.230280384,-0.094298482
1.76967E+18,1.200519287,-0.555779487,0.371246219,0.172150464,-0.249100611,-0.150366113,-0.09256503
1.76967E+18,1.210508301,-0.471790706,0.041464814,0.003189736,-0.254706353,-0.026473278,-0.08707016
1.76967E+18,1.22049707,-0.041766135,0.179291568,0.263256092,-0.176830724,0.102172583,-0.1719262
1.76967E+18,1.230486328,0.250727157,0.177403563,0.30446167,-0.095937423,0.087026007,-0.265859634
1.76967E+18,1.240474365,0.362545318,-0.102633276,0.003714929,-0.073742911,0.036274154,-0.290880293
1.76967E+18,1.250463135,0.099539694,-0.452778839,-0.074028821,-0.076396912,-0.002757329,-0.239697501
1.76967E+18,1.260452148,-0.208741242,-0.504678538,-0.055511459,-0.085846603,-0.046389498,-0.219754681
1.76967E+18,1.270441162,0.192806591,-0.330990196,-0.067487144,-0.091283426,-0.076861955,-0.255303174
1.76967E+18,1.280429199,0.500066075,-0.0557856,0.072725921,-0.094701856,-0.14956066,-0.367692053
1.76967E+18,1.290418213,0.550993422,0.448580218,0.299214125,-0.09481173,-0.154419854,-0.42658639
1.76967E+18,1.300407227,0.33538054,0.5785434,0.277257437,-0.0787329,-0.107787378,-0.406202823
1.76967E+18,1.310395508,0.12692133,0.094813542,0.102251583,-0.072145365,-0.096405745,-0.37499091
1.76967E+18,1.320384277,-0.092772392,-0.317134689,-0.071907006,-0.074152589,-0.025329437,-0.32032606
1.76967E+18,1.330373047,-0.332107218,-0.636677609,-0.125866852,-0.105547145,0.052791569,-0.301956475
1.76967E+18,1.340362305,-0.075148472,-0.583943213,-0.053828329,-0.115182459,0.054000109,-0.304035872
1.76967E+18,1.350350342,-0.01324702,-0.764466369,0.111706809,-0.135935798,0.052009895,-0.263140351
1.76967E+18,1.360339111,0.12559388,-1.01019528,-0.179548173,-0.180659592,0.062279046,-0.193476856
1.76967E+18,1.370328369,0.284183437,-0.837387813,-0.309712138,-0.187655866,0.02500521,-0.138903916
1.76967E+18,1.380317139,0.659867346,-0.463944376,-0.280535436,-0.201508567,-0.027836168,-0.099533878
1.76967E+18,1.390304932,0.695081867,-0.391043391,-0.501928947,-0.214903384,-0.025339141,-0.058995828
1.76967E+18,1.400294189,0.594813567,0.088229488,-0.355017845,-0.226150438,0.019057352,-0.008710288
1.76967E+18,1.410283203,0.77844258,0.832271493,-0.18864158,-0.224487081,-0.041002411,0.011759061
1.76967E+18,1.420272217,0.875371506,1.426981014,-0.333502471,-0.2048641,-0.154114857,0.047392692
1.76967E+18,1.430260254,0.207999776,1.407104347,-0.380764865,-0.163927048,-0.213004783,0.0948608
1.76967E+18,1.440249268,-0.306222835,1.408296188,-0.094308515,-0.106455505,-0.176353022,0.134118199
1.76967E+18,1.450238281,-0.532179124,1.236772331,0.127436586,-0.053569097,-0.155348733,0.152160019
1.76967E+18,1.460227295,-0.52722004,0.832113087,0.256486744,-0.026049322,-0.157319471,0.109878346
1.76967E+18,1.470215088,-0.252616917,0.691392949,0.38398412,-0.009287795,-0.102598406,0.008775142
1.76967E+18,1.480204346,0.13075404,0.661122899,0.551104189,-0.010110978,-0.05840005,-0.088121578
1.76967E+18,1.490193115,0.203189746,0.222308288,0.430403926,-0.028218368,-0.046598211,-0.132054865
1.76967E+18,1.500181152,0.185911279,-0.276454888,0.347898369,-0.015714828,-0.045182742,-0.135938287
1.76967E+18,1.51017041,0.413968924,-0.429745169,0.160267719,-0.026445769,-0.072135262,-0.140334889
1.76967E+18,1.52015918,0.569298017,-0.460692096,-0.025142332,-0.003409159,-0.113512263,-0.10261149
1.76967E+18,1.530148193,0.332291926,-0.808938548,0.013614684,-0.004356404,-0.244440034,-0.049977068
1.76967E+18,1.54013623,0.385121015,-0.657789955,-0.346460445,-0.07402017,-0.448338538,-0.001415389
1.76967E+18,1.550125244,0.066254387,-0.274964942,-0.249601661,-0.104894333,-0.416798681,0.06138638
1.76967E+18,1.560114258,-0.164462832,-0.317141119,-0.320492183,-0.102163531,-0.368243396,0.125919297
1.76967E+18,1.570103271,-0.239143687,-0.363234762,-0.436053914,-0.06155121,-0.278500885,0.139200822
1.76967E+18,1.580091309,-0.214281049,-0.164858554,-0.428727809,-0.025844349,-0.217784837,0.133376494
1.76967E+18,1.590080322,-0.206755914,0.016765841,-0.316833661,-0.01930381,-0.166323647,0.122912735
1.76967E+18,1.600069092,-0.292088511,0.121166712,-0.206675834,-0.01986547,-0.063849725,0.126167387
1.76967E+18,1.61005835,-0.247831436,0.130057874,-0.013387889,-0.012760266,0.044475153,0.126807421
1.76967E+18,1.620046387,0.162167123,0.165203422,0.08927432,-0.003490335,0.011033308,0.119621411
1.76967E+18,1.630035156,0.340884106,-0.046105918,-0.063461542,0.010501904,-0.101224549,0.086187966
1.76967E+18,1.640024414,0.288249956,-0.130795541,-0.002964695,0.028208463,-0.168332219,0.024626067
1.76967E+18,1.650013184,-0.062960314,-0.094902389,0.18184096,0.022852166,-0.153198525,-0.038631424
1.76967E+18,1.660000977,-0.38667935,0.017004326,0.128548639,0.023833541,-0.091535948,-0.05656888
1.76967E+18,1.669990234,-0.385321798,0.091924835,0.244270236,0.02267595,0.046596233,-0.089737743
1.76967E+18,1.679979248,0.164785781,0.157822079,0.158782741,0.024472252,0.062809296,-0.084812231
1.76967E+18,1.689968018,0.368925375,-0.554919948,0.119988315,0.040529028,0.012824847,-0.037299071
1.76967E+18,1.699956299,0.819982797,-0.523752656,-0.107571901,0.040598534,-0.112829752,-0.012863505
1.76967E+18,1.709945313,0.98011666,-0.125634797,-0.168875973,0.053241417,-0.209045395,0.005425713
1.76967E+18,1.719934326,0.840280612,-0.016146248,-0.047844286,0.043533929,-0.223259762,0.014279659
1.76967E+18,1.72992334,0.560026623,-0.087244568,-0.077942487,0.015455586,-0.220891133,0.048073918
1.76967E+18,1.739911133,0.299474822,-0.160405081,-0.100065179,0.002679071,-0.252561986,0.067467853
1.76967E+18,1.749899658,0.117147831,-0.29515842,-0.152848382,-0.015088208,-0.248250589,0.081832409
1.76967E+18,1.759888672,-0.158747962,-0.128643916,-0.219266436,-0.017008614,-0.245061979,0.089327879
1.76967E+18,1.769876709,-0.339767669,0.090177699,-0.179188985,-0.009179122,-0.213029638,0.085016705
1.76967E+18,1.779865479,-0.329254166,0.149856799,-0.025941081,0.005373189,-0.153397471,0.060836267
1.76967E+18,1.789854736,-0.221019125,0.069907649,0.162874686,0.012553006,-0.112805136,0.066201255
1.76967E+18,1.799843506,0.077323186,0.015498598,0.196568866,0.00445753,-0.147396132,0.057286322
1.76967E+18,1.809831787,0.181118491,-0.267959447,-0.0219298,-0.000333699,-0.139626265,0.071303025
1.76967E+18,1.819820801,-0.068894088,-0.24610242,-0.143942022,-0.005834192,-0.104637921,0.117548019
1.76967E+18,1.82980957,-0.053721653,-0.022398879,-0.261467747,-0.010324031,-0.105251715,0.169354439
1.76967E+18,1.839798828,0.0511708,0.06977847,-0.232982826,-0.022094669,-0.092907161,0.207699955
1.76967E+18,1.849786621,0.159740772,-0.012640286,-0.094810035,-0.031202568,-0.117172278,0.22499305
1.76967E+18,1.859775635,0.080917703,-0.095354809,0.006513035,-0.033222307,-0.149874568,0.225698784
1.76967E+18,1.869764648,0.008492226,-0.131071435,-0.033397535,-0.039950758,-0.15624781,0.198897704
1.76967E+18,1.879753662,-0.114333943,-0.052630935,-0.035872401,-0.041412298,-0.135901526,0.193135947
1.76967E+18,1.889741943,-0.285552095,0.086208211,-0.081411917,-0.058684181,-0.084290363,0.186083525
1.76967E+18,1.899730713,-0.244555483,0.035390462,-0.229781108,-0.072534747,-0.019364364,0.18978852
1.76967E+18,1.909719727,-0.140722184,-0.006973346,-0.115256318,-0.079640985,-0.012162922,0.201665848
1.76967E+18,1.919707764,0.075151979,-0.027947161,-0.039558396,-0.085545741,-0.028026838,0.204470694
1.76967E+18,1.929696777,0.097617201,-0.21229835,0.024295945,-0.089325219,-0.046201542,0.196243405
1.76967E+18,1.939685547,-0.010575462,-0.22762393,0.036032267,-0.099503823,-0.068314835,0.200182751
1.76967E+18,1.949674805,-0.202091721,-0.107884036,-0.09663725,-0.114639938,-0.037578918,0.215226442
1.76967E+18,1.959662842,-0.346863765,0.027635026,-0.048442252,-0.137095183,0.018140804,0.25781092
1.76967E+18,1.969651611,-0.295341667,-0.080655253,0.059091948,-0.171882614,0.032964833,0.291643769
1.76967E+18,1.979640869,-0.056306701,-0.177377844,0.090901045,-0.197166398,0.010956204,0.301974714
1.76967E+18,1.989629639,0.083410397,-0.199705995,0.085982001,-0.185505673,-0.016990347,0.294051081
1.76967E+18,1.999617432,0.137051971,-0.295113412,0.074540862,-0.165893093,-0.039537471,0.269878089
1.76967E+18,2.009606689,0.025098493,-0.13944588,0.013036884,-0.155598819,-0.002948747,0.24481535
1.76967E+18,2.019595703,-0.14727029,-0.049109776,0.110322661,-0.153765753,0.019818883,0.232622594
1.76967E+18,2.029584717,-0.128032213,-0.161000125,0.076589903,-0.164547339,0.012654213,0.211201072
1.76967E+18,2.039572754,-0.045451545,-0.210246679,0.146290339,-0.153227031,0.035591487,0.181443974
1.76967E+18,2.049561523,0.040958618,-0.241474176,0.242077695,-0.141224176,0.060427915,0.142543212
1.76967E+18,2.059550781,0.14294512,-0.234375158,0.238431155,-0.124873176,0.052877855,0.10584005
1.76967E+18,2.069539551,0.205065769,-0.243756734,0.294109788,-0.097783305,0.031882439,0.048424017
1.76967E+18,2.079527588,0.442292809,-0.21896833,0.267165374,-0.089368783,0.027578505,-0.014538169
1.76967E+18,2.089516846,0.441427716,-0.475567009,0.088745913,-0.101028636,0.044779863,-0.021833101
1.76967E+18,2.099505615,0.197461139,-0.536110033,0.223962777,-0.113440298,0.040461548,-0.017805336
1.76967E+18,2.109494873,0.262979613,-0.332774157,0.294453486,-0.127328172,-0.002567637,-0.024680734
1.76967E+18,2.119482666,0.260169524,-0.214461081,0.289309694,-0.121198907,-0.032321006,-0.038100667
1.76967E+18,2.12947168,0.126085171,-0.134499071,0.262832606,-0.130091086,-0.037224911,-0.050598439
1.76967E+18,2.139460693,0.073393738,-0.075682725,0.15162527,-0.128378674,-0.042002358,-0.060177293
1.76967E+18,2.149449707,-0.016243863,-0.029480362,0.097576285,-0.124304488,-0.032822862,-0.064771309
1.76967E+18,2.159437744,-0.055496262,-0.094482118,0.028778643,-0.129988223,-0.018372551,-0.072581023
1.76967E+18,2.169426758,-0.002984569,-0.165646489,-0.079278119,-0.135911122,0.000718615,-0.08473447
1.76967E+18,2.179415771,-0.054530339,-0.148883571,-0.068931205,-0.137320206,0.00887055,-0.097241737
1.76967E+18,2.189403564,-0.045401276,-0.124151865,-0.103747082,-0.148461625,0.015792297,-0.110550411
1.76967E+18,2.199392578,-0.056839493,-0.07981471,-0.078579031,-0.159076989,0.038076829,-0.095691301
1.76967E+18,2.209381592,-0.151949096,-0.087453243,-0.07558248,-0.163442284,0.065663718,-0.077598773
1.76967E+18,2.21937085,-0.158174254,-0.043861938,-0.108145317,-0.166653261,0.050807279,-0.062712766
1.76967E+18,2.229358887,-0.175049693,-0.010271219,-0.160551796,-0.159218818,0.024864711,-0.051162202
1.76967E+18,2.239347656,-0.220058755,0.001805004,-0.15273177,-0.157030508,0.06849768,-0.044446241
1.76967E+18,2.249336914,-0.181805012,0.074552844,-0.155590082,-0.154254109,0.111287661,-0.029197153
1.76967E+18,2.259325684,-0.030905134,0.044864393,-0.188557702,-0.15145193,0.119244121,-0.015012091
1.76967E+18,2.269313477,0.072894848,-0.015976737,-0.19337913,-0.140940472,0.100798823,0.003817222
1.76967E+18,2.279302734,0.119003981,-0.105205172,-0.188579037,-0.141913593,0.084164985,0.015062153
1.76967E+18,2.289291748,0.159195413,0.002803952,-0.16222879,-0.145117447,0.066730499,0.029669367
1.76967E+18,2.299280762,0.055542439,0.034160628,-0.049475979,-0.154980198,0.067933984,0.051379722
1.76967E+18,2.309268799,0.010570202,-0.01042904,-0.029556642,-0.166383162,0.049658559,0.059600793
1.76967E+18,2.319257568,-0.001948504,-0.044592006,-0.082341599,-0.16557996,0.032339223,0.054528002
1.76967E+18,2.329246826,-0.014619477,-0.080419691,0.021179858,-0.171163425,0.046100855,0.041530821
1.76967E+18,2.339235596,0.027195173,-0.132861826,-0.022078561,-0.171995133,0.057893332,0.031541038
1.76967E+18,2.349223633,0.015815993,-0.066455463,0.034633799,-0.159980297,0.031006377,0.018256141
1.76967E+18,2.359212891,0.04598989,0.074639354,0.092753102,-0.139067292,0.022947118,0.008657576
1.76967E+18,2.36920166,0.037270285,0.141938281,0.037411155,-0.127666175,0.017627487,0.014580688
1.76967E+18,2.379190674,0.060796999,0.146214059,0.042403556,-0.118124865,0.028831404,0.024418937
1.76967E+18,2.389178711,0.11766864,0.128520581,0.041472705,-0.110343531,0.036169488,0.034336925
1.76967E+18,2.399167725,0.152789638,0.073103815,0.036509237,-0.097830668,0.027692648,0.0331662
1.76967E+18,2.409156494,0.179535022,0.160287008,-0.002537994,-0.082817793,0.008176279,0.034454167
1.76967E+18,2.419144775,0.119565414,0.174137839,-0.035671617,-0.066237219,-0.023879925,0.034958303
1.76967E+18,2.429133789,-0.00528437,0.126574708,-0.058218672,-0.059060991,-0.026541093,0.027881561
1.76967E+18,2.439122803,-0.093228027,0.08628829,-0.042236383,-0.056156017,-0.019112205,0.030198511
1.76967E+18,2.449111816,-0.082804832,0.10862521,0.01232289,-0.058012582,-0.01383741,0.039907522
1.76967E+18,2.459099609,-0.00994827,0.080153733,-0.051648062,-0.055351019,-0.017982354,0.043892942
1.76967E+18,2.469088623,0.049940089,0.093951372,-0.112375795,-0.054630682,-0.015994476,0.046445683
1.76967E+18,2.479077637,0.04168664,0.174917591,-0.193027248,-0.04953073,-0.008129895,0.059271734
1.76967E+18,2.48906665,0.022424598,0.207239313,-0.225920048,-0.047313716,-0.016848924,0.076502703
1.76967E+18,2.499054932,0.031876317,0.242903916,-0.210810742,-0.04346811,-0.034813277,0.089363106
1.76967E+18,2.509043701,0.009263211,0.248079858,-0.185511466,-0.043271091,-0.036296573,0.095249131
1.76967E+18,2.519032715,-0.09580986,0.182341019,-0.295393105,-0.048330564,-0.026202925,0.115411922
1.76967E+18,2.529021729,-0.181046595,0.32685295,-0.270771874,-0.035765864,-0.034262527,0.118396468
1.76967E+18,2.539009521,-0.038776305,0.405427305,-0.2571946,-0.0242176,-0.037779231,0.110892475
1.76967E+18,2.548998535,-0.08375848,0.252972306,-0.285761061,-0.009864029,-0.04291977,0.119205587
1.76967E+18,2.558987793,-0.166677586,0.212682966,-0.240437819,-3.93625E-05,-0.038444061,0.128615603
1.76967E+18,2.568976563,-0.204589968,0.080710198,-0.245574012,0.005193457,-0.019559002,0.128635079
1.76967E+18,2.578964844,-0.074725863,0.096768768,-0.15569705,0.005059501,-0.038911927,0.113386869
1.76967E+18,2.588953613,-0.116280109,0.143532273,-0.053093,0.005484587,-0.023207914,0.109041959
1.76967E+18,2.598942627,-0.181449331,-0.010308628,-0.025040333,0.006381007,0.018224481,0.111171417
1.76967E+18,2.608931641,-0.060935238,-0.09201602,0.083760233,0.006171878,0.036606301,0.10522683
1.76967E+18,2.618919678,0.137777947,-0.185203423,0.151441731,0.005415807,0.016046697,0.088199109
1.76967E+18,2.628908691,0.272805426,-0.270588627,0.140668408,0.003218094,-0.003250684,0.075353473
1.76967E+18,2.638897705,0.263778654,-0.273123698,0.189997087,0.006488456,-0.035527665,0.071942501
1.76967E+18,2.648885498,0.224123228,-0.211292973,0.197775904,-0.003588848,-0.047363743,0.061054222
1.76967E+18,2.658874512,0.181884215,-0.259649884,0.143486095,-0.001931296,-0.059406023,0.052558471
1.76967E+18,2.66886377,0.188385268,-0.201634918,0.162362645,0.003684626,-0.06972523,0.0253006
1.76967E+18,2.678852539,0.199577693,-0.206694539,0.145992818,0.009949447,-0.068634935,0.012337662
1.76967E+18,2.68884082,0.036888884,-0.166527364,0.145064889,0.008329473,-0.045257214,0.013097641
1.76967E+18,2.698829834,0.018578151,-0.15154373,0.100668113,0.006910541,-0.028381296,0.004607484
1.76967E+18,2.708818604,0.135722476,-0.16763854,0.131648943,0.00980327,-0.015599176,-0.022085713
1.76967E+18,2.718807861,0.156853526,-0.139526544,0.097110713,0.00916784,-0.016942209,-0.038971219
1.76967E+18,2.728795654,0.067494158,-0.122319389,0.029405543,0.00638589,-0.026151711,-0.047439132
1.76967E+18,2.738784424,0.008017302,-0.097165658,0.034328678,0.000631332,-0.029216211,-0.048903339
1.76967E+18,2.748774414,0.058868661,-0.091219902,0.038762569,-0.009069854,-0.041297436,-0.047593195
1.76967E+18,2.758763428,0.061074354,-0.111816115,0.000429331,-0.017004477,-0.053747181,-0.050276864
1.76967E+18,2.768751221,0.019643443,-0.130886142,-0.011191841,-0.019974386,-0.056959048,-0.05970056
1.76967E+18,2.778740234,-0.03502689,-0.145962715,0.054797758,-0.024358215,-0.048901122,-0.066660471
1.76967E+18,2.788729248,-0.078939389,-0.178550395,0.072608725,-0.02820605,-0.050606661,-0.077965036
1.76967E+18,2.798718262,-0.102147831,-0.214292739,0.038422377,-0.029600747,-0.045914434,-0.089254178
1.76967E+18,2.808706299,-0.1416279,-0.190657012,0.031764381,-0.034093712,-0.015419488,-0.105445378
1.76967E+18,2.818695313,-0.169584413,-0.271900878,0.035515842,-0.043981228,0.018927034,-0.096584775
1.76967E+18,2.828684326,-0.181972186,-0.320928821,-0.051911681,-0.060081225,0.047732562,-0.07787478
1.76967E+18,2.838673096,0.00725304,-0.08450433,-0.031219899,-0.067352988,0.037676733,-0.063426338
1.76967E+18,2.848661133,0.185570502,-0.051581719,-0.010815116,-0.067477725,0.032099199,-0.054913864
1.76967E+18,2.858650391,0.175675424,0.01803893,0.030302492,-0.064911768,0.01514525,-0.047775261
1.76967E+18,2.86863916,0.227446235,0.035777416,0.01560615,-0.064111441,0.000765139,-0.052775115
1.76967E+18,2.878628418,0.220448339,0.107553197,-0.049617141,-0.053997017,-0.023249116,-0.052634232
1.76967E+18,2.888616455,0.119088444,0.158741532,-0.07593407,-0.053520609,-0.04687291,-0.051804572
1.76967E+18,2.898605225,0.03900573,0.134684949,-0.142256261,-0.05673584,-0.051978458,-0.044190329
1.76967E+18,2.908594238,-0.073721947,0.172193719,-0.18109628,-0.054395448,-0.076202549,-0.03439083
1.76967E+18,2.918583252,-0.230971194,0.240631295,-0.174754217,-0.050267816,-0.091792159,-0.024019148
1.76967E+18,2.928571289,-0.369347692,0.237805717,-0.128842361,-0.038893245,-0.056292951,-0.026489791
1.76967E+18,2.938560303,-0.368434961,0.231522106,-0.134643156,-0.035850048,-0.026967818,-0.022663627
1.76967E+18,2.948549316,-0.268486394,0.243101485,-0.19114801,-0.031380221,-0.016673315,-0.008877758
1.76967E+18,2.958537354,-0.013018764,0.102079149,-0.148698277,-0.018124336,-0.005595364,-0.009473774
1.76967E+18,2.968526123,0.176893275,0.06881167,-0.095759591,-0.011520735,-0.025665253,-0.007632818
1.76967E+18,2.978515137,0.141714994,0.099867318,-0.092769177,-0.001523761,-0.058842383,-0.002403434
1.76967E+18,2.988504395,0.088967739,0.045672202,-0.072294544,0.005333774,-0.084440246,-0.013474448
1.76967E+18,2.998492432,-0.043885027,0.018539865,-0.04142945,0.003831219,-0.070892215,-0.016230287
1.76967E+18,3.008481201,-0.212327576,-0.021267829,-0.031571781,0.003512209,-0.025682231,-0.009265348
1.76967E+18,3.018470459,-0.062852177,-0.070052026,-0.072327862,0.0008099,-0.019362284,-0.002824493
1.76967E+18,3.028459473,0.092792265,-0.029202714,-0.064874623,0.000709895,-0.026374618,0.001589929
1.76967E+18,3.038447021,0.16334435,0.033837388,-0.087757194,0.006172838,-0.041631069,0.000733723
1.76967E+18,3.048436279,0.137379595,0.09682079,-0.132196347,0.007643397,-0.046621181,0.001645551
1.76967E+18,3.058425293,0.027620705,0.136774615,-0.128035428,0.012568115,-0.046252064,0.00655935
1.76967E+18,3.068414307,-0.026902035,0.140195237,-0.128232412,0.014604799,-0.039410222,0.016179228
1.76967E+18,3.078402344,-0.016700375,0.09839783,-0.140193484,0.012734194,-0.033486288,0.029058808
1.76967E+18,3.088391357,0.063227441,0.042414077,-0.160852241,0.008985654,-0.0435482,0.039583262
1.76967E+18,3.098380371,0.10492431,0.01025076,-0.158161979,0.012528989,-0.057300765,0.046069127
1.76967E+18,3.108369141,0.042532151,0.022182606,-0.137097271,0.020714313,-0.054778684,0.049085278
1.76967E+18,3.118357178,-0.027707799,0.031906712,-0.026801205,0.026215073,-0.045311678,0.054545026
1.76967E+18,3.128346436,0.000891688,-0.064099839,0.038940556,0.022772597,-0.041287228,0.066124573
1.76967E+18,3.138335205,0.129335113,-0.162539171,0.07049071,0.016111765,-0.045909677,0.072071947
1.76967E+18,3.148324463,0.251242998,-0.228881236,0.088134795,0.013609193,-0.069362007,0.063983925
1.76967E+18,3.1583125,0.292826762,-0.150685067,0.083594229,0.014909614,-0.101966292,0.046319444
1.76967E+18,3.16830127,0.156126674,-0.038075171,-0.022329028,0.018776858,-0.1048171,0.031763885
1.76967E+18,3.178290283,-0.099581487,-0.009539397,-0.076014149,0.018515602,-0.082083024,0.02349104
1.76967E+18,3.188279297,-0.179243637,-0.014902386,-0.0723755,0.017962953,-0.048733748,0.025510017
1.76967E+18,3.198267334,-0.055038873,-0.054461074,-0.03171908,0.014425476,-0.042742968,0.024637831
1.76967E+18,3.208256348,0.163596571,-0.060672203,-0.007875263,0.016493969,-0.06816797,0.017351212
1.76967E+18,3.218245361,0.241057996,-0.081374799,0.028487551,0.014108574,-0.082619876,0.00437709
1.76967E+18,3.228234375,0.135906308,-0.091848847,-0.00492635,0.01140039,-0.086936787,-0.001159944
1.76967E+18,3.238222168,0.021129882,-0.043124856,-0.051239189,0.007126017,-0.083730608,-0.004256135
1.76967E+18,3.248211182,-0.01479951,-0.013438743,-0.071558339,0.010299852,-0.080878124,-0.008363037
1.76967E+18,3.258200439,-0.041950844,-0.01394377,-0.075023385,0.011340882,-0.07899154,-0.016167166
1.76967E+18,3.268188477,-0.050164838,0.005015782,-0.092673023,0.01134088,-0.073364273,-0.012110434
1.76967E+18,3.278177246,-0.081517423,0.041889761,-0.103601829,0.006356242,-0.069133841,0.003669594
1.76967E+18,3.288166504,-0.028618484,0.031999651,-0.074048987,0.006577817,-0.083993748,0.01939849
1.76967E+18,3.298155273,0.002613982,-0.028273908,-0.025274142,0.00600071,-0.091215178,0.029335277
1.76967E+18,3.308143066,-0.054049278,-0.064856795,0.005547405,0.003116895,-0.09023352,0.030053103
1.76967E+18,3.318132324,-0.092663963,-0.064761518,-0.051285074,0.003733682,-0.073740564,0.025947839
1.76967E+18,3.328121338,-0.157257723,-0.031730771,-0.076175477,0.006631246,-0.052349098,0.025718775
1.76967E+18,3.338110107,-0.146290631,0.003913959,-0.070706983,0.005406724,-0.040781658,0.031511419
1.76967E+18,3.348098389,-0.023892625,0.023606501,-0.025185002,0.005328428,-0.045559902,0.033410516
1.76967E+18,3.358087402,0.080171269,0.020115152,-0.019028526,0.007626735,-0.059797958,0.031147361
1.76967E+18,3.368076172,0.055628948,0.00333762,0.014701895,0.009783826,-0.06861873,0.025400646
1.76967E+18,3.37806543,-0.027514322,-0.021147417,0.000269757,0.011386516,-0.06891647,0.01835632
1.76967E+18,3.388053223,-0.058398121,-0.032867081,-0.010579554,0.006943756,-0.06382221,0.011035552
1.76967E+18,3.39804248,-0.044067982,-0.060884969,-0.038097091,0.00674322,-0.056233,0.004688973
1.76967E+18,3.40803125,-0.013967735,-0.089340079,0.003565291,0.006575857,-0.062433943,0.012156558
1.76967E+18,3.418020264,0.010131226,-0.106113519,0.077772683,0.00547171,-0.05847675,0.007064594
1.76967E+18,3.428008545,0.039948564,-0.106787473,0.031601884,0.009443356,-0.06106415,-0.008412819
1.76967E+18,3.437997314,0.038298751,-0.074712419,-0.000151976,0.008191138,-0.063923053,-0.017531483
1.76967E+18,3.447986084,-0.011155308,-0.055083005,-0.002908873,0.006210978,-0.06062375,-0.0227305
1.76967E+18,3.457975342,0.012256547,-0.041091889,-0.005240239,0.005738267,-0.058659669,-0.018658793
1.76967E+18,3.467963379,0.015681261,-0.015041502,-0.015413842,0.002980851,-0.060318075,-0.013841418
1.76967E+18,3.477952148,0.034364042,-0.020724808,-0.044828445,0.004468493,-0.067452684,-0.009738019
1.76967E+18,3.487941406,0.039788697,-0.011036358,-0.000581015,0.007271812,-0.071597762,-0.011043691
1.76967E+18,3.49793042,0.001771101,0.005056114,0.01099398,0.007639062,-0.070173509,-0.015999034
1.76967E+18,3.507917969,-0.066541095,-0.003572013,-0.042164194,0.006177884,-0.063460119,-0.014762266
1.76967E+18,3.517907227,-0.070967679,-0.009373393,-0.038300505,0.00809456,-0.056202743,-0.012585666
1.76967E+18,3.52789624,-0.06079466,0.008898761,-0.020163959,0.005614598,-0.056143858,-0.009032858
1.76967E+18,3.537885254,-0.041607437,-0.022106033,-0.036400808,0.00337488,-0.05797318,-0.005927346
1.76967E+18,3.547873291,-0.062421969,-0.007604045,-0.046686348,0.006401975,-0.062982872,-0.007938609
1.76967E+18,3.557862305,-0.035422027,-0.034293315,-0.039624739,0.007655526,-0.057607815,-0.022070672
1.76967E+18,3.567851318,-0.102410865,-0.02187807,-0.025277065,0.007312682,-0.034842644,-0.027363034
1.76967E+18,3.577840332,-0.10175474,-0.01888298,-0.061484689,0.009241875,-0.035456505,-0.022724872
1.76967E+18,3.587828125,-0.083040395,-0.008206103,-0.032864451,0.008040107,-0.032327011,-0.020274386
1.76967E+18,3.597817383,-0.042055181,-0.02544716,-0.032541503,0.011075045,-0.028908579,-0.022476288
1.76967E+18,3.607806152,-0.010777415,-0.033367432,-0.019006022,0.012059932,-0.028833309,-0.029598482
1.76967E+18,3.617794189,-0.034176995,-0.045410337,-0.016160277,0.009047897,-0.022853447,-0.029014453
1.76967E+18,3.627783447,-0.01564239,-0.035223289,-0.031367198,0.007864245,-0.020335386,-0.022818165
1.76967E+18,3.637772217,0.048825406,-0.021499884,-0.040838791,0.005110803,-0.032480199,-0.014498451
1.76967E+18,3.647761475,0.092063074,-0.014162381,-0.044122343,0.005264831,-0.045509916,-0.014793937
1.76967E+18,3.657749268,0.062154258,-0.03248948,-0.014071488,0.004657897,-0.05013689,-0.020076582
1.76967E+18,3.667738281,-0.019787527,-0.007954174,-0.025423487,0.003890783,-0.044578109,-0.020151392
1.76967E+18,3.677727295,-0.080509999,-0.002274375,-0.059152446,0.000191918,-0.040033691,-0.012381886
1.76967E+18,3.687716309,-0.064838675,0.009613047,-0.054946227,-0.001224568,-0.039823398,-0.005009028
1.76967E+18,3.697704346,-0.029138416,-0.022684125,-0.048164311,0.002857259,-0.036901109,-0.008903635
1.76967E+18,3.707693359,0.050270344,-0.037141105,-0.02335691,0.003615051,-0.040845752,-0.01078971
1.76967E+18,3.717682129,0.017779402,-0.031506314,-0.006631109,0.001528731,-0.036223568,-0.007305763
1.76967E+18,3.727671387,-0.018076924,-0.021273674,-0.030794951,0.000577544,-0.039230481,-0.001205664
1.76967E+18,3.737659424,-0.024579145,-0.027204233,-0.065713412,0.000773286,-0.042553574,0.002603722
1.76967E+18,3.747647949,-0.045759004,-0.009196867,-0.070683017,0.000691719,-0.03804148,0.001963227
1.76967E+18,3.757637207,-0.062590019,-0.011510405,-0.045760465,0.000883467,-0.02562396,0.00583067
1.76967E+18,3.767626221,-0.04220248,-0.037403556,-0.035723932,-7.20755E-05,-0.027096422,0.007336687
1.76967E+18,3.777614014,0.00986556,-0.057081485,-0.005818915,-0.001867579,-0.027506815,0.00309294
1.76967E+18,3.787603027,-0.014167934,-0.101825467,0.023129823,-0.004130317,-0.023092663,0.002658926
1.76967E+18,3.797592041,-0.056437634,-0.071580551,-0.026129005,-0.001925486,-0.026306566,-0.00133981
1.76967E+18,3.807580811,-0.044656011,-0.021391163,-0.035294308,0.00479563,-0.024915788,-0.013477906
1.76967E+18,3.817569092,-0.026716157,0.001904957,-0.032226738,0.002345522,-0.014565411,-0.020386413
1.76967E+18,3.827558105,-0.05965192,0.043162265,-0.062944824,0.003460079,-0.005472368,-0.007553988
1.76967E+18,3.837547363,0.005453589,0.034753918,-0.055260407,0.004197242,-0.006913937,-0.000755736
1.76967E+18,3.847536133,0.116899994,-0.001249708,-0.015531331,0.004675322,-0.015272642,-0.003764874
1.76967E+18,3.857523926,0.098301677,-0.041504561,0.019963176,0.001198565,-0.026227821,-0.00333504
1.76967E+18,3.867513184,0.01560352,-0.068638652,0.006448445,-0.002754166,-0.035351377,-0.000836474
1.76967E+18,3.877501953,-0.037898061,-0.060710782,-0.014480069,-0.001597555,-0.033769194,0.000731595
1.76967E+18,3.887490967,-0.097598789,-0.030794951,-0.036087505,-0.001146924,-0.026621595,-0.000405264
1.76967E+18,3.897479248,-0.127753981,-0.032471945,-0.022231998,-0.003980261,-0.013309784,0.00165549
1.76967E+18,3.907468262,-0.087443306,-0.038031917,-0.045229427,-0.004908468,-0.010143084,0.008048015
1.76967E+18,3.917456787,-0.041047173,-0.004407295,-0.053178632,-0.007079211,-0.013017435,0.012598826
1.76967E+18,3.927446045,0.026115561,-0.002896306,-0.026031682,-0.005084603,-0.016835425,0.00728689
1.76967E+18,3.937434082,0.030815117,-0.010545944,-0.037671559,-0.005521627,-0.018543579,0.002981091
1.76967E+18,3.947423096,-0.009255027,-0.007473112,-0.054974284,-0.005600674,-0.013245848,0.005129094
1.76967E+18,3.957412109,-0.053626084,-0.01094225,-0.049465749,-0.003570281,-0.003139684,0.006065195
1.76967E+18,3.967401123,-0.057989248,-0.008193828,-0.045792614,-0.004095696,-0.000245136,0.005633145
1.76967E+18,3.97738916,-0.022889,-0.01751286,-0.034611587,-0.000777664,0.000623054,0.002458656
1.76967E+18,3.98737793,0.003026362,-0.032509938,-0.034594051,-0.001970033,-0.001989092,-0.00065206
1.76967E+18,3.997366943,0.011544015,-0.02582067,-0.032577158,-0.002088277,-0.005398737,0.002261704
1.76967E+18,4.007355225,-0.00976473,-0.018387305,-0.039602527,-0.003451864,-0.00364921,0.004729758
1.76967E+18,4.017343994,-0.037767128,-0.025255437,-0.036737785,-0.000776186,0.002556487,0.008682689
1.76967E+18,4.027333008,-0.015903964,-0.013626959,-0.022958266,-0.000256665,0.000129353,0.006291149
1.76967E+18,4.037322266,0.001672902,-0.021542554,-0.021885376,0.00175269,0.000396468,-0.002000336
1.76967E+18,4.047310059,-0.046586687,-0.028576106,-0.015653788,0.003682985,0.007863145,-0.005681519
1.76967E+18,4.057298828,-0.078559742,-0.05149404,-0.028845863,0.003690176,0.017754126,-0.004337422
1.76967E+18,4.067288086,-0.029560441,-0.027100773,-0.029909693,0.002792086,0.015572613,0.002079319
1.76967E+18,4.077276855,0.03750877,-0.024628245,-0.000666939,0.000648508,0.011893722,0.004740616
1.76967E+18,4.087265137,0.058968614,-0.045846974,-0.002609013,-0.00259583,0.00637927,0.008514643
1.76967E+18,4.09725415,0.080891692,-0.051662383,-0.017708091,-0.004967376,-0.003569234,0.006896506
1.76967E+18,4.107243164,0.063336162,-0.045254854,-0.019891572,-0.003587468,-0.01022366,0.002534351
1.76967E+18,4.117232178,-0.010409166,-0.036644262,-0.036479427,-0.001989038,-0.005458732,-0.001263583
1.76967E+18,4.127219971,-0.08067688,-0.024092823,-0.046846507,-0.001898783,0.005171318,-0.004470743
1.76967E+18,4.137208984,-0.062360595,-0.045277066,-0.033042146,-0.002293996,0.017110802,-0.008750177
1.76967E+18,4.147197998,-0.042091714,-0.054617725,-0.031298517,-0.006036949,0.015152352,-0.003196239
1.76967E+18,4.157187012,0.006334756,-0.022775895,-0.042813306,-0.007027645,0.007503221,-0.000375419
1.76967E+18,4.167175049,0.048932081,0.009708909,-0.022222645,-0.007650532,0.000227404,-0.002923489
1.76967E+18,4.177164063,-0.010002631,-0.0033195,-0.019146891,-0.007421234,-0.002462921,0.000107188
1.76967E+18,4.187152832,-0.051210255,0.006951719,-0.042134676,-0.004381116,-0.000365927,0.003593309
1.76967E+18,4.19714209,-0.056126961,-0.004253566,-0.053145607,-0.004571797,0.00624324,0.003547236
1.76967E+18,4.207130127,-0.062312372,-0.009151859,-0.039238078,-0.004993067,0.013083993,0.005455093
1.76967E+18,4.217118896,-0.04672288,0.004513094,-0.037075347,-0.000766098,0.015844094,0.001043833
1.76967E+18,4.227108154,0.012518121,-0.004848609,-0.013638357,-0.001274101,0.016679838,-0.000454557
1.76967E+18,4.237097168,7.30652E-06,0.002534487,-0.0272206,-0.001017905,0.014889928,0.003222736
1.76967E+18,4.247084961,0.023495734,0.009889526,-0.051954351,-0.0004668,0.005445367,0.007562951
1.76967E+18,4.257073975,0.015965339,-0.010700842,-0.03046645,-0.000716871,0.006075471,0.005736289
1.76967E+18,4.267062988,-0.019786358,-0.026875732,-0.032161563,0.001189728,0.005553905,0.009933731
1.76967E+18,4.277052002,-0.019611878,-0.01014087,-0.058197337,0.003517064,0.008350757,0.00947913
1.76967E+18,4.287040039,-0.047860945,-0.018610008,-0.048028702,0.00203519,0.022329362,0.010029473
1.76967E+18,4.297029053,-0.011408991,-0.025166005,-0.017737609,0.001136107,0.025563771,0.009860096
1.76967E+18,4.307018311,0.045249885,-0.003366846,-0.029966391,0.000153717,0.011956262,0.016850991
1.76967E+18,4.31700708,0.089432141,-0.017508769,-0.030305414,-0.00087453,-0.001378184,0.017173234
1.76967E+18,4.326994873,0.077582421,-0.032405894,0.003160802,0.000415211,-0.006342019,0.01410942
1.76967E+18,4.336984131,-0.009803309,-0.023893501,-0.014832535,0.002920446,-0.00720941,0.009198817
1.76967E+18,4.3469729,-0.070648823,-0.027343934,-0.028700025,0.003685621,0.007455723,0.007470055
1.76967E+18,4.356962158,-0.068555358,-0.049505497,-0.014442951,-0.000854003,0.021403763,0.001471552
1.76967E+18,4.366950195,0.00676438,-0.050520811,-0.066732234,0.002019322,0.013237069,0.011911115
1.76967E+18,4.376939209,0.034346506,-0.023608839,0.006497545,-0.005679877,0.004853705,0.016249936
1.76967E+18,4.386928223,0.07231471,-0.047204234,0.037367608,-0.002804452,-0.003639882,0.014272069
1.76967E+18,4.396916992,0.051341188,-0.043044776,-0.004925181,-0.002335735,-0.002624418,0.009098345
1.76967E+18,4.406905029,-0.029174949,-0.043120764,-0.000290215,-0.002858633,0.009205846,0.006579015
1.76967E+18,4.416894043,-0.072232585,-0.040196401,-0.014443536,-0.004840291,0.020539727,0.010113563
1.76967E+18,4.426883057,-0.030839375,-0.01247019,-0.047779112,-0.008528166,0.013588203,0.016934266
1.76967E+18,4.43687207,0.032278468,0.00089198,-0.058314242,-0.007165692,0.002016769,0.020340184
1.76967E+18,4.446860107,0.035884091,0.027118893,-0.054772331,-0.004924183,0.001922889,0.02188693
1.76967E+18,4.456848877,0.025868308,1.81202E-05,-0.034642567,-0.004279165,0.005335731,0.016019721
1.76967E+18,4.466838135,0.043939387,-0.038747372,-0.023065818,-0.005864229,0.012952818,0.00541378
1.76967E+18,4.476826172,0.030897243,-0.048947863,-0.007976678,-0.007684499,0.006721021,0.005752268
1.76967E+18,4.486814941,0.034814416,-0.040389878,-0.032331075,-0.005998863,-0.011376202,0.004367466
1.76967E+18,4.496804199,0.001243863,0.00649813,-0.031620881,-0.002982833,-0.015321942,0.001614822
1.76967E+18,4.506793213,-0.090370591,0.021746552,-0.041773149,0.002919235,-0.007965167,-0.001861973
1.76967E+18,4.516781006,-0.130084178,0.056913727,-0.062278469,0.011328433,0.011812799,-0.003444956
1.76967E+18,4.52677002,-0.128561206,0.043762569,-0.092613694,0.015649732,0.025970584,-0.008546753
1.76967E+18,4.536759033,-0.050531041,-0.003232406,-0.045939621,0.016677178,0.025297871,-0.009880731
1.76967E+18,4.546747803,0.02178367,-0.070024553,0.015783552,0.016127283,0.015135959,-0.011191173
1.76967E+18,4.556736084,0.058280632,-0.074455229,0.034576223,0.009902944,0.004068394,-0.010193819
1.76967E+18,4.566725098,0.026712943,-0.058930912,0.019529753,0.009695762,-0.003577849,-0.012726353
1.76967E+18,4.576714355,-0.018496318,-0.050116907,0.016087211,0.008740752,-0.001573022,-0.017749608
1.76967E+18,4.586703125,-0.031527065,-0.041719081,-0.001875146,0.007419837,-0.000740528,-0.013742501
1.76967E+18,4.596690918,-0.018199966,-0.021631402,-0.035190556,0.007067767,-0.003436179,-0.006551434
1.76967E+18,4.606680176,0.0357327,-0.003137129,-0.034768239,0.005891834,-0.008415196,-0.001146302
1.76967E+18,4.616668945,0.065775371,-0.006703297,-0.034357904,0.009764603,-0.018982885,-0.000100479
1.76967E+18,4.626657959,0.07470862,-0.033467385,-0.015981705,0.007518079,-0.02131954,-0.004839666
1.76967E+18,4.63664624,0.06481091,-0.038211949,0.001990882,0.00745576,-0.016045416,-0.006855946
1.76967E+18,4.646635254,-0.003714344,-0.021481764,-0.055047933,0.006296853,-0.0130245,0.00155611
1.76967E+18,4.656624023,0.016436463,-0.012952421,-0.05830752,0.002949526,-0.017228032,0.01129822
1.76967E+18,4.666613037,0.062979311,-0.033316579,-0.03247399,0.004541904,-0.027817708,0.011678396
1.76967E+18,4.676601074,0.076112933,-0.038478491,0.008153204,0.00714328,-0.033060405,0.004529406
1.76967E+18,4.686589844,0.003895254,-0.034159459,0.01110387,0.005884814,-0.026073625,0.002635591
1.76967E+18,4.696579102,-0.049376902,-0.034353521,-0.019997078,0.005419826,-0.019309729,0.00818189
1.76967E+18,4.706568115,-0.01608838,-0.03181728,-0.027068332,0.003605172,-0.019626707,0.010991836
1.76967E+18,4.716556152,0.062350073,-0.029407881,-0.027421091,0.001410994,-0.030459115,0.012744995
1.76967E+18,4.726545166,0.121762047,-0.015839959,-0.030788521,0.00204122,-0.044892881,0.0152811
1.76967E+18,4.736533936,0.05488076,-0.005412673,-0.034085809,0.003813021,-0.047034331,0.011268249
1.76967E+18,4.746523438,-0.002755144,0.011342063,-0.024212066,0.005886215,-0.041348595,0.007243477
1.76967E+18,4.75651123,-0.035900165,-0.005980243,-0.043128948,0.007185838,-0.037641209,0.007122037
1.76967E+18,4.766500244,-0.056435881,-0.041963411,-0.031714989,0.006279617,-0.03553981,0.007481786
1.76967E+18,4.776489258,0.004801263,-0.036086628,0.000685936,0.003347476,-0.045411613,0.009981962
1.76967E+18,4.786478271,0.041153848,-0.031660044,0.001860533,0.004031179,-0.050707985,0.012183679
1.76967E+18,4.796466553,0.016332418,-0.008835048,-0.001125497,0.004967014,-0.046528686,0.007561764
1.76967E+18,4.806455566,0.003930325,-0.012747253,-0.022177053,0.00841092,-0.046633165,0.00723313
1.76967E+18,4.816444092,-0.011849135,-0.000285247,-0.05542758,0.009816803,-0.040532127,0.006229118
1.76967E+18,4.82643335,-0.02088409,-0.010695582,-0.062808923,0.012238876,-0.041631598,0.00503641
1.76967E+18,4.836421387,0.039032034,-0.010977321,0.015872107,0.008439343,-0.052960686,0.005161312
1.76967E+18,4.846410156,0.052012219,-0.046929509,0.031506607,0.006425146,-0.066525929,0.007298601
1.76967E+18,4.856399414,-0.026547523,-0.053722822,-0.013326222,0.004432303,-0.058714882,0.012256609
1.76967E+18,4.866388428,-0.088225104,-0.024143677,-0.037585927,0.006913182,-0.049556024,0.007948373
1.76967E+18,4.876376221,-0.061620005,-0.022580081,-0.059203592,0.012226721,-0.034311559,-0.00416182
1.76967E+18,4.886365234,-0.046593701,-0.022913843,-0.043678983,0.014029648,-0.032792702,-0.008755541
1.76967E+18,4.896354248,-0.017474574,4.09165E-06,-0.017151041,0.011150771,-0.040107872,-0.006569353
1.76967E+18,4.906343506,0.036544309,-0.027784079,-0.006753566,0.008311971,-0.046848856,0.003719397
1.76967E+18,4.916331299,0.049996495,-0.062065703,-0.024213235,0.00738892,-0.0524114,0.012047901
1.76967E+18,4.926320313,0.051894438,-0.041724926,-0.021410745,0.003759804,-0.059199471,0.012141868
1.76967E+18,4.93630957,0.032615445,-0.035881461,-0.014645488,0.00739848,-0.066113576,0.013625516
1.76967E+18,4.94629834,-0.049792789,-0.044622986,-0.031969548,0.010136277,-0.060580462,0.009845776
1.76967E+18,4.956286133,-0.076425068,-0.044093993,-0.011371289,0.008458752,-0.04712005,0.005013737
1.76967E+18,4.966275391,-0.068063775,-0.05105448,-0.003207272,0.006077918,-0.033271935,0.003754364
1.76967E+18,4.976264404,0.018422084,-0.046696285,-0.025433716,0.004310645,-0.060530458,0.021665454
1.76967E+18,4.986253418,0.03860884,-0.074031451,0.013021686,-0.001435054,-0.064884864,0.025460808
1.76967E+18,4.996241455,0.019178163,-0.054952072,0.019408465,-0.001208153,-0.058693543,0.022096436
1.76967E+18,5.006230469,-0.015364742,-0.017515198,-0.014612463,3.32935E-05,-0.060337014,0.0240648
1.76967E+18,5.016219482,-0.102360597,-0.02120587,-0.028790333,-0.004605667,-0.049490225,0.02477826
1.76967E+18,5.026208252,-0.150449212,-0.023599487,-0.066470953,-0.009605267,-0.028007206,0.030684721
1.76967E+18,5.036196289,-0.166385617,0.024534722,-0.07790537,-0.00498708,-0.028240765,0.027887071
1.76967E+18,5.046185303,-0.02405103,0.050790861,-0.035269466,0.002024103,-0.026564328,0.020784644
1.76967E+18,5.056174316,-0.025682723,0.017795769,-0.030144086,0.005894209,-0.017718637,0.018792601
1.76967E+18,5.066163574,-0.058190323,-0.036352585,-0.03388035,0.002981086,-0.008710995,0.023390474
1.76967E+18,5.076151611,-0.016681378,-0.049288055,-0.01634937,0.004643698,-0.013773398,0.019549662
1.76967E+18,5.086140137,0.048596565,-0.044091655,0.022691724,0.002831464,-0.019002344,0.018539425
1.76967E+18,5.096129395,0.017854806,-0.050550622,0.021232758,0.003032,-0.022608798,0.018385228
1.76967E+18,5.106118408,0.038576107,-0.064938628,-0.0051964,0.000266876,-0.030892618,0.018966362
1.76967E+18,5.116106201,0.061767305,-0.032544425,-0.001541092,0.000543578,-0.042053923,0.012501804
1.76967E+18,5.126095459,0.045757835,-0.042364393,0.019103052,0.00183112,-0.031377118,0.00791205
1.76967E+18,5.136084473,0.002479542,-0.045128597,0.021112054,-0.002647784,-0.025942406,0.013192566
1.76967E+18,5.146073242,0.067528937,-0.043491936,0.006522388,-0.004884914,-0.039110277,0.017709274
1.76967E+18,5.156061279,0.145715754,-0.038059389,0.00049509,-0.002881685,-0.052094787,0.014578995
1.76967E+18,5.166050293,0.087346567,-0.065506199,-0.053420625,-0.004206556,-0.069180645,0.021172011
1.76967E+18,5.176039307,-0.073690675,0.028159342,-0.112007546,-0.001950326,-0.064931042,0.026147064
1.76967E+18,5.18602832,-0.174453773,0.042351534,-0.130934365,0.004669672,-0.039898764,0.02613296
1.76967E+18,5.196016357,-0.213205528,0.043178632,-0.123859896,0.01070839,-0.010411181,0.015815342
1.76967E+18,5.206005615,-0.166429456,0.018079847,-0.065305124,0.011768731,-0.021328531,0.000970235
1.76967E+18,5.215994385,-0.104415483,-0.022860651,-0.028386721,0.018480429,-0.035441421,-0.020986728
1.76967E+18,5.225983398,-0.188386729,-0.03107786,-0.036515667,0.019778889,-0.002384201,-0.02184945
1.76967E+18,5.235971436,-0.214589676,0.007065116,-0.039203883,0.016504265,0.035742678,-0.001770281
1.76967E+18,5.245960205,0.035999826,-0.106183077,0.01447773,0.003585755,0.040322877,0.018669317
1.76967E+18,5.255949219,0.284201849,-0.172820911,0.110990478,-0.006504163,0.009739136,0.031951033
1.76967E+18,5.265938477,0.421194783,-0.193519416,0.144665953,-0.012819905,-0.043312259,0.029535325
1.76967E+18,5.275926514,0.319997385,-0.159204474,0.0247206,-0.015879078,-0.027128765,0.000469852
1.76967E+18,5.285915283,-0.025700843,0.101833066,0.059999418,0.01375581,-0.117899217,-0.052042257
1.76967E+18,5.295904297,-0.42411184,0.14258827,-0.150211897,0.031710312,-0.058350131,-0.093796365
1.76967E+18,5.305893311,-0.812322053,0.136301737,-0.231538181,0.036573291,0.060157243,-0.085018151
1.76967E+18,5.315881104,-0.752718356,0.06702771,-0.185574594,0.036328547,0.124774046,-0.073703177
1.76967E+18,5.325870361,-0.065662851,-0.033514147,-0.050241702,0.034689121,0.115435064,-0.071838491
1.76967E+18,5.335859375,0.271906431,-0.090243166,0.075744977,0.016499998,0.083353564,-0.034139849
1.76967E+18,5.345848389,0.338790056,-0.168734518,0.152610774,-0.002919709,0.028223902,0.001160562
1.76967E+18,5.355836182,0.524313797,-0.24485622,0.151669986,-0.01238698,-0.023985241,0.010718914
1.76967E+18,5.365825195,0.425087699,-0.165410342,0.139471599,-0.018071508,-0.052436031,0.011301872
1.76967E+18,5.375814453,0.126786013,-0.077269118,0.040407998,-0.020557303,-0.057871543,0.009572681
1.76967E+18,5.385803223,-0.132870009,-0.007238135,-0.072055475,-0.019174417,-0.02622419,0.004415279
1.76967E+18,5.39579126,-0.247599089,0.020254853,-0.113720195,-0.019280145,-0.001960929,0.001694594
1.76967E+18,5.405780518,-0.136888012,-0.007115969,-0.104155371,-0.015643245,0.007744241,-0.008779878
1.76967E+18,5.415769287,0.012533903,-0.035455929,-0.068826868,-0.015621142,0.001407249,-0.012377542
1.76967E+18,5.425758545,0.036135143,0.026960488,-0.071573244,-0.016126201,0.003448538,-0.000165388
1.76967E+18,5.435746338,0.015801965,0.070442486,-0.113424427,-0.013752525,-0.001425047,0.019043459
1.76967E+18,5.445735352,0.03864888,0.038376785,-0.117808926,-0.009672942,-0.003999551,0.027991962
1.76967E+18,5.455724365,0.068984981,0.03302198,-0.072948624,-0.004983914,-0.017112689,0.031843692
1.76967E+18,5.465713379,0.126368664,0.013581951,-0.02783201,0.000642285,-0.045242067,0.017128186
1.76967E+18,5.475701416,0.20770167,-0.041475335,0.006625848,0.003748063,-0.046854343,0.000534029
1.76967E+18,5.48569043,0.170592421,0.004828151,0.045670157,0.00252049,-0.055420693,0.005054704
1.76967E+18,5.495679443,0.148718735,0.007538579,0.023717852,-0.003950724,-0.071593001,0.021792673
1.76967E+18,5.505668457,0.217900116,-0.031533787,0.034366672,-0.004271547,-0.105504289,0.020999324
1.76967E+18,5.51565625,0.19488632,-0.046707975,0.015983167,-0.004334132,-0.10815227,0.016439991
1.76967E+18,5.525645264,-0.046966334,-0.033655601,-0.017679157,-0.005287733,-0.096906684,0.021971252
1.76967E+18,5.535634521,-0.193216341,-0.044240124,-0.066809098,-0.002181156,-0.088068448,0.016454514
1.76967E+18,5.545623291,-0.297742591,0.006670564,-0.12764263,-0.00016405,-0.029745009,0.020357352
1.76967E+18,5.555611328,-0.376494349,-0.006787468,-0.128403677,0.005229916,0.020033734,0.021932613
1.76967E+18,5.565600342,-0.092184947,-0.016374796,-0.048903439,0.005721508,0.009282336,0.016832948
1.76967E+18,5.575589355,0.027613983,-0.012835516,0.014330431,0.006202741,0.003550947,0.017961863
1.76967E+18,5.585578125,-0.009888649,-0.066253803,0.043425592,0.00070879,0.003021217,0.016690219
1.76967E+18,5.595566406,0.021400223,-0.058522332,0.10446546,-0.00508758,-0.011836292,0.017502217
1.76967E+18,5.60555542,0.048043315,-0.126496967,0.1127721,-0.012143988,-0.041275483,0.011787811
1.76967E+18,5.615544434,0.065612582,-0.07798165,0.070940791,-0.016335536,-0.058876846,0.00880507
1.76967E+18,5.625533447,-0.105991647,-0.001819617,-0.00507628,-0.014087835,-0.041014221,0.00919277
1.76967E+18,5.63552124,-0.154487674,-0.055492755,-0.081673198,-0.010430517,-0.016701158,-0.002695581
1.76967E+18,5.645510498,-0.170158121,0.022633857,-0.089426881,-0.004034104,0.008194015,-0.008256225
1.76967E+18,5.655499268,-0.252404443,0.040148471,-0.124914374,0.004833689,0.029429264,-0.008086316
1.76967E+18,5.665488281,-0.205252231,-0.018220716,-0.128837392,0.008954151,0.042222202,-0.018321902
1.76967E+18,5.675476563,0.000775368,-0.064762103,-0.038534313,0.008128305,0.043070152,-0.030988961
1.76967E+18,5.685465332,0.133020815,-0.084353523,0.011003332,0.002745225,0.027566658,-0.023741022
1.76967E+18,5.695454346,0.182368199,-0.034136078,0.000746434,-0.009432078,0.011227632,0.000947813
1.76967E+18,5.705443604,0.186534671,0.0222206,-0.016670857,-0.016172215,-0.008987991,0.028241437
1.76967E+18,5.715431152,0.206190097,-0.002584171,-0.004363164,-0.015135713,-0.036359694,0.028731724
1.76967E+18,5.725420166,0.192508485,0.006979776,-0.032690263,-0.010535317,-0.033778392,0.014222248
1.76967E+18,5.735409424,0.050135612,0.057763038,-0.026467443,-0.013517258,-0.004357123,0.020357106
1.76967E+18,5.745398193,-0.069851827,0.02780746,-0.083909286,-0.011273968,-0.005419957,0.021704324
1.76967E+18,5.755385742,0.040942836,-0.000337269,-0.066056234,-0.024406016,0.037252404,0.012563291
1.76967E+18,5.765374756,0.029301498,-0.025491,0.003178338,-0.014216342,0.089753672,-0.012164678
1.76967E+18,5.77536377,0.283033682,-0.187465522,0.109738724,-0.007582675,0.003380165,-0.011565201
1.76967E+18,5.785352783,0.185314482,0.005344868,-0.012885785,-0.014405065,0.002947208,0.003189574
1.76967E+18,5.79534082,-0.01199585,-0.032403555,0.014779344,-0.016686596,0.029274154,0.005903069
1.76967E+18,5.805329834,-0.099701606,0.051845923,-0.041808513,-0.016329076,0.0214309,0.019227436
1.76967E+18,5.815318848,-0.110293435,0.0220733,-0.138353701,-0.021261517,0.022836518,0.037569955
1.76967E+18,5.825307861,-0.071995561,-0.042397711,-0.063476447,-0.016702205,-0.016915653,0.038007122
1.76967E+18,5.835297119,-0.002608137,-0.035521395,0.043904024,-0.004918249,-0.035240863,0.028436255
1.76967E+18,5.845284912,-0.085336981,-0.099067108,-0.002288111,0.002549246,-0.03373643,0.006758805
1.76967E+18,5.855273682,-0.282099909,-0.03129764,0.024661563,0.00138145,-0.019285586,-0.011847902
1.76967E+18,5.865262939,-0.406688411,-0.016800913,0.029108898,0.000766725,0.005627097,-0.01820815
1.76967E+18,5.875251953,-0.297070683,-0.097376086,-0.002031506,0.002786999,0.027710827,-0.03869132
1.76967E+18,5.885239746,-0.141101538,-0.070452423,-0.018494857,0.007985441,0.049917426,-0.056238521
1.76967E+18,5.895229004,-0.065074822,-0.026467151,-0.069416651,0.010106117,0.070002981,-0.052702643
1.76967E+18,5.905218018,-0.003121347,0.036809681,-0.073692428,0.009581425,0.065559067,-0.034901172
1.76967E+18,5.915206543,0.119344465,0.037988662,-0.099502869,0.013785492,0.041293409,-0.018291835
1.76967E+18,5.925194824,0.202710146,-0.002674188,-0.054449968,0.017906146,0.013508749,-0.012995293
1.76967E+18,5.935183838,0.139056296,-0.026485271,0.048001522,0.015082662,0.004454801,-0.022006366
1.76967E+18,5.945173096,0.096282446,-0.080571666,0.116010059,0.011968568,-0.013058315,-0.035823062
1.76967E+18,5.955161865,0.083723408,-0.090981417,0.085851945,0.008230555,-0.009060112,-0.047013395
1.76967E+18,5.965149902,0.090118955,-0.025671032,0.066832772,0.00215134,-0.01052054,-0.045915298
1.76967E+18,5.975138916,0.153040398,0.099041974,0.008988778,0.000501778,-0.000517974,-0.052981731
1.76967E+18,5.985127686,0.141112937,-0.07820786,0.072979604,0.009291844,-0.018151883,-0.043000706
1.76967E+18,5.995116699,0.265523745,-0.115942839,0.113456576,2.72392E-05,-0.033025905,-0.058676071
1.76967E+18,6.00510498,0.280788241,-0.142823832,0.108746206,-0.004841197,-0.069266655,-0.070076793
1.76967E+18,6.01509375,0.063167819,-0.122841367,-0.034428339,-0.003308548,-0.090549037,-0.067365162
1.76967E+18,6.025082764,-0.219110368,-0.067340429,-0.083205522,-0.004879405,-0.085102364,-0.056739718
1.76967E+18,6.035072021,-0.413560927,-0.080045012,-0.13009996,-0.00556437,-0.05776342,-0.047574714
1.76967E+18,6.045059814,-0.416605117,-0.054497314,-0.10792203,-0.000353268,-0.035661507,-0.050034881
1.76967E+18,6.055048584,-0.269321968,-0.016018822,-0.059939797,0.004187954,-0.007307896,-0.064638861
1.76967E+18,6.065037842,-0.146898242,-0.031748306,0.014694004,0.005636601,0.011402648,-0.068202689
1.76967E+18,6.075026855,0.015866262,-0.036992637,0.03202537,0.009121347,0.013933716,-0.069667421
1.76967E+18,6.085014893,0.20876813,-0.030618426,0.034416649,0.010831946,-0.007755477,-0.077542618
1.76967E+18,6.095003906,0.306983005,-0.024742812,0.02324702,0.013744911,-0.026595477,-0.075953774
1.76967E+18,6.10499292,0.21749212,0.012125322,-0.020580431,0.012359674,-0.047690351,-0.056936055
1.76967E+18,6.114981934,0.143977386,0.007232874,-0.063057637,0.014181277,-0.055136018,-0.042066298
1.76967E+18,6.124969727,0.135552964,0.00013444,-0.075885554,0.014863892,-0.058961481,-0.032361839
1.76967E+18,6.13495874,0.095865974,-0.008731003,-0.085964173,0.012934432,-0.062017187,-0.018850826
1.76967E+18,6.144947998,0.096061496,-0.045794952,-0.073326517,0.0108526,-0.094194479,-0.01717261
1.76967E+18,6.154936768,0.101490536,0.001304068,-0.061371876,0.007933509,-0.106628507,-0.027318455
1.76967E+18,6.164925049,-0.139777889,0.110232061,-0.090289927,0.010718149,-0.075548448,-0.022170722
1.76967E+18,6.174914063,-0.296310805,0.092717447,-0.117964701,0.015792005,-0.05488551,-0.025666121
1.76967E+18,6.184902588,-0.141215812,0.034151276,-0.088289986,0.017795155,-0.052487724,-0.033183828
1.76967E+18,6.194891846,-0.047292497,0.020705519,-0.076551909,0.018540841,-0.052559894,-0.032539614
1.76967E+18,6.204879883,-0.038675475,0.042297758,-0.082579791,0.015152643,-0.056705128,-0.01727441
1.76967E+18,6.214868896,0.002913842,0.02882219,-0.112889297,0.012549669,-0.059224211,-0.011826913
1.76967E+18,6.22485791,0.042671267,0.077256258,-0.116918699,0.017198199,-0.061218075,-0.009565548
1.76967E+18,6.234846924,-0.023757015,0.066887424,-0.095809275,0.017148132,-0.059445739,-0.007035012
1.76967E+18,6.244834717,-0.053010582,0.054701897,-0.082958854,0.015416335,-0.062317256,-0.009066787
1.76967E+18,6.25482373,-0.087715693,0.020189386,-0.05945932,0.017523428,-0.047038704,-0.002452826
1.76967E+18,6.264812744,-0.052654024,-0.056416884,-0.042371407,0.019483974,-0.045769561,0.003211843
1.76967E+18,6.274802002,0.060768649,-0.039548167,-0.020923253,0.017000044,-0.061025746,0.009244168
1.76967E+18,6.284789795,0.042645548,-0.036873394,-0.027170039,0.014366491,-0.063295916,0.016922759
1.76967E+18,6.294778809,-0.026806466,-0.052639703,-0.017179098,0.009893444,-0.057323247,0.021487152
1.76967E+18,6.304768066,0.002713058,-0.032998599,-0.064939505,0.009114,-0.053700216,0.027351672
1.76967E+18,6.314756836,-0.04314736,-0.010279986,-0.120408879,0.012550277,-0.052733488,0.038947873
1.76967E+18,6.32474585,-0.065890815,-0.019312603,-0.066451371,0.006782654,-0.061066419,0.040718537
1.76967E+18,6.334733887,-0.021608605,-0.037737318,0.015802549,0.00501618,-0.055913735,0.04261604
1.76967E+18,6.3447229,-0.076471538,-0.025249592,0.00755553,0.007122851,-0.058033053,0.041649565
1.76967E+18,6.354711914,-0.096281277,-0.03855331,-0.067686758,0.012443315,-0.049381509,0.031719435
1.76967E+18,6.364700928,-0.132381933,-0.074554013,-0.016610651,0.013142413,-0.034076862,0.023633387
1.76967E+18,6.374688965,-0.095867727,-0.042182607,0.01794453,0.012719236,-0.03941064,0.019565143
1.76967E+18,6.384677979,-0.021910511,-0.081494626,0.025876784,0.012734648,-0.038806845,0.003150983
1.76967E+18,6.394666748,-0.040142918,-0.077380761,0.061959905,0.010607847,-0.011712911,0.0039731
1.76967E+18,6.404655762,-0.066361647,-0.06457564,0.064785776,0.00283521,-0.018901993,0.013431141
1.76967E+18,6.414644043,0.055915364,-0.100267716,0.033966859,-0.002597639,-0.038000055,0.012906497
1.76967E+18,6.424632813,0.032001404,-0.089095749,0.060637132,-0.006536728,-0.029309582,0.02055496
1.76967E+18,6.43462207,0.011773732,-0.081313425,0.052064534,-0.008065383,-0.039828002,0.016200691
1.76967E+18,6.44461084,0.075910689,-0.045891983,-0.007915011,-0.004687306,-0.050228953,0.008440278
1.76967E+18,6.454598633,-0.007181436,0.044499067,-0.083274788,0.000634488,-0.046478957,0.006440777
1.76967E+18,6.464587891,-0.122604051,0.004589666,-0.081550448,0.001031858,-0.033653267,0.008758055
1.76967E+18,6.474576904,-0.11631781,-0.019712416,-0.057758946,0.004472928,-0.02845584,0.008496266
1.76967E+18,6.484565674,-0.152533033,0.005070143,-0.066710899,0.007224537,-0.009040646,0.007331639
1.76967E+18,6.494553955,-0.210132697,-0.021647184,-0.044864978,0.008172357,0.022743382,-0.000453047
1.76967E+18,6.504542969,-0.127689099,-0.030664603,-0.018165187,0.009791669,0.034434948,-0.004268034
1.76967E+18,6.514531738,0.020576632,-0.023988194,0.022087036,0.009009498,0.02993767,-0.008628162
1.76967E+18,6.524520996,0.13539982,-0.067575407,0.052055181,0.003662403,0.026499262,-0.002561747
1.76967E+18,6.534508789,0.210455061,-0.104697807,0.081785718,-0.00449699,2.61094E-05,0.00116295
1.76967E+18,6.544497803,0.280288475,-0.074383333,0.07772826,-0.014029698,-0.018956741,-0.007555118
1.76967E+18,6.554486816,0.123061147,-0.053715224,0.073735098,-0.013114104,-0.040344588,-0.013079579
1.76967E+18,6.56447583,-0.018870412,-0.116058575,0.038385845,-0.01256936,-0.050011612,-0.021835402
1.76967E+18,6.574464111,-0.096015027,-0.022867665,-0.03512392,-0.006978852,-0.052667581,-0.020493701
1.76967E+18,6.584452881,-0.185546829,0.020645898,-0.077324647,-0.005515383,-0.035935085,-0.025241492
1.76967E+18,6.59444165,-0.219558404,0.022084991,-0.030682139,-0.001671376,-0.006870146,-0.030871684
1.76967E+18,6.604430908,-0.181772571,-0.00921791,-0.025330256,0.004866148,0.002601434,-0.033666547
1.76967E+18,6.614418945,-0.151335348,-0.062182023,-0.028509763,0.006334083,0.003336466,-0.038299382
1.76967E+18,6.624407715,-0.101792734,-0.0376058,-0.012922902,0.007324594,0.007162171,-0.04186241
1.76967E+18,6.634396973,-0.109273737,-0.020792028,-0.016916063,0.010135294,0.009255416,-0.043522093
1.76967E+18,6.644385742,-0.020740006,-0.026692192,-0.007792846,0.011262937,0.004495983,-0.053983308
1.76967E+18,6.654373779,0.041658875,-0.060722472,0.018067279,0.006268978,-0.003616538,-0.063446589
1.76967E+18,6.664362793,0.026681086,-0.014605448,0.03455255,0.004908521,-0.022672016,-0.063308351
1.76967E+18,6.674351807,0.065435764,0.024152444,0.015690321,-0.003267118,-0.034324676,-0.066637032
1.76967E+18,6.68434082,0.047089376,-0.003512977,0.032447979,2.60242E-05,-0.054019045,-0.076081976
1.76967E+18,6.694328857,0.091262864,-0.06395254,0.013886194,0.000692613,-0.079279922,-0.094430625
1.76967E+18,6.704317871,0.05637246,-0.041369537,-0.028749417,0.001195673,-0.07256183,-0.0923393
1.76967E+18,6.714306885,-0.057071548,0.05499708,-0.069068568,-0.002673101,-0.080348648,-0.071618572
1.76967E+18,6.724295898,0.034310266,-0.002474281,-0.06130904,-0.001042855,-0.043049987,-0.057921361
1.76967E+18,6.734285156,0.186892983,-0.069750997,-0.029800387,-0.00535984,-0.031039931,-0.044422597
1.76967E+18,6.744272949,0.165494514,-0.050451253,0.011464228,-0.014673195,-0.039598797,-0.031517766
1.76967E+18,6.754262207,0.138399586,-0.030720717,0.00546528,-0.008540467,-0.044654008,-0.013342757
1.76967E+18,6.764251465,0.098827454,-0.068217212,-0.044855918,-0.008835426,-0.043021955,-0.004567212
1.76967E+18,6.774240234,0.166388832,-0.079223759,0.041367783,-0.008584823,-0.063614048,-0.016709097
1.76967E+18,6.784228271,0.17281945,-0.044362289,0.081757077,-0.011535053,-0.110583201,-0.035019204
1.76967E+18,6.794217529,-0.021134266,-0.035332595,0.104350017,-0.016449917,-0.1345402,-0.054395299
1.76967E+18,6.804206299,-0.197507901,-0.072730305,0.079986268,-0.023715744,-0.111695483,-0.071217813
1.76967E+18,6.814195313,-0.125317109,-0.050589785,0.007181436,-0.028582403,-0.101001821,-0.077114053
1.76967E+18,6.82418335,-0.048327101,-0.018128946,-0.080263916,-0.030042017,-0.113537468,-0.060080916
1.76967E+18,6.834172363,-0.049861178,0.003341712,-0.117086749,-0.029424429,-0.094163239,-0.038828626
1.76967E+18,6.844161377,0.002290449,-0.004707739,-0.113041273,-0.026699126,-0.083521493,-0.019322889
1.76967E+18,6.854150391,0.01739391,0.04039397,-0.093915424,-0.026996866,-0.064582683,0.001764552
1.76967E+18,6.864138428,0.021721126,0.103317751,-0.048913961,-0.028707884,-0.064683668,0.026669968
1.76967E+18,6.874127441,0.088598029,-0.048057636,-0.149110365,-0.015096736,-0.094471656,0.028809819
1.76967E+18,6.884116211,-0.039738136,0.00935235,-0.177843415,-0.008499064,-0.077303275,0.027355708
1.76967E+18,6.894105225,-0.273673441,0.129400871,-0.063787705,0.000141031,-0.043314148,0.017157134
1.76967E+18,6.904093506,-0.17365707,-0.040137949,-0.057799863,0.005172602,-0.031790216,0.008127099
1.76967E+18,6.914082275,0.089255324,-0.138372113,0.034692543,0.003595212,-0.053986065,-0.003248327
1.76967E+18,6.924071533,0.18643238,-0.178797063,0.080602061,-0.007638582,-0.068964384,-0.004715361
1.76967E+18,6.934060547,0.141219612,-0.148721073,0.084628833,-0.014816866,-0.078175724,-0.000283861
1.76967E+18,6.944048096,0.118990244,-0.037941316,0.034669747,-0.015855396,-0.085205875,0.008694837
1.76967E+18,6.954037354,0.093661742,0.02604045,-0.005958616,-0.013088371,-0.082830064,0.016594039
1.76967E+18,6.964026367,0.059546706,0.028502456,-0.039724984,-0.009033858,-0.084093221,0.016093494
1.76967E+18,6.974015137,0.067360887,0.02442717,-0.043407472,-0.004598896,-0.088634178,0.006179078
1.76967E+18,6.984003418,0.039195408,0.010794366,-0.053385553,-0.003252089,-0.084595807,-0.002855409
1.76967E+18,6.993992432,-0.006193594,-0.043373862,-0.048734805,-0.000570286,-0.086189978,-0.010995894
1.76967E+18,7.003981201,0.013586627,-0.09432722,0.021301147,-0.004269094,-0.095603026,-0.027098745
1.76967E+18,7.013970459,-0.112179103,-0.048727498,0.023828035,-0.004256578,-0.091000281,-0.038971651
1.76967E+18,7.023959229,-0.247950386,0.029405543,-0.068767831,-0.024877632,-0.013426002,-0.049252696
1.76967E+18,7.03394751,-0.234970785,0.109450555,-0.068334701,-0.017891627,0.025037767,-0.073652849
1.76967E+18,7.043936279,-0.009590835,-0.059836921,-0.012620412,-0.006534105,0.005260166,-0.074024573
1.76967E+18,7.053925293,0.090804307,-0.055150225,-0.147089673,0.002440748,-0.020434545,-0.055803753
1.76967E+18,7.063914551,0.068571432,0.020056115,-0.088732176,-0.003233305,-0.041061938,-0.038174286
1.76967E+18,7.073902344,-0.145368256,0.124103934,-0.204811209,0.001570238,-0.056506939,0.008685893
1.76967E+18,7.083891113,-0.169837219,-0.088883568,-0.133189158,0.011402959,-0.037819684,0.00256604
1.76967E+18,7.093880371,0.002709551,-0.054444122,0.01715221,0.005968246,-0.04706325,-0.009171575
1.76967E+18,7.103869141,-0.148418876,-0.045334349,0.064524202,0.006747015,-0.046654284,-0.003899635
1.76967E+18,7.113857178,-0.216606569,-0.040901919,0.02518208,0.005698529,-0.029834293,0.001744669
1.76967E+18,7.123846436,-0.15429975,-0.01855214,0.001368073,0.001903494,-0.02310417,0.009163728
1.76967E+18,7.133835449,-0.036180736,-0.07523089,0.005541268,-0.002733335,-0.02288872,0.014325202
1.76967E+18,7.143824463,0.104983931,-0.09462065,0.014075287,-0.008968627,-0.037449196,0.014352045
1.76967E+18,7.153812256,0.148890877,-0.017310031,-0.003391396,-0.005898002,-0.048701324,0.021417147
1.76967E+18,7.16380127,0.048710839,0.03016016,-0.019431553,-0.004051419,-0.0582119,0.022273129
1.76967E+18,7.173790283,-0.119022393,-0.019826982,0.009264672,-0.004440506,-0.038497582,0.013144877
1.76967E+18,7.183779297,-0.118844114,-0.002030629,-0.018676643,-0.00296085,-0.031160315,0.009881766
1.76967E+18,7.193767334,-0.085368545,0.007242811,-0.037979602,-0.003381097,-0.023009444,0.018729586
1.76967E+18,7.203756348,-0.11745149,-0.010841712,-0.053813716,-0.000311019,-0.019610975,0.019160373
1.76967E+18,7.213745361,-0.061021747,-0.003736848,-0.049389469,-0.000632728,-0.012275564,0.012025764
1.76967E+18,7.223734619,-0.074639938,-0.009942717,-0.029838673,0.001489592,-0.005270748,0.009781949
1.76967E+18,7.233722412,-0.064067983,-0.006819032,-0.011108546,0.003749284,0.004613042,0.006160051
1.76967E+18,7.243711182,-0.010447452,-0.0653098,0.016852935,0.002820437,0.01319227,0.000774431
1.76967E+18,7.253700439,0.005075111,-0.066045128,-0.009683482,0.001726677,0.010144282,-2.98438E-05
1.76967E+18,7.263689453,0.010716624,-0.065632456,-0.082850133,0.002579765,0.006323566,0.003985808
1.76967E+18,7.273677246,-0.02908464,-0.057760115,-0.048740066,0.000886794,0.008046631,0.007685472
1.76967E+18,7.283666504,4.23778E-05,-0.060884385,-0.005790858,-0.00461461,0.007896936,0.00613872
1.76967E+18,7.293655273,0.030545945,-0.075852237,0.013643325,-0.008813616,0.007531284,0.001918941
1.76967E+18,7.303644043,-0.002706921,-0.071392335,0.0257289,-0.013119807,0.003750588,0.004511105
1.76967E+18,7.313632324,-0.058303428,-0.066848846,0.012947452,-0.011710461,0.001130836,0.006043488
1.76967E+18,7.323621338,-0.049609542,-0.06093933,-0.002007833,-0.012134436,0.004234267,0.003637174
1.76967E+18,7.333610596,-0.048425008,-0.040254853,-0.010439269,-0.008812143,0.006218056,-0.000540527
1.76967E+18,7.343599365,-0.021367782,-0.041458384,0.009189561,-0.008360517,0.004566993,-0.005114671
1.76967E+18,7.353588379,-0.022672727,-0.049458735,-0.002357961,-0.006068601,0.001481188,-0.013082316
1.76967E+18,7.363576416,-0.043812546,-0.022089082,-0.01248831,-0.006531632,0.007715404,-0.014421141
1.76967E+18,7.373565186,-0.090006434,0.0080325,-0.008731588,-0.005577687,0.01872864,-0.009848228
1.76967E+18,7.383554199,-0.065192311,-0.009492051,-0.000408873,-0.006802273,0.018284885,-0.01067937
1.76967E+18,7.393543457,-0.000517886,-0.041204702,-0.007923486,-0.007897365,0.014894416,-0.009036199
1.76967E+18,7.403531494,0.03659107,-0.048155251,-0.015304244,-0.007603638,0.010098108,-0.007966595
1.76967E+18,7.413520264,0.013312778,-0.042994508,-0.020414135,-0.008636679,0.006375276,-0.00895809
1.76967E+18,7.423509521,-0.016903496,-0.035198739,-0.015185879,-0.010339276,0.005784639,-0.006930388
1.76967E+18,7.433498291,-0.037616614,-0.044855625,-0.02412468,-0.009479341,0.003828547,-0.006264331
1.76967E+18,7.443486328,-0.035241702,-0.013024901,-0.027634149,-0.007945911,0.004106895,-0.008425144
1.76967E+18,7.453475342,-0.04825462,0.008892332,-0.03658844,-0.006100073,0.011468405,-0.012711502
1.76967E+18,7.463464355,-0.040823009,-0.008560908,-0.02787731,-0.006950889,0.02134406,-0.012697564
1.76967E+18,7.473453369,-0.021603052,-0.04526596,0.010678923,-0.005174827,0.025411507,-0.012689575
1.76967E+18,7.483441406,0.053870414,-0.040583939,-0.013091829,-0.004609485,0.023794532,-0.012996003
1.76967E+18,7.49343042,0.062005205,-0.029986557,-0.015030688,-0.001202237,0.023307705,-0.015742522
1.76967E+18,7.503419189,0.072740827,-0.021680501,-0.026656536,-0.00229606,0.01620462,-0.016330492
1.76967E+18,7.513408203,0.064643153,-0.02483049,-0.037776188,-0.000523726,0.003685898,-0.013603413
1.76967E+18,7.52339624,0.029223756,-0.009545827,-0.025590953,-0.003627719,-0.002151024,-0.00933625
1.76967E+18,7.533385498,-0.000963877,-0.026787469,0.008876257,-0.004441049,-0.001085494,-0.00625444
1.76967E+18,7.543374268,0.019562779,-0.044258828,0.003318039,-0.005655707,-0.006724208,-0.008808625
1.76967E+18,7.553363525,0.049969607,-0.048535775,-0.012988661,-0.007232298,-0.011927758,-0.012730663
1.76967E+18,7.563351318,-0.004800971,-0.012760697,-0.02584142,-0.004886485,-0.011166333,-0.012792244
1.76967E+18,7.573340088,-0.057608139,0.000290507,-0.047180561,-0.005169845,-0.009067495,-0.013351242
1.76967E+18,7.583329346,-0.058211366,-0.001551321,-0.049250353,-0.002757588,-0.004948288,-0.012657072
1.76967E+18,7.593318359,-0.034272564,-0.005429039,-0.041668227,-0.002746403,-0.0011413,-0.014167884
1.76967E+18,7.603306396,-0.044328094,-0.015939912,-0.015807518,-0.002385935,0.001929302,-0.009655195
1.76967E+18,7.61329541,-0.045735331,-0.016582301,-0.019672084,-0.001358487,0.003784726,-0.006315592
1.76967E+18,7.623284424,-0.036975686,-0.049783729,-0.038275662,-0.004457152,0.014432722,-0.011303565
1.76967E+18,7.633273438,-0.016339725,-0.058195584,-0.003725158,-0.007639097,0.018888723,-0.005724242
1.76967E+18,7.643262451,0.003079261,-0.066559508,-0.002178221,-0.00915024,0.015581221,-0.001518401
1.76967E+18,7.653250244,0.006168752,-0.05619535,-0.023701778,-0.008892446,0.010652776,-0.001224654
1.76967E+18,7.663239502,-0.023921266,-0.0268354,-0.057754562,-0.009884692,0.004032593,-0.001317967
1.76967E+18,7.673228271,-0.077978727,-0.00629647,-0.057297466,-0.008895061,3.0661E-05,-0.001359778
1.76967E+18,7.683217529,-0.078870708,0.014675007,-0.022887247,-0.004810288,0.003189122,-0.001089809
1.76967E+18,7.693205566,-0.067714231,0.003480828,-7.92027E-05,-0.004415873,0.012644409,-0.001790487
1.76967E+18,7.703194336,-0.026941491,-0.040253684,0.042840194,-0.006364759,0.017801039,-0.00136339
1.76967E+18,7.71318335,0.076287413,-0.070843469,0.023223931,-0.00702975,0.012836374,0.001611361
1.76967E+18,7.723172363,0.063062898,-0.065067808,-0.002752514,-0.00996789,0.006117243,0.006779262
1.76967E+18,7.7331604,0.051214931,-0.048165773,-0.031838907,-0.006967839,-0.005586551,0.003762167
1.76967E+18,7.743149414,0.018234453,0.004867314,-0.082470486,-0.002395818,-0.007765356,-0.003178894
1.76967E+18,7.753138672,-0.075290803,0.052781742,-0.080620766,0.001108369,0.002925372,0.002610818
1.76967E+18,7.763127441,-0.124035253,0.040709612,-0.050754912,0.002088099,0.012910992,0.004488182
1.76967E+18,7.773115723,-0.011133973,-0.019140169,-0.020534254,0.003070539,0.01657417,0.000236978
1.76967E+18,7.783104736,0.067104282,-0.060764558,0.007535072,0.003952655,0.014396357,-0.002942165
1.76967E+18,7.793093994,0.099238081,-0.058814593,0.014753332,0.001352078,0.001909328,-0.00077808
1.76967E+18,7.803082764,0.070046473,-0.063494859,0.002511691,-0.000809876,-0.009481278,-0.000733872
1.76967E+18,7.813070557,-0.047215632,-0.021318098,-0.026312837,0.000743013,-0.008746246,0.001155907
1.76967E+18,7.823059814,-0.128495739,-0.009835165,-0.049507835,0.001601006,0.000927033,0.00079784
1.76967E+18,7.833048584,-0.184983058,-0.120409756,-0.049563365,-0.002491473,0.023078674,0.014267842
1.76967E+18,7.843037598,-0.074682024,-0.002250994,-0.046162616,8.79047E-05,0.008701138,0.005725068
1.76967E+18,7.853025879,0.067784958,0.050271805,-0.018130115,0.002408051,0.01408525,0.001021659
1.76967E+18,7.863014648,-0.075185882,-0.003143559,-0.031673488,0.004603717,0.025212348,0.004821228
1.76967E+18,7.873003662,-0.033946693,-0.015457681,-0.027273791,0.005121701,0.021405093,-9.01734E-05
1.76967E+18,7.882992676,0.046336512,-0.01852759,-0.010542145,0.005638494,0.015419612,-0.002146967
1.76967E+18,7.892981445,-0.004059797,-0.045166006,0.003895838,0.004214236,0.018462008,-0.000730964
1.76967E+18,7.902969482,-0.017568098,-0.067651394,0.022826749,-0.002474272,0.023779811,-0.004222861
1.76967E+18,7.91295874,0.044283378,-0.059845689,0.032837271,0.001966282,0.026855497,-0.007249543
1.76967E+18,7.922947754,0.035512335,-0.021507483,-0.012303601,0.003124304,0.022665933,-0.004380384
1.76967E+18,7.932936768,0.046960781,-0.007490648,-0.033710839,0.003390087,0.017880499,-0.006147391
1.76967E+18,7.942924561,0.051932432,0.008556231,-0.037555531,0.00170252,0.010580363,-0.006012231
1.76967E+18,7.952913574,0.000652619,-0.004852116,-0.058021981,0.00285194,0.006424766,-0.004323787
1.76967E+18,7.962902588,-0.009665069,-0.024319033,-0.02834785,0.00232164,0.00197903,-0.006038154
1.76967E+18,7.972891602,-0.036457215,-0.044077627,-0.028940848,-0.00274023,0.012122477,0.002611261
1.76967E+18,7.982879639,-0.098808457,-0.108273912,-0.011968378,-0.000208402,0.013870935,0.011381741
1.76967E+18,7.992868896,0.058397536,-0.019411387,0.014206805,0.002816416,0.003323219,0.000877168
1.76967E+18,8.002857666,0.094558398,-0.016169045,0.002158639,0.000425801,-0.000233137,-0.000683512
1.76967E+18,8.012846924,-0.039516895,0.035897827,-0.017024785,0.000160816,0.005442592,0.002652364
1.76967E+18,8.022834717,-0.07405074,0.005589198,-0.043854632,0.00131409,0.008325755,0.002850806
1.76967E+18,8.032823486,-0.021335341,-0.026065,-0.036724049,0.001731141,0.00859287,0.003393026
1.76967E+18,8.042812744,-0.029261166,-0.029510172,-0.012869418,0.001863311,0.011799653,0.000914708
1.76967E+18,8.052801758,-0.042216509,-0.024425416,-0.042823535,0.000970353,0.015511035,-0.000306885
1.76967E+18,8.062789795,-0.030868601,-0.000477554,-0.029044308,-0.000163854,0.015313647,-0.001122906
1.76967E+18,8.072778809,-0.023834757,-0.015846388,-0.000606441,0.002591186,0.01249842,-0.004642007
1.76967E+18,8.082767578,-0.01087766,-0.030499768,-0.010430793,-0.000811488,0.010544628,-0.007495685
1.76967E+18,8.092756592,0.011625556,-0.035302784,-0.0183724,0.000392527,0.00810171,-0.006171295
1.76967E+18,8.102744629,0.029008652,-0.051386488,-0.011109715,-0.000177656,0.004087527,-0.005767293
1.76967E+18,8.112733643,0.039129941,-0.044962593,-0.002463175,-0.002767047,-0.002296869,-0.003089751
1.76967E+18,8.1227229,0.017110125,-0.027218846,-0.013383505,-0.002209742,-0.002151266,-0.000355282
1.76967E+18,8.13271167,-0.011527648,-0.018523499,-0.017351825,-0.00112983,0.003150022,-0.001235723
1.76967E+18,8.142699707,0.003809037,-0.043699441,-0.005144085,6.96889E-05,0.003586999,-0.002402748
1.76967E+18,8.152688721,0.053102352,-0.053391983,0.003325345,-0.000607553,0.000154184,-0.002262665
1.76967E+18,8.16267749,0.032410277,-0.035398646,-0.032188451,0.001333422,-0.001752785,0.000181942
1.76967E+18,8.172666504,0.015586568,-0.026938276,-0.038982642,-0.002220833,0.000166022,0.002022186
1.76967E+18,8.182655762,0.025058453,-0.037034138,-0.02325345,-0.000762768,-0.006324851,0.004076356
1.76967E+18,8.192643799,0.015019582,-0.028575522,-0.02370207,-0.001894611,-0.011856503,0.002592709
1.76967E+18,8.202632813,-0.022531858,-0.019105682,-0.020942835,-0.001661397,-0.00770156,0.000237271
1.76967E+18,8.212621826,-0.046036944,-0.025058453,-0.032677404,0.000530385,-0.004176334,-0.004347361
1.76967E+18,8.222610596,-0.034448505,-0.037754853,-0.024751579,-0.001175025,-0.001563918,-0.008627721
1.76967E+18,8.232598633,-0.005836743,-0.043837388,-0.021247371,-0.001307384,0.002767713,-0.004792503
1.76967E+18,8.242587646,-0.017981939,-0.016140403,-0.02888035,-0.000667313,0.003958746,0.001590198
1.76967E+18,8.25257666,0.013741233,-0.03064999,-0.024679391,-0.000911791,-0.000175279,0.003391827
1.76967E+18,8.262565674,0.028783027,-0.040840544,-0.00323416,-0.003137822,-0.004202481,0.003230371
1.76967E+18,8.272553711,-0.007524843,-0.042401802,-0.020524317,-0.003486963,-0.003731901,0.003355806
1.76967E+18,8.282542969,-0.033680151,-0.027695232,-0.034114159,-0.003566842,0.000343486,0.000995639
1.76967E+18,8.292531494,-0.01435352,-0.032901568,-0.039940088,-0.00416339,-0.000505796,0.000119725
1.76967E+18,8.302520508,-0.011537585,-0.026194179,-0.027824703,-0.003539824,-0.002036343,-0.000158651
1.76967E+18,8.312508789,0.01016279,-0.027706922,-0.018142975,-0.004423461,-0.005385801,-0.000547472
1.76967E+18,8.322497803,-0.007572481,-0.027262685,-0.025746436,-0.002919432,-0.007974585,-0.002271136
1.76967E+18,8.332486572,-0.015818331,-0.017646716,-0.008807868,-0.002012626,-0.003726044,-0.004859196
1.76967E+18,8.34247583,-0.035978784,-0.028402503,-0.000598843,-0.003062799,0.001388438,-0.008463973
1.76967E+18,8.352463867,0.038053544,-0.056269584,-0.011378011,-0.001764774,9.12123E-05,-0.010179583
1.76967E+18,8.362452393,0.046916065,-0.040004094,-0.031112347,-0.002720647,-0.004969448,-0.008674721
1.76967E+18,8.37244165,0.031771395,-0.020751112,-0.036829847,-0.003271122,-0.005806479,-0.006808378
1.76967E+18,8.382430664,-0.00031798,-0.004030278,-0.01886106,-0.001067778,-0.007410477,-0.005821953
1.76967E+18,8.392418701,-0.015866554,-0.006669979,-0.032500002,-0.003554904,-0.008687995,-0.003082359
1.76967E+18,8.402407715,-0.025480478,-0.011592238,-0.026475919,-0.001506699,-0.011331668,-0.002814949
1.76967E+18,8.412396729,-0.038852001,-0.011381226,-0.015750819,-0.000625992,-0.008822171,-0.00537185
1.76967E+18,8.422385742,-0.038778936,-0.017225276,-0.016199732,0.001111721,-0.004068961,-0.006728731
1.76967E+18,8.432374756,-0.020008477,-0.009723522,-0.006089549,0.001720519,0.001363621,-0.008342873
1.76967E+18,8.442362549,0.03204992,-0.021931261,-0.017794015,0.00167239,-0.002145724,-0.004229092
1.76967E+18,8.452351807,0.046651569,-0.022405893,-0.021954642,-0.000576116,-0.007672582,-0.003497522
1.76967E+18,8.462340576,0.007915595,-0.016044541,-0.03745324,0.003606006,-0.01063542,0.000149828
1.76967E+18,8.472329834,-0.039411388,-0.004319032,-0.031268998,0.00237749,-0.00821221,-0.001395071
1.76967E+18,8.482317871,-0.049904433,-0.01152268,-0.013978841,0.002515552,-0.005811612,-0.003086721
1.76967E+18,8.492306641,-0.02804536,-0.052065118,0.00452303,0.002794119,-0.00556234,-0.002677926
1.76967E+18,8.502295654,-0.010475801,-0.032206572,-0.023132746,0.000730496,-0.005461553,-0.001646922
1.76967E+18,8.512284668,0.001118483,-0.016941198,-0.0510764,0.000567777,-0.011303728,0.001290278
1.76967E+18,8.522272705,-0.000722469,0.008898761,-0.050908934,0.002415495,-0.011135682,0.002878365
1.76967E+18,8.532261719,-0.011471827,0.004513678,-0.002722995,0.002429344,-0.007337748,0.001777947
1.76967E+18,8.542250732,-0.006285072,-0.047656654,0.028264264,0.000829472,-0.00709068,-0.001395052
1.76967E+18,8.552239502,0.039850072,-0.067860069,0.021998189,-0.000642457,-0.00671118,-0.002799337
1.76967E+18,8.562227539,0.034130233,-0.06792612,-0.001984744,-0.002873323,-0.008684944,-0.001115476
1.76967E+18,8.572216553,-0.009886896,-0.047917351,-0.027028292,-0.001823771,-0.012969172,-0.000538902
1.76967E+18,8.582205811,0.007015724,-0.026318683,-0.031078737,0.000150335,-0.017020712,-0.007315912
1.76967E+18,8.59219458,-0.031055648,-0.02262392,-0.030234687,0.003107243,-0.012354321,-0.006146784
1.76967E+18,8.602182617,-0.046584349,-0.004723521,-0.03935732,0.005466739,-0.005674702,-0.00456176
1.76967E+18,8.612171875,-0.0075491,-0.000939327,-0.020225626,0.00668833,-0.001533753,-0.001373956
1.76967E+18,8.622160645,0.039367257,-0.022122984,0.003233867,0.006277795,-0.001188584,-0.003781148
1.76967E+18,8.632149658,0.038161973,-0.020986089,0.004750994,0.005712938,-0.009595384,-0.001922528
1.76967E+18,8.642138916,-0.002467851,-0.037968204,-0.000528408,0.001075408,-0.015259104,-0.002365206
1.76967E+18,8.652126709,-0.035016953,-0.041546647,-0.02073533,0.003037093,-0.016287882,-0.005004132
1.76967E+18,8.662115479,-0.071460139,-0.030945758,-0.030401568,0.002485614,-0.011336364,-0.007311816
1.76967E+18,8.672104736,-0.062835226,-0.025590953,-0.017770342,0.003751681,-0.010400795,-0.005981301
1.76967E+18,8.68209375,-0.04539397,-0.032761283,-0.035233518,0.003851033,-0.006965366,-0.001779173
1.76967E+18,8.692081543,-0.032719782,-0.012143442,-0.043640112,0.002306933,-0.005493702,-0.000671831
1.76967E+18,8.702070801,0.011833938,0.004534136,-0.034354397,0.003606633,-0.008209473,-0.002457875
1.76967E+18,8.71205957,-0.004809446,0.001092471,-0.021242987,0.002017259,-0.009866758,0.003210131
1.76967E+18,8.722048584,-0.005242577,-0.021933015,-0.021555998,0.002680428,-0.012675744,0.00163146
1.76967E+18,8.732036621,0.017715397,-0.040636546,-0.020817747,-0.000506576,-0.012306362,0.001000291
1.76967E+18,8.742025635,-0.002530103,-0.043922728,-0.023295535,0.001359067,-0.011918749,0.006617076
1.76967E+18,8.752013916,-0.016107377,-0.037125323,-0.03258505,0.003925023,-0.006158598,0.002187174
1.76967E+18,8.762002686,0.012953005,-0.033038346,-0.01131839,0.003591578,-0.007043251,0.001115059
1.76967E+18,8.771990479,0.01038257,-0.020588615,-0.018509178,0.002540428,-0.010256355,0.002559025
1.76967E+18,8.781979736,0.002533026,-0.00441957,-0.046677872,0.004472223,-0.013085068,0.004492801
1.76967E+18,8.79196875,-0.03826368,0.013347557,-0.054830784,0.004768633,-0.014262717,0.006918408
1.76967E+18,8.80195752,-0.041169923,-0.005920622,-0.031491701,0.005162795,-0.013870219,0.004709511
1.76967E+18,8.811945801,-0.01884557,-0.025650574,-0.014635259,0.007218222,-0.007495676,0.003733196
1.76967E+18,8.821934814,-0.02630027,-0.016031097,-0.019218203,0.007653153,-0.008342032,0.003985814
1.76967E+18,8.831923828,-0.014237784,0.012490064,-0.067091715,0.011673461,-0.004829323,0.001835844
1.76967E+18,8.841912598,-0.055037412,0.033633974,-0.087857147,0.017729968,0.003913936,-0.002070435
1.76967E+18,8.851900635,-0.075983169,0.055050272,-0.088663787,0.023085319,0.00694994,-0.003584176
1.76967E+18,8.861889893,-0.047962067,0.057706924,-0.043307811,0.026697477,0.008581951,-0.002159399
1.76967E+18,8.871878662,-0.028157588,0.032713352,-0.017393618,0.029697262,0.005583231,-0.000334867
1.76967E+18,8.881867676,-0.021451077,0.020665187,-0.015948972,0.036298972,0.00306681,-0.002548486
1.76967E+18,8.891856689,-0.068792673,0.028438159,-0.024742812,0.044188321,-0.000741776,-0.006325915
1.76967E+18,8.901844482,-0.142976685,0.078708211,-0.067433952,0.054468282,0.000332204,-0.019608008
1.76967E+18,8.911833496,-0.196827517,0.14624387,-0.049197162,0.065648764,0.02078688,-0.034433026
1.76967E+18,8.921822754,-0.192787886,0.144058342,-0.029598143,0.070962206,0.030030105,-0.03402989
1.76967E+18,8.931811523,-0.152757782,0.12506255,-0.022771512,0.07543578,0.024070751,-0.032245837
1.76967E+18,8.941799561,-0.001848258,0.108988198,-0.065476389,0.083806664,0.013512067,-0.05056788
1.76967E+18,8.951788818,0.173999599,0.118141226,-0.078062606,0.09490326,0.016586155,-0.066891991
1.76967E+18,8.961777588,0.22746757,0.085100542,-0.041052434,0.096367732,0.033915076,-0.06473989
1.76967E+18,8.971766846,0.315665494,-0.000263035,-0.10005758,0.092015326,0.025402281,-0.047736138
1.76967E+18,8.981754639,0.462218283,-0.224898889,-0.033793841,0.080420375,-0.020136029,-0.045726124
1.76967E+18,8.991743652,0.768447547,-0.574945083,0.26454204,0.061304472,-0.09860447,-0.069656491
1.76967E+18,9.001732666,0.608476766,-0.588137742,0.330128319,0.024071693,-0.130597159,-0.062463954
1.76967E+18,9.01172168,0.259694892,-0.492828525,0.401608916,-0.005264623,-0.090850823,-0.042614348
1.76967E+18,9.021709717,0.800960701,-0.725621382,0.597360328,-0.05273721,-0.194855496,-0.021997716
1.76967E+18,9.03169873,0.71145491,-0.396237452,0.411295905,-0.086202487,-0.321082145,0.04668228
1.76967E+18,9.0416875,-0.193970959,-0.040837037,0.012324936,-0.084421881,-0.302024066,0.075657934
1.76967E+18,9.051676758,-0.754749862,0.129563953,-0.171451084,-0.05038802,-0.24346143,0.023975825
1.76967E+18,9.061664795,-0.762193748,0.012658991,-0.246097452,-0.023893997,-0.165241912,-0.054272577
1.76967E+18,9.071653564,-0.962564052,0.019645781,-0.264483588,0.014724767,-0.059387393,-0.09392225
1.76967E+18,9.081642822,-1.023437331,0.306263167,-0.279772342,0.049764663,0.063801095,-0.099591047
1.76967E+18,9.091631592,-0.788193866,0.428072852,-0.185062261,0.071749061,0.141171515,-0.108311035
1.76967E+18,9.10162085,-0.248016437,0.295626622,-0.029857086,0.088434771,0.159513608,-0.134029925
1.76967E+18,9.111608643,0.106891518,-0.04664134,-0.038121933,0.091895014,0.105700172,-0.156036422
1.76967E+18,9.121597656,0.22615298,-0.204051331,-0.035525779,0.081894711,0.068901166,-0.169543356
1.76967E+18,9.13158667,0.171551622,-0.146378894,0.040723348,0.072283365,0.042233605,-0.169184625
1.76967E+18,9.141575684,0.153816058,-0.102604634,0.123254331,0.055744451,-0.008194124,-0.161101148
1.76967E+18,9.151563721,0.2985051,-0.072574238,-0.045755789,0.033210378,-0.015636593,-0.132557124
1.76967E+18,9.161552734,0.208594235,-0.027671851,-0.129070617,0.011173316,-0.043137338,-0.077152893
1.76967E+18,9.171541748,0.102993341,0.000799041,-0.068959847,-0.005162247,-0.071104795,-0.036513589
1.76967E+18,9.181530762,0.078879768,-0.013473814,-0.085578096,-0.013006356,-0.073488005,-0.015693232
1.76967E+18,9.191518799,-0.04175386,0.005800795,-0.091374215,-0.012475854,-0.064616486,-0.011948828
1.76967E+18,9.201507568,-0.091606563,0.037558454,-0.1014277,-0.003231377,-0.037347771,-0.023043981
1.76967E+18,9.211496582,-0.128659405,0.077622753,-0.079151863,0.005677962,-0.002967428,-0.026186245
1.76967E+18,9.22148584,-0.136167881,0.084152447,-0.086209088,0.013895897,0.009451522,-0.019434765
1.76967E+18,9.231473633,-0.050317398,0.045491001,-0.072063073,0.01556863,0.006387289,-0.014883423
1.76967E+18,9.241462891,0.047691141,0.019651626,-0.035359483,0.0122609,-0.011864761,-0.011322257
1.76967E+18,9.25145166,0.087037647,0.001996142,-0.037383974,0.011962892,-0.032451525,-0.006762126
1.76967E+18,9.26144043,0.03016016,0.015296353,-0.033099429,0.00934916,-0.044296008,0.001542294
1.76967E+18,9.271428711,-0.047729427,-0.012969372,-0.008495733,0.00884236,-0.042303696,-0.000124312
1.76967E+18,9.281417725,-0.066961659,-0.023026655,-0.0308271,0.009073492,-0.027340945,0.001834204
1.76967E+18,9.291406494,-0.065377604,-0.039646951,-0.071203534,0.01160536,-0.012979583,0.000200887
1.76967E+18,9.301395752,0.000820376,-0.025341947,-0.086408994,0.009220687,-0.008514915,0.002047386
1.76967E+18,9.311383545,0.02655366,-0.0153437,-0.065578388,0.010052659,-0.014967486,0.005773947
1.76967E+18,9.321372559,0.042717152,-0.022796354,-0.053500704,0.005302859,-0.030742312,0.012769497
1.76967E+18,9.331361572,0.013847324,-0.010274726,-0.048615855,0.006232569,-0.033070713,0.019100631
1.76967E+18,9.341350586,-0.020945173,-0.005749942,-0.046285366,0.007463605,-0.024555501,0.016967744
1.76967E+18,9.351339844,-0.001239186,-0.029703064,-0.050559098,0.005806586,-0.021289399,0.014964513
1.76967E+18,9.361327637,0.063704703,-0.04319909,-0.057470777,0.003700749,-0.025134057,0.021845713
1.76967E+18,9.37131665,0.084250355,-0.02620587,-0.048572015,-0.000312102,-0.034152586,0.033850178
1.76967E+18,9.381305908,0.078319211,-0.008648586,-0.014666531,-0.003345361,-0.041391518,0.045219228
1.76967E+18,9.391294678,0.056643678,-0.005847557,-0.01332593,-0.003587975,-0.050663844,0.050084557
1.76967E+18,9.401282471,0.030541269,-0.013858429,0.00152151,-0.004087192,-0.051496323,0.041413341
1.76967E+18,9.411271729,-0.011870471,-0.025285248,0.013827742,0.00318377,-0.045551348,0.033533581
1.76967E+18,9.421260742,-0.021492285,-0.020703765,0.030362113,0.008022591,-0.046784636,0.024129996
1.76967E+18,9.431249756,0.020461773,-0.033415947,0.039510757,0.012046363,-0.051310677,0.015277915
1.76967E+18,9.441237793,0.047103989,-0.027243396,0.035708735,0.011673158,-0.059291229,0.00923582
1.76967E+18,9.451226807,0.044249476,-0.022651392,0.011337971,0.01299089,-0.06238129,0.011736261
1.76967E+18,9.461215576,0.007925825,-0.025434301,0.000392506,0.010211602,-0.061390013,0.021191619
1.76967E+18,9.47120459,0.005115151,-0.029569209,-0.013918343,0.007577735,-0.059040576,0.025805812
1.76967E+18,9.481192627,0.00602759,-0.043600072,-0.012104279,0.003624217,-0.059077553,0.024683548
1.76967E+18,9.491181641,-0.019580607,-0.064244216,-0.006655074,0.00251288,-0.058606971,0.027030325
1.76967E+18,9.501170654,-0.12424042,-0.07316402,-0.013693302,-0.001131208,-0.050883554,0.028508425
1.76967E+18,9.511159912,-0.231281868,-0.056938277,-0.03172288,-0.000199635,-0.034294993,0.027862875
1.76967E+18,9.521147705,-0.295399827,-0.046154433,-0.062397712,0.002937065,-0.012051304,0.022396062
1.76967E+18,9.531136475,-0.290421162,-0.042039399,-0.033328854,0.003093658,0.008649447,0.018160304
1.76967E+18,9.541125732,-0.226809691,-0.049492053,-0.002361761,0.005133862,0.02468076,0.015675791
1.76967E+18,9.551114746,-0.093474403,-0.027744331,-0.006804419,0.00771766,0.025682375,0.012986531
1.76967E+18,9.561103516,0.006204408,-0.026410453,0.015398937,0.008192112,0.019958684,0.00519728
1.76967E+18,9.571091797,0.053054714,-0.03490414,0.060845222,0.00991065,0.006938223,-0.000428115
1.76967E+18,9.581080811,0.054597852,-0.050038581,0.061990592,0.008657632,5.76805E-05,-0.005854572
1.76967E+18,9.59106958,0.078019644,-0.100279991,0.027986908,0.005681816,0.000182849,-0.010180345
1.76967E+18,9.601058838,0.08359043,-0.105377022,-2.63035E-06,0.000861557,-0.001564863,-0.007870226
1.76967E+18,9.611046631,0.084055125,-0.075851652,-0.00743658,-0.001320371,-0.001056998,-0.002644571
1.76967E+18,9.621035889,0.091264618,-0.047757192,-0.030864217,-0.000844245,-0.013621695,0.00124188
1.76967E+18,9.631024658,0.019670331,-0.001079612,-0.050744099,0.00036483,-0.010340947,0.006226519
1.76967E+18,9.641013672,-0.120632459,-0.011772271,-0.063211951,0.001834707,0.00612257,0.005990434
1.76967E+18,9.651001953,-0.14971593,-0.031574703,-0.047018064,0.001370518,0.016397579,0.003509167
1.76967E+18,9.660990723,-0.070147595,-0.037919104,-0.026126959,0.000430689,0.020433333,0.006347298
1.76967E+18,9.670979492,-0.034134617,-0.032789924,-0.027620705,-0.001498505,0.016445782,0.012170565
1.76967E+18,9.68096875,0.01425532,-0.029247722,-0.032138475,-0.003785148,0.009945848,0.014804419
1.76967E+18,9.690956787,0.038716976,-0.025836452,-0.013803484,-0.003791007,5.40691E-05,0.011938326
1.76967E+18,9.700945557,0.013799393,-0.043031332,-0.023149989,-0.000782885,-0.000161524,0.000230672
1.76967E+18,9.710934814,-0.036493163,-0.059805942,-0.02076777,-0.003229531,0.008776577,-0.004945448
1.76967E+18,9.720923584,-0.077295129,-0.052945993,-0.023836218,-0.006803272,0.014867374,0.001987777
1.76967E+18,9.730911377,-0.027084406,-0.062525137,-0.019027357,-0.008098368,0.018719902,0.009449156
1.76967E+18,9.740900635,0.006697452,-0.0435235,-0.003710253,-0.009165904,0.022962559,0.014759682
1.76967E+18,9.750889404,0.034940965,-0.03631693,-0.004102759,-0.011932129,0.017522253,0.015180729
1.76967E+18,9.760878418,0.069614803,-0.061133391,-0.021740707,-0.013808592,0.010487247,0.020445
1.76967E+18,9.770867432,0.025879414,-0.020125089,-0.009567162,-0.011796308,0.005512197,0.020393334
1.76967E+18,9.780855469,-0.016302023,-0.02449965,0.001303192,-0.010976163,0.001452451,0.016159981
1.76967E+18,9.790844482,-0.067735858,-0.034037879,-0.010644144,-0.008147353,0.011106143,0.006558486
1.76967E+18,9.800833496,-0.076448449,-0.052525137,-0.016183073,-0.007157801,0.027331863,-0.004655956
1.76967E+18,9.81082251,-0.038937049,-0.040006432,-0.01778817,-0.008765818,0.035791129,-0.001395448
1.76967E+18,9.820810547,-0.026459845,-0.01796528,-0.014311726,-0.00937952,0.03628885,0.008097665
1.76967E+18,9.830799316,-0.023859307,-0.06242986,-0.020265666,-0.011179284,0.037088595,0.012245005
1.76967E+18,9.840788574,-0.002383973,-0.090544779,0.001426526,-0.015764704,0.030269038,0.009266311
1.76967E+18,9.850777344,-0.051112932,-0.05409867,-0.004828735,-0.014930069,0.033860043,0.009462854
1.76967E+18,9.860765381,-0.181255562,-0.013452187,-0.036569443,-0.018560579,0.049544081,0.023479946
1.76967E+18,9.870754395,-0.237288999,-0.042262102,-0.049709495,-0.021935338,0.060227882,0.02491246
1.76967E+18,9.880743408,-0.139367554,-0.057933134,-0.032145489,-0.023323566,0.068959445,0.018424338
1.76967E+18,9.890732178,-0.103576987,-0.048453942,-0.020675708,-0.021171732,0.076972365,0.00946653
1.76967E+18,9.900720459,-0.145338153,-0.082701664,0.013824527,-0.023618141,0.09129329,0.000184109
1.76967E+18,9.910709473,-0.13957389,-0.075975571,0.035316228,-0.028135927,0.125489891,0.00379722
1.76967E+18,9.920698486,-0.121237439,-0.078534023,0.023380583,-0.029037893,0.130351111,0.00136512
1.76967E+18,9.9306875,0.191927762,-0.21245208,0.095270054,-0.03534,0.090949379,-0.018713251
1.76967E+18,9.940675293,0.099738139,-0.093402506,0.069196578,-0.03820036,0.109107375,-0.01634375
1.76967E+18,9.950664551,-0.025765725,-0.125494512,0.038204935,-0.043676618,0.108948648,-0.020076437
1.76967E+18,9.96065332,0.162175014,-0.048608256,0.056336512,-0.042630713,0.073557436,-0.033295289
1.76967E+18,9.970642334,0.099640232,-0.060607906,0.017451778,-0.048026811,0.0788574,-0.033151742
1.76967E+18,9.980631592,0.005552958,-0.133262223,0.077368486,-0.061549891,0.084361494,-0.024627369
1.76967E+18,9.990619385,0.042550563,-0.151941789,0.076430329,-0.074113086,0.067874931,-0.014545439
1.76967E+18,10.0006084,0.080494217,-0.165628954,0.046706806,-0.081558406,0.058864515,-0.011524744
1.76967E+18,10.01059766,0.058662325,-0.13444588,0.027479835,-0.087534003,0.068279058,-0.009340154
1.76967E+18,10.02058618,-0.048085401,-0.079636431,-0.05267682,-0.087391153,0.118037894,0.016852681
1.76967E+18,10.03057422,0.017025077,-0.076398765,-0.154451434,-0.088418603,0.07102298,0.030226009
1.76967E+18,10.04056348,0.014819383,0.16949089,-0.211100373,-0.061144531,0.064683028,0.038834024
1.76967E+18,10.05055249,-0.081451664,0.190641814,-0.138743285,-0.034455661,0.063513905,0.002554045
1.76967E+18,10.0605415,0.025372049,-0.010858663,-0.001099486,-0.021392278,0.063303515,-0.053640909
1.76967E+18,10.07052954,0.027503216,0.001276596,0.098739191,-0.005690014,0.04614317,-0.090317696
1.76967E+18,10.08051831,0.050515258,0.106081955,-0.031298517,0.019002037,0.039591748,-0.115927272
1.76967E+18,10.09050732,0.040093233,0.07152619,-0.073976506,0.020689148,0.106966265,-0.12155959
1.76967E+18,10.10049634,0.381907898,-0.059908233,0.123995505,-0.005376873,0.119429097,-0.084476992
1.76967E+18,10.11048438,0.683577015,-0.167340434,0.197875857,-0.047578387,-0.015453881,-0.020995488
1.76967E+18,10.12047339,0.702722737,-0.195149647,-0.047360009,-0.058960047,-0.176871568,0.021222543
1.76967E+18,10.1304624,0.191325997,-0.042550855,-0.174149821,-0.051675767,-0.219552711,0.025918495
1.76967E+18,10.14045166,-0.638911652,0.242166834,-0.219834007,-0.032824975,-0.118401349,0.017171307
1.76967E+18,10.15043945,-1.014063353,0.268739199,-0.152696407,-0.017480105,0.004336289,-0.011674989
1.76967E+18,10.16042822,-0.677768036,0.103068745,-0.124922557,-0.004792648,0.072338223,-0.024810759
1.76967E+18,10.17041748,-0.243420634,-0.031055648,0.023519407,-0.014040741,0.085673466,-0.017117687
1.76967E+18,10.18040649,0.083966862,-0.126949387,0.081998484,-0.020578336,0.072077595,-0.009320689
1.76967E+18,10.19039551,0.30159839,-0.191926593,0.10138386,-0.028337989,0.051683635,-0.010493812
1.76967E+18,10.20038354,0.283778655,-0.271480023,0.11983897,-0.038724598,0.044335809,-0.007460548
1.76967E+18,10.21037256,0.24375878,-0.115496265,0.145237031,-0.042050086,0.01708368,-0.0105104
1.76967E+18,10.22036157,0.374369611,-0.126622054,0.111581137,-0.04766478,-0.016832039,-0.014939871
1.76967E+18,10.23035034,0.352181745,-0.095117494,0.180082426,-0.053504825,-0.063137218,-0.018185731
1.76967E+18,10.24033838,0.323791225,0.002388356,0.113804658,-0.071324229,-0.024635514,-0.058318898
1.76967E+18,10.25032764,0.326971608,0.011162615,0.208385269,-0.044663854,-0.078252397,-0.08500883
1.76967E+18,10.26031641,0.169456111,-0.004583821,0.016926877,-0.038573779,-0.059297036,-0.093787163
1.76967E+18,10.27030542,0.083898765,0.033688919,-0.006900281,-0.033091396,-0.021029543,-0.106949031
1.76967E+18,10.2802937,0.061438804,-0.007300678,-0.06011983,-0.027135301,-0.022004381,-0.112727657
1.76967E+18,10.29028223,-0.031897067,-0.077539167,-0.127215344,-0.025877491,-0.022830227,-0.104298487
1.76967E+18,10.30027124,-0.117935767,-0.117162737,-0.079364629,-0.025582945,-0.01798434,-0.105918489
1.76967E+18,10.3102605,-0.116058867,0.031068507,-0.06202391,-0.021875825,-0.030331019,-0.105225533
1.76967E+18,10.32024829,-0.163336751,0.095975572,-0.120825643,-0.019087305,-0.031034485,-0.096002877
1.76967E+18,10.33023755,-0.227391875,0.122685299,-0.129577689,-0.017049454,-0.020047612,-0.080338426
1.76967E+18,10.34022656,-0.273950212,0.105890816,-0.155166304,-0.013401522,-0.008610039,-0.051622305
1.76967E+18,10.35021533,-0.338723713,0.041116439,-0.181445239,-0.014799415,0.003506012,-0.018948248
1.76967E+18,10.36020459,-0.338920697,0.030832945,-0.17107436,-0.012503144,0.021793745,0.004741966
1.76967E+18,10.37019238,-0.343136561,0.098011461,-0.166529994,-0.005907027,0.032289527,0.021875946
1.76967E+18,10.3801814,-0.353662339,0.080686233,-0.181816995,0.001367211,0.043549765,0.027317453
1.76967E+18,10.39017041,-0.285384337,0.113135965,-0.102496206,0.00579445,0.071762763,0.022828428
1.76967E+18,10.40015942,-0.165652042,0.082556703,-0.050120122,0.004773174,0.086971708,0.032796539
1.76967E+18,10.41014771,0.133085405,-0.060566989,0.014122926,-0.001979803,0.058080673,0.036261577
1.76967E+18,10.42013647,0.32542847,-0.114140174,0.04357786,-0.00715099,0.022110928,0.039950553
1.76967E+18,10.43012524,0.343975058,-0.034816462,0.025515842,-0.00460341,-0.012420685,0.026025152
1.76967E+18,10.4401145,0.198649472,-0.019954993,0.014867607,0.000346846,-0.023042336,0.015678912
1.76967E+18,10.45010254,0.004271686,-0.061435004,-0.017936931,-0.001741605,-0.018475814,0.007915532
1.76967E+18,10.46009131,-0.001985329,-0.067698741,0.007546178,-0.000421084,-0.014843771,-0.008204012
1.76967E+18,10.47008057,0.040554129,-0.049286301,-0.006937398,-1.94798E-05,-0.013062648,-0.009665822
1.76967E+18,10.48006934,-0.037096097,-0.044643444,-0.031408699,0.0023676,-0.004101358,-0.010939393
1.76967E+18,10.49005737,-0.011521219,-0.038654433,-0.031180443,-0.000174388,0.002060131,-0.008390215
1.76967E+18,10.50004639,0.001531155,-0.057855977,-0.015939035,-0.004147131,0.002429007,-0.010818362
1.76967E+18,10.5100354,0.059308514,-0.018816344,0.013896716,-0.005613999,-0.000887427,-0.009765348
1.76967E+18,10.52002441,0.085648531,-0.027188451,-0.005974983,-0.006849473,-0.009948836,-0.002208984
1.76967E+18,10.53001245,0.060153148,-0.071518007,-0.000906009,-0.01045566,-0.013501492,0.000549518
1.76967E+18,10.54000146,0.039041678,-0.045352469,0.01605477,-0.017931839,-0.004589415,0.003293745
1.76967E+18,10.54999048,-0.035422903,-0.055742345,-0.025440438,-0.014014594,-0.01299515,0.009138318
1.76967E+18,10.55997949,-0.067482468,0.014268179,-0.045863049,-0.010720593,-0.00653391,0.008619975
1.76967E+18,10.56996875,-0.113064361,-0.035416181,-0.025449206,-0.007858494,0.005461501,0.00620502
1.76967E+18,10.57995654,-0.078054423,-0.027796938,-0.006008885,-0.008128711,0.012497112,0.007670622
1.76967E+18,10.58994531,-0.02567717,-0.063055299,0.003439619,-0.008852025,0.01619651,0.004354454
1.76967E+18,10.59993457,0.026461014,-0.033530514,0.026442309,-0.00826718,0.014818007,0.009262321
1.76967E+18,10.60992334,0.009172317,-0.042048167,0.009476561,-0.009094624,0.008074085,0.016168963
1.76967E+18,10.61991138,0.028961891,-0.035581016,0.012692016,-0.0044387,-0.003189078,0.00928349
1.76967E+18,10.62990063,0.020690029,-0.008608254,0.008502455,-0.003042138,0.000718046,0.003735327
1.76967E+18,10.6398894,-0.072039693,-0.048138885,0.006703005,-0.002719251,0.008391753,0.004240104
1.76967E+18,10.64987817,-0.026314883,-0.041655952,-0.026238311,-0.003997569,0.014172143,0.008312343
1.76967E+18,10.65986646,-0.021518589,-0.064966101,-0.031233343,-0.006715576,0.022180753,0.010816175
1.76967E+18,10.66985547,0.063517071,-0.016547815,-0.034044308,-0.009863166,0.021592727,0.012890244
1.76967E+18,10.67984424,0.041650984,-0.078003862,-0.025562311,-0.009968191,0.007930951,0.018197184
1.76967E+18,10.6898335,0.050160161,-0.030700843,-0.024064766,-0.00516012,-0.005761958,0.003592941
1.76967E+18,10.69982153,-0.012595278,0.004002221,-0.052276131,-0.003536575,-0.006229535,-0.008136405
1.76967E+18,10.70981055,-0.112420218,-0.001312252,-0.027982232,-0.002137617,0.004700079,-0.012749
1.76967E+18,10.71979932,-0.086397304,-0.033279169,-0.033766368,-0.002872622,0.009810053,-0.008901941
1.76967E+18,10.72978833,0.00651625,-0.014174656,-0.052794017,-0.003463044,0.009081678,-0.008980503
1.76967E+18,10.73977661,0.057867375,-0.030193478,-0.029827275,-0.007795081,0.008008183,-0.002383286
1.76967E+18,10.74976538,0.020343115,-0.077218264,-0.000654957,-0.011125364,0.003072547,0.002645827
1.76967E+18,10.75975439,0.045577218,-0.022142858,0.00112462,-0.010728035,-0.006088145,0.001973983
1.76967E+18,10.76974365,-0.017655484,-0.053501289,0.003390227,-0.010518178,-0.0100725,0.005077898
1.76967E+18,10.77973242,-0.062791972,-0.032722704,0.024481238,-0.010119615,-0.003620003,0.004082035
1.76967E+18,10.78972021,-0.080697339,-0.050391632,0.028796763,-0.008995762,-0.000946455,0.004742233
1.76967E+18,10.79970947,-0.084331311,-0.052294835,0.018662907,-0.006992857,0.012395596,0.006002611
1.76967E+18,10.80969824,-0.050522273,-0.073193247,-0.004570669,-0.010221408,0.021208264,0.007093443
1.76967E+18,10.8196875,0.025659926,-0.09205986,-0.039310851,-0.006454038,0.008379454,0.000899141
1.76967E+18,10.82967554,0.083226565,-0.01062427,0.002362637,-0.005120859,0.008025786,-0.009347904
1.76967E+18,10.83966455,0.015150515,-0.00320318,0.01009557,-0.005625512,0.005276822,-0.006646201
1.76967E+18,10.84965332,-0.007161854,-0.027200142,0.005026888,-0.006278785,-0.002195475,-0.004425125
1.76967E+18,10.85964233,-0.004044891,-0.021800328,-0.020619594,-0.005613562,0.009464206,-0.004441487
1.76967E+18,10.86963037,0.008660569,-0.065056117,-0.017116554,-0.00729375,0.014368418,-0.001399091
1.76967E+18,10.87961938,0.055616089,-0.120012281,-0.028566462,-0.010472684,0.009666148,0.008959023
1.76967E+18,10.8896084,0.051767597,-0.10136954,-0.030056408,-0.012070581,0.002848722,0.015464859
1.76967E+18,10.89959766,0.055606736,-0.056301148,-0.00445055,-0.011475084,-0.007061749,0.015602473
1.76967E+18,10.90958545,0.03307371,-0.003361585,0.003333821,-0.010141374,-0.009127829,0.012288967
1.76967E+18,10.91957422,-0.038130993,0.014265841,0.00198679,-0.007006393,-0.004356316,0.010965312
1.76967E+18,10.92956348,-0.057651102,0.022453824,0.01215864,-0.004680122,0.003273108,0.010007905
1.76967E+18,10.93955249,-0.004984803,0.02852876,-0.018369185,-0.00342546,0.005025637,0.004639671
1.76967E+18,10.94954028,0.060877078,0.005658756,-0.033075756,-0.00243796,-0.002381146,0.00317653
1.76967E+18,10.95952954,0.048111704,-0.004456395,-0.051140405,-0.00060743,-0.012849792,0.005597575
1.76967E+18,10.96951855,-0.014605156,0.018207272,-0.043617608,-0.000815156,-0.01029289,0.001495508
1.76967E+18,10.97950757,-0.022636487,-0.007636194,0.002438918,-0.005225513,-0.008103485,0.004307803
1.76967E+18,10.98949658,0.00052227,-0.057122402,-0.028004151,-0.008377897,-0.015242888,0.010300448
1.76967E+18,10.99948438,-0.089552261,-0.190079504,-0.106636959,-0.020492202,-0.010929337,0.032280125
1.76967E+18,11.00947339,-0.123006786,-0.175118082,-0.086945293,-0.018186703,-0.015138729,0.028355954
1.76967E+18,11.0194624,0.063334993,-0.020475802,0.030856618,-0.013808466,-0.008786291,0.005491119
1.76967E+18,11.02945142,0.033661154,0.077381346,0.024522447,-0.006865606,-0.005619792,-0.00775065
1.76967E+18,11.0394397,-0.019905601,0.088154669,-0.013290566,-7.48736E-05,0.000377526,-0.010464237
1.76967E+18,11.04942847,0.004509002,0.033960137,0.004575053,0.001820765,0.000890451,-0.008805887
1.76967E+18,11.05941724,0.05178747,-0.004403203,0.013216624,0.001379022,-0.005085079,-0.004300863
1.76967E+18,11.06940649,0.092407358,-0.008581366,0.01356383,0.002217918,-0.012106503,-0.000860058
1.76967E+18,11.07939429,0.036659167,-0.046975102,0.003675181,-0.001758148,-0.01105034,0.003717353
1.76967E+18,11.08938354,-0.051416591,-0.08065876,-0.016148586,-0.007970771,-0.009740865,0.001174567
1.76967E+18,11.09937256,-0.064660688,-0.084645199,-0.022427228,-0.004647781,-0.00622988,-0.002442978
1.76967E+18,11.10936133,-0.08865122,-0.054216743,-0.022367022,-0.004702642,-0.002168027,-0.003660309
1.76967E+18,11.11934937,-0.068116966,-0.051150342,-0.023984394,-0.00376489,0.00625609,-0.005759282
1.76967E+18,11.12933838,-0.031695115,-0.04556465,-0.016918109,-0.005907936,0.010941921,-0.008002196
1.76967E+18,11.13932739,-0.040813364,-0.032700493,-0.023161972,-0.0059888,0.008649764,-0.006127389
1.76967E+18,11.14931641,-0.003984101,-0.017559038,-0.028247605,-0.005311558,0.002159374,-0.00395638
1.76967E+18,11.15930542,-0.009391513,0.002016601,-0.019943302,-0.007541282,0.00085653,-0.005083465
1.76967E+18,11.16929346,-0.037833764,0.005146131,0.021794775,-0.007782298,-1.37906E-05,-0.004435784
1.76967E+18,11.17928247,-0.039249768,-0.012806875,-0.013187398,-0.005130807,0.000565134,-0.003692479
1.76967E+18,11.18927148,-0.041022038,-0.010502105,-0.028796179,-0.002406394,0.006844069,-0.00652768
1.76967E+18,11.19926074,-0.046749184,0.010017536,-0.014964345,-0.003710545,0.017280415,-0.005654014
1.76967E+18,11.20924854,-0.037324938,-0.038147068,-0.024389468,-0.003707615,0.01933451,-0.00197539
1.76967E+18,11.2192373,0.010724808,-0.114200964,-0.052024202,-0.004016618,0.013158036,0.008267373
1.76967E+18,11.22922656,0.063157298,-0.0463596,-0.026397009,-0.003197164,0.003046013,0.000404922
1.76967E+18,11.23921533,0.072351827,0.014244798,0.028644495,-0.003469216,-0.004106731,0.000166756
1.76967E+18,11.24920337,-0.008114625,0.017943653,0.015278525,-0.001492884,-0.001514676,-0.001417026
1.76967E+18,11.25919263,-0.034358489,-0.013068156,0.013007073,-0.000981916,0.001623837,-0.003326459
1.76967E+18,11.2691814,-0.015392799,-0.043249944,0.002239011,-5.91307E-05,0.002731179,-0.006936374
1.76967E+18,11.27917041,-0.018750585,-0.052355041,-0.025806057,0.000209035,0.007866287,-0.011466725
1.76967E+18,11.28915845,-0.007722411,-0.00311141,-0.022409108,0.000199714,0.00799252,-0.010192135
1.76967E+18,11.29914746,-0.016649522,-0.017693478,-0.028300212,-0.001558305,0.002124605,-0.006206655
1.76967E+18,11.30913647,-0.017038813,-0.052480129,-0.002281681,-0.001102905,0.003204783,-0.009071684
1.76967E+18,11.31912549,-0.05135434,-0.047059273,-0.000310089,-0.0040649,0.008461697,-0.014476161
1.76967E+18,11.32911328,-0.040687692,-0.026178982,-0.028110242,-0.003135456,0.007657689,-0.010103251
1.76967E+18,11.33910254,-0.030480771,-0.021871056,-0.041181905,-0.002960206,0.006931128,-0.008205554
1.76967E+18,11.34909131,-0.028450142,-0.037375499,-0.039748073,-0.002054731,0.008060309,-0.010752335
1.76967E+18,11.35908057,-0.039914954,-0.030923546,-0.0228928,-0.000508248,0.014433569,-0.012849768
1.76967E+18,11.36906934,-0.054495853,-0.028078678,-0.007891338,-0.001639026,0.016647987,-0.013507304
1.76967E+18,11.37905737,-0.03365677,-0.025455344,-0.018135084,-0.004174978,0.020104326,-0.011780486
1.76967E+18,11.38904663,0.010815409,-0.032988077,-0.007727379,-0.00300372,0.016072568,-0.010705369
1.76967E+18,11.39903564,0.034567163,-0.030687399,-0.03582067,-0.001197366,0.010523057,-0.010176908
1.76967E+18,11.40902417,0.020636253,-0.027217677,-0.012993629,-0.002878087,0.009845016,-0.010899425
1.76967E+18,11.41901245,0.019586159,-0.033178047,0.010391922,-0.003040256,0.012348604,-0.011133857
1.76967E+18,11.42900146,0.031128129,-0.031366029,-0.00602379,-0.002650103,0.011437804,-0.010814544
1.76967E+18,11.43899023,0.009315818,-0.036834231,-0.026750644,-0.001550617,0.012966113,-0.011242395
1.76967E+18,11.44897949,-0.009214403,-0.018009704,-0.006584347,0.000221717,0.013942961,-0.012389152
1.76967E+18,11.45896753,-0.008011457,-0.020049101,0.002189619,0.001912252,0.01220673,-0.009070642
1.76967E+18,11.46895679,0.009329846,-0.049824061,-0.006675825,-2.06702E-05,0.010355035,-0.008718839
1.76967E+18,11.47894531,0.02646832,-0.040638884,-0.020045301,-0.000925299,0.007047025,-0.007919459
1.76967E+18,11.48893433,0.021046003,-0.014357027,-0.020817163,-0.001678707,0.005033143,-0.002430151
1.76967E+18,11.49892334,0.014623569,-0.017778818,-0.012712474,-0.002853493,0.001806552,-0.00148973
1.76967E+18,11.50891138,0.011624679,-0.025187048,-0.015234102,-0.003643121,-0.001000686,0.000446388
1.76967E+18,11.51890039,-0.033075756,-0.012471944,-0.039468964,-0.00181857,0.002660364,0.001831008
1.76967E+18,11.52888965,-0.048382338,6.02058E-05,-0.030112814,0.000745521,0.009612014,0.000515406
1.76967E+18,11.53887842,-0.025611411,-0.015908932,-0.048852586,0.001983699,0.010132731,0.00123688
1.76967E+18,11.54886621,-0.004783727,-0.018873043,-0.030452714,0.000561305,0.007017365,0.002102674
1.76967E+18,11.55885547,0.008826281,-0.01307517,-0.025723639,0.000981471,0.001847612,0.005123068
1.76967E+18,11.56884424,0.016743337,-0.032487142,-0.00870733,0.002620913,-0.004696307,-4.66604E-05
1.76967E+18,11.5788335,-0.017003742,-0.040756958,-0.018615853,0.000883661,-0.000648469,-0.002365739
1.76967E+18,11.58882153,-0.040114568,-0.024408465,-0.020729192,0.003303409,0.006241395,-0.003141784
1.76967E+18,11.59881055,-0.006303484,-0.028273908,-0.036659459,0.002391649,0.009920574,-0.002388381
1.76967E+18,11.60879956,-0.001402853,-0.027788171,-0.00401362,0.002202032,0.008169811,0.002413032
1.76967E+18,11.61878833,-0.00296791,-0.016916648,-0.005305997,0.003657496,0.004230367,0.005272901
1.76967E+18,11.62877637,0.018270985,-0.008431728,-0.007526304,0.003242043,0.000852679,0.003773008
1.76967E+18,11.63876538,0.007800737,-0.009257073,-0.006904373,0.005850296,0.000684198,0.000553346
1.76967E+18,11.64875439,-0.002960019,-0.001302899,-0.016070553,0.00690837,0.003188635,-0.002691183
1.76967E+18,11.65874365,-0.004845686,-0.028123102,-0.011740414,0.009847626,0.002867122,-0.003183623
1.76967E+18,11.66873169,0.023832419,-0.054034957,-0.013745909,0.007741066,0.001719832,-0.006181277
1.76967E+18,11.67872021,0.023891455,-0.032998599,-0.027912382,0.007048452,0.000795519,-0.003417693
1.76967E+18,11.68870947,-0.013586919,-0.014165303,0.000262743,0.006874815,-0.001378686,0.002370954
1.76967E+18,11.69869824,-0.046818158,-0.026379473,-0.005678922,0.005893708,-0.00052669,0.002286381
1.76967E+18,11.70868726,-0.041590194,-0.030707857,-0.006921616,0.00498344,0.002665109,0.001475449
1.76967E+18,11.71867554,-0.004955284,-0.04341361,-0.030150808,0.003939884,0.001238643,-3.12517E-05
1.76967E+18,11.72866455,0.002785539,-0.035054362,-0.049407005,0.003090069,0.000167253,0.001115505
1.76967E+18,11.73865332,-0.005793489,0.007931378,-0.049532969,0.00351196,-0.001295452,0.003599602
1.76967E+18,11.74864258,-0.002393909,0.003069324,-0.030592122,0.003097838,-0.003663801,0.004101075
1.76967E+18,11.75863135,-0.002259762,-0.03937924,-0.012209785,0.004053901,-0.003372401,0.001884862
1.76967E+18,11.76862036,-0.002564882,-0.056470075,-0.003449264,0.004069082,0.001427681,0.001193771
1.76967E+18,11.77860938,-0.014243045,-0.06923428,0.0048074,-0.000561207,0.000912549,0.005263511
1.76967E+18,11.78859839,0.001797697,-0.079924601,0.00659516,-0.000871465,-0.00365344,0.004218221
1.76967E+18,11.79858643,0.035074821,-0.040350131,-0.011158815,0.000156022,-0.005606064,0.00169043
1.76967E+18,11.8085752,0.008572306,-0.021858781,-0.02470248,0.00207776,-0.004568763,0.002216671
1.76967E+18,11.81856445,-0.024769992,-0.005847557,-0.053831543,0.005204353,-0.001731048,0.002399948
1.76967E+18,11.82855322,-0.015496844,-0.012577158,-0.023039515,0.006430738,0.004362531,-0.001348451
1.76967E+18,11.83854126,0.015288462,-0.026405192,-0.007651392,0.006995364,0.007076829,-0.004535103
1.76967E+18,11.84853052,0.012854221,-0.027268531,0.009463409,0.004990802,0.009179128,-0.001552363
1.76967E+18,11.85851929,0.003797931,-0.036005964,0.005184125,0.002041023,0.003157285,-0.002111306
1.76967E+18,11.8685083,-0.007161854,-0.047024786,-0.014008652,0.001204791,0.000689866,-0.003553674
1.76967E+18,11.87849756,-0.046259355,-0.038721068,-0.023885318,0.002584588,0.004362316,-0.006497337
1.76967E+18,11.88848535,-0.059159753,-0.028407764,-0.033196459,0.002449833,0.005661139,-0.006501066
1.76967E+18,11.89847412,-0.019592297,-0.027907998,-0.036775487,0.001241742,0.008541225,-0.009263964
1.76967E+18,11.90846338,0.026019115,-0.048112581,-0.021103286,0.005189613,0.005495901,-0.013345258
1.76967E+18,11.91845215,0.027625381,-0.060898998,0.000791443,0.002411437,0.006774704,-0.013681114
1.76967E+18,11.92844043,0.025344869,-0.046308747,-0.003224807,0.001075329,0.004437247,-0.016126961
1.76967E+18,11.93842944,0.033334991,-0.022502924,-0.024684944,-0.001428922,0.003016062,-0.011406111
1.76967E+18,11.94841846,-0.016091595,-0.042300096,-0.002821487,-0.000992962,0.004193446,-0.008740021
1.76967E+18,11.95840723,0.001175181,-0.054677347,0.018446926,-0.004976422,0.002285415,-0.004886246
1.76967E+18,11.96839526,0.026050972,-0.04595628,0.002571604,-0.00333911,0.001635603,-0.001991656
1.76967E+18,11.97838428,0.043285015,-0.029126726,0.007179098,-0.001617802,-0.003044298,-0.001112966
1.76967E+18,11.98837329,0.023402795,-0.012217092,-0.034322833,-0.000235888,-0.001426694,-0.001607515
1.76967E+18,11.9983623,0.001358429,-0.009682021,-0.043157881,0.000259056,-0.005121853,-0.003338656
1.76967E+18,12.00835059,-0.028589258,-0.018663199,-0.046190966,0.000524573,-0.00361983,-0.002571133
1.76967E+18,12.01833936,-0.009370178,-0.03411562,-0.038286476,0.000874273,-0.01079795,-0.003344124
1.76967E+18,12.02832813,-0.00458499,0.005340777,-0.017337504,-0.001268241,-0.013207844,-0.001905218
1.76967E+18,12.03831738,-0.028039807,-0.017596447,-0.046443771,0.000323252,-0.00865427,-0.003521035
1.76967E+18,12.04830542,-0.016195348,-0.032121816,-0.016871932,-0.001142019,-0.007558646,-0.00519137
1.76967E+18,12.05829419,0.016904081,-0.042083822,0.00527794,-0.00216209,-0.010767395,-0.008525902
1.76967E+18,12.06828345,0.01729571,-0.028618192,-0.019577392,-0.000697085,-0.013610852,-0.006548238
1.76967E+18,12.07827246,-0.042310032,-0.009922259,-0.018384967,-0.000410949,-0.007421323,-0.007640827
1.76967E+18,12.08826147,-0.059030866,-0.03124328,-0.011319851,-0.001211495,-0.002469974,-0.006757723
1.76967E+18,12.09824927,-0.006375088,-0.041878655,-0.003486965,-0.00205813,-0.003020135,-0.007275102
1.76967E+18,12.10823828,0.035327626,-0.043464463,-0.011134557,-0.001701,-0.008887079,-0.004064661
1.76967E+18,12.11822729,0.022158933,-0.035626025,-0.044117374,-0.002967616,-0.008878775,-0.002830477
1.76967E+18,12.12821631,0.009342706,-0.022680618,-0.040037704,-0.00362302,-0.012019441,-0.000450943
1.76967E+18,12.13820435,0.005811024,-0.01263561,-0.02589052,-0.002358864,-0.019448549,0.004400253
1.76967E+18,12.1481936,-0.059145724,-0.003939678,-0.045180619,-0.003618539,-0.018592607,0.007415484
1.76967E+18,12.15818237,-0.095623397,-0.004742811,-0.006891805,-0.00390934,-0.012434312,0.005443724
1.76967E+18,12.16817114,-0.07935966,-0.009963176,-0.00988105,-0.001499446,-0.011548279,0.005502313
1.76967E+18,12.17815942,-0.05253712,-0.001709727,-0.010926468,-0.00282783,-0.004757483,0.005102573
