time,seconds_elapsed,acc_z,acc_y,acc_x,gyro_z,gyro_y,gyro_x
1.76966E+18,0.066125244,0.069575714,0.00176701,-0.009190438,-0.008437714,-0.003877684,-0.007878425
1.76966E+18,0.076113281,0.157471366,-0.031150341,-0.013173662,-0.00556655,-0.006049314,-0.01820307
1.76966E+18,0.086101074,0.158413031,-0.049647536,-0.026077275,-0.000830384,0.010569611,-0.031757496
1.76966E+18,0.096089111,0.049293754,-0.050079497,-0.016877777,-0.003399023,0.034083638,-0.031224392
1.76966E+18,0.106077393,-0.129378075,-0.10570903,-0.018386136,-0.005145258,0.014111793,-0.026069045
1.76966E+18,0.116064209,-0.100284594,-0.068176295,-0.002101941,-0.005154878,-0.013133022,-0.024253746
1.76966E+18,0.126052246,0.013684242,-0.053068158,-0.004845102,-0.007689408,-0.013733831,-0.015273835
1.76966E+18,0.136040283,0.014415552,-0.063360419,-0.002041735,-0.005554629,-0.008151102,-0.010785994
1.76966E+18,0.14602832,0.018217209,-0.003328268,-0.029141047,-0.005284319,-0.00602004,-0.003754716
1.76966E+18,0.156016357,-0.02638583,0.010275895,-0.057572484,-0.000913869,0.005339918,-0.005012087
1.76966E+18,0.166004395,-0.06233093,-0.006812603,-0.022539164,-0.003872641,0.021824352,-0.011126172
1.76966E+18,0.175992432,0.016715061,-0.000903086,0.050113692,-0.006700618,0.020603584,-0.020611154
1.76966E+18,0.185979248,0.08803528,-0.018157588,0.073057053,-0.010538765,0.000624551,-0.023176577
1.76966E+18,0.195967285,0.11997721,-0.046916649,0.071987378,-0.012803264,-0.013421822,-0.023767114
1.76966E+18,0.205955566,0.089134766,-0.002552023,0.016616496,-0.01360887,-0.001547851,-0.018922025
1.76966E+18,0.215943359,-0.047635758,-0.00497019,-0.054249184,-0.00452047,0.023988301,-0.016030096
1.76966E+18,0.225931396,-0.137314713,0.023633974,-0.085111648,0.000607979,0.051794898,-0.018261824
1.76966E+18,0.235919189,-0.135228116,0.006093056,-0.113545131,0.001662998,0.07164675,-0.01704393
1.76966E+18,0.245906982,-0.072818714,-0.047301849,-0.066878364,0.003338925,0.072323725,-0.023856826
1.76966E+18,0.255894287,0.036602615,-0.058214289,-0.009988602,0.005426745,0.049744323,-0.030205492
1.76966E+18,0.265882324,0.117970034,-0.030015199,-0.005367665,-0.001258589,0.032778654,-0.027976427
1.76966E+18,0.275870117,0.096649525,-0.0927192,-0.022324937,-0.005770921,0.027434532,-0.014145914
1.76966E+18,0.285858154,0.021016485,-0.114099842,0.095282036,-0.018543707,0.002724924,-0.003614709
1.76966E+18,0.295846191,0.069934975,-0.086295889,0.091322485,-0.027714014,-0.016936693,0.002282077
1.76966E+18,0.305834229,0.082556703,-0.134584412,0.0738672,-0.029522033,-0.026697177,-0.013417258
1.76966E+18,0.315822266,0.109279144,-0.077116557,0.02449439,-0.019836171,-0.026600085,-0.024115637
1.76966E+18,0.325809326,0.022409839,0.022511692,-0.067865037,-0.009105497,-0.003572265,-0.009715925
1.76966E+18,0.335797119,-0.12350363,0.027105449,-0.165561734,0.00589804,0.013139861,0.008126031
1.76966E+18,0.345785156,-0.110335667,0.113240595,-0.086635496,-0.001460274,0.020700041,0.02816046
1.76966E+18,0.355773193,-0.022777064,0.031928924,-0.018900808,-0.006839381,0.003371806,0.031214112
1.76966E+18,0.365761475,0.1427344,-0.0743015,0.057675944,-0.01444164,-0.013932349,0.017953699
1.76966E+18,0.375749268,0.240630126,-0.137815649,-0.001187748,-0.022113856,-0.026613532,0.003124794
1.76966E+18,0.385737305,0.203106744,-0.143304309,0.055099956,-0.032125741,-0.043023396,-0.006671644
1.76966E+18,0.395724121,0.097399905,-0.143875971,0.038156712,-0.031133652,-0.04100683,-0.007007644
1.76966E+18,0.405712158,0.004939794,-0.07331132,0.04420476,-0.031594377,-0.030489208,-0.015557989
1.76966E+18,0.415700439,0.002875921,-0.011481179,-0.050088265,-0.025855705,-0.032483093,-0.013312628
1.76966E+18,0.425688477,-0.161366766,-0.158706461,-0.058398121,-0.033885401,-0.033325184,-0.027170386
1.76966E+18,0.43567627,-0.155067958,-0.12111995,-0.029817923,-0.042734701,-0.03372959,-0.045181323
1.76966E+18,0.445664307,-0.06974939,-0.072503511,0.004755086,-0.0404079,-0.037313405,-0.073538393
1.76966E+18,0.455652344,0.039953898,-0.039033787,0.016847967,-0.034374338,-0.08582598,-0.091132037
1.76966E+18,0.465639404,0.11371698,0.087490067,0.006457506,-0.03855177,-0.123149924,-0.071302943
1.76966E+18,0.475627441,0.07439042,-0.009187515,-0.117770055,-0.026293049,-0.134538591,-0.040891498
1.76966E+18,0.485615234,0.030626171,0.011118775,-0.052972881,-0.017681982,-0.136689633,-0.019003242
1.76966E+18,0.495603027,0.083677304,0.023304303,-0.040520226,-0.017708274,-0.133096024,-0.003506584
1.76966E+18,0.505591064,0.005574585,-0.173227738,-0.104758598,-0.022198098,-0.142989933,-0.012158129
1.76966E+18,0.515579346,0.015536446,-0.164980719,-0.089978377,-0.021974489,-0.145720378,-0.031264454
1.76966E+18,0.525567139,-0.003095043,-0.085536011,-0.076143913,-0.022070628,-0.141926974,-0.032909755
1.76966E+18,0.535554199,-0.159848471,-0.024763854,-0.083254622,-0.008783818,-0.153179482,-0.051225729
1.76966E+18,0.545542236,-0.107927291,0.071418638,0.064926646,0.000148423,-0.098296255,-0.073872983
1.76966E+18,0.555530029,-0.18336627,-0.025465281,-0.027665421,0.001609838,-0.033296261,-0.072142653
1.76966E+18,0.565518311,-0.279329129,-0.064513096,-0.169262342,0.010911461,-0.03022963,-0.061509442
1.76966E+18,0.575506348,-0.195938898,-0.06195932,-0.123194418,0.013680797,-0.032467198,-0.060794502
1.76966E+18,0.585494385,-0.058326663,-0.072857731,-0.121896195,0.012216857,-0.024631914,-0.064516269
1.76966E+18,0.595482178,0.044148792,0.044175242,-0.155573424,0.001640689,-0.019862266,-0.046314057
1.76966E+18,0.605469238,-0.104017424,-0.086420977,-0.154625621,0.004580285,-0.026681557,-0.046869859
1.76966E+18,0.615457031,-0.014106851,-0.054343,-0.006738368,0.009637266,-0.030236244,-0.067266479
1.76966E+18,0.625445313,0.093794574,0.034118543,0.006912848,0.008786919,-0.023299241,-0.074537709
1.76966E+18,0.63543335,-0.024847003,0.017020108,-0.057638827,0.021211993,-0.011187552,-0.078099146
1.76966E+18,0.645421387,-0.09619769,0.054794836,-0.095045305,0.029015055,0.013988109,-0.081542619
1.76966E+18,0.65540918,-0.127947677,-0.056270169,-0.237598211,0.027892821,0.069050662,-0.09083087
1.76966E+18,0.665397461,-0.077567151,-0.200848736,-0.298744462,0.03488069,0.113155,-0.096814461
1.76966E+18,0.675384521,-0.210320182,-0.311937121,-0.172768304,0.023474306,0.05176606,-0.099619433
1.76966E+18,0.685372314,0.02199154,-0.063999302,-0.040581601,0.037309427,0.001293032,-0.117598169
1.76966E+18,0.695360352,0.197944246,0.145755794,0.075498601,0.064317107,0.043816138,-0.095473781
1.76966E+18,0.705348389,-0.161963344,0.017643793,-0.04543664,0.077827059,0.076626547,-0.076697163
1.76966E+18,0.715336426,-0.197792198,0.018722236,-0.166453129,0.095242605,0.069463193,-0.063832141
1.76966E+18,0.725324463,-0.046270753,0.225545954,0.013754677,0.083586477,0.0592838,-0.039201625
1.76966E+18,0.7353125,-0.067030632,0.071629066,-0.19082477,0.087479867,0.060110431,-0.039461479
1.76966E+18,0.745299316,0.003497268,0.043363341,-0.048941433,0.076804854,0.04974008,-0.048074678
1.76966E+18,0.755287354,0.017027123,-0.048299628,0.053179509,0.067690842,0.005089301,-0.06696669
1.76966E+18,0.765275635,0.075609075,-0.226350841,0.028740649,0.053714577,-0.044422325,-0.113481194
1.76966E+18,0.775263428,0.191471251,-0.169686705,-0.090119831,0.065837763,-0.034990966,-0.129601821
1.76966E+18,0.785251465,0.03600611,-0.086147421,9.14777E-05,0.065221503,-0.003749691,-0.122962549
1.76966E+18,0.795239502,-0.13196042,-0.019740473,-0.05556845,0.075293787,-0.011229202,-0.106426284
1.76966E+18,0.805227539,-0.06252448,0.023230653,-0.01469488,0.077268258,-0.019737471,-0.100955084
1.76966E+18,0.815214355,0.000551789,0.011074352,0.036008302,0.080745801,-0.033723652,-0.09251564
1.76966E+18,0.825202637,-0.047715106,-0.020685061,-0.003741817,0.086507551,-0.034417938,-0.077790491
1.76966E+18,0.835190674,-0.13363281,-0.106270171,0.005365326,0.086134709,-0.025405088,-0.083998427
1.76966E+18,0.845178467,-0.036665232,-0.098871293,0.0254419,0.071678542,-0.016577508,-0.088204622
1.76966E+18,0.855166504,-0.003432824,-0.118951374,-0.013017595,0.072625175,-0.03662302,-0.100631967
1.76966E+18,0.865154785,0.040922377,-0.069446461,0.024095746,0.063919567,-0.062139567,-0.103308976
1.76966E+18,0.875142578,0.068768416,0.066762921,0.053614686,0.055923615,-0.101858296,-0.08605776
1.76966E+18,0.885129639,-0.004529533,0.00263444,0.112859486,0.046711206,-0.1476897,-0.083261177
1.76966E+18,0.895117676,0.08648184,-0.081848262,0.01750117,0.042441338,-0.19007799,-0.090114877
1.76966E+18,0.905105469,0.114183429,-0.119985977,0.004044015,0.043082893,-0.221973613,-0.106434196
1.76966E+18,0.91509375,0.108234676,-0.017099019,-0.013062895,0.042934142,-0.2163831,-0.112406008
1.76966E+18,0.925081543,-0.048114262,-0.004172317,-0.126188339,0.052762002,-0.170568481,-0.110737801
1.76966E+18,0.935069336,-0.129461662,0.070793784,-0.059662442,0.068467282,-0.146281809,-0.106346674
1.76966E+18,0.945057373,-0.164295075,0.088230657,-0.156506905,0.075604819,-0.121969536,-0.078165367
1.76966E+18,0.955044434,-0.221004292,-0.034009822,-0.095150519,0.077553742,-0.102531835,-0.082404792
1.76966E+18,0.965032227,-0.079181673,-0.01179156,0.04932488,0.078289576,-0.118679382,-0.087398216
1.76966E+18,0.975020508,-0.019105682,-0.085516722,-0.004531506,0.031900857,-0.123112492,-0.042082295
1.76966E+18,0.985008545,-0.301579977,-0.436845357,-0.201431796,0.066777885,-0.140819058,-0.0736783
1.76966E+18,0.994996338,-0.039003904,-0.025628947,0.152398593,0.047376014,-0.12227197,-0.130124167
1.76966E+18,1.004984375,0.612915552,0.235562906,0.218541629,0.055529017,-0.197071105,-0.115649633
1.76966E+18,1.014972656,0.097793362,-0.154625329,-0.122456459,0.069921717,-0.277898937,-0.115532868
1.76966E+18,1.024959473,-0.043605333,0.078892335,-0.390673681,0.055310022,-0.148825914,-0.100167498
1.76966E+18,1.03494751,-0.156952822,0.106808516,-0.02073416,0.057727821,-0.057277624,-0.057667017
1.76966E+18,1.044935547,-0.236011161,-0.230490425,0.107086164,0.068239585,-0.04710355,-0.055804402
1.76966E+18,1.054923584,0.065414502,-0.215962718,0.099075291,0.068088166,-0.080734879,-0.065122783
1.76966E+18,1.064911377,0.193224305,-0.096100075,0.040585985,0.061562356,-0.117500611,-0.079988547
1.76966E+18,1.074899658,0.083971246,-0.067306527,-0.002556699,0.054419268,-0.086981535,-0.050370123
1.76966E+18,1.084887695,-0.2339893,-0.301364873,-0.03826894,0.079816505,-0.052781485,-0.063277401
1.76966E+18,1.094874512,-0.011869886,-0.191273098,0.148157887,0.093011342,-0.068514399,-0.101604909
1.76966E+18,1.104862549,0.33877727,0.013909867,-0.014237784,0.123440616,-0.113378547,-0.127148613
1.76966E+18,1.114850586,0.250966738,0.102682376,-0.057369654,0.141035765,-0.094609909,-0.126400918
1.76966E+18,1.124838623,-0.054279287,0.130118664,-0.117624217,0.131267026,-0.048463717,-0.069774382
1.76966E+18,1.13482666,-0.519400306,-0.045569327,-0.361328051,0.127064228,-0.029555028,-0.031895269
1.76966E+18,1.144814453,-0.480519663,-0.178438751,-0.404638785,0.12039008,-0.036471255,-0.023771295
1.76966E+18,1.154802246,-0.224078731,-0.22853403,-0.33516719,0.111896008,-0.043434545,-0.019637061
1.76966E+18,1.164789551,-0.08108948,-0.341183673,-0.091445527,0.112786032,-0.055162307,-0.044838555
1.76966E+18,1.174777832,0.109811862,-0.248608266,0.156633162,0.134196505,-0.08612898,-0.090424433
1.76966E+18,1.184765381,0.253534105,-0.109455815,0.205144387,0.159025148,-0.107944794,-0.147432312
1.76966E+18,1.194753418,0.219157715,0.133049457,0.296398191,0.159324989,-0.124511577,-0.175380677
1.76966E+18,1.204741455,-0.024019685,0.126456635,0.047151335,0.141371012,-0.11041972,-0.162431851
1.76966E+18,1.214729248,-0.318034269,-0.11618717,-0.069871993,0.136162356,-0.099303894,-0.132913411
1.76966E+18,1.224717529,-0.313652181,-0.294237213,-0.019883097,0.135298431,-0.07616023,-0.13378267
1.76966E+18,1.23470459,-0.124793085,-0.121990303,-0.004180501,0.154428691,-0.106668159,-0.168586507
1.76966E+18,1.244692383,-0.087101872,0.165012283,-0.204601366,0.21596688,-0.124313988,-0.146397576
1.76966E+18,1.25468042,-0.639020957,0.111878074,-0.264445009,0.176162511,0.093619548,-0.062360559
1.76966E+18,1.264668457,-1.266513389,-0.827911544,-0.183501003,0.178918347,0.076015785,-0.121218547
1.76966E+18,1.274656738,0.445689246,-0.045926469,-0.23135581,0.210354507,0.001853384,-0.24799335
1.76966E+18,1.284644531,1.071318807,0.441087817,0.196138658,0.224464461,0.00812939,-0.255891234
1.76966E+18,1.294632568,0.140793203,-0.071798577,0.069522741,0.227963015,0.061297953,-0.204974726
1.76966E+18,1.304619385,-0.421506918,-0.11967092,0.006508651,0.22210139,0.03316379,-0.186993331
1.76966E+18,1.314607422,0.005384616,-0.122853057,-0.018409809,0.203491807,-0.055652253,-0.202046648
1.76966E+18,1.324595703,0.45491881,-0.137166829,0.054103931,0.19898653,-0.140812159,-0.2193508
1.76966E+18,1.33458374,0.500454782,-0.177346864,0.145837919,0.162877694,-0.197274312,-0.19123593
1.76966E+18,1.344571533,0.107284353,-0.42255029,-0.115957745,0.180899039,-0.261589676,-0.221212476
1.76966E+18,1.35455957,0.052519401,-0.066643679,0.109090782,0.209498137,-0.292849004,-0.291720152
1.76966E+18,1.364547607,0.507787646,0.226598678,0.313402517,0.161378548,-0.296384633,-0.264861107
1.76966E+18,1.374534424,0.050669353,-0.347045259,-0.166104754,0.141799077,-0.278437853,-0.212269709
1.76966E+18,1.384522705,-0.445037395,-0.544377511,0.079520111,0.128886208,-0.24577871,-0.200129688
1.76966E+18,1.394510742,-0.244383926,-0.291238032,-0.070792615,0.142103001,-0.245469496,-0.242662147
1.76966E+18,1.404498535,0.028424167,0.121599842,-0.026400808,0.141754925,-0.337645501,-0.321686119
1.76966E+18,1.414486328,0.289508504,0.296759425,-0.363055314,0.146810725,-0.540382683,-0.360728085
1.76966E+18,1.424474609,0.213662003,-0.276890357,-0.746320179,0.202993572,-0.2150352,-0.290204912
1.76966E+18,1.434462402,-1.676919067,-0.443805844,0.588064092,0.207687244,0.136250526,-0.157740071
1.76966E+18,1.444449463,-1.703302632,-0.222408241,0.117699035,0.281692505,0.354468077,-0.042113341
1.76966E+18,1.4544375,-1.427593593,0.241486451,0.045231181,0.318350911,0.342773527,-0.011222105
1.76966E+18,1.464425293,-0.15677984,-0.430475237,-0.12737258,0.293098539,0.199398249,-0.112895474
1.76966E+18,1.47441333,0.980218659,-0.470709048,-0.333934725,0.274664462,0.058262482,-0.288106352
1.76966E+18,1.484401611,1.391600489,0.14009996,-0.222496211,0.260603249,-0.014406126,-0.371365279
1.76966E+18,1.494389648,0.688005061,0.431443206,0.106265495,0.25114283,-0.056272723,-0.370459437
1.76966E+18,1.504377441,0.027753136,0.54873746,0.29512101,0.228181303,-0.128225744,-0.30518961
1.76966E+18,1.514364502,-0.298373272,0.513507741,0.179094292,0.222239003,-0.189086795,-0.239541203
1.76966E+18,1.524352295,-0.289984817,0.24280221,0.264949452,0.204431519,-0.176285774,-0.206862092
1.76966E+18,1.534340576,-0.074618293,-0.074125559,0.223960731,0.190999836,-0.162154049,-0.215942472
1.76966E+18,1.544328613,0.137448003,-0.113366267,0.143821903,0.16778639,-0.14679268,-0.251762241
1.76966E+18,1.55431665,0.217242218,0.011447277,-0.059776716,0.151911393,-0.140375063,-0.274773329
1.76966E+18,1.564304443,0.022048732,-0.002979308,-0.242595873,0.156782046,-0.150911868,-0.27970311
1.76966E+18,1.574292725,-0.175089422,-0.121056237,-0.336660059,0.159208372,-0.133335993,-0.258541077
1.76966E+18,1.584279785,-0.306454305,-0.283309577,-0.405706707,0.160369515,-0.050343376,-0.232950255
1.76966E+18,1.594267578,-0.288438756,-0.359659826,-0.30351153,0.169789806,-0.017405387,-0.215935111
1.76966E+18,1.604255615,-0.111660048,-0.33300329,-0.232628606,0.186003387,-0.001949465,-0.206073433
1.76966E+18,1.614243652,0.049806526,-0.299648717,-0.24511604,0.221829146,-0.001366689,-0.194573998
1.76966E+18,1.624231445,0.060341939,-0.067248659,-0.14479221,0.220799312,0.049707413,-0.209369987
1.76966E+18,1.634219482,-0.05415888,0.329492651,-0.207112764,0.185473233,0.093126111,-0.227098554
1.76966E+18,1.64420752,-0.1371113,0.560066663,-0.630712563,0.181001782,0.13693805,-0.235338643
1.76966E+18,1.65419458,-0.185575179,0.74208035,-0.165852826,0.188152984,0.052591585,-0.258414775
1.76966E+18,1.664182373,0.27653263,0.338890594,0.443892645,0.151039705,-0.057293635,-0.279621542
1.76966E+18,1.67417041,0.539147793,0.019985388,0.34661359,0.108970933,-0.180436373,-0.311843008
1.76966E+18,1.684158447,0.535633648,-0.141530285,0.341748322,0.070872016,-0.237208053,-0.332030565
1.76966E+18,1.694146484,0.352444488,-0.147545015,0.43166094,0.04560886,-0.283310533,-0.318432271
1.76966E+18,1.704134521,0.086042791,-0.107080903,0.319111542,0.012718023,-0.2701087,-0.263021469
1.76966E+18,1.714122314,-0.415803153,0.116008306,-0.074936583,0.035158701,-0.155735686,-0.172074392
1.76966E+18,1.724109375,-0.913108532,0.366149772,-0.095803722,0.08817292,-0.001029722,-0.092373163
1.76966E+18,1.734097168,-0.907527517,0.405048535,-0.076654493,0.131309226,0.113493629,-0.070200205
1.76966E+18,1.744085449,-0.427125342,0.207718037,-0.091568277,0.146509215,0.108286887,-0.121583231
1.76966E+18,1.754073486,0.333530528,-0.126481769,-0.206295018,0.147234321,0.096381411,-0.183065981
1.76966E+18,1.764061279,0.448109678,-0.286303498,-0.257234932,0.143162876,0.092144854,-0.212951973
1.76966E+18,1.774049316,0.218798234,-0.249182266,-0.244020646,0.125152141,0.075833887,-0.189742118
1.76966E+18,1.784037598,-0.123458056,-0.165565825,-0.298323314,0.116845481,0.036406323,-0.134859681
1.76966E+18,1.794024414,-0.202955352,-0.089335988,-0.257278479,0.111884333,0.015697006,-0.089052014
1.76966E+18,1.804012451,-0.055100559,-0.091182492,-0.15953882,0.116776295,0.033766557,-0.078178056
1.76966E+18,1.814000488,0.168779527,-0.10834347,0.035824762,0.118075155,0.06058773,-0.085706249
1.76966E+18,1.823988281,0.250934078,-0.161541977,0.185813079,0.116244502,0.058905143,-0.109297864
1.76966E+18,1.833976563,0.328991131,-0.108164022,0.171103878,0.095091768,0.036456347,-0.119119368
1.76966E+18,1.8439646,0.206052149,-0.091476507,0.101320732,0.078236088,-0.006402439,-0.117303893
1.76966E+18,1.853952393,0.097914431,-0.061968088,0.097088209,0.069634132,-0.043278579,-0.122624949
1.76966E+18,1.863939453,0.122051678,0.03869418,0.061371876,0.062316295,-0.05439914,-0.120554082
1.76966E+18,1.87392749,0.059231905,0.087570731,0.00811521,0.063152261,-0.086314879,-0.11903923
1.76966E+18,1.883915283,0.083071118,0.144498487,0.014423662,0.073211819,-0.097108938,-0.118030161
1.76966E+18,1.89390332,0.041419185,0.132915602,0.025386955,0.080151744,-0.064001493,-0.113448083
1.76966E+18,1.903891357,0.00527352,0.106038701,0.058592766,0.082008235,-0.017854244,-0.104364306
1.76966E+18,1.913879395,-0.007452654,0.0516051,0.073498367,0.079028778,0.004795576,-0.090062596
1.76966E+18,1.923867188,0.022125323,-0.05378712,0.147072137,0.074455068,0.01314006,-0.086473987
1.76966E+18,1.933854248,0.112298345,-0.097995095,0.139251527,0.067268968,0.002223862,-0.090253547
1.76966E+18,1.943842529,0.142491239,-0.127034727,0.132881115,0.067776568,-0.015255263,-0.108592875
1.76966E+18,1.953830322,0.229387396,-0.007440964,0.21195962,0.070697539,-0.035923459,-0.137622282
1.76966E+18,1.963818359,0.295264182,0.184658064,0.150946933,0.059463784,-0.027196549,-0.132508472
1.76966E+18,1.973806396,0.107148708,0.076464816,0.116024965,0.053476598,0.002760333,-0.117936812
1.76966E+18,1.983794189,0.072408197,-0.043913961,0.126827222,0.054991137,0.025354326,-0.130728498
1.76966E+18,1.993782471,0.2693722,-0.058017305,0.128155255,0.041390251,0.021797266,-0.134325117
1.76966E+18,2.003769531,0.298334127,-0.122842536,0.087892803,0.032391697,-0.011159886,-0.125436291
1.76966E+18,2.013757324,0.183783034,-0.096246205,0.064482701,0.039457854,-0.055312339,-0.144651696
1.76966E+18,2.023745361,0.288354001,0.178397834,0.116027303,0.033004746,-0.037323482,-0.107390076
1.76966E+18,2.033733398,-0.077393073,-0.050544777,0.02873305,0.040395603,-0.021900628,-0.102719985
1.76966E+18,2.043721436,0.014782522,0.07738193,-0.02891659,0.045518994,-0.002681659,-0.104683265
1.76966E+18,2.053709473,0.051817939,0.005956863,-0.108934714,0.060803536,0.034933403,-0.138281509
1.76966E+18,2.06369751,0.147176767,0.1000304,-0.12573475,0.130230293,0.030251835,-0.19420284
1.76966E+18,2.073684326,0.350296881,0.317786431,0.141734576,0.092545003,0.035941262,-0.197148368
1.76966E+18,2.083672363,-0.013328195,-0.022467268,-0.575016687,0.070763275,0.047267951,-0.107869625
1.76966E+18,2.093660645,-0.776201742,-0.288582549,-0.776414581,0.105517678,0.200570449,-0.084613651
1.76966E+18,2.103648438,-0.539715949,-0.266430923,-0.399624172,0.142901003,0.424271166,-0.139883816
1.76966E+18,2.113636475,0.158760785,-0.123141811,-0.099077337,0.143197373,0.431348145,-0.134904161
1.76966E+18,2.123624268,0.226239197,-0.335861017,0.12638883,0.152472362,0.360203415,-0.130296633
1.76966E+18,2.133612305,0.34143078,-0.225367675,0.305334069,0.168902203,0.346923977,-0.146137208
1.76966E+18,2.143600342,0.525215203,-0.13193945,0.448382065,0.16776742,0.393601477,-0.150845945
1.76966E+18,2.153587402,0.464534816,-0.239657482,0.514410535,0.15107201,0.418117166,-0.121584564
1.76966E+18,2.163575439,0.400572924,-0.398206706,0.56258829,0.11805813,0.415509403,-0.081446998
1.76966E+18,2.173563232,0.365659359,-0.589217354,0.563037788,0.096039549,0.392763197,-0.08089786
1.76966E+18,2.18355127,0.568040637,-0.531313447,0.58586629,0.073160067,0.331620753,-0.08956112
1.76966E+18,2.193539551,0.568199774,-0.562171526,0.506917549,0.064213909,0.233161867,-0.124665037
1.76966E+18,2.203527344,0.676740739,-0.355994874,0.494138439,0.074133918,0.120378867,-0.176219299
1.76966E+18,2.213515381,0.713183341,-0.092336338,0.391321039,0.077030666,0.046434749,-0.193811432
1.76966E+18,2.223502441,0.343099225,-0.036140404,0.141894735,0.077920958,0.039153665,-0.197851986
1.76966E+18,2.233490234,0.069573229,0.129490303,0.017390695,0.086812437,0.106850713,-0.190542147
1.76966E+18,2.243478516,-0.096975689,0.207318808,0.027303602,0.118958123,0.215170532,-0.146453515
1.76966E+18,2.253466553,-0.366002034,0.012809213,0.162390995,0.151951447,0.344784915,-0.090264097
1.76966E+18,2.263454346,-0.560291192,-0.173607093,0.26188948,0.180748209,0.438161999,-0.089169264
1.76966E+18,2.273442383,-0.340613911,-0.16844518,0.366404624,0.18203789,0.474974364,-0.112511449
1.76966E+18,2.28343042,-0.21019999,-0.322951267,0.218168704,0.164805919,0.490837216,-0.092499927
1.76966E+18,2.293417236,-0.530724906,-0.529138441,-0.125867437,0.149755716,0.559529424,-0.072526671
1.76966E+18,2.303405518,-0.659193611,-0.752338124,-0.036132221,0.14569813,0.647979617,-0.153256938
1.76966E+18,2.313393555,0.231136249,-0.610875059,0.16242402,0.13585642,0.69110024,-0.225550041
1.76966E+18,2.323381348,0.478684849,-0.509541175,0.254546131,0.184340328,0.774690449,-0.164149806
1.76966E+18,2.333369385,-0.388093309,-0.655976184,0.866357887,0.143604442,0.83891952,-0.141910166
1.76966E+18,2.343357422,-0.065661682,-0.876356134,0.899254486,0.116525427,0.792916596,-0.225025818
1.76966E+18,2.353345459,1.005317737,-0.599729396,1.031096321,0.087864801,0.686002731,-0.306322068
1.76966E+18,2.36333252,1.262864073,-0.70345339,1.250694181,0.047063574,0.569778383,-0.365529209
1.76966E+18,2.373320313,1.271180504,-0.935301074,1.32702631,0.033769734,0.41465053,-0.458550781
1.76966E+18,2.38330835,1.586954865,-0.49413084,1.471815012,0.00469707,0.271824956,-0.47779879
1.76966E+18,2.393296143,1.206162088,-0.28240123,1.018887412,-0.033181868,0.186277002,-0.336377472
1.76966E+18,2.403284424,-0.390444256,-0.643104427,0.511717935,-0.044405226,0.190848053,-0.275301337
1.76966E+18,2.413272461,-0.107523971,0.011096564,0.598866641,-0.056807544,0.221512631,-0.268728971
1.76966E+18,2.423260254,0.337819896,-0.027488895,0.458177483,-0.046913102,0.217216954,-0.220772102
1.76966E+18,2.433247314,0.182657245,-0.205537186,0.294652516,-0.02408649,0.21709086,-0.124722295
1.76966E+18,2.443235352,-0.125354373,-0.288052972,0.332251302,0.050605856,0.201848,-0.074348874
1.76966E+18,2.453223389,0.216934486,-0.168013803,0.849434517,0.105091833,0.247121632,-0.024673723
1.76966E+18,2.463211426,0.201180744,-0.511774633,1.300626963,0.076000258,0.242157757,0.040721264
1.76966E+18,2.473199463,-0.154908822,-0.915821298,1.469594998,-0.09781573,0.051755138,0.090494521
1.76966E+18,2.483187256,0.02752499,-1.335920687,0.69483929,-0.260243267,-0.132504448,0.031616822
1.76966E+18,2.493175537,0.749948745,-1.200532558,-0.19160043,-0.25861907,-0.146632075,-0.094227061
1.76966E+18,2.503162598,1.420929313,-0.786699244,0.524207998,-0.240469635,-0.238568127,-0.286842585
1.76966E+18,2.513150391,2.607915723,-0.050175359,0.508061458,-0.25119406,-0.435553282,-0.399728477
1.76966E+18,2.523138428,2.454178282,-0.120008189,-0.220486041,-0.239449784,-0.478753746,-0.360724628
1.76966E+18,2.533126465,1.362211897,0.046632572,-0.066083999,-0.180976182,-0.355780244,-0.177693442
1.76966E+18,2.543114258,0.181683432,0.200088273,0.602222382,-0.152900338,-0.295986176,0.041361939
1.76966E+18,2.553102539,-0.22780104,0.157100779,0.787086489,-0.140872046,-0.325143456,0.16737406
1.76966E+18,2.563090332,-0.007714374,0.083898765,0.81501553,-0.156968191,-0.3514539,0.189510792
1.76966E+18,2.573077393,0.198125886,-0.103521165,0.946890975,-0.201147065,-0.426568329,0.14659062
1.76966E+18,2.58306543,0.228039379,-0.339426016,0.987949253,-0.266759634,-0.504079401,0.076915406
1.76966E+18,2.593053467,0.215390471,-0.516903228,0.846387112,-0.311030984,-0.584414721,0.011554959
1.76966E+18,2.603041504,0.084416505,-0.589496755,0.700345194,-0.340570778,-0.622961581,-0.023026988
1.76966E+18,2.613029297,-0.031128421,-0.458581972,0.519564849,-0.34238115,-0.607098758,-0.02639191
1.76966E+18,2.623017334,-0.134362878,-0.316078458,0.354203314,-0.323043942,-0.590057194,-0.026525602
1.76966E+18,2.633005371,-0.003466069,-0.137822078,0.187257433,-0.300247431,-0.567833543,-0.012360497
1.76966E+18,2.642993164,-0.012035452,-0.106668231,-0.016788053,-0.276641965,-0.526182234,0.056116831
1.76966E+18,2.652980469,-0.316596929,-0.235725403,0.068469725,-0.248258427,-0.466840416,0.091386355
1.76966E+18,2.662968506,-0.217086754,-0.08666823,0.160859547,-0.227562994,-0.409568608,0.090231344
1.76966E+18,2.672956299,0.075699092,-0.079527126,0.167167415,-0.242840797,-0.408172369,0.086364888
1.76966E+18,2.682944336,0.181449477,-0.352913274,0.111463064,-0.261481047,-0.403204203,0.082985602
1.76966E+18,2.692932373,0.206404178,-0.290269479,0.156964586,-0.265267491,-0.401392192,0.055917364
1.76966E+18,2.70292041,0.391512616,-0.110241413,0.313608269,-0.26469171,-0.442570001,0.001906593
1.76966E+18,2.712907959,0.65708093,0.077224694,0.265197289,-0.253853858,-0.474612623,-0.03563058
1.76966E+18,2.72289502,0.553925822,0.143411277,0.193979142,-0.224456549,-0.490182817,-0.054107592
1.76966E+18,2.732882813,0.248553759,0.210693838,0.242980489,-0.229160666,-0.490687579,-0.049761042
1.76966E+18,2.74287085,0.016624972,0.16301731,-0.018102935,-0.209316924,-0.498878092,-0.020289702
1.76966E+18,2.752858887,-0.250811475,0.233618202,0.006952888,-0.170441508,-0.462827802,0.039617103
1.76966E+18,2.762846924,-0.716604036,0.020277064,0.40496641,-0.167548239,-0.385572165,0.090840071
1.76966E+18,2.772834961,-0.804347786,-0.186372466,0.360997796,-0.176339611,-0.347619206,0.081510223
1.76966E+18,2.782822998,-0.449271781,-0.126610364,0.370683616,-0.185721651,-0.347710282,0.034886792
1.76966E+18,2.792809814,-0.27076581,-0.285011704,0.434000781,-0.224419966,-0.372330576,-0.008115861
1.76966E+18,2.802797852,-0.280748421,-0.546323384,0.27826223,-0.263540179,-0.415518254,-0.062227566
1.76966E+18,2.812786133,-0.16858795,-0.516197711,0.203203774,-0.286041498,-0.45362401,-0.106679387
1.76966E+18,2.822773926,-0.066119801,-0.418293801,0.096162034,-0.321415484,-0.49978137,-0.139233068
1.76966E+18,2.832761963,0.009406272,-0.352342196,-0.228308113,-0.349560529,-0.565777421,-0.147718042
1.76966E+18,2.842749756,0.021756051,-0.159983057,-0.389162399,-0.362180442,-0.611339569,-0.137628391
1.76966E+18,2.852738037,-0.120254711,-0.027121231,-0.406461617,-0.358139813,-0.631862581,-0.12052995
1.76966E+18,2.862725098,-0.338445188,0.032408816,-0.484876397,-0.350573778,-0.618050575,-0.107870616
1.76966E+18,2.872712891,-0.512134553,0.145487498,-0.473191805,-0.341092527,-0.594207466,-0.089589618
1.76966E+18,2.882700684,-0.694152623,0.288213715,-0.373532284,-0.329517335,-0.575651109,-0.072727017
1.76966E+18,2.892688721,-0.808544653,0.360307476,-0.285728328,-0.309080064,-0.52950114,-0.070869729
1.76966E+18,2.902676758,-0.883804258,0.414562798,-0.175816586,-0.284175783,-0.444720447,-0.073152326
1.76966E+18,2.912665039,-0.99721071,0.370839392,-0.067768299,-0.251834303,-0.372093797,-0.072620027
1.76966E+18,2.922652832,-1.107568443,0.208781867,0.024254151,-0.23036842,-0.312699705,-0.096114166
1.76966E+18,2.932639893,-0.962241177,0.135877958,-0.064027651,-0.222683445,-0.273037434,-0.121367335
1.76966E+18,2.94262793,-0.858023189,0.071268416,-0.156486447,-0.223261356,-0.248172536,-0.129845768
1.76966E+18,2.952615723,-0.840211784,0.016256138,-0.238446645,-0.224220052,-0.256092012,-0.126210541
1.76966E+18,2.962604004,-0.751503573,0.002642623,-0.338898777,-0.224534571,-0.278161883,-0.116972573
1.76966E+18,2.972592041,-0.641446138,-0.007477204,-0.336978915,-0.224452943,-0.30414623,-0.108898155
1.76966E+18,2.982579834,-0.546093083,-0.031634325,-0.329753348,-0.224371716,-0.322605133,-0.113287576
1.76966E+18,2.992567871,-0.468904483,-0.000547112,-0.259531518,-0.222227812,-0.330280364,-0.118332312
1.76966E+18,3.002556152,-0.449155972,0.061579966,-0.202025963,-0.218825087,-0.339302629,-0.10991805
1.76966E+18,3.012542969,-0.52793301,0.136836574,-0.138995214,-0.210121468,-0.344362199,-0.086077452
1.76966E+18,3.022531006,-0.695966906,0.201439687,-0.003344634,-0.209121719,-0.350490689,-0.051372737
1.76966E+18,3.032519043,-0.801647076,0.158519414,0.013441081,-0.213461339,-0.364324987,-0.028108692
1.76966E+18,3.042506836,-0.871840117,0.103650929,0.085258071,-0.219664365,-0.371254563,-0.016988929
1.76966E+18,3.052494873,-0.960814724,-0.019050737,0.20158611,-0.229552582,-0.370581329,-0.017699074
1.76966E+18,3.06248291,-0.972318115,-0.122114806,0.205573718,-0.231842369,-0.367646545,-0.033599477
1.76966E+18,3.072470947,-0.879081102,-0.178667883,0.259383342,-0.230101913,-0.367803901,-0.063372992
1.76966E+18,3.082458008,-0.750969174,-0.341993236,0.235580442,-0.219260722,-0.359994173,-0.09538392
1.76966E+18,3.092445801,-0.641570057,-0.507955952,0.179122641,-0.204799905,-0.327819705,-0.125597566
1.76966E+18,3.102433594,-0.54491001,-0.573965424,0.124815589,-0.198928967,-0.318076521,-0.155280367
1.76966E+18,3.112421875,-0.382499361,-0.565845831,0.024275779,-0.191447243,-0.330422223,-0.191291615
1.76966E+18,3.122409912,-0.144803462,-0.458978278,-0.109063309,-0.190201148,-0.350240409,-0.232334137
1.76966E+18,3.132397949,0.002739216,-0.181574126,-0.115654378,-0.194195345,-0.375200808,-0.251619875
1.76966E+18,3.142385742,-0.165763394,-0.053609425,-0.148018478,-0.193247259,-0.391697764,-0.255181849
1.76966E+18,3.152372803,-0.396789679,-0.03399287,-0.135354811,-0.18928422,-0.387405634,-0.237250865
1.76966E+18,3.16236084,-0.647871203,-0.087740243,-0.076333298,-0.176913306,-0.374858409,-0.210912734
1.76966E+18,3.172348877,-0.895307502,-0.224873754,-0.017967911,-0.167399481,-0.354049742,-0.207935601
1.76966E+18,3.182336914,-0.886302358,-0.229147778,0.02059066,-0.152313203,-0.322431654,-0.223805383
1.76966E+18,3.192324951,-0.85719441,-0.213429985,-0.005412965,-0.131288216,-0.294431388,-0.245460957
1.76966E+18,3.202312744,-0.786280141,-0.16130583,0.065866265,-0.116623521,-0.257533282,-0.263242364
1.76966E+18,3.212301025,-0.72290752,-0.106184246,0.096208211,-0.105789244,-0.233469903,-0.284361184
1.76966E+18,3.222288086,-0.584518602,-0.020228549,0.023027532,-0.101733252,-0.251845688,-0.306494176
1.76966E+18,3.232275879,-0.409776733,0.036633156,-0.058642451,-0.079571225,-0.270539641,-0.30933103
1.76966E+18,3.242263916,-0.486910314,0.059912325,0.009617139,-0.073525853,-0.26476723,-0.280106813
1.76966E+18,3.252251953,-0.684456428,0.115180623,-0.003827157,-0.073192164,-0.227336407,-0.248694211
1.76966E+18,3.26223999,-0.690834585,0.171267252,-0.058650342,-0.055783082,-0.221901953,-0.205883354
1.76966E+18,3.272228027,-0.705868634,0.087975805,0.084024437,-0.044199459,-0.235658258,-0.180995673
1.76966E+18,3.28221582,-0.710788043,-0.049678515,0.061838909,-0.043624215,-0.218808442,-0.187863171
1.76966E+18,3.292203857,-0.623406478,-0.174449389,-0.006422142,-0.05573703,-0.238109112,-0.210529521
1.76966E+18,3.302190918,-0.626261429,-0.190156077,0.046826049,-0.066111371,-0.260902047,-0.22572951
1.76966E+18,3.312178955,-0.732477093,-0.1631272,0.085464407,-0.075382143,-0.254663914,-0.23115845
1.76966E+18,3.322166748,-0.819532423,-0.154579152,0.067451196,-0.079851992,-0.236117929,-0.228920326
1.76966E+18,3.332154785,-0.793165809,-0.146567695,0.047813014,-0.082702249,-0.218426496,-0.234021962
1.76966E+18,3.342142822,-0.663922028,-0.178839148,0.012897475,-0.073781192,-0.199745759,-0.243391231
1.76966E+18,3.352130859,-0.53789794,-0.224812379,-0.068699442,-0.067773268,-0.18675895,-0.247826189
1.76966E+18,3.362118896,-0.500705981,-0.240977917,-0.178672267,-0.052277401,-0.184134662,-0.234255508
1.76966E+18,3.372105957,-0.557763647,-0.206211724,-0.127958564,-0.043019477,-0.178525493,-0.20787479
1.76966E+18,3.382093994,-0.657287997,-0.219691968,-0.098308691,-0.04605921,-0.158336341,-0.168660805
1.76966E+18,3.392081787,-0.742651427,-0.309458163,-0.146080788,-0.045972317,-0.162977234,-0.147809863
1.76966E+18,3.402069824,-0.652803545,-0.325457697,-0.034369595,-0.044480149,-0.176417142,-0.153929532
1.76966E+18,3.412058105,-0.58226432,-0.352752531,0.066416007,-0.044419002,-0.207204148,-0.181586906
1.76966E+18,3.422045898,-0.563593668,-0.334959684,0.118716688,-0.046876032,-0.243066549,-0.210138649
1.76966E+18,3.432033936,-0.663020988,-0.248031927,0.174219087,-0.047519837,-0.265032977,-0.213886797
1.76966E+18,3.442021973,-0.863794758,-0.184775553,0.186417475,-0.048231166,-0.277800977,-0.203480765
1.76966E+18,3.452008789,-1.00309933,-0.092119481,0.178006205,-0.043321438,-0.260053605,-0.183013558
1.76966E+18,3.461996826,-1.114996547,-0.067016604,0.205184719,-0.043649808,-0.237169847,-0.159420356
1.76966E+18,3.471985107,-1.149809648,-0.101368371,0.221962251,-0.040744405,-0.224626973,-0.144837052
1.76966E+18,3.4819729,-1.090523785,-0.168697109,0.19096184,-0.0435322,-0.205607206,-0.146618173
1.76966E+18,3.491960938,-1.023458081,-0.268592484,0.178645672,-0.052537862,-0.201285064,-0.172578797
1.76966E+18,3.501948975,-0.90578798,-0.26693478,0.203155843,-0.049524762,-0.211320385,-0.211471856
1.76966E+18,3.511937012,-0.851074247,-0.289618906,0.291048939,-0.044545721,-0.21526958,-0.245239884
1.76966E+18,3.521924072,-0.889912219,-0.357158072,0.243159645,-0.047666416,-0.220104024,-0.270231515
1.76966E+18,3.531912109,-0.864168852,-0.275893163,0.138302555,-0.05421795,-0.235212341,-0.27595529
1.76966E+18,3.541899902,-0.883299085,-0.141570617,0.031680794,-0.060888104,-0.248557448,-0.267985523
1.76966E+18,3.551887695,-0.911819223,0.055112815,-0.015677754,-0.059336558,-0.250656873,-0.252286822
1.76966E+18,3.561875732,-0.906618147,0.280331438,-0.02547171,-0.062749401,-0.214347333,-0.240359858
1.76966E+18,3.571864014,-0.888800458,0.459424853,-0.019295068,-0.065646015,-0.18894656,-0.237412095
1.76966E+18,3.581851807,-0.806000887,0.52115621,-0.068930621,-0.067144312,-0.155925766,-0.238337815
1.76966E+18,3.591838867,-0.741702018,0.548753242,-0.209567464,-0.068440206,-0.106231436,-0.237912506
1.76966E+18,3.601826904,-0.724701783,0.527094952,-0.295177709,-0.06802582,-0.042951006,-0.23486504
1.76966E+18,3.611814697,-0.675806527,0.590079524,-0.336810573,-0.066394709,0.020682463,-0.236667633
1.76966E+18,3.621802979,-0.545022092,0.685101156,-0.361832201,-0.06535235,0.099750921,-0.235040978
1.76966E+18,3.631791016,-0.46537061,0.722455612,-0.346344417,-0.047742069,0.142952234,-0.224285349
1.76966E+18,3.641778809,-0.361881155,0.781094848,-0.403206999,-0.030115407,0.185483977,-0.211697653
1.76966E+18,3.651766846,-0.230121592,0.718205553,-0.500521418,-0.014713408,0.225757852,-0.1796363
1.76966E+18,3.661755127,-0.237089093,0.502659599,-0.477238742,0.005768164,0.269354075,-0.146477014
1.76966E+18,3.671741943,-0.190339178,0.304041399,-0.471778139,0.026090916,0.315366924,-0.112053804
1.76966E+18,3.68172998,-0.179984957,0.090205172,-0.351077291,0.056239229,0.3461909,-0.082094043
1.76966E+18,3.691718018,-0.170790282,-0.003501286,-0.15258564,0.088184386,0.323649108,-0.045735769
1.76966E+18,3.701705811,-0.22167072,0.024119711,0.07742577,0.118205935,0.270661235,-0.001428492
1.76966E+18,3.711694092,-0.400709775,0.123147656,0.372640888,0.131594062,0.204797655,0.040711224
1.76966E+18,3.721682129,-0.489807132,0.290437237,0.616568595,0.13244468,0.122365102,0.072521612
1.76966E+18,3.731670166,-0.485867308,0.431882766,0.756004538,0.117190547,0.049977168,0.07903561
1.76966E+18,3.741657227,-0.390522728,0.516516859,0.80974285,0.106432177,0.022305062,0.062125072
1.76966E+18,3.751645264,-0.175900172,0.624661592,0.783820473,0.103591934,0.031101014,0.036119685
1.76966E+18,3.761633057,0.069854896,0.681039898,0.624191052,0.110736392,0.079010218,0.016381668
1.76966E+18,3.771621094,0.269236628,0.757524002,0.353314256,0.124581113,0.137798414,0.005167906
1.76966E+18,3.781609131,0.451599128,0.83467037,0.097528354,0.135537624,0.198553368,-0.00420216
1.76966E+18,3.791597168,0.563855534,0.817816851,-0.165267135,0.138468057,0.206430599,-0.022495426
1.76966E+18,3.801585205,0.769199389,0.670391078,-0.487635341,0.149179816,0.177952886,-0.038820073
1.76966E+18,3.811572998,0.872859524,0.532489505,-0.62698419,0.156464487,0.132794321,-0.031917945
1.76966E+18,3.821560303,0.773541217,0.320289354,-0.86432755,0.151551217,0.104671091,-0.024165481
1.76966E+18,3.831548096,0.748876439,0.269209155,-1.017815107,0.144476756,0.063340738,0.005917563
1.76966E+18,3.841536133,0.622617373,0.284049581,-0.868671717,0.130163327,0.042009883,0.04545778
1.76966E+18,3.85152417,0.461061368,0.286249722,-0.596719692,0.115533128,0.050582286,0.068702996
1.76966E+18,3.861512207,0.401780327,0.214008077,-0.363635159,0.09852352,0.05861811,0.069879316
1.76966E+18,3.871500244,0.493938094,0.025040918,-0.274051334,0.083702534,0.072227977,0.039452821
1.76966E+18,3.881488281,0.612854981,-0.126946464,-0.176259069,0.071764112,0.089046367,-0.00124587
1.76966E+18,3.891475342,0.661636694,-0.278900528,-0.068031626,0.058801852,0.119516239,-0.044106264
1.76966E+18,3.901463135,0.733531717,-0.405946945,-0.035558805,0.053220667,0.162071422,-0.075540617
1.76966E+18,3.911451172,0.804517078,-0.460822445,0.007567805,0.047167923,0.18385902,-0.109429248
1.76966E+18,3.921439453,0.980129958,-0.451449052,-0.03043284,0.04661585,0.174064443,-0.140329093
1.76966E+18,3.931427246,1.197693535,-0.381503409,-0.096940325,0.044934466,0.148598969,-0.15634872
1.76966E+18,3.941415283,1.287386081,-0.304001067,-0.154647249,0.041616168,0.115114525,-0.169425115
1.76966E+18,3.951403076,1.336321231,-0.123130121,-0.166791275,0.039482888,0.100214399,-0.174474835
1.76966E+18,3.961390137,1.222080227,0.128490186,-0.163557993,0.027911987,0.078378879,-0.149388388
1.76966E+18,3.971378418,1.000082174,0.236070271,-0.213286485,0.02632829,0.071832031,-0.108600922
1.76966E+18,3.981366211,0.769022571,0.281471255,-0.159955876,0.020800367,0.082402118,-0.051063586
1.76966E+18,3.991354004,0.556935817,0.297586524,-0.163910752,0.020030659,0.103042029,0.002146448
1.76966E+18,4.001342041,0.376830741,0.259148949,-0.172301856,0.026147941,0.116063289,0.048290242
1.76966E+18,4.011330078,0.286952171,0.172712774,-0.125412386,0.035265334,0.138940662,0.078324936
1.76966E+18,4.021318359,0.268283565,0.065163085,-0.073106737,0.036053896,0.167163238,0.081708215
1.76966E+18,4.031306152,0.25030864,-0.015002339,-0.003242343,0.033558868,0.19246994,0.074465044
1.76966E+18,4.041293213,0.175556473,-0.079984222,0.091194183,0.027604308,0.206978843,0.069014087
1.76966E+18,4.051281006,0.126940619,-0.141762925,0.215059924,0.009258186,0.2273321,0.065318331
1.76966E+18,4.061269043,0.092969376,-0.194844527,0.237640297,-0.005444593,0.244552627,0.079905532
1.76966E+18,4.071257324,-0.006245178,-0.350775678,0.288214592,-0.019855151,0.255009443,0.092312127
1.76966E+18,4.081245361,0.023547757,-0.521111786,0.295319748,-0.034467913,0.250901252,0.088183425
1.76966E+18,4.091233154,0.172311208,-0.640792643,0.184710671,-0.042625211,0.217798546,0.066975966
1.76966E+18,4.101221191,0.320131241,-0.703296738,0.095412093,-0.046012484,0.193337426,0.02661363
1.76966E+18,4.111208252,0.410891124,-0.695280604,0.075205171,-0.050040685,0.171869859,-0.007070294
1.76966E+18,4.121196045,0.369133757,-0.65947747,0.034142508,-0.053468175,0.171072766,-0.023689218
1.76966E+18,4.131184326,0.209876384,-0.538825137,-0.019420448,-0.053018656,0.186765462,-0.016414005
1.76966E+18,4.141172363,0.057354457,-0.408304322,0.031526773,-0.039794996,0.198857814,-0.025180332
1.76966E+18,4.151160156,0.092790512,-0.235633049,0.146504566,-0.043998454,0.231582403,-0.026692748
1.76966E+18,4.161148193,-0.068705872,-0.460165442,0.093737145,-0.054993846,0.278889745,0.01161789
1.76966E+18,4.17113623,-0.401710623,-0.747630385,-0.001539338,-0.054288935,0.311233073,0.077645138
1.76966E+18,4.181124023,-0.599588672,-0.896846548,0.080380235,-0.050725892,0.335667312,0.123011552
1.76966E+18,4.191111328,-0.471779454,-0.915891441,0.146477971,-0.057075344,0.348113686,0.130186796
1.76966E+18,4.201099121,-0.21591318,-0.954868529,0.125380822,-0.065209702,0.324832857,0.098730333
1.76966E+18,4.211086914,-0.087950963,-1.062638584,0.040442485,-0.056738783,0.322083384,0.057966832
1.76966E+18,4.221074951,-0.085178576,-1.169125028,-0.02278554,-0.047516525,0.321514815,0.028102944
1.76966E+18,4.231063232,-0.113352531,-0.961188964,0.056188336,-0.038844064,0.321620673,0.04124327
1.76966E+18,4.24105127,-0.324366102,-0.678258743,0.239808873,-0.014290517,0.348444551,0.079023138
1.76966E+18,4.251039063,-0.548873069,-0.429000489,0.542754586,0.008026654,0.400740087,0.129253283
1.76966E+18,4.261026123,-0.676375121,-0.3665566,0.693020843,0.011540162,0.454190791,0.170314699
1.76966E+18,4.271013916,-0.733957395,-0.249932208,0.946265244,0.003255228,0.459962338,0.175368935
1.76966E+18,4.281002197,-0.632987084,-0.298339388,1.164821193,-0.013833211,0.431828976,0.143630981
1.76966E+18,4.290990234,-0.495361259,-0.523830982,1.107941368,-0.03117297,0.394797534,0.111233518
1.76966E+18,4.300978271,-0.456121427,-0.655768678,1.08906891,-0.038565904,0.32662487,0.102418192
1.76966E+18,4.310966064,-0.465977343,-0.648538143,1.030692709,-0.042670492,0.25298968,0.129665822
1.76966E+18,4.320954346,-0.503555087,-0.621568887,0.920124548,-0.035822708,0.231641516,0.18507874
1.76966E+18,4.330942383,-0.640455082,-0.530174798,0.896163827,-0.026600394,0.232697129,0.252005816
1.76966E+18,4.340929199,-0.738474726,-0.408012646,0.94191757,-0.012911482,0.261322916,0.312516302
1.76966E+18,4.350917236,-0.733284172,-0.293738032,1.05092418,0.01020304,0.297639221,0.358756214
1.76966E+18,4.360905273,-0.694448245,-0.223355166,1.194258008,0.023503399,0.320761323,0.374501646
1.76966E+18,4.370893066,-0.577423602,-0.194126149,1.302913613,0.027002346,0.357361168,0.37159729
1.76966E+18,4.380881348,-0.483426491,-0.180337862,1.400290284,0.028469747,0.356232524,0.366270959
1.76966E+18,4.390869141,-0.417272788,-0.175922969,1.440540169,0.016637439,0.359999806,0.374482363
1.76966E+18,4.400856934,-0.385611429,-0.16760756,1.446484464,-0.009128644,0.329549491,0.39349708
1.76966E+18,4.410844238,-0.298484788,-0.249565712,1.404146082,-0.043465812,0.25921756,0.396268994
1.76966E+18,4.420832275,-0.111683282,-0.381485873,1.248593409,-0.08134421,0.191277668,0.377824754
1.76966E+18,4.430820068,0.055698945,-0.525822448,1.062805465,-0.126136214,0.128385544,0.347169906
1.76966E+18,4.440808105,0.112143886,-0.661943568,0.996766474,-0.159538388,0.059830714,0.32837224
1.76966E+18,4.450796143,0.008105127,-0.719730571,1.02131084,-0.189049974,0.02054888,0.319829911
1.76966E+18,4.46078418,-0.132740245,-0.721297089,1.032287284,-0.209978953,-0.000773453,0.320431501
1.76966E+18,4.470772217,-0.275364609,-0.630420887,1.046634667,-0.23497957,0.013753814,0.323372245
1.76966E+18,4.480760254,-0.35942704,-0.486166729,1.076749234,-0.251809955,-0.000430715,0.328950226
1.76966E+18,4.49074707,-0.433817972,-0.393783629,1.084133792,-0.269255638,-0.001404502,0.304090977
1.76966E+18,4.500735107,-0.363631798,-0.26823768,1.072405944,-0.288854629,0.022357818,0.257122666
1.76966E+18,4.510723145,-0.3425592,-0.268271582,1.055103512,-0.294957131,0.069533333,0.227838174
1.76966E+18,4.520711182,-0.521335073,-0.330782691,1.152796993,-0.305663556,0.131245971,0.219390348
1.76966E+18,4.530699219,-0.599070786,-0.205915371,1.191066518,-0.302556157,0.16299279,0.19060941
1.76966E+18,4.540687256,-0.355011854,0.09591069,1.287367084,-0.304473102,0.253358901,0.151514217
1.76966E+18,4.550675293,-0.108829793,0.637693508,1.359026545,-0.306613445,0.287314504,0.120023206
1.76966E+18,4.560662109,-0.045810003,1.015010571,1.492094415,-0.280699283,0.305741191,0.091894895
1.76966E+18,4.570650146,-0.050991205,1.170221006,1.752345772,-0.252810538,0.295297652,0.113853104
1.76966E+18,4.580638428,-0.422638406,1.086449667,2.01266961,-0.259397894,0.29841435,0.112062663
1.76966E+18,4.590626221,-0.262486715,1.17046066,1.988234549,-0.295348972,0.2685996,0.12863721
1.76966E+18,4.600614258,-0.398218251,1.01164314,2.13318078,-0.349120349,0.235353753,0.074089803
1.76966E+18,4.610602051,0.127120652,0.985842929,2.176779683,-0.374813676,0.105479278,0.021495473
1.76966E+18,4.620589844,0.331808381,0.764209179,2.200118181,-0.408139944,0.037246432,-0.113455154
1.76966E+18,4.630578125,0.867544028,0.835244371,2.021449128,-0.412958562,-0.120936394,-0.230065376
1.76966E+18,4.64056543,0.915883842,0.51295829,2.004299841,-0.398524225,-0.250976145,-0.321623504
1.76966E+18,4.650552979,0.904889131,0.308477336,1.765935614,-0.410212219,-0.397539169,-0.36192444
1.76966E+18,4.660541016,0.80799513,0.20755554,1.182033609,-0.440738708,-0.417626858,-0.398602813
1.76966E+18,4.670529053,0.966082582,0.489706009,0.696443803,-0.449861616,-0.473125696,-0.403775901
1.76966E+18,4.680517334,1.124573354,0.561777558,0.346838046,-0.459161907,-0.498910666,-0.424648702
1.76966E+18,4.690505127,1.548883639,0.853099761,0.001755319,-0.479589134,-0.518097639,-0.442376494
1.76966E+18,4.700493164,1.81325456,0.851648393,-0.419756275,-0.465167046,-0.519204736,-0.443299025
1.76966E+18,4.710481201,1.695686165,0.613706483,-0.547869152,-0.456914365,-0.489462107,-0.450058907
1.76966E+18,4.720468018,1.729617661,0.3178858,-0.952502239,-0.454185694,-0.457987279,-0.433806449
1.76966E+18,4.730456055,1.468740866,-0.201513337,-1.416397953,-0.436744362,-0.453125864,-0.38734141
1.76966E+18,4.740444092,1.028515511,-0.810358936,-1.791501724,-0.447728544,-0.345536292,-0.328441054
1.76966E+18,4.750432129,0.636442485,-1.101843051,-2.342966563,-0.48958683,-0.212427825,-0.267995089
1.76966E+18,4.760419922,0.364568495,-1.18577338,-2.860141594,-0.505716026,-0.120409489,-0.219389752
1.76966E+18,4.770407959,0.316558058,-1.005073114,-2.980705956,-0.499408931,-0.098784767,-0.168222442
1.76966E+18,4.78039624,0.206661513,-0.780374717,-3.068305037,-0.474415183,-0.090595812,-0.099864163
1.76966E+18,4.790383057,-0.023514293,-0.540437833,-3.140186324,-0.419452369,-0.057133939,-0.026591267
1.76966E+18,4.800371094,-0.216828687,-0.042195466,-2.975243307,-0.323253423,0.014869946,0.073316686
1.76966E+18,4.810359131,-0.538339107,0.54368193,-2.640371885,-0.196561679,0.151046067,0.180319846
1.76966E+18,4.820347168,-0.901324717,1.210447803,-2.117524507,-0.068247654,0.319090456,0.270197272
1.76966E+18,4.830335205,-1.070158019,1.716177895,-1.347750241,0.042625044,0.480072737,0.327209413
1.76966E+18,4.840322998,-1.063995843,1.725726645,-0.676579265,0.11169333,0.654219985,0.303021789
1.76966E+18,4.850311035,-0.956685808,1.372753165,-0.374299177,0.141333118,0.77225399,0.225013986
1.76966E+18,4.860298828,-0.816246241,0.87607907,-0.120252373,0.138539195,0.823918283,0.124875665
1.76966E+18,4.870286133,-0.672785864,0.455799648,0.105879564,0.123906039,0.846827745,0.025573587
1.76966E+18,4.88027417,-0.463415968,0.184307351,0.157534348,0.104195714,0.80508405,-0.049024485
1.76966E+18,4.890261963,-0.184996648,-0.072325816,-0.000988427,0.081332847,0.681900382,-0.082819559
1.76966E+18,4.90025,0.101474461,-0.365133873,-0.20728929,0.050468676,0.539726436,-0.090747789
1.76966E+18,4.910238037,0.355512059,-0.585543634,-0.399803036,0.01777843,0.397290081,-0.073832266
1.76966E+18,4.92022583,0.504715801,-0.718137164,-0.560296088,-0.014086559,0.281992257,-0.048090689
1.76966E+18,4.930214111,0.639582537,-0.713596598,-0.633067163,-0.055259425,0.19776468,-0.014025842
1.76966E+18,4.940202148,0.684771193,-0.672729165,-0.777448016,-0.094718412,0.098801337,0.025733553
1.76966E+18,4.950188965,0.607326719,-0.643933864,-0.95648254,-0.120195203,0.010125455,0.065050066
1.76966E+18,4.960177002,0.420813967,-0.583894698,-0.988542397,-0.133291826,-0.031846497,0.107141852
1.76966E+18,4.970165039,0.099553722,-0.574272298,-1.011910121,-0.131159976,-0.058808606,0.146011233
1.76966E+18,4.980153076,-0.167516959,-0.636910833,-1.041534567,-0.124580897,-0.074694626,0.167051002
1.76966E+18,4.990141113,-0.288890592,-0.662139967,-1.134101353,-0.111609913,-0.076286905,0.169953406
1.76966E+18,5.00012915,-0.424466937,-0.665298139,-1.228277912,-0.092001855,-0.06028397,0.165953606
1.76966E+18,5.010117188,-0.562124034,-0.648884764,-1.251324003,-0.063774168,-0.032806229,0.146385312
1.76966E+18,5.020104004,-0.658186991,-0.551817305,-1.231318595,-0.031480148,0.008294602,0.119874068
1.76966E+18,5.030092041,-0.716574883,-0.452826185,-1.218234511,0.003392987,0.075050272,0.092303604
1.76966E+18,5.040080322,-0.752291216,-0.358230085,-1.172025133,0.035411373,0.162736714,0.06637986
1.76966E+18,5.050068115,-0.78849884,-0.331921924,-1.191819383,0.050199132,0.237443149,0.056142945
1.76966E+18,5.060056152,-0.780646665,-0.327163916,-1.178128711,0.093393736,0.300408274,0.032284748
1.76966E+18,5.070043945,-0.74887907,-0.209078219,-1.055640834,0.129746214,0.368184417,0.026740937
1.76966E+18,5.080031982,-0.794250828,-0.216491126,-0.969944664,0.158728063,0.426782757,0.030956453
1.76966E+18,5.09002002,-0.832960352,-0.175717801,-0.777991329,0.178696543,0.449612409,0.045579933
1.76966E+18,5.10000708,-0.836862474,-0.184396198,-0.616283932,0.194270715,0.47678864,0.059737563
1.76966E+18,5.109994873,-0.845343886,-0.224571556,-0.40130701,0.208461642,0.499447972,0.073846295
1.76966E+18,5.11998291,-0.888071267,-0.264689632,-0.182578627,0.218054608,0.485928684,0.081489041
1.76966E+18,5.129971191,-0.839635446,-0.331987391,0.004026771,0.226041675,0.44261834,0.075496748
1.76966E+18,5.139958984,-0.74076576,-0.400076592,0.149588358,0.230304584,0.388111711,0.053130195
1.76966E+18,5.149947021,-0.612330957,-0.399344186,0.265311855,0.230638221,0.342965424,0.020904955
1.76966E+18,5.159935059,-0.482215215,-0.391625574,0.306755042,0.230583891,0.253048569,-0.00522891
1.76966E+18,5.169923096,-0.425661553,-0.380497447,0.293177475,0.236139417,0.149674967,-0.015077717
1.76966E+18,5.179909912,-0.446785152,-0.371998498,0.268842368,0.237527713,0.092013538,-0.026704546
1.76966E+18,5.189898193,-0.45008317,-0.424973133,0.209138717,0.222618014,0.057827108,-0.026313039
1.76966E+18,5.199885986,-0.467002741,-0.401776966,0.068323156,0.20484142,0.013172288,-0.014072884
1.76966E+18,5.209874023,-0.542160419,-0.281862885,0.042116702,0.200355694,-0.022578118,0.006492825
1.76966E+18,5.219862061,-0.615889526,-0.111567109,0.067919252,0.206734225,-0.049500015,0.033793956
1.76966E+18,5.229850342,-0.726956869,0.052352703,0.104218499,0.219346464,-0.075787328,0.056595121
1.76966E+18,5.239838135,-0.829757902,0.231142167,0.201490979,0.238455445,-0.086365402,0.072537065
1.76966E+18,5.249826172,-0.950031757,0.428553329,0.313547332,0.264330447,-0.076529264,0.078828022
1.76966E+18,5.259813232,-1.070203758,0.531795093,0.400295495,0.295369595,-0.062258184,0.076315328
1.76966E+18,5.269801025,-1.157735619,0.576620907,0.441537314,0.32758069,-0.040530514,0.076892868
1.76966E+18,5.279789063,-1.274557287,0.547858339,0.48305868,0.359389484,0.000509067,0.069071166
1.76966E+18,5.2897771,-1.319814187,0.526339165,0.54108826,0.383572578,0.038728792,0.05287265
1.76966E+18,5.299764893,-1.329753397,0.335879722,0.496711066,0.397080928,0.075859651,0.031830218
1.76966E+18,5.30975293,-1.289219142,0.177574243,0.446397321,0.408494115,0.062469251,0.009446789
1.76966E+18,5.319740967,-1.200250234,0.011872809,0.399616573,0.422753215,0.099048033,-0.025045941
1.76966E+18,5.329727783,-1.190313508,-0.035336686,0.409098395,0.415828586,0.10928271,-0.048011962
1.76966E+18,5.339716064,-1.23372025,-0.103059977,0.388803795,0.41050148,0.090496235,-0.052459173
1.76966E+18,5.349704102,-1.259712623,-0.144157711,0.399196302,0.400876343,0.075874709,-0.042867441
1.76966E+18,5.359691895,-1.354365129,-0.085054365,0.444037899,0.383919716,0.065513954,-0.035718188
1.76966E+18,5.369679932,-1.332700556,0.097191962,0.469584136,0.369355977,0.049833134,-0.039619271
1.76966E+18,5.379668213,-1.248722442,0.288564428,0.525112838,0.349687219,0.000201401,-0.056392126
1.76966E+18,5.38965625,-1.16108376,0.533784221,0.509173803,0.331160724,-0.036761817,-0.09713804
1.76966E+18,5.399644043,-1.006470706,0.850143249,0.499754818,0.315896809,-0.042620771,-0.146150336
1.76966E+18,5.409631104,-0.943169324,1.050868066,0.514633238,0.289411753,-0.031124614,-0.183604315
1.76966E+18,5.419618896,-0.998292076,1.081173188,0.369803326,0.256918013,0.012294233,-0.209664419
1.76966E+18,5.429606934,-1.019899512,1.03465226,0.103007662,0.224321619,0.064040519,-0.218558937
1.76966E+18,5.439595215,-0.872563463,1.073766127,-0.235776549,0.201490074,0.095412821,-0.210108474
1.76966E+18,5.449583252,-0.734933547,1.190704407,-0.477069231,0.200432301,0.141163841,-0.188822806
1.76966E+18,5.459571045,-0.57884852,1.337056998,-0.573904926,0.218589738,0.220858678,-0.168267727
1.76966E+18,5.469559082,-0.39483533,1.583157664,-0.552885519,0.247080356,0.307319492,-0.155526772
1.76966E+18,5.479546143,-0.164680859,1.830769905,-0.514794273,0.289664865,0.401156247,-0.141964093
1.76966E+18,5.48953418,-0.053324763,1.988997058,-0.378128672,0.319422126,0.49500975,-0.10965766
1.76966E+18,5.499522217,-0.033728082,1.916073276,-0.382818583,0.351243168,0.629524171,-0.056814954
1.76966E+18,5.50951001,-0.163307379,1.587725119,-0.328394919,0.339926898,0.735474706,-0.021139601
1.76966E+18,5.519497803,-0.05301409,1.311988023,-0.563814909,0.297937363,0.795377195,-0.011632916
1.76966E+18,5.52948584,0.238040987,0.949393313,-0.83211601,0.272163808,0.797258556,-0.002350912
1.76966E+18,5.539474121,0.358343336,0.495089456,-0.755812815,0.238418624,0.732370913,0.019052114
1.76966E+18,5.549461914,0.460056137,-0.141680507,-0.859845728,0.197851077,0.624935329,0.054965023
1.76966E+18,5.559448975,0.585542465,-0.749852153,-1.018738652,0.154729173,0.480398089,0.108128637
1.76966E+18,5.569437012,0.65725541,-1.337920921,-1.042939027,0.116373017,0.310280681,0.174847752
1.76966E+18,5.579424805,0.619434067,-1.855923635,-0.958402841,0.071456939,0.174473062,0.219890326
1.76966E+18,5.589413086,0.655686115,-2.142645651,-0.83977763,0.023599787,0.087647304,0.216024831
1.76966E+18,5.599401123,0.878700359,-2.192988183,-0.661093673,-0.008267066,0.025283534,0.156517297
1.76966E+18,5.60938916,1.29560329,-1.991129394,-0.50804363,-0.033058047,4.09149E-05,0.051057462
1.76966E+18,5.619376953,1.830577597,-1.468103298,-0.415704954,-0.05173799,0.036459908,-0.064389236
1.76966E+18,5.629365234,2.158780355,-0.81825758,-0.353363064,-0.059350457,0.089119382,-0.161899641
1.76966E+18,5.639352051,2.275264315,-0.085257194,-0.279701031,-0.05211838,0.127703264,-0.206569105
1.76966E+18,5.649340088,2.096471929,0.528181578,-0.24212358,-0.044049468,0.16349484,-0.20434235
1.76966E+18,5.659328125,1.85309338,0.977507647,-0.308499255,-0.02966254,0.290364355,-0.197349161
1.76966E+18,5.669316162,1.485047857,1.212903379,-0.388084833,-0.02143305,0.25755915,-0.061727494
1.76966E+18,5.679303955,0.992808384,1.310213415,-0.713561819,-0.043341275,0.205938041,0.078294054
1.76966E+18,5.689292236,0.820969031,0.962390741,-0.717275579,-0.020870879,0.183460429,0.110040523
1.76966E+18,5.699280029,0.80935502,0.708028442,-0.312448577,0.006405747,0.248076975,0.149550915
1.76966E+18,5.709267822,0.417003761,0.429493825,-0.244100725,0.013132287,0.165912151,0.187444776
1.76966E+18,5.719255615,0.306385186,0.421190107,-0.350579278,-0.012541384,0.026021358,0.231475621
1.76966E+18,5.729243896,0.165176534,0.088196754,-0.203406311,-0.063242719,-0.072310463,0.261570424
1.76966E+18,5.739231934,-0.022051819,-0.163478498,0.014031156,-0.060662381,0.071641915,0.230023921
1.76966E+18,5.749219971,-0.231453133,-0.544331334,0.178394035,-0.038494371,0.17137982,0.215239108
1.76966E+18,5.759207764,-0.281637844,-0.721163818,0.028000352,-0.037063189,0.111285329,0.193352446
1.76966E+18,5.769195801,-0.052102235,-0.900275354,-0.018693595,-0.026267616,0.129343599,0.166623205
1.76966E+18,5.779184082,-0.062331076,-0.900840002,0.161164375,-0.009679051,0.252610683,0.151211232
1.76966E+18,5.789170898,-0.206519036,-0.931937736,0.139120009,-0.003390892,0.33535251,0.129748017
1.76966E+18,5.799158936,-0.076095398,-0.96368195,0.094063893,0.000916505,0.36635226,0.112648644
1.76966E+18,5.809146973,0.087154406,-0.900434344,0.076036069,0.004544391,0.356425375,0.08536794
1.76966E+18,5.819134766,0.242768161,-0.945505658,0.069818217,0.007630729,0.357097298,0.048115376
1.76966E+18,5.829123047,0.333900969,-1.007581298,-0.005135317,-0.001080003,0.377286673,0.005801653
1.76966E+18,5.839111084,0.408067445,-1.011142205,-0.275858092,-0.009659111,0.357158512,-0.023654239
1.76966E+18,5.849098877,0.425192913,-0.957740285,-0.425607631,-0.003186531,0.373643637,-0.018450512
1.76966E+18,5.859086914,0.190788237,-0.855805513,-0.338305488,0.021915359,0.399895459,0.026083667
1.76966E+18,5.869073975,-0.159590842,-0.755692111,-0.103323596,0.059873529,0.429172337,0.093018308
1.76966E+18,5.879061768,-0.396023079,-0.71014675,0.144082308,0.126099154,0.560574293,0.138053432
1.76966E+18,5.889050049,-0.448353716,-0.649362318,0.280272985,0.189067692,0.698296964,0.186449647
1.76966E+18,5.899037842,-0.478097697,-0.348701209,0.475268027,0.207891971,0.839533746,0.225743264
1.76966E+18,5.909025879,-0.317452962,-0.528358688,0.764677381,0.188481152,0.890829504,0.240888104
1.76966E+18,5.919013672,-0.22259558,-0.726065034,0.861370454,0.155054748,0.850049853,0.216412589
1.76966E+18,5.929001953,0.088898765,-0.658980042,0.938931832,0.131563425,0.715125799,0.187136024
1.76966E+18,5.93898877,0.142581256,-0.642827364,1.051224917,0.100157574,0.612438321,0.158238605
1.76966E+18,5.948976807,0.042458209,-0.661156801,1.000777755,0.061482087,0.501085043,0.149059117
1.76966E+18,5.958964844,0.076271047,-0.542953616,1.06257867,0.0325551,0.365648419,0.169848278
1.76966E+18,5.968952881,0.023198505,-0.383929175,1.103443472,0.015423487,0.307879508,0.218545869
1.76966E+18,5.978940918,-0.16320085,-0.289900645,1.140653259,0.01516942,0.319654942,0.275073588
1.76966E+18,5.988928955,-0.367542396,-0.28391105,1.107210716,0.022063239,0.347445756,0.317840427
1.76966E+18,5.998916992,-0.384082466,-0.359644044,1.016957029,0.03982519,0.385797679,0.331561834
1.76966E+18,6.008904785,-0.381215532,-0.479628268,1.060488128,0.057422455,0.419795275,0.326973021
1.76966E+18,6.018892822,-0.392398166,-0.588701221,1.066509288,0.056291144,0.464189619,0.303926289
1.76966E+18,6.028879883,-0.414270683,-0.654570993,1.09164899,0.049999159,0.475206047,0.277358323
1.76966E+18,6.03886792,-0.350002647,-0.67011343,1.148004498,0.041229904,0.459329635,0.256590217
1.76966E+18,6.048855957,-0.204198192,-0.649534752,1.166971065,0.033160049,0.437363476,0.251557827
1.76966E+18,6.058843994,-0.097595574,-0.592858341,1.198595745,0.020519089,0.408425033,0.260164082
1.76966E+18,6.068831787,-0.041027591,-0.513422401,1.266773209,0.005916444,0.373417258,0.268913895
1.76966E+18,6.078820068,-0.008441373,-0.505980852,1.297002051,-0.001468769,0.341808736,0.264983892
1.76966E+18,6.088807861,0.061241527,-0.488459224,1.375690972,-0.006416331,0.306026608,0.252509773
1.76966E+18,6.098794922,0.070217446,-0.497538603,1.416878723,-0.001373102,0.259983212,0.24726975
1.76966E+18,6.108782959,0.00110913,-0.472639724,1.455429402,0.005524623,0.235255167,0.248802483
1.76966E+18,6.118770752,-0.137739368,-0.40886254,1.534530996,0.011806487,0.209917054,0.272526979
1.76966E+18,6.128759033,-0.368120196,-0.380367683,1.714226469,0.019410722,0.175844297,0.315271109
1.76966E+18,6.138746826,-0.536039014,-0.309604878,1.903845955,0.021617152,0.164505616,0.361169606
1.76966E+18,6.148734863,-0.620344606,-0.250630127,1.968286863,0.035067648,0.159591794,0.409863293
1.76966E+18,6.1587229,-0.694059977,-0.295490428,2.083689312,0.057536736,0.148948193,0.447513729
1.76966E+18,6.168710693,-0.686290512,-0.285505041,2.2506878,0.082715213,0.145326599,0.480343521
1.76966E+18,6.178697754,-0.644845864,-0.188552733,2.405734277,0.078334577,0.152814075,0.499057293
1.76966E+18,6.188686035,-0.41928705,0.079958503,2.430602176,0.059788626,0.125730947,0.491282582
1.76966E+18,6.198673828,0.031775487,0.632863019,2.467907825,0.024581635,0.084897235,0.443767309
1.76966E+18,6.208661865,0.552736612,1.189231412,2.443793959,-0.003441161,-0.009447448,0.38979432
1.76966E+18,6.218649902,0.795170427,1.472687703,2.379817161,-0.021490736,-0.094349287,0.31479305
1.76966E+18,6.228637939,1.130134495,2.030458949,2.20299549,-0.072037436,-0.229465395,0.230963677
1.76966E+18,6.238625977,1.460046833,2.503686702,1.884971158,-0.130172908,-0.411669016,0.176376864
1.76966E+18,6.248614014,1.347830467,2.217421198,1.606818234,-0.195671305,-0.551948905,0.137666389
1.76966E+18,6.25860083,1.013362219,1.784731207,1.474695828,-0.239348486,-0.685150087,0.108580135
1.76966E+18,6.268588867,0.59260232,1.213680793,1.200007365,-0.220959082,-0.769096017,0.086977005
1.76966E+18,6.278576904,0.283354293,0.719872025,1.015272729,-0.210035607,-0.779539049,-0.041028101
1.76966E+18,6.288564941,0.933240781,0.53805766,0.302870602,-0.244098872,-0.657636166,-0.236864969
1.76966E+18,6.298552979,1.557050579,0.290350727,-0.568465658,-0.258856773,-0.497380972,-0.395737141
1.76966E+18,6.308540771,1.630633555,-0.059499068,-1.157460894,-0.256411493,-0.406992793,-0.506631017
1.76966E+18,6.318528809,1.882462098,-0.397971144,-1.874353903,-0.269802123,-0.345246077,-0.607525647
1.76966E+18,6.328516846,2.27926829,-0.7856699,-2.570184835,-0.313458592,-0.278954536,-0.678277016
1.76966E+18,6.33850415,2.423426439,-1.030900799,-3.206749631,-0.382558316,-0.217366531,-0.663080752
1.76966E+18,6.348491943,2.108681422,-1.067618126,-3.775546712,-0.416638881,-0.167322561,-0.5780738
1.76966E+18,6.358479736,1.736971239,-0.619765637,-4.051099684,-0.443097651,-0.194100112,-0.399650246
1.76966E+18,6.368467773,1.140353107,-0.264238965,-4.089922166,-0.415157169,-0.251277566,-0.144259214
1.76966E+18,6.378456055,0.383374025,0.597376111,-3.577778992,-0.333696127,-0.30041182,0.191823184
1.76966E+18,6.388443848,-0.588822802,1.705313972,-2.703426892,-0.177646488,-0.237873554,0.598709583
1.76966E+18,6.398431885,-1.762539249,2.492277419,-1.587223453,0.042988952,-0.000469785,0.981833816
1.76966E+18,6.408419922,-2.706671865,2.953580341,-0.549980445,0.237550348,0.356037974,1.26677227
1.76966E+18,6.418406738,-3.135466602,2.82770589,0.006662088,0.358166009,0.655221224,1.366714358
1.76966E+18,6.428394775,-2.864416787,2.18828512,0.439421345,0.377508581,0.600927353,1.291559696
1.76966E+18,6.438383057,-2.389899433,1.307160457,1.042949841,0.262305558,0.605471253,1.008791089
1.76966E+18,6.44837085,-1.443232476,0.388646266,1.357050861,0.102381974,0.763791263,0.595295072
1.76966E+18,6.458358887,-0.524910009,-0.389072383,1.527566126,0.043462206,0.82551378,0.169486538
1.76966E+18,6.468346924,0.221663706,-0.968991747,1.661690518,0.096406817,0.723623455,-0.225272223
1.76966E+18,6.478335205,1.093722435,-0.991747184,1.4463056,0.108837657,0.482110441,-0.541119456
1.76966E+18,6.488322021,1.617032023,-1.089388643,0.857316794,0.037992928,0.162803859,-0.699206054
1.76966E+18,6.498310059,1.728864943,-1.202866554,0.280542742,-0.069274135,-0.116323918,-0.734613597
1.76966E+18,6.508297852,1.631688179,-1.041850647,-0.010173019,-0.177247554,-0.330621868,-0.671689868
1.76966E+18,6.518285889,1.497458426,-0.843045985,-0.154959091,-0.259479851,-0.570949793,-0.545339406
1.76966E+18,6.52827417,1.470170606,-0.759314977,-0.465446597,-0.300167322,-0.919836938,-0.399052173
1.76966E+18,6.538261963,1.41259783,-0.701101858,-0.886376008,-0.292298496,-1.279871345,-0.261006415
1.76966E+18,6.548249756,1.151346795,-0.735569945,-1.213384733,-0.291656137,-1.539979577,-0.164050579
1.76966E+18,6.558237793,0.76429978,-0.840486363,-1.636967581,-0.351776719,-1.502171993,-0.108479194
1.76966E+18,6.568224854,0.209868931,-0.790728353,-1.905103553,-0.339041889,-1.457582116,-0.016440537
1.76966E+18,6.578212646,-0.398870869,-0.85055826,-1.502562325,-0.270388544,-1.171572208,-0.015530271
1.76966E+18,6.588200928,-0.923406492,-0.88908702,-1.612150681,-0.207766816,-0.782405138,-0.023008075
1.76966E+18,6.598188965,-1.410934135,-0.826592278,-1.748923688,-0.142290339,-0.552843332,-0.008133255
1.76966E+18,6.608176758,-1.505881386,-0.591033464,-1.669981231,-0.133662298,-0.491598547,-0.038050927
1.76966E+18,6.618164795,-1.10936541,-0.502580689,-1.419672153,-0.129143968,-0.511914194,-0.094167724
1.76966E+18,6.628153076,-0.752836283,-0.642552638,-0.745888071,-0.124410555,-0.429871798,-0.171005338
1.76966E+18,6.638140869,-0.467347609,-0.800125711,-0.682931557,-0.116759822,-0.389157653,-0.228695542
1.76966E+18,6.64812793,-0.161039434,-0.831105956,-0.865220992,-0.102755062,-0.389718801,-0.256453395
1.76966E+18,6.658115967,-0.028475422,-0.639898909,-0.758128836,-0.094432682,-0.387826353,-0.226316273
1.76966E+18,6.66810376,-0.151281279,-0.444255341,-0.465723515,-0.096139275,-0.389651984,-0.16802004
1.76966E+18,6.678091797,-0.201451962,-0.435378791,-0.30968072,-0.096419975,-0.408511698,-0.12425869
1.76966E+18,6.688080078,-0.112437462,-0.518287961,-0.173600517,-0.095792487,-0.440846771,-0.10618943
1.76966E+18,6.698068115,-0.057572922,-0.612753128,-0.011419658,-0.091872044,-0.487637967,-0.108716503
1.76966E+18,6.708055908,-0.126429747,-0.736822575,0.144784757,-0.095635913,-0.585237861,-0.132008851
1.76966E+18,6.718043457,-0.206335058,-0.87769878,0.279018309,-0.114162989,-0.713262916,-0.183824122
1.76966E+18,6.728030273,-0.310927067,-0.993869583,0.300464417,-0.122276008,-0.746574938,-0.180835873
1.76966E+18,6.738018311,-0.643164487,-0.893691299,0.327586964,-0.130099848,-0.73172009,-0.174157724
1.76966E+18,6.748006348,-0.770399704,-0.850720173,0.215868172,-0.138062954,-0.745714724,-0.19841966
1.76966E+18,6.757994385,-0.714298609,-0.891038154,0.090893154,-0.138167083,-0.786449909,-0.214738443
1.76966E+18,6.767982422,-0.813408971,-0.860575212,0.15659283,-0.140419513,-0.827557206,-0.225976706
1.76966E+18,6.777970215,-0.92629783,-0.864704274,0.219160199,-0.144119978,-0.848026276,-0.218091354
1.76966E+18,6.787958252,-1.002687827,-0.794993609,0.292990136,-0.141896233,-0.872771025,-0.218735307
1.76966E+18,6.797946289,-0.895879019,-0.772852504,0.293366422,-0.14004375,-0.894506693,-0.264114231
1.76966E+18,6.80793335,-0.682644556,-0.812625712,0.207349934,-0.139507562,-0.875977814,-0.317510098
1.76966E+18,6.817921143,-0.665854604,-0.893491977,0.083875676,-0.14328526,-0.844662547,-0.342417032
1.76966E+18,6.82790918,-0.671807374,-0.830671072,0.01711144,-0.138040885,-0.863683701,-0.362493545
1.76966E+18,6.837897461,-0.455518932,-0.746919606,-0.035884968,-0.128813833,-0.887409806,-0.391431451
1.76966E+18,6.847885254,-0.240458277,-0.642251025,-0.110673813,-0.114158727,-0.892943203,-0.39745304
1.76966E+18,6.857873291,-0.262968215,-0.503235938,-0.155142046,-0.097486012,-0.888586819,-0.382500172
1.76966E+18,6.867861328,-0.373736282,-0.259868495,-0.157847944,-0.086860701,-0.899406672,-0.344362319
1.76966E+18,6.877849121,-0.55395271,-0.036735447,-0.103999158,-0.075792871,-0.915534258,-0.28239882
1.76966E+18,6.887836182,-0.761761932,0.106487029,-0.014218933,-0.063608617,-0.886003613,-0.242589608
1.76966E+18,6.897824463,-0.890487681,0.097933135,0.068392422,-0.058662333,-0.868339658,-0.229262352
1.76966E+18,6.907812256,-0.940998555,0.01935352,0.103639677,-0.051578477,-0.85499531,-0.243565828
1.76966E+18,6.917800293,-0.935700157,-0.063132456,0.190216867,-0.043317616,-0.852027774,-0.260323226
1.76966E+18,6.92778833,-1.048362221,-0.126986211,0.203630183,-0.026410982,-0.8521173,-0.274291962
1.76966E+18,6.937776611,-1.22887544,-0.105332598,0.257197815,0.000755659,-0.838643312,-0.277144492
1.76966E+18,6.947764404,-1.448317671,0.042824412,0.267982244,0.029866386,-0.798820019,-0.266723067
1.76966E+18,6.957752441,-1.684083552,0.28112288,0.300939926,0.063658446,-0.740956485,-0.242458761
1.76966E+18,6.967739258,-1.791559592,0.633400779,0.37381227,0.08058504,-0.686801255,-0.208657205
1.76966E+18,6.977727295,-1.621823934,1.152038869,0.388258436,0.082164563,-0.610830843,-0.188490689
1.76966E+18,6.987715576,-1.221456834,1.603725821,0.43972968,0.073166415,-0.538045704,-0.165588021
1.76966E+18,6.997703369,-0.808922035,1.864433105,0.365361252,0.066684015,-0.458103478,-0.13800247
1.76966E+18,7.007691162,-0.413200862,2.160993793,0.300369432,0.101411007,-0.286526054,-0.14243184
1.76966E+18,7.017679199,-0.031654198,2.358389173,0.50220338,0.043436389,-0.233422101,-0.174432918
1.76966E+18,7.027667236,0.434660852,2.290239766,-0.177172969,0.037999317,-0.227360159,-0.265231967
1.76966E+18,7.037655273,0.991354824,2.48005682,-0.044108022,0.031078564,-0.207075134,-0.401100576
1.76966E+18,7.047642334,1.254982526,2.647768425,0.057843409,0.011928644,-0.17963773,-0.528332055
1.76966E+18,7.057630371,1.215770459,2.56502526,0.068542206,0.041088659,-0.199848726,-0.573364258
1.76966E+18,7.067618164,0.81597283,2.085368935,0.08696692,0.100415848,-0.154520243,-0.44265914
1.76966E+18,7.077606201,-0.048329293,1.355862236,0.078917762,0.162514374,-0.074094117,-0.153900847
1.76966E+18,7.087594482,-0.865326352,0.385194665,0.092228202,0.213765427,-0.003837818,0.173301086
1.76966E+18,7.097582275,-1.195407909,-0.285897255,0.205271813,0.220772743,-0.00054482,0.401261806
1.76966E+18,7.107570313,-0.82286069,-0.766872846,0.275306303,0.165390223,-0.029103188,0.478842199
1.76966E+18,7.11755835,-0.165984197,-1.274068334,0.311171982,0.064010613,-0.125002027,0.426879913
1.76966E+18,7.127545166,0.581850332,-1.708661528,0.333510947,-0.036131866,-0.265873313,0.248356164
1.76966E+18,7.137533203,1.596165468,-1.858999389,0.545810758,-0.110614888,-0.362038463,-0.029563081
1.76966E+18,7.147521484,2.674344297,-1.91167241,0.659024757,-0.167877063,-0.37842077,-0.371657372
1.76966E+18,7.157509521,3.637788347,-1.704395688,0.361282459,-0.216874436,-0.362686276,-0.752042055
1.76966E+18,7.167497314,4.32682392,-1.27710551,-0.11818302,-0.255571723,-0.40936783,-1.073321223
1.76966E+18,7.177485352,4.497061244,-0.820197024,-0.542159835,-0.267825991,-0.491931945,-1.25212729
1.76966E+18,7.187473389,3.993972606,-0.336789238,-0.67589932,-0.264106125,-0.564095676,-1.256297469
1.76966E+18,7.197461182,3.153926095,0.140696172,-0.803106773,-0.244211495,-0.639732361,-1.11282742
1.76966E+18,7.207448486,2.473140172,0.606334493,-0.80898151,-0.233427629,-0.718414426,-0.878219306
1.76966E+18,7.217436279,1.981489312,0.996526235,-0.809062174,-0.246281117,-0.801098943,-0.611915708
1.76966E+18,7.227424072,1.709022763,1.456373113,-0.838590759,-0.256613284,-0.849892735,-0.292869389
1.76966E+18,7.237412109,1.000690954,1.595233302,-0.562036209,-0.260023713,-0.858005285,0.012823689
1.76966E+18,7.247400391,0.282348915,1.434917068,-0.364698697,-0.240428448,-0.761002481,0.218890935
1.76966E+18,7.257388184,0.016790976,1.148423016,-0.170874745,-0.221203625,-0.655637681,0.321449816
1.76966E+18,7.267376221,-0.039379386,0.739455262,-0.068408643,-0.193418771,-0.486440063,0.298984617
1.76966E+18,7.277363281,-0.133499247,0.300775091,-0.035889352,-0.183550432,-0.453181714,0.222624868
1.76966E+18,7.287351074,-0.165087979,-0.085086513,-0.086966336,-0.140808508,-0.198900998,0.142244279
1.76966E+18,7.297339355,-0.516943122,-0.395399248,-0.011934768,-0.108539797,0.017852096,-0.010975632
1.76966E+18,7.307327393,-0.340715179,-0.554210923,-0.136965169,-0.122808613,-0.143227547,-0.152913421
1.76966E+18,7.317315186,0.189469556,-0.735439596,0.110332891,-0.120075412,-0.269373477,-0.255152166
1.76966E+18,7.327303223,0.112537999,-0.902949541,0.378708517,-0.129656255,-0.179200739,-0.33730787
1.76966E+18,7.337291504,0.037289282,-1.036559555,0.464171463,-0.129005909,-0.069111235,-0.37380302
1.76966E+18,7.347279541,0.064449676,-1.120109945,0.586638736,-0.145068198,-0.024146549,-0.36539498
1.76966E+18,7.357267334,0.233442845,-1.092647353,0.470618155,-0.158094257,-0.036371257,-0.309527189
1.76966E+18,7.367254395,0.287964709,-1.122751984,0.463203787,-0.158078998,-0.038419303,-0.243464544
1.76966E+18,7.377242432,0.384955303,-1.185450724,0.485884844,-0.149973929,-0.053865638,-0.197770566
1.76966E+18,7.387230225,0.579884585,-1.201814415,0.474124994,-0.146396279,-0.07780607,-0.187546685
1.76966E+18,7.397218506,0.778927879,-1.176658931,0.47048313,-0.154387906,-0.131965965,-0.204824477
1.76966E+18,7.407206299,0.807816996,-1.211186054,0.401576767,-0.174487516,-0.1981114,-0.244213596
1.76966E+18,7.417194092,0.704787999,-1.181662438,0.389537808,-0.201121524,-0.24881053,-0.293091655
1.76966E+18,7.427182129,0.549006632,-1.054141973,0.387331531,-0.220719859,-0.281050593,-0.336994648
1.76966E+18,7.437169434,0.336751244,-0.901929551,0.385613913,-0.233025253,-0.292755991,-0.361096799
1.76966E+18,7.447157227,0.091245036,-0.713528793,0.378406466,-0.233866602,-0.287276894,-0.349660218
1.76966E+18,7.457145264,-0.169207397,-0.552809824,0.30325624,-0.22571972,-0.257001817,-0.315363497
1.76966E+18,7.467133301,-0.372292805,-0.486592846,0.230605576,-0.208119109,-0.188451111,-0.266414404
1.76966E+18,7.477121094,-0.510128766,-0.469600795,0.214547152,-0.179746598,-0.096311599,-0.213692337
1.76966E+18,7.487109131,-0.560805499,-0.440797894,0.228195884,-0.141890869,-0.004306507,-0.154215425
1.76966E+18,7.497097412,-0.554060993,-0.429532988,0.248912948,-0.105975471,0.080680817,-0.091336332
1.76966E+18,7.507085449,-0.540301347,-0.476028197,0.246995424,-0.070786566,0.159016222,-0.031095482
1.76966E+18,7.517072266,-0.533874383,-0.526132829,0.282753112,-0.050343603,0.213388383,0.01549945
1.76966E+18,7.527060303,-0.466354652,-0.612078005,0.332893253,-0.04247883,0.25656116,0.041610885
1.76966E+18,7.537048096,-0.35719402,-0.724684978,0.398730438,-0.043488432,0.280759186,0.050410233
1.76966E+18,7.547036377,-0.267633869,-0.856337428,0.505804181,-0.04983392,0.281806529,0.053930916
1.76966E+18,7.557024414,-0.154719583,-0.944381622,0.568731469,-0.064514861,0.265950888,0.050110877
1.76966E+18,7.567012451,-0.103761257,-0.939525999,0.599716682,-0.078264706,0.250909209,0.0420289
1.76966E+18,7.577000244,-0.067719491,-0.884610752,0.636015199,-0.091463596,0.242272586,0.034364056
1.76966E+18,7.586988525,-0.047420215,-0.76343761,0.692362963,-0.096481055,0.238370761,0.027229359
1.76966E+18,7.596975586,-0.070262015,-0.57639119,0.766856479,-0.09702754,0.249043643,0.027729768
1.76966E+18,7.606963379,-0.162998751,-0.359155968,0.863458074,-0.088518411,0.260189086,0.040924285
1.76966E+18,7.616951416,-0.273232127,-0.108076928,1.024446508,-0.075168781,0.270772219,0.07189925
1.76966E+18,7.626939453,-0.387866222,0.102404728,1.171855184,-0.057236355,0.264323711,0.12279024
1.76966E+18,7.636927002,-0.505084342,0.240346633,1.305383218,-0.038999826,0.253380239,0.176826298
1.76966E+18,7.646915283,-0.535858104,0.387858915,1.457967543,-0.030033076,0.264138669,0.225432917
1.76966E+18,7.65690332,-0.529559296,0.468547486,1.588597225,-0.015596879,0.241316155,0.263655931
1.76966E+18,7.666891113,-0.400551078,0.500973838,1.731083204,-0.005451113,0.2200941,0.292696714
1.76966E+18,7.676878174,-0.379346961,0.410209279,1.775724456,-0.003286763,0.206774846,0.316447318
1.76966E+18,7.686866211,-0.407341614,0.297692907,1.938914784,-0.005002663,0.1892481,0.321468174
1.76966E+18,7.696854248,-0.251299989,0.29344694,2.027376473,-9.01956E-05,0.14202866,0.317276895
1.76966E+18,7.706842285,-0.116658879,0.370257208,2.02565301,-0.000741702,0.118056566,0.298274428
1.76966E+18,7.716830078,-0.002608283,0.54500821,1.979092042,-0.005015809,0.070537254,0.268444628
1.76966E+18,7.726817871,0.165600897,0.815227419,1.917541741,-0.015017971,0.003133391,0.221539021
1.76966E+18,7.736805908,0.377621014,1.169405014,1.770199701,-0.030968443,-0.045061301,0.162937224
1.76966E+18,7.746794189,0.539036734,1.586546138,1.601694315,-0.055955391,-0.079398304,0.105070814
1.76966E+18,7.756781006,0.660456982,1.880962215,1.377868024,-0.082553715,-0.125243291,0.073579997
1.76966E+18,7.766769043,0.625454789,1.869623659,1.197505465,-0.107895859,-0.148512214,0.054486893
1.76966E+18,7.77675708,0.550809297,1.754783813,1.053498415,-0.102138102,-0.163936436,0.0520011
1.76966E+18,7.786744873,0.452802512,1.489028013,1.103080776,-0.103590824,-0.173528999,0.038833015
1.76966E+18,7.796733154,0.512587411,1.141402908,0.821853413,-0.068504214,-0.256497115,0.041577399
1.76966E+18,7.806721191,0.485505343,0.784107473,0.646376727,-0.029895825,-0.291295618,0.019435009
1.76966E+18,7.816708984,0.674501144,0.707003775,0.196037974,-0.004320159,-0.232038707,-0.035152338
1.76966E+18,7.826697021,1.00635877,0.693001554,-0.294957637,0.079159372,-0.211539477,-0.061999761
1.76966E+18,7.836684082,1.294098731,0.561838933,-0.450930142,0.138145193,-0.169743299,-0.084891491
1.76966E+18,7.846672119,1.657887911,0.469272293,-0.95967666,0.142573148,-0.037384003,-0.062540285
1.76966E+18,7.856660156,1.562631302,0.044337154,-1.61430859,0.184093699,0.052358396,0.001866667
1.76966E+18,7.866647949,1.458381823,-0.379665672,-1.749938857,0.222118437,0.064938754,0.052107457
1.76966E+18,7.876635986,1.602785033,-0.724737585,-2.123789997,0.196920142,0.126750991,0.059512906
1.76966E+18,7.886623779,1.617944023,-1.003887119,-2.745276613,0.159240678,0.220253706,0.0382917
1.76966E+18,7.896612061,1.350278152,-1.099771506,-2.951848402,0.161931798,0.245190486,-0.023036906
1.76966E+18,7.906600098,1.232126551,-0.546198297,-2.745848275,0.148552001,0.243731484,-0.066383503
1.76966E+18,7.916586914,0.685683924,-0.11024492,-2.774564082,0.123739593,0.274513096,-0.061657459
1.76966E+18,7.926574951,-0.06283508,0.312003756,-2.60741391,0.140137747,0.367505372,-0.003166449
1.76966E+18,7.936562988,-0.812434866,0.866496418,-2.099968685,0.205332726,0.487293273,0.092744902
1.76966E+18,7.946551025,-1.332945032,1.374057818,-1.349208039,0.273848712,0.645002425,0.204470366
1.76966E+18,7.956539063,-1.821463001,1.655877448,-0.836005857,0.34515965,0.777288258,0.301025391
1.76966E+18,7.9665271,-1.908055243,1.684962673,-0.282313697,0.38484621,0.871179163,0.314353377
1.76966E+18,7.976514893,-1.456739754,1.407837338,0.086602033,0.376466036,0.927796364,0.246173769
1.76966E+18,7.98650293,-0.73875179,0.834473971,0.229579886,0.350454688,0.931860566,0.121594563
1.76966E+18,7.99648999,-0.036145811,0.266603941,0.480022381,0.324368507,0.887526929,-0.002027239
1.76966E+18,8.006478027,0.367048183,-0.147277889,0.768848676,0.305996388,0.774796009,-0.0770934
1.76966E+18,8.016466064,0.561722321,-0.498207296,1.024856404,0.257569462,0.61007148,-0.107704043
1.76966E+18,8.026454102,0.671947952,-0.814586783,0.89156627,0.197739244,0.451985717,-0.120777704
1.76966E+18,8.036441895,0.813433521,-1.059504377,0.71012936,0.118084893,0.340906858,-0.138702646
1.76966E+18,8.046430176,0.990631186,-1.220250235,0.522865206,0.041157022,0.073978484,-0.167870179
1.76966E+18,8.056417969,1.16833417,-1.437819804,0.072840195,-0.029540319,-0.255258799,-0.220643908
1.76966E+18,8.066406006,1.248083998,-1.377586577,-0.170284378,-0.082707092,-0.467506021,-0.267807871
1.76966E+18,8.076393066,0.81685502,-1.280817809,-0.240095727,-0.119791076,-0.698618352,-0.30197382
1.76966E+18,8.086381104,0.400481958,-1.360229199,-0.648932987,-0.157281771,-0.839348018,-0.306717217
1.76966E+18,8.096369141,-0.108720779,-1.188607142,-0.861390912,-0.217288375,-0.889030337,-0.272756577
1.76966E+18,8.106356934,-0.787992937,-1.11464525,-1.247336687,-0.226682603,-0.843538225,-0.219200566
1.76966E+18,8.116344971,-1.345622289,-0.875339065,-1.244208326,-0.204366907,-0.714763701,-0.162023038
1.76966E+18,8.126333008,-1.647995171,-0.546314032,-1.281283527,-0.173249468,-0.549932182,-0.112181716
1.76966E+18,8.136320801,-1.829246933,-0.451586999,-1.459319103,-0.127354681,-0.351945579,-0.054898981
1.76966E+18,8.146309082,-2.08120977,-0.353774859,-1.603726113,-0.05162818,-0.113216914,-0.031179257
1.76966E+18,8.156296143,-2.007998695,-0.27220483,-1.501407602,0.013824329,0.102800064,-0.038167126
1.76966E+18,8.166283936,-1.756532118,-0.308794146,-1.46034304,0.063128002,0.283789068,-0.077725634
1.76966E+18,8.176271973,-1.446054548,-0.39359366,-1.333334762,0.08360105,0.426103324,-0.120859519
1.76966E+18,8.18626001,-1.183174888,-0.401787487,-1.188091886,0.095113814,0.473906517,-0.135533899
1.76966E+18,8.196248047,-1.097107839,-0.500693267,-0.956373819,0.102165595,0.443714797,-0.108491369
1.76966E+18,8.206236084,-1.061163543,-0.724514298,-0.698114367,0.086667947,0.401320219,-0.082708411
1.76966E+18,8.216224121,-0.823092307,-0.867733851,-0.590161065,0.068378955,0.339756459,-0.062729374
1.76966E+18,8.226212158,-0.559574788,-0.948430605,-0.3918493,0.058819856,0.241909474,-0.04177244
1.76966E+18,8.236198975,-0.36563364,-1.034357077,-0.187946292,0.054299939,0.128875852,-0.037776902
1.76966E+18,8.246187256,-0.263169729,-1.045445457,-0.037562107,0.050923459,0.037045404,-0.037335068
1.76966E+18,8.256175049,-0.261224148,-1.015253732,0.036335926,0.046531111,-0.044894468,-0.031999424
1.76966E+18,8.266163086,-0.395496863,-0.93468908,0.02527385,0.052057065,-0.135368511,-0.018711757
1.76966E+18,8.276151123,-0.584822042,-0.808791248,0.094491324,0.065706834,-0.199438035,-0.003649451
1.76966E+18,8.286138916,-0.781070882,-0.58186816,0.134919635,0.073975101,-0.221546769,0.005747503
1.76966E+18,8.296126953,-0.920278277,-0.342220615,0.158446203,0.084279135,-0.212183625,0.015445405
1.76966E+18,8.30611499,-1.092327327,-0.152550861,0.178070064,0.102350056,-0.178628787,0.032831952
1.76966E+18,8.316102051,-1.311917004,0.0376058,0.225431534,0.132404894,-0.119305536,0.047245778
1.76966E+18,8.326089844,-1.478775791,0.212096106,0.305028072,0.174076825,-0.08138974,0.058985252
1.76966E+18,8.336077881,-1.560279478,0.290084185,0.388607688,0.203439519,0.015827095,0.041916519
1.76966E+18,8.346066162,-1.688101263,0.284151873,0.512161441,0.221844986,0.080860227,0.011509519
1.76966E+18,8.356053955,-1.692253999,0.191381235,0.573200431,0.22887893,0.102420643,-0.035161048
1.76966E+18,8.366041992,-1.556023574,0.080119246,0.576429184,0.223931506,0.097958326,-0.082028948
1.76966E+18,8.376030029,-1.433224293,0.01028817,0.611817308,0.21185033,0.059725724,-0.136128142
1.76966E+18,8.386017822,-1.201861176,-0.040891398,0.586553688,0.186350927,0.00964169,-0.182260215
1.76966E+18,8.396004883,-1.002618853,-0.105302203,0.511770542,0.159904674,-0.041665971,-0.218739122
1.76966E+18,8.405993164,-0.83217417,-0.13171967,0.451149777,0.138451979,-0.120266452,-0.23952572
1.76966E+18,8.415980957,-0.722064567,-0.100536596,0.436361373,0.130299777,-0.21300599,-0.232388183
1.76966E+18,8.425968994,-0.817081815,0.020730653,0.48847413,0.128891468,-0.2865794,-0.199947864
1.76966E+18,8.435957031,-1.126993421,0.189932205,0.558016452,0.13541089,-0.338053763,-0.158382311
1.76966E+18,8.445945313,-1.389553493,0.404662166,0.636438832,0.143356964,-0.370328993,-0.123516835
1.76966E+18,8.455933105,-1.631212378,0.608034283,0.737841689,0.155574217,-0.374267012,-0.105864063
1.76966E+18,8.465921143,-1.75630357,0.878710003,0.789094614,0.141797364,-0.324683934,-0.106980987
1.76966E+18,8.475907959,-1.721591153,1.206315818,0.679914109,0.124791756,-0.246449605,-0.131941989
1.76966E+18,8.485895996,-1.453949101,1.433728735,0.600656155,0.101521365,-0.171020687,-0.197333261
1.76966E+18,8.495884277,-1.007064873,1.532142348,0.457730616,0.070756264,-0.089770854,-0.283231646
1.76966E+18,8.50587207,-0.543205252,1.603385629,0.183680159,0.034733359,-0.057299271,-0.389710158
1.76966E+18,8.515859863,0.066467445,1.755530247,-0.173917766,0.003113911,-0.001527618,-0.48166272
1.76966E+18,8.5258479,0.541480913,1.790648322,-0.508483483,0.006472819,0.055771675,-0.553257108
1.76966E+18,8.535835938,0.755711985,1.735875114,-0.582707826,0.038153514,0.063371271,-0.5467574
1.76966E+18,8.545823975,0.722638567,1.522461496,-0.565130961,0.102555729,0.024326,-0.487166315
1.76966E+18,8.555811035,0.631252369,1.599999494,-0.598977993,0.195914969,0.047627326,-0.328797162
1.76966E+18,8.565799072,0.214896842,1.714078293,-0.361691624,0.301208138,0.12267977,-0.077070057
1.76966E+18,8.575786865,-0.416755924,1.838468058,0.206748315,0.350047588,0.180437893,0.238075629
1.76966E+18,8.585774902,-1.094323469,1.859737056,0.529841913,0.334644526,0.153965041,0.557937682
1.76966E+18,8.595763184,-1.426058931,1.647182685,0.669934566,0.280492604,0.074696325,0.77655524
1.76966E+18,8.605750977,-1.123908168,1.31988316,0.895535466,0.183475628,-0.023011528,0.830042601
1.76966E+18,8.615739014,-0.369281933,0.608015578,0.697308311,0.067366861,-0.089301601,0.706649303
1.76966E+18,8.625727051,0.752949826,-0.038725744,0.562524577,-0.04308635,-0.219372749,0.458402067
1.76966E+18,8.635713867,1.832029549,-0.785267165,0.507855414,-0.133092403,-0.343582839,0.16822803
1.76966E+18,8.645701904,2.456629767,-1.627276208,0.249551684,-0.20841898,-0.37370646,-0.07437627
1.76966E+18,8.655690186,2.842562683,-2.038033768,-0.104816465,-0.236381114,-0.405976236,-0.313479394
1.76966E+18,8.665678223,3.43625689,-1.81275494,-0.217493289,-0.247626081,-0.479377776,-0.522389829
1.76966E+18,8.675666016,3.90928006,-1.48122523,-0.391956706,-0.272198528,-0.512174904,-0.660553277
1.76966E+18,8.685654053,3.999386448,-1.111577094,-0.55025634,-0.299132645,-0.518536389,-0.726155221
1.76966E+18,8.69564209,3.88881098,-0.559503768,-0.592477233,-0.306303203,-0.573335171,-0.729156077
1.76966E+18,8.705629883,3.711843763,0.188456287,-0.615839403,-0.316194952,-0.640369534,-0.669619858
1.76966E+18,8.715617676,3.288357654,0.921715032,-0.73995532,-0.316484958,-0.652828097,-0.563725948
1.76966E+18,8.725604736,2.542530812,1.541244522,-0.742280548,-0.327800483,-0.673253477,-0.427462667
1.76966E+18,8.735592529,1.744929066,1.901098409,-0.733751205,-0.332741439,-0.679050684,-0.272911727
1.76966E+18,8.745580322,1.001917281,2.061236364,-0.648747109,-0.32126087,-0.658274949,-0.121914938
1.76966E+18,8.755568604,0.350931453,1.995917212,-0.452168598,-0.296883613,-0.620557129,0.016384613
1.76966E+18,8.765556641,-0.289615399,1.726788137,-0.273923032,-0.250146747,-0.575021505,0.131720632
1.76966E+18,8.775544678,-0.778443749,1.37989953,-0.021842998,-0.204068989,-0.515566409,0.198159307
1.76966E+18,8.785532471,-1.019538862,0.939446504,0.149773505,-0.162353411,-0.357521325,0.182911009
1.76966E+18,8.795519531,-1.05755412,0.463797077,0.235903682,-0.122864336,-0.216517076,0.131378576
1.76966E+18,8.805507813,-1.014573056,-0.034092824,0.395815427,-0.095500089,-0.09855289,0.065050423
1.76966E+18,8.815495605,-0.843703572,-0.481612135,0.497461738,-0.089000911,0.039947998,0.002576924
1.76966E+18,8.825483643,-0.661486179,-0.903887115,0.539729393,-0.102581181,0.176047727,-0.055962369
1.76966E+18,8.83547168,-0.304328107,-1.216420448,0.466604535,-0.119634464,0.208768383,-0.116473652
1.76966E+18,8.845459473,0.192760998,-1.4287527,0.339255336,-0.155082881,0.152937472,-0.183483839
1.76966E+18,8.855447754,0.651189826,-1.541200683,0.311631416,-0.186040804,0.057310279,-0.228756249
1.76966E+18,8.865435791,0.799962337,-1.66132227,0.357687941,-0.209844723,-0.072263248,-0.249854803
1.76966E+18,8.875423584,0.883819894,-1.80838447,0.323540757,-0.23541826,-0.198961005,-0.260234207
1.76966E+18,8.885410645,0.838675222,-1.968893012,0.202893393,-0.253894448,-0.319262207,-0.253322601
1.76966E+18,8.895398682,0.632237873,-2.055672885,0.08583324,-0.262265027,-0.399988502,-0.23463358
1.76966E+18,8.905386719,0.335874753,-1.971574214,0.079073244,-0.269587517,-0.42107904,-0.217969656
1.76966E+18,8.915374756,0.028760523,-1.808997049,0.105592418,-0.266057491,-0.416625708,-0.194784701
1.76966E+18,8.925362549,-0.284779065,-1.674189935,0.169493228,-0.248096198,-0.389093876,-0.165187478
1.76966E+18,8.935350586,-0.552211858,-1.532808118,0.249236042,-0.226970673,-0.320810169,-0.133356586
1.76966E+18,8.945338379,-0.704689361,-1.394378721,0.279341842,-0.215222642,-0.245788097,-0.116202004
1.76966E+18,8.95532666,-0.681681703,-1.322695295,0.21977687,-0.206731945,-0.158728302,-0.113419533
1.76966E+18,8.965313477,-0.548357813,-1.230325054,0.176092626,-0.187410712,-0.075196378,-0.132052347
1.76966E+18,8.975301514,-0.343091261,-1.064728249,0.156297208,-0.1650327,-0.010116182,-0.151853487
1.76966E+18,8.985289551,-0.218389945,-0.931112391,0.164252551,-0.144384503,0.033975471,-0.146969512
1.76966E+18,8.995277588,-0.187440972,-0.758453977,0.116404173,-0.124164455,0.076781526,-0.109345704
1.76966E+18,9.005265625,-0.229316121,-0.613693624,0.096531744,-0.109793566,0.099770606,-0.047999442
1.76966E+18,9.015253662,-0.25432752,-0.512327591,0.14812983,-0.099634402,0.100661963,0.016744668
1.76966E+18,9.025241699,-0.203396959,-0.449056604,0.218884743,-0.088868216,0.09179391,0.072034657
1.76966E+18,9.035229492,-0.17300825,-0.470797311,0.279149827,-0.082173035,0.091503628,0.106834181
1.76966E+18,9.045216553,-0.153137721,-0.537478983,0.376551047,-0.078523025,0.090539411,0.117503583
1.76966E+18,9.055204834,-0.095251641,-0.591278963,0.50893751,-0.081218146,0.075990029,0.111807086
1.76966E+18,9.065192627,-0.087091716,-0.641115884,0.63336147,-0.085267484,0.063400038,0.096109182
1.76966E+18,9.075180664,-0.135011989,-0.615938772,0.745197897,-0.096161678,0.048640262,0.078297429
1.76966E+18,9.085168701,-0.207242236,-0.448021415,0.83572251,-0.109663539,0.025812086,0.063530736
1.76966E+18,9.095156494,-0.256462194,-0.258902865,0.881687265,-0.123416372,-0.000275176,0.061583966
1.76966E+18,9.105144775,-0.280527252,-0.112537999,0.888513166,-0.130226254,-0.013832091,0.069089025
1.76966E+18,9.115132568,-0.247813608,0.039117958,0.95801691,-0.12950027,-0.016411362,0.08604084
1.76966E+18,9.125119629,-0.213636613,0.111525608,1.035472637,-0.120472826,0.002339742,0.107820079
1.76966E+18,9.135107666,-0.16443536,0.146094817,1.100633822,-0.100192316,0.023684978,0.129755467
1.76966E+18,9.145095703,-0.159491474,0.132577748,1.206432722,-0.079064906,0.043261334,0.15280728
1.76966E+18,9.15508374,-0.18880437,0.146895612,1.310771341,-0.058973219,0.057140663,0.176347747
1.76966E+18,9.165071533,-0.243820739,0.182546186,1.435546452,-0.049465548,0.067247242,0.207846105
1.76966E+18,9.17505957,-0.375777432,0.159947985,1.475585763,-0.029344833,0.038492821,0.258226722
1.76966E+18,9.185047607,-0.472633586,0.234633516,1.535944078,-0.033397671,0.032394674,0.290384054
1.76966E+18,9.1950354,-0.476913456,0.400396325,1.552709481,-0.055985805,0.014281983,0.308675975
1.76966E+18,9.205022705,-0.36796822,0.651489978,1.58326244,-0.087874487,-0.041177124,0.310811996
1.76966E+18,9.215010742,-0.221376268,0.932595323,1.534612537,-0.11403206,-0.115562133,0.287955403
1.76966E+18,9.224998535,-0.117615157,1.286603406,1.607184144,-0.127554178,-0.189616799,0.256634414
1.76966E+18,9.234986572,-0.054220543,1.69340843,1.678108277,-0.139346927,-0.238454655,0.21665372
1.76966E+18,9.244974609,0.136899995,2.092602978,1.664879962,-0.154868022,-0.267224044,0.186704069
1.76966E+18,9.254962646,0.293210501,2.269023375,1.520438173,-0.162985072,-0.330444038,0.170728028
1.76966E+18,9.264950684,0.212816529,2.261492395,1.514021438,-0.150163323,-0.365103602,0.153892666
1.76966E+18,9.274938721,0.163642748,2.229171257,1.612668129,-0.131797105,-0.376544833,0.128393695
1.76966E+18,9.284925537,0.164031748,1.88666598,1.416751297,-0.088665627,-0.462066263,0.088654906
1.76966E+18,9.294913574,0.269028246,1.355458916,1.199287673,-0.06028565,-0.509780288,0.041129738
1.76966E+18,9.304901855,0.387670115,0.81540336,0.651894759,0.003572305,-0.543276846,-0.03546305
1.76966E+18,9.314889648,0.799430423,0.367946008,0.298226868,0.044179119,-0.486123294,-0.147834599
1.76966E+18,9.324877686,1.456936008,0.123145903,-0.3849233,0.071842536,-0.40865311,-0.23399666
1.76966E+18,9.334865723,1.801100158,-0.215256031,-0.941220966,0.096814729,-0.368149608,-0.255184203
1.76966E+18,9.344853516,2.028431096,-0.668171064,-1.572290233,0.100628883,-0.317437172,-0.215206981
1.76966E+18,9.354841553,2.103480346,-0.932205447,-2.16526957,0.101116776,-0.264116436,-0.150868475
1.76966E+18,9.364828857,2.303962879,-0.900842925,-2.571227622,0.089740798,-0.168449238,-0.088760614
1.76966E+18,9.37481665,2.368802723,-0.943005073,-2.926709869,0.08580704,-0.045300931,-0.043731891
1.76966E+18,9.384804443,2.293244939,-0.950229764,-3.129866297,0.115990967,0.05317935,-0.049164757
1.76966E+18,9.39479248,2.253682598,-0.393811686,-3.028040538,0.145624235,0.135940284,-0.084744848
1.76966E+18,9.404780762,1.86901108,0.219417827,-2.839499788,0.151501909,0.210595608,-0.089377061
1.76966E+18,9.414768555,1.000108478,0.560434327,-2.595571789,0.172405586,0.248501182,-0.042730726
1.76966E+18,9.424756592,0.138868665,0.949681482,-2.270162754,0.196532249,0.350687563,0.039719243
1.76966E+18,9.434744629,-0.730968004,1.260738313,-1.976897601,0.232426867,0.475710213,0.161713064
1.76966E+18,9.444731445,-1.400482591,1.358940328,-1.630563705,0.293925107,0.582692206,0.26104781
1.76966E+18,9.454719727,-1.552676017,1.211574761,-1.159591476,0.339311242,0.684442818,0.277253956
1.76966E+18,9.464707764,-1.101433009,0.818286806,-0.795304721,0.37660715,0.764095545,0.204660073
1.76966E+18,9.474695557,-0.36443157,0.430568761,-0.407050961,0.404371947,0.820956945,0.092908517
1.76966E+18,9.484683594,0.143205233,0.105298696,-0.010669278,0.418893754,0.861910403,-0.017827587
1.76966E+18,9.494671631,0.427504989,-0.041333881,0.256276316,0.407878637,0.85343039,-0.115382642
1.76966E+18,9.504659912,0.753697722,-0.041508068,0.372075801,0.374507338,0.81703186,-0.183619753
1.76966E+18,9.514647705,0.947177975,-0.172476628,0.301244023,0.314271152,0.715303123,-0.222764224
1.76966E+18,9.524635742,1.122517298,-0.402590036,0.078841189,0.232717216,0.559687972,-0.234906897
1.76966E+18,9.534622559,1.168025542,-0.635482262,-0.282808641,0.141896501,0.355352938,-0.222795635
1.76966E+18,9.544610596,1.157210134,-0.835545984,-0.616999387,0.063242003,0.162867799,-0.216823786
1.76966E+18,9.554598877,1.142103458,-0.990760511,-0.825051771,-0.01005911,-0.059584178,-0.208502203
1.76966E+18,9.56458667,1.111200954,-1.014036173,-1.060650917,-0.071883179,-0.315354168,-0.187331766
1.76966E+18,9.574574463,0.82205142,-1.01763449,-1.144867369,-0.108191118,-0.454773307,-0.145955294
1.76966E+18,9.5845625,0.344268488,-0.944209773,-1.261727908,-0.115450978,-0.502697945,-0.101763949
1.76966E+18,9.594550537,-0.05683394,-0.744463445,-1.310750882,-0.104545601,-0.504602909,-0.044970699
1.76966E+18,9.604538574,-0.444511361,-0.673306089,-1.34804484,-0.079856887,-0.388291359,0.010762333
1.76966E+18,9.614525635,-0.713925684,-0.588638677,-1.403891231,-0.058661059,-0.208661154,0.05103492
1.76966E+18,9.624513672,-0.837557032,-0.499834605,-1.49900171,-0.024038848,-0.058310594,0.053427227
1.76966E+18,9.634501465,-0.681963442,-0.504611318,-1.630121952,0.015817221,0.077330858,0.029332278
1.76966E+18,9.644489502,-0.544838991,-0.545094135,-1.624875576,0.041822493,0.203822568,-0.012991641
1.76966E+18,9.654477783,-0.464075601,-0.608505992,-1.544735579,0.060821488,0.305605948,-0.062659323
1.76966E+18,9.664465576,-0.3520777,-0.53769058,-1.448779297,0.06675256,0.354799867,-0.099372342
1.76966E+18,9.674453613,-0.229430687,-0.452822094,-1.351857677,0.069831446,0.368924201,-0.097533695
1.76966E+18,9.684440674,-0.324456995,-0.516859389,-1.126174067,0.072279952,0.338355899,-0.070920989
1.76966E+18,9.694428467,-0.336922217,-0.44729427,-0.875163709,0.075670958,0.269371778,-0.038004857
1.76966E+18,9.704416748,-0.273147371,-0.417125342,-0.666919602,0.07080023,0.2078017,-0.025895724
1.76966E+18,9.714404785,-0.229064776,-0.365440747,-0.504049884,0.060890876,0.162994012,-0.029322678
1.76966E+18,9.724393555,-0.206560683,-0.271142169,-0.304102189,0.055784449,0.124147967,-0.032571927
1.76966E+18,9.734381348,-0.254741946,-0.17551731,-0.08494126,0.050823778,0.069141708,-0.034631349
1.76966E+18,9.744369629,-0.320338162,-0.146712656,-0.009878712,0.040755536,0.010113382,-0.028348759
1.76966E+18,9.754357666,-0.425022233,-0.088742113,0.028145314,0.030447772,-0.053094883,-0.01489873
1.76966E+18,9.764345703,-0.531551932,-0.104526542,-0.010441899,0.020727783,-0.120324738,0.008295354
1.76966E+18,9.77433252,-0.642817135,-0.128605337,-0.081324238,0.009017065,-0.18186079,0.025179528
1.76966E+18,9.784320557,-0.662837009,-0.178103235,-0.207681796,0.000868591,-0.2281982,0.041952118
1.76966E+18,9.794308594,-0.674451459,-0.240322668,-0.371621482,-0.003957056,-0.268410325,0.048676334
1.76966E+18,9.804296631,-0.581475069,-0.255712545,-0.552233777,-0.002751839,-0.291582018,0.048938207
1.76966E+18,9.814284668,-0.557011075,-0.279466345,-0.682232907,0.005503161,-0.296923786,0.048538998
1.76966E+18,9.824272705,-0.596143646,-0.282477802,-0.754828772,0.017269967,-0.307219088,0.052183624
1.76966E+18,9.834260498,-0.677136168,-0.309897724,-0.825059954,0.038808551,-0.301201701,0.067371637
1.76966E+18,9.844248779,-0.761036687,-0.251942963,-0.797887285,0.063522525,-0.254869282,0.091922157
1.76966E+18,9.85423584,-0.884251563,-0.166437932,-0.686691932,0.092095047,-0.200199381,0.128546491
1.76966E+18,9.864223633,-1.006837201,-0.062458502,-0.579827302,0.122533001,-0.165908486,0.168991834
1.76966E+18,9.87421167,-1.107423482,0.087500589,-0.490865409,0.150103107,-0.121342883,0.205821753
1.76966E+18,9.884199707,-1.154671847,0.268631063,-0.306299992,0.175480738,-0.069835141,0.228788227
1.76966E+18,9.894187744,-1.175623742,0.349517202,-0.161081666,0.191817641,-0.022154976,0.23729755
1.76966E+18,9.904175781,-1.282755791,0.323045959,-0.113356038,0.196379393,0.005745246,0.232067555
1.76966E+18,9.914163574,-1.282818335,0.241471838,-0.065855159,0.190760925,0.067855224,0.196859226
1.76966E+18,9.924151611,-1.191606324,0.197058696,-0.02985504,0.18588993,0.109095581,0.154662684
1.76966E+18,9.934138672,-1.129732344,0.129642863,0.035821255,0.196254417,0.05721214,0.128622293
1.76966E+18,9.944126709,-1.164422549,-0.060090019,0.039340369,0.210693017,-0.011827735,0.080944426
1.76966E+18,9.954114502,-1.091128181,-0.015637714,0.048410687,0.21706596,-0.033724248,0.041966397
1.76966E+18,9.964102539,-1.200218378,0.027036475,0.107152215,0.206435338,-0.032259863,0.030942343
1.76966E+18,9.974090576,-1.310797644,0.050704936,0.007635902,0.195751265,-0.042356972,0.014229942
1.76966E+18,9.984078613,-1.250779521,0.161647775,-0.097381055,0.193772495,-0.022159595,-0.004556614
1.76966E+18,9.99406665,-1.168121404,0.438172806,-0.143772803,0.195647895,0.052952733,-0.031917401
1.76966E+18,10.00405469,-1.032002038,0.781782245,-0.181170222,0.196890965,0.151698738,-0.072208457
1.76966E+18,10.0140415,-0.84596421,1.056852401,-0.221911397,0.194909036,0.271817684,-0.123608537
1.76966E+18,10.02402954,-0.686877518,1.242901043,-0.300289353,0.178949222,0.372431397,-0.197277695
1.76966E+18,10.03401758,-0.387543858,1.352565533,-0.566313448,0.158700675,0.459939122,-0.276306748
1.76966E+18,10.04400586,-0.102012221,1.277691786,-0.819845142,0.147639483,0.539701581,-0.339490563
1.76966E+18,10.05399365,0.050646191,1.031104797,-0.973466262,0.145319864,0.553651989,-0.375326872
1.76966E+18,10.06398169,0.168826288,0.777856012,-1.0656138,0.15204604,0.546361327,-0.393202186
1.76966E+18,10.07396973,0.237649357,0.6290835,-1.078121692,0.175403833,0.542001486,-0.378440022
1.76966E+18,10.08395752,0.251813784,0.516042228,-1.058869002,0.206995025,0.608796775,-0.331821114
1.76966E+18,10.09394482,0.138779817,0.522725651,-0.917377003,0.233362183,0.62151444,-0.238169193
1.76966E+18,10.10393286,-0.061725512,0.707919137,-0.600452157,0.30532065,0.600808203,-0.012294793
1.76966E+18,10.11392065,-0.527510255,0.955745897,-0.08064064,0.414148599,0.693961322,0.195270658
1.76966E+18,10.12390869,-0.824924637,1.167176232,0.264377205,0.474431366,0.763316929,0.380861729
1.76966E+18,10.13389648,-1.061309381,1.222527532,0.270420869,0.482271165,0.729328871,0.5774014
1.76966E+18,10.14388477,-1.064221761,1.539048474,0.316069983,0.443492562,0.7010867,0.643374383
1.76966E+18,10.15387256,-0.719867056,1.600993765,0.20846944,0.383582354,0.614883065,0.63941133
1.76966E+18,10.1638606,-0.356544616,1.717633939,0.351389133,0.333475977,0.573061168,0.562514424
1.76966E+18,10.17384741,-0.03394757,2.116758345,0.524588522,0.266807199,0.534987509,0.407202631
1.76966E+18,10.18383545,0.499500843,2.112501857,0.290077463,0.173646435,0.489243656,0.199394017
1.76966E+18,10.19382373,1.093519752,2.033794231,-0.1095999,0.098166332,0.384382516,0.058651019
1.76966E+18,10.20381177,1.266239833,1.838247693,-0.336263753,0.088746324,0.360124946,0.033157036
1.76966E+18,10.21379956,0.77734777,0.969623031,-0.383708225,0.112903856,0.442934602,0.098573588
1.76966E+18,10.2237876,0.600603256,0.119147188,-0.592720978,0.139683634,0.566534519,0.181477606
1.76966E+18,10.23377563,0.996185459,-0.354966115,-0.808354318,0.150193527,0.627166212,0.263119489
1.76966E+18,10.24376367,1.508120544,-0.844205676,-1.070709077,0.161638603,0.626773238,0.340403348
1.76966E+18,10.25375171,1.824268268,-1.209775603,-1.132581888,0.154466182,0.628296256,0.375357062
1.76966E+18,10.26373877,2.131803939,-1.290971538,-1.164475156,0.136223048,0.643982708,0.362652928
1.76966E+18,10.27372656,2.585629072,-1.156634964,-1.052550028,0.113422133,0.587233901,0.311616361
1.76966E+18,10.2837146,3.103712742,-0.970628408,-0.851510738,0.083976187,0.487068892,0.232087702
1.76966E+18,10.29370288,3.559643616,-0.730639503,-0.803538735,0.061729208,0.353638917,0.150789917
1.76966E+18,10.30369067,3.670037297,-0.448434088,-0.731513947,0.050777648,0.209188193,0.072353266
1.76966E+18,10.31367871,3.574510345,-0.037198973,-0.700870387,0.042436097,0.132873714,0.017610652
1.76966E+18,10.3236665,3.045268737,0.253660288,-0.745529321,0.02416129,0.149838239,0.018181365
1.76966E+18,10.33365356,2.206989528,0.373920406,-0.803570299,0.031445038,0.202007428,0.071778812
1.76966E+18,10.34364185,1.382143509,0.581529138,-0.723191525,0.061004974,0.257491708,0.161254808
1.76966E+18,10.35362964,0.687132077,0.749585026,-0.640432577,0.091021992,0.321828097,0.272952855
1.76966E+18,10.36361768,0.100521106,0.696970457,-0.667197543,0.107046887,0.390695482,0.390320241
1.76966E+18,10.37360547,-0.384222897,0.542167434,-0.668500734,0.134648159,0.467496246,0.493934244
1.76966E+18,10.38359351,-0.617975246,0.369230203,-0.464339221,0.162451312,0.576945245,0.565171123
1.76966E+18,10.39358179,-0.73713471,0.124355278,-0.363335592,0.179200187,0.673865914,0.613395631
1.76966E+18,10.40356958,-0.757736184,-0.259002234,-0.318505685,0.19392401,0.703220785,0.624501169
1.76966E+18,10.41355762,-0.594874941,-0.532475476,-0.198804663,0.197128594,0.805402815,0.55929023
1.76966E+18,10.42354468,-0.138470898,-0.644193391,0.04072364,0.171815738,0.95612365,0.477425456
1.76966E+18,10.43353247,0.139662445,-0.922044703,0.0533347,0.166070238,0.994498432,0.394820333
1.76966E+18,10.44352075,0.326437063,-1.253957274,0.222993055,0.161455393,0.952060461,0.313568026
1.76966E+18,10.45350879,0.65638681,-1.429008721,0.334701033,0.147171274,0.914393783,0.220444977
1.76966E+18,10.46349658,1.078799737,-1.50007197,0.260304256,0.128604531,0.833703697,0.123459563
1.76966E+18,10.47348462,1.44577047,-1.476296542,0.214906779,0.114438653,0.696841717,0.038664777
1.76966E+18,10.48347266,1.536848041,-1.479299815,0.144588796,0.109233148,0.572794914,-0.00231974
1.76966E+18,10.49346094,1.353108846,-1.393213185,0.079149817,0.099229515,0.491197765,-0.009152878
1.76966E+18,10.50344775,1.093978017,-1.129987196,-0.055336395,0.101652652,0.432482868,0.023179231
1.76966E+18,10.51343579,0.717841688,-0.855444863,-0.118004448,0.110274106,0.412312895,0.079800963
1.76966E+18,10.52342358,0.308226576,-0.617091449,-0.16526392,0.129780814,0.435087919,0.138502449
1.76966E+18,10.53341162,-0.024426293,-0.477488917,-0.208981481,0.148281261,0.501764655,0.191938236
1.76966E+18,10.54339966,-0.256572669,-0.346325713,-0.224440039,0.164507613,0.595851064,0.233868122
1.76966E+18,10.5533877,-0.423871017,-0.244193372,-0.191076699,0.187195882,0.692531526,0.260168433
1.76966E+18,10.56337549,-0.479333961,-0.216613875,-0.118519704,0.211331606,0.784467697,0.268195122
1.76966E+18,10.57336353,-0.42033992,-0.249151871,-0.057486559,0.223218888,0.850013435,0.264387846
1.76966E+18,10.58335059,-0.272792274,-0.323414793,-0.072076517,0.224071711,0.888245761,0.260404378
1.76966E+18,10.59333838,-0.127136726,-0.376174907,-0.052358841,0.226688802,0.901323736,0.270096153
1.76966E+18,10.60332666,-0.046370998,-0.40006081,0.052976972,0.227398992,0.89066875,0.289240301
1.76966E+18,10.6133147,0.045201662,-0.442970562,0.150528707,0.217804432,0.859581172,0.305657357
1.76966E+18,10.62330249,0.124397656,-0.488208464,0.192432205,0.205501199,0.824144125,0.314910054
1.76966E+18,10.63329053,0.170013745,-0.544544684,0.277097278,0.189478293,0.782071769,0.317257375
1.76966E+18,10.64327881,0.144172324,-0.643817544,0.298004165,0.169963613,0.741852105,0.311980426
1.76966E+18,10.6532666,0.070661682,-0.722863023,0.264010417,0.151641592,0.713334441,0.30594489
1.76966E+18,10.66325366,-0.102254798,-0.847279092,0.232900701,0.142628312,0.697663963,0.296606272
1.76966E+18,10.6732417,-0.19732173,-0.990276527,0.186215815,0.131097361,0.697187483,0.28654483
1.76966E+18,10.68322949,-0.223234463,-1.092179735,0.070420859,0.122445039,0.71616286,0.276311427
1.76966E+18,10.69321777,-0.287259776,-1.090858131,0.022857144,0.127053902,0.748255551,0.272456527
1.76966E+18,10.70320581,-0.352332406,-1.049245434,0.017556407,0.139404193,0.789803028,0.280473351
1.76966E+18,10.71319385,-0.392381069,-0.970444869,0.016001287,0.152342886,0.836932957,0.293263733
1.76966E+18,10.72318164,-0.424167808,-0.823632259,0.080951021,0.167953387,0.879802048,0.312806278
1.76966E+18,10.73316943,-0.464159626,-0.67686232,0.263435832,0.184901997,0.930382669,0.333372802
1.76966E+18,10.74315649,-0.554312629,-0.513051814,0.480931751,0.195875689,0.972536743,0.346057504
1.76966E+18,10.75314478,-0.538151914,-0.375904858,0.672780896,0.191983745,1.003902793,0.356177002
1.76966E+18,10.76313257,-0.494743127,-0.308603008,0.804791073,0.17596066,0.994960546,0.367209733
1.76966E+18,10.77312036,-0.350690922,-0.267950679,0.927903073,0.161959887,1.014018297,0.360387802
1.76966E+18,10.7831084,-0.259390649,-0.203247613,1.135142679,0.143188775,0.989741147,0.354320854
1.76966E+18,10.79309644,-0.114940823,-0.14319325,1.244025078,0.133775309,0.963206708,0.35107258
1.76966E+18,10.80308447,-0.081752108,-0.089599022,1.30745301,0.121662669,0.912139714,0.351526827
1.76966E+18,10.81307251,-0.043769584,-0.038405426,1.42148534,0.102448232,0.860207021,0.359184206
1.76966E+18,10.82306055,-0.073648881,-0.085979078,1.441874924,0.074664935,0.828889549,0.36029619
1.76966E+18,10.83304736,0.011400223,-0.157977562,1.377581024,0.045033805,0.781202734,0.359497219
1.76966E+18,10.8430354,0.025206776,-0.253506559,1.371848325,0.033959031,0.716038942,0.356887877
1.76966E+18,10.85302368,0.002346563,-0.281066766,1.470183027,0.038446989,0.658976734,0.351122409
1.76966E+18,10.86301147,-0.01270283,-0.27769992,1.515223361,0.038589992,0.646042109,0.332160503
1.76966E+18,10.87299951,-0.016622633,-0.201674665,1.464628608,0.037868809,0.641690791,0.325054646
1.76966E+18,10.88298755,-0.100006288,-0.088084526,1.479798412,0.026372708,0.64165014,0.308886707
1.76966E+18,10.89297559,-0.063603142,0.100967973,1.447042975,0.005217089,0.639462352,0.28155306
1.76966E+18,10.90296362,0.009321517,0.299708923,1.440854057,-0.024827031,0.63152349,0.256456077
1.76966E+18,10.91295068,0.074129358,0.389106285,1.376449681,-0.04834301,0.617985606,0.22867772
1.76966E+18,10.92293848,0.113523503,0.429482719,1.347655256,-0.068140954,0.591130018,0.204246402
1.76966E+18,10.93292651,0.138019647,0.539087588,1.385735981,-0.079089209,0.532479465,0.179336265
1.76966E+18,10.94291479,0.127714526,0.581234539,1.432133575,-0.090835512,0.447817773,0.163380727
1.76966E+18,10.95290259,0.033065527,0.436572385,1.299001116,-0.120694079,0.40030697,0.137048721
1.76966E+18,10.96289038,0.056453416,0.302557882,1.011065633,-0.141051784,0.373919606,0.105327368
1.76966E+18,10.97287842,0.124477736,0.234047241,0.85298461,-0.133651659,0.350704044,0.074496754
1.76966E+18,10.98286646,0.204963624,0.224243055,0.798968358,-0.110318713,0.344676226,0.046390984
1.76966E+18,10.99285327,0.287581116,0.295776844,0.691759445,-0.06568893,0.383839071,0.035880819
1.76966E+18,11.00284155,0.254243641,0.538757333,0.615703356,-0.005968422,0.453554422,0.049090192
1.76966E+18,11.01282935,0.178936471,0.744400317,0.583475742,0.064317994,0.520807207,0.118818939
1.76966E+18,11.02281738,-0.050860857,0.740498049,0.630233986,0.131090492,0.645377696,0.181685686
1.76966E+18,11.03280542,0.007310761,0.80259064,0.851806068,0.171882406,0.757776141,0.189330295
1.76966E+18,11.0427937,0.328834772,0.871124078,0.898488324,0.192712545,0.765196383,0.156943426
1.76966E+18,11.05278149,0.449784041,0.679926383,0.909453078,0.238258988,0.692996204,0.121887967
1.76966E+18,11.06276953,0.284674143,0.410945776,1.261522595,0.242052659,0.520535052,0.109648705
1.76966E+18,11.07275659,-0.049581923,0.177868842,1.25934452,0.158091187,0.396778524,0.047733936
1.76966E+18,11.08274438,0.291196677,0.248775439,0.467751952,0.053537291,0.285576105,-0.074360289
1.76966E+18,11.09273267,0.969548797,0.262268542,-0.140792911,-0.017243672,0.138597295,-0.188538522
1.76966E+18,11.1027207,1.263250296,0.113077513,-0.712051268,-0.060030017,0.010294192,-0.264262021
1.76966E+18,11.1127085,1.264459817,0.022070378,-1.142574729,-0.126790941,0.033473279,-0.313371778
1.76966E+18,11.12269653,1.09746469,0.031877486,-1.738965189,-0.13934499,0.110825405,-0.286443084
1.76966E+18,11.13268457,0.679770024,0.113971832,-1.96547502,-0.102118798,0.151401594,-0.212042347
1.76966E+18,11.14267261,0.476359913,0.129971949,-2.068026609,-0.039852619,0.220965102,-0.120482057
1.76966E+18,11.15265967,0.274284266,0.172504685,-2.222923302,0.027129076,0.35939303,-0.027156109
1.76966E+18,11.16264771,-0.092995387,0.263848505,-2.112791049,0.068205595,0.412810326,0.087214485
1.76966E+18,11.1726355,-0.503752363,0.465709632,-1.772025016,0.119389422,0.508389831,0.235370144
1.76966E+18,11.18262329,-1.005008525,0.597921469,-1.414178816,0.145450085,0.578328073,0.299867541
1.76966E+18,11.19261157,-0.844442554,0.524818239,-1.138107812,0.168613717,0.601742327,0.320573092
1.76966E+18,11.20259961,-0.691784871,0.539033812,-0.786383017,0.159295991,0.610817075,0.288307488
1.76966E+18,11.2125874,-0.619675182,0.47238721,-0.56899655,0.126161739,0.573361576,0.1763037
1.76966E+18,11.22257544,-0.26427053,0.340214536,-0.379862364,0.096456327,0.488295674,0.071807131
1.76966E+18,11.23256348,-0.11282763,0.331725525,-0.27434871,0.070712879,0.375397891,-0.019771518
1.76966E+18,11.24255029,0.077016458,0.280879135,-0.365049848,0.053323384,0.251109064,-0.082336105
1.76966E+18,11.25253857,0.26356735,0.377072148,-0.389665965,0.050006948,0.166620821,-0.090166062
1.76966E+18,11.26252661,0.227634451,0.542369678,-0.455997509,0.045677099,0.148856908,-0.066932552
1.76966E+18,11.2725144,0.239844237,0.596884528,-0.630561026,0.05336671,0.150669456,-0.033635315
1.76966E+18,11.28250244,0.34707127,0.722710463,-0.799673291,0.066211902,0.151019067,0.00253137
1.76966E+18,11.29249072,0.415019602,0.775738289,-0.937648368,0.084046826,0.150333837,0.040210038
1.76966E+18,11.30247852,0.362222954,0.784354142,-1.01145507,0.107847475,0.166281581,0.077875853
1.76966E+18,11.31246655,0.160415018,0.747507635,-1.060752039,0.121458627,0.194792584,0.119501859
1.76966E+18,11.32245361,-0.120045599,0.633641602,-1.109871606,0.138706461,0.229932949,0.167719275
1.76966E+18,11.33244141,-0.435061104,0.48856853,-1.079821043,0.163150281,0.264833927,0.219001383
1.76966E+18,11.34242969,-0.707378746,0.291910232,-0.961006009,0.184244677,0.31066215,0.259914458
1.76966E+18,11.35241772,-0.841531488,0.084025606,-0.84874785,0.191765979,0.366781056,0.275644422
1.76966E+18,11.36240552,-0.846210294,-0.103436409,-0.760122494,0.200133055,0.41105634,0.262091488
1.76966E+18,11.37239331,-0.743037212,-0.306058,-0.63647288,0.198617175,0.438967884,0.230232373
1.76966E+18,11.38238135,-0.613347002,-0.499533576,-0.611046762,0.183231428,0.450135529,0.172478348
1.76966E+18,11.39236963,-0.41933615,-0.594971388,-0.595909253,0.15357767,0.431192994,0.108359553
1.76966E+18,11.40235669,-0.228807294,-0.691150373,-0.658951692,0.119056188,0.382474333,0.045362916
1.76966E+18,11.41234448,-0.063430854,-0.751727299,-0.745423376,0.083977565,0.318996817,0.011162868
1.76966E+18,11.42233252,-0.023716391,-0.799212104,-0.769126031,0.05679407,0.248894244,-0.000461827
1.76966E+18,11.43232031,-0.056969988,-0.837175047,-0.77164722,0.037349798,0.196078971,0.00611698
1.76966E+18,11.44230859,-0.131224287,-0.794424285,-0.787837454,0.031486209,0.171765834,0.03028659
1.76966E+18,11.45229663,-0.297446092,-0.801926623,-0.779899354,0.020324636,0.111462027,0.036010258
1.76966E+18,11.46228442,-0.336930108,-0.655894935,-0.786815271,0.04715655,0.162085131,0.123931237
1.76966E+18,11.47227246,-0.708902303,-0.485337877,-0.646217006,0.08611913,0.308714002,0.16546537
1.76966E+18,11.48225952,-0.933384427,-0.564904166,-0.768165954,0.102273174,0.367307067,0.198446125
1.76966E+18,11.49224731,-0.834698135,-0.635344314,-0.817326291,0.099078976,0.323098868,0.214044794
1.76966E+18,11.5022356,-0.73590736,-0.683548081,-0.569466359,0.080551319,0.270945191,0.184610739
1.76966E+18,11.51222363,-0.497440988,-0.771444391,-0.407398459,0.077225827,0.253708422,0.120894343
1.76966E+18,11.52221143,-0.407775622,-0.811504014,-0.433902581,0.092166647,0.294687986,0.062836803
1.76966E+18,11.53219946,-0.590709054,-0.815393423,-0.496216853,0.091830291,0.323382735,0.031722289
1.76966E+18,11.54218774,-0.828570592,-0.66359718,-0.509358804,0.09637104,0.293819129,0.053592622
1.76966E+18,11.55217578,-0.972984908,-0.389272874,-0.277982244,0.106955774,0.260493398,0.104217179
1.76966E+18,11.5621626,-1.029124144,-0.215799052,-0.171299693,0.118189067,0.269515187,0.148829296
1.76966E+18,11.57215063,-1.025078522,-0.214518364,-0.101291214,0.136822417,0.259181052,0.185823262
1.76966E+18,11.58213843,-0.955270388,-0.256811446,0.002169453,0.160294071,0.244220152,0.212639257
1.76966E+18,11.59212671,-0.97642482,-0.347082668,0.099150695,0.172864452,0.264743537,0.222593099
1.76966E+18,11.6021145,-1.072748182,-0.469941571,0.151467157,0.181970328,0.283216238,0.220391378
1.76966E+18,11.61210254,-1.108716444,-0.581544335,0.221872234,0.185004726,0.280301958,0.197679132
1.76966E+18,11.62209033,-1.037029218,-0.646398208,0.21368016,0.182146773,0.260812759,0.156486407
1.76966E+18,11.63207837,-0.952536579,-0.687177962,0.175728615,0.177183166,0.261492133,0.100833811
1.76966E+18,11.64206543,-0.891099383,-0.664748104,0.2012617,0.178502485,0.270582795,0.045212276
1.76966E+18,11.65205347,-0.844265882,-0.61031801,0.225512344,0.177628174,0.253900498,0.000166505
1.76966E+18,11.6620415,-0.753146226,-0.523113189,0.163956636,0.178407863,0.237089783,-0.029585624
1.76966E+18,11.67202954,-0.723828654,-0.384409067,0.20210312,0.182403669,0.231935501,-0.038010534
1.76966E+18,11.68201733,-0.775018743,-0.230312146,0.310643866,0.178737208,0.221757933,-0.034661431
1.76966E+18,11.69200562,-0.794084678,-0.135334353,0.31108255,0.185956776,0.211106896,-0.020168509
1.76966E+18,11.70199365,-0.792643247,-0.048362757,0.34104368,0.193963408,0.210484952,-0.009274315
1.76966E+18,11.71198169,-0.823419493,-0.037497664,0.406935956,0.208294943,0.21911253,-0.00020279
1.76966E+18,11.72196802,-0.871088861,-0.12309388,0.425686542,0.220442861,0.218530089,0.003340983
1.76966E+18,11.73195581,-0.93409316,-0.173560331,0.430620491,0.235513419,0.229893535,-0.000255084
1.76966E+18,11.74194385,-1.030307655,-0.272118321,0.431515394,0.235401139,0.241768211,-0.020405356
1.76966E+18,11.75193213,-1.02023269,-0.309696648,0.499990672,0.227917388,0.251845598,-0.046940029
1.76966E+18,11.76191992,-1.009947442,-0.371540818,0.549867048,0.216714367,0.255100697,-0.077222832
1.76966E+18,11.77190796,-0.958791256,-0.333705885,0.574658375,0.210289225,0.262470454,-0.117233358
1.76966E+18,11.781896,-0.844234318,-0.239068868,0.578952273,0.208420604,0.258537412,-0.150730059
1.76966E+18,11.79188428,-0.768471805,-0.065289926,0.480075719,0.207619518,0.231045589,-0.163273811
1.76966E+18,11.80187207,-0.735988462,0.172588856,0.453537841,0.197125807,0.237606779,-0.144444555
1.76966E+18,11.81185913,-0.830454506,0.345945773,0.443509783,0.161892995,0.260806143,-0.116691761
1.76966E+18,11.82184692,-0.809114197,0.536736641,0.320223011,0.10985449,0.266227484,-0.101768561
1.76966E+18,11.83183496,-0.632179128,0.813528798,0.190731246,0.078584716,0.26033926,-0.089881808
1.76966E+18,11.84182275,-0.483817828,0.973190368,0.16604601,0.09053497,0.168906495,-0.075099319
1.76966E+18,11.85181104,-0.31140959,0.907128288,0.034633506,0.110573925,0.101755947,-0.09211985
1.76966E+18,11.86179883,-0.019029402,1.074570429,-0.019505788,0.096572526,0.182222977,-0.111379817
1.76966E+18,11.87178687,0.10934651,1.495503346,-0.180005562,0.0974788,0.300003946,-0.146235004
1.76966E+18,11.8817749,0.23325346,1.846974021,-0.162946583,0.120072134,0.375233024,-0.153120607
1.76966E+18,11.89176172,0.157472827,2.080666457,-0.082203359,0.169034615,0.38751632,-0.133090973
1.76966E+18,11.90175,0.037653147,2.272016127,0.05020137,0.207033545,0.429712445,-0.076059557
1.76966E+18,11.91173804,-0.231850315,2.349331422,0.29851416,0.245944723,0.513857126,0.00649737
1.76966E+18,11.92172583,-0.476754466,2.329922372,0.452384579,0.267333537,0.541609108,0.097664207
1.76966E+18,11.93171387,-0.447129727,2.099901903,0.455348982,0.229840219,0.45558849,0.16563952
1.76966E+18,11.9417019,-0.218820446,1.473720554,0.194521286,0.142149583,0.322161973,0.200300053
1.76966E+18,11.95168994,0.210758427,1.0043448,-0.136696874,0.069393367,0.151671723,0.171564013
1.76966E+18,11.96167798,0.758316322,0.762430479,-0.409209162,0.008710971,0.007401359,0.100154169
1.76966E+18,11.97166504,1.175634848,0.488117279,-0.815431125,-0.016317682,-0.049495213,0.010850655
1.76966E+18,11.98165283,1.239022155,0.148370945,-0.943143605,-0.04709452,-0.043119654,-0.031247076
1.76966E+18,11.99164087,1.090087439,0.047391281,-1.093271038,-0.049576588,0.034627073,-0.020214399
1.76966E+18,12.00162915,0.993967783,-0.029501404,-1.10189975,-0.018654535,0.134895861,-0.004755741
1.76966E+18,12.01161719,1.081619178,-0.114312608,-1.129999763,0.04858895,0.183694288,0.013817677
1.76966E+18,12.02160498,1.355291158,-0.072103113,-0.892744958,0.059086915,0.148243859,0.03321296
1.76966E+18,12.03159277,1.744258035,-0.056932432,-0.735695909,0.066580519,0.136262298,0.051430047
1.76966E+18,12.04158081,2.0360046,0.118834469,-0.465431108,0.064157061,0.103112124,0.044359967
1.76966E+18,12.05156885,2.391770341,0.265948107,-0.422880544,0.059588138,0.0203733,0.02065064
1.76966E+18,12.06155591,2.583102476,0.484983657,-0.460153752,0.070359409,0.018740486,0.020842731
1.76966E+18,12.07154395,2.325290036,0.721300596,-0.424789301,0.064565435,0.029213101,0.004745518
1.76966E+18,12.08153174,2.09581931,0.874038504,-0.532636804,0.080056809,0.016383233,0.020185664
1.76966E+18,12.09151978,1.708746869,0.922789383,-0.465863946,0.077499911,-0.000243414,0.054550294
1.76966E+18,12.10150806,1.190666998,0.911128172,-0.594852145,0.061503977,-0.073060557,0.075118594
1.76966E+18,12.11149585,0.875463861,0.776008923,-0.49408174,0.068699837,-0.093918167,0.125533298
1.76966E+18,12.12148389,0.412865931,0.679877868,-0.317615751,0.080554433,-0.059456568,0.163406193
1.76966E+18,12.13147192,0.115028063,0.485111667,-0.328800285,0.11580883,0.039194908,0.215672597
1.76966E+18,12.14145874,-0.176664727,0.24160394,-0.344283685,0.153557837,0.218677625,0.22274445
1.76966E+18,12.15144702,-0.300443375,0.005591536,-0.399609851,0.168784201,0.349342436,0.208411321
1.76966E+18,12.16143506,-0.345934375,-0.231745978,-0.344025327,0.184538469,0.415697187,0.203005642
1.76966E+18,12.17142285,-0.458741255,-0.507972903,-0.13897797,0.156471685,0.362701625,0.15665625
1.76966E+18,12.18141089,-0.075843176,-0.712837888,0.0227002,0.121714853,0.37803793,0.111966893
1.76966E+18,12.19139893,0.136317519,-0.92235333,0.265489842,0.094189748,0.384886235,0.049078472
1.76966E+18,12.20138721,0.465568763,-1.178252337,0.199835759,0.106308013,0.283875078,0.001261331
1.76966E+18,12.211375,0.707052583,-1.421208276,0.117078565,0.099648513,0.195064768,-0.037298843
1.76966E+18,12.22136206,0.945157575,-1.451506384,-0.083961309,0.065875754,0.171010941,-0.074320257
1.76966E+18,12.2313501,1.144956801,-1.296971071,-0.217696995,0.046682354,0.140266612,-0.05940602
