time,seconds_elapsed,z,y,x
1769657881193526500,0.072526611328125,-0.014674930833280087,-0.022974351420998573,0.008141010999679565
1769657881203515000,0.082514892578125,-0.03814088553190231,-0.020662609487771988,0.053920816630125046
1769657881213503000,0.0925029296875,-0.04256119951605797,-0.044921875,0.07837076485157013
1769657881223491000,0.102490966796875,-0.04336491972208023,-0.044140513986349106,0.0561046339571476
1769657881233479000,0.11247900390625,-0.031132487580180168,-0.021315092220902443,0.021170616149902344
1769657881243466800,0.122466796875,-0.03219810873270035,0.01628204807639122,0.014327765442430973
1769657881253454800,0.132454833984375,-0.02028498984873295,0.024974606931209564,-0.003937258385121822
1769657881263443000,0.14244287109375,-0.015887882560491562,0.02950981631875038,-0.04629848524928093
1769657881273430800,0.1524306640625,-0.03478327393531799,-0.01298012025654316,-0.0461789108812809
1769657881283419000,0.1624189453125,-0.016627805307507515,0.00845085084438324,-0.057332105934619904
1769657881293407000,0.172406982421875,-0.03181101754307747,0.007178658619523048,-0.07770927995443344
1769657881303393800,0.182393798828125,-0.044691842049360275,-0.051401007920503616,-0.08552872389554977
1769657881313382000,0.1923818359375,-0.044631388038396835,-0.04189885035157204,-0.08441338688135147
1769657881323370000,0.202369873046875,-0.0446629598736763,-0.00013603456318378448,-0.09079374372959137
1769657881333357800,0.21235791015625,-0.04719269648194313,-0.0015083614271134138,-0.07589628547430038
1769657881343346000,0.222345947265625,-0.05564305558800697,-0.02768038772046566,-0.06120012700557709
1769657881353334000,0.232333984375,-0.06374438852071762,-0.045574434101581573,-0.05953964591026306
1769657881363321900,0.24232177734375,-0.06734764575958252,-0.06687839329242706,-0.07880441844463348
1769657881373310000,0.25231005859375,-0.06582032144069672,-0.08528829365968704,-0.11368916928768158
1769657881383298000,0.262298095703125,-0.05617128685116768,-0.10583289712667465,-0.1618458330631256
1769657881393286000,0.272285888671875,-0.045807063579559326,-0.11490388959646225,-0.20919550955295563
1769657881403273700,0.282273681640625,-0.03419754281640053,-0.11384820938110352,-0.25211209058761597
1769657881413261800,0.29226171875,-0.023177117109298706,-0.10649149864912033,-0.27539077401161194
1769657881423250000,0.30225,-0.011706607416272163,-0.09757417440414429,-0.292054682970047
1769657881433237800,0.31223779296875,-0.0015181528870016336,-0.06571877747774124,-0.3102584481239319
1769657881443224800,0.322224853515625,0.0037025443743914366,0.004462910816073418,-0.31941837072372437
1769657881453213000,0.332212890625,-0.006966611370444298,0.06836438924074173,-0.32971975207328796
1769657881463200800,0.34220068359375,-0.014675922691822052,0.10758396238088608,-0.3402027189731598
1769657881473188900,0.35218896484375,-0.013821846805512905,0.11110147088766098,-0.3383678197860718
1769657881483177000,0.362177001953125,-0.012714467011392117,0.08947808295488358,-0.34635552763938904
1769657881493164800,0.372164794921875,-0.028684377670288086,0.05206120386719704,-0.35311755537986755
1769657881503153000,0.38215283203125,-0.0714271068572998,0.01959935575723648,-0.34673061966896057
1769657881513141000,0.39214111328125,-0.10803065448999405,0.012377395294606686,-0.3352779448032379
1769657881523129000,0.402129150390625,-0.11829089373350143,0.019327538087964058,-0.3328465223312378
1769657881533117000,0.412116943359375,-0.14445511996746063,0.00775610376149416,-0.32340750098228455
1769657881543104800,0.422104736328125,-0.1533607393503189,0.08577819913625717,-0.30380770564079285
1769657881553092900,0.4320927734375,-0.10653117299079895,0.05993648245930672,-0.3048119843006134
1769657881563080700,0.442080810546875,-0.11039856821298599,-0.0015046328771859407,-0.23214688897132874
1769657881573068800,0.45206884765625,-0.1175725907087326,0.007510966155678034,-0.22435234487056732
1769657881583056000,0.462055908203125,-0.09783858805894852,0.03580814227461815,-0.19959190487861633
1769657881593043700,0.472043701171875,-0.07769417017698288,0.0044110724702477455,-0.17868369817733765
1769657881603031800,0.48203173828125,-0.09723939001560211,-0.047168146818876266,-0.20337720215320587
1769657881613020000,0.49202001953125,-0.1029185801744461,0.008201105520129204,-0.20613756775856018
1769657881623007700,0.5020078125,-0.08879774808883667,0.00021280511282384396,-0.2068546861410141
1769657881632995800,0.511995849609375,-0.08157152682542801,-0.026837987825274467,-0.1936558037996292
1769657881642984000,0.52198388671875,-0.10958452522754669,-0.018453281372785568,-0.1877417415380478
1769657881652972000,0.531971923828125,-0.12904423475265503,0.004443776793777943,-0.20757003128528595
1769657881662959900,0.5419599609375,-0.13605839014053345,0.004473098553717136,-0.23142729699611664
1769657881672948000,0.551947998046875,-0.1364610642194748,-0.00589725049212575,-0.2590639591217041
1769657881682936000,0.56193603515625,-0.13619665801525116,-0.0007126484997570515,-0.2983723282814026
1769657881692924000,0.571923828125,-0.14114534854888916,0.004158539231866598,-0.3247847855091095
1769657881702911700,0.581911865234375,-0.14947715401649475,0.03666798397898674,-0.3264397978782654
1769657881712899800,0.59189990234375,-0.1622331589460373,0.08269619196653366,-0.31035590171813965
1769657881722888000,0.601887939453125,-0.17006702721118927,0.11022106558084488,-0.2989175319671631
1769657881732874800,0.611874755859375,-0.1845753937959671,0.11760573834180832,-0.284322589635849
1769657881742862800,0.62186279296875,-0.19234715402126312,0.11508140712976456,-0.2732633352279663
1769657881752850700,0.6318505859375,-0.20874769985675812,0.11295726895332336,-0.2658482789993286
1769657881762838800,0.6418388671875,-0.20953473448753357,0.1176862120628357,-0.27008360624313354
1769657881772827000,0.651826904296875,-0.21505361795425415,0.1338081955909729,-0.27408209443092346
1769657881782815000,0.66181494140625,-0.20902366936206818,0.171702578663826,-0.2932965159416199
1769657881792802800,0.671802734375,-0.20788569748401642,0.2074373960494995,-0.31665536761283875
1769657881802791000,0.681791015625,-0.20644211769104004,0.23037473857402802,-0.32925134897232056
1769657881812779000,0.691779052734375,-0.2087358981370926,0.23363524675369263,-0.3266156315803528
1769657881822766800,0.701766845703125,-0.2121504694223404,0.22605571150779724,-0.31657904386520386
1769657881832755000,0.7117548828125,-0.22455573081970215,0.18321849405765533,-0.29950764775276184
1769657881842743000,0.721742919921875,-0.23695948719978333,0.14114637672901154,-0.2715360224246979
1769657881852731000,0.73173095703125,-0.2513842284679413,0.11984135210514069,-0.24869491159915924
1769657881862718700,0.74171875,-0.2505515515804291,0.1480932980775833,-0.23996666073799133
1769657881872706000,0.7517060546875,-0.2139594554901123,0.21027891337871552,-0.2353103905916214
1769657881882694000,0.76169384765625,-0.17556387186050415,0.2524488568305969,-0.26542216539382935
1769657881892681700,0.771681640625,-0.1417774111032486,0.2620266377925873,-0.2974413335323334
1769657881902669800,0.781669921875,-0.1156952902674675,0.24141523241996765,-0.287209153175354
1769657881912658000,0.791657958984375,-0.09473514556884766,0.21898609399795532,-0.26020175218582153
1769657881922645800,0.801645751953125,-0.08159783482551575,0.1977025866508484,-0.22209149599075317
1769657881932633900,0.8116337890625,-0.07313404232263565,0.1955701857805252,-0.17440412938594818
1769657881942622000,0.8216220703125,-0.06315398961305618,0.21904686093330383,-0.12945884466171265
1769657881952609800,0.83160986328125,-0.054803915321826935,0.2600797712802887,-0.10746406018733978
1769657881962598000,0.841597900390625,-0.05219929292798042,0.3027290999889374,-0.09417653828859329
1769657881972586000,0.8515859375,-0.06052699685096741,0.30991804599761963,-0.08032144606113434
1769657881982574000,0.861573974609375,-0.059919826686382294,0.3048488199710846,-0.07103012502193451
1769657881992562000,0.87156201171875,-0.03937353566288948,0.29905620217323303,-0.06906551122665405
1769657882002549800,0.8815498046875,-0.013760318979620934,0.28587648272514343,-0.06363505870103836
1769657882012537900,0.891537841796875,0.006283163093030453,0.275303453207016,-0.04221578314900398
1769657882022525000,0.90152490234375,0.014219207689166069,0.263518750667572,-0.012801578268408775
1769657882032513000,0.911512939453125,0.019667768850922585,0.25627148151397705,0.015723273158073425
1769657882042500900,0.9215009765625,0.022324595600366592,0.24919602274894714,0.041125401854515076
1769657882052488700,0.93148876953125,0.024330221116542816,0.23856814205646515,0.05763939768075943
1769657882062476800,0.941476806640625,0.02881038561463356,0.22771012783050537,0.05981722101569176
1769657882072465000,0.95146484375,0.03296864405274391,0.20980942249298096,0.05166102200746536
1769657882082452700,0.96145263671875,0.04162956401705742,0.19176693260669708,0.03736137971282005
1769657882092440800,0.97144091796875,0.04897083342075348,0.17974010109901428,0.02963901311159134
1769657882102429000,0.981428955078125,0.05355525016784668,0.170074462890625,0.029277712106704712
1769657882112417000,0.9914169921875,0.05525567755103111,0.15970145165920258,0.03393984213471413
1769657882122404900,1.00140478515625,0.052241552621126175,0.14667555689811707,0.04168770834803581
1769657882132393000,1.01139306640625,0.04764360561966896,0.12805846333503723,0.04445606470108032
1769657882142381000,1.021381103515625,0.04034237563610077,0.10792392492294312,0.040206585079431534
1769657882152369000,1.031368896484375,0.03632286936044693,0.09101232141256332,0.032323095947504044
1769657882162356700,1.041356689453125,0.034476082772016525,0.07318824529647827,0.015931112691760063
1769657882172344000,1.051343994140625,0.03906391188502312,0.05162036791443825,0.0030280975624918938
1769657882182332000,1.061331787109375,0.04577266424894333,0.04809807240962982,0.0015654773451387882
1769657882192319700,1.07131982421875,0.06124163791537285,0.06655990332365036,-0.0033121020533144474
1769657882202307800,1.081307861328125,0.08441466838121414,0.09974559396505356,-0.020051555708050728
1769657882212296000,1.0912958984375,0.1109759733080864,0.1291056126356125,-0.043368861079216
1769657882222283800,1.10128369140625,0.13184496760368347,0.13455280661582947,-0.060301609337329865
1769657882232272000,1.11127197265625,0.13887731730937958,0.13076765835285187,-0.062418289482593536
1769657882242260000,1.121260009765625,0.13964727520942688,0.1530241072177887,-0.06683521717786789
1769657882252247800,1.131247802734375,0.1536158323287964,0.18788276612758636,-0.0899818167090416
1769657882262236000,1.14123583984375,0.1702456921339035,0.21294085681438446,-0.1356537789106369
1769657882272224000,1.15122412109375,0.17696644365787506,0.23102106153964996,-0.1727854311466217
1769657882282212000,1.161212158203125,0.18919582664966583,0.24069561064243317,-0.18790532648563385
1769657882292200000,1.171199951171875,0.20960763096809387,0.2579965591430664,-0.1879924088716507
1769657882302188000,1.18118798828125,0.23070378601551056,0.30117568373680115,-0.1887701451778412
1769657882312175000,1.191175048828125,0.2684849798679352,0.37544140219688416,-0.197262704372406
1769657882322163000,1.201162841796875,0.3016878664493561,0.4510658085346222,-0.21680854260921478
1769657882332151000,1.211151123046875,0.3299192488193512,0.4851404130458832,-0.2337222844362259
1769657882342139000,1.221138916015625,0.3664073050022125,0.47881677746772766,-0.24281340837478638
1769657882352126700,1.231126708984375,0.40530890226364136,0.47467902302742004,-0.23833690583705902
1769657882362114800,1.24111474609375,0.4438495635986328,0.47394174337387085,-0.21874555945396423
1769657882372103000,1.25110302734375,0.4727824032306671,0.47598811984062195,-0.19395552575588226
1769657882382090800,1.2610908203125,0.4864404797554016,0.4896145462989807,-0.1837434321641922
1769657882392078800,1.271078857421875,0.49620604515075684,0.48985397815704346,-0.18895897269248962
1769657882402067000,1.28106689453125,0.5054405331611633,0.46381211280822754,-0.20962156355381012
1769657882412055000,1.291054931640625,0.5307783484458923,0.4108213186264038,-0.24018427729606628
1769657882422043000,1.30104296875,0.5449932813644409,0.32913514971733093,-0.2755739986896515
1769657882432031000,1.311031005859375,0.5364525318145752,0.25324782729148865,-0.3007046580314636
1769657882442019000,1.32101904296875,0.5081587433815002,0.20153465867042542,-0.306787371635437
1769657882452006000,1.331005859375,0.4929070770740509,0.17731347680091858,-0.31068968772888184
1769657882461994000,1.340993896484375,0.4808797836303711,0.1371348351240158,-0.3065418303012848
1769657882471982000,1.350982177734375,0.4773465692996979,0.06729981303215027,-0.3020658493041992
1769657882481970000,1.360969970703125,0.45134055614471436,-0.0181003138422966,-0.3106904625892639
1769657882491958000,1.3709580078125,0.402089923620224,-0.11178712546825409,-0.3215239346027374
1769657882501945900,1.38094580078125,0.33175286650657654,-0.20693960785865784,-0.34848013520240784
1769657882511934000,1.390933837890625,0.2503970265388489,-0.30878156423568726,-0.3918593227863312
1769657882521921800,1.400921875,0.1767767071723938,-0.44085657596588135,-0.44405800104141235
1769657882531910000,1.410909912109375,0.10756701231002808,-0.5899845957756042,-0.4973156154155731
1769657882541898000,1.42089794921875,0.04277735948562622,-0.7038568258285522,-0.5386214852333069
1769657882551885800,1.4308857421875,-0.02293746918439865,-0.750361442565918,-0.5553807616233826
1769657882561874000,1.4408740234375,-0.07288222014904022,-0.7586514949798584,-0.5585419535636902
1769657882571862000,1.450862060546875,-0.11380861699581146,-0.7791024446487427,-0.5680223107337952
1769657882581849900,1.460849853515625,-0.13056300580501556,-0.7889730334281921,-0.5774120688438416
1769657882591838000,1.470837890625,-0.1373913437128067,-0.7923893332481384,-0.566545307636261
1769657882601825000,1.480824951171875,-0.13727934658527374,-0.785504162311554,-0.5405797958374023
1769657882611812900,1.490812744140625,-0.14217422902584076,-0.7417768836021423,-0.4947830140590668
1769657882621801000,1.500801025390625,-0.14202119410037994,-0.6574510931968689,-0.4571983814239502
1769657882631789000,1.5107890625,-0.13568899035453796,-0.5354138612747192,-0.41506797075271606
1769657882641777200,1.520777099609375,-0.12233733385801315,-0.42739710211753845,-0.37921714782714844
1769657882651765000,1.530764892578125,-0.11672179400920868,-0.3535631000995636,-0.34825363755226135
1769657882661752800,1.5407529296875,-0.11732353270053864,-0.28986573219299316,-0.3098028600215912
1769657882671741000,1.550740966796875,-0.1322803795337677,-0.24122093617916107,-0.2662260830402374
1769657882681728800,1.560728759765625,-0.14847876131534576,-0.22370916604995728,-0.22961969673633575
1769657882691716900,1.570716796875,-0.17312897741794586,-0.22254696488380432,-0.2080528736114502
1769657882701705000,1.580705078125,-0.19737987220287323,-0.22763554751873016,-0.210952490568161
1769657882711692800,1.59069287109375,-0.21944789588451385,-0.23885224759578705,-0.22949528694152832
1769657882721681000,1.600680908203125,-0.24439582228660583,-0.25308772921562195,-0.23983003199100494
1769657882731669000,1.6106689453125,-0.27060452103614807,-0.268769234418869,-0.23977410793304443
1769657882741657000,1.620656982421875,-0.29304787516593933,-0.281427264213562,-0.23243534564971924
1769657882751644000,1.630643798828125,-0.3064291775226593,-0.28543826937675476,-0.22557584941387177
1769657882761632000,1.640632080078125,-0.3082003593444824,-0.2697591483592987,-0.2215391844511032
1769657882771620000,1.6506201171875,-0.30120930075645447,-0.24013465642929077,-0.22510196268558502
1769657882781608000,1.66060791015625,-0.2831547260284424,-0.2047138661146164,-0.22983555495738983
1769657882791596000,1.670595947265625,-0.25780436396598816,-0.1663030982017517,-0.23721091449260712
1769657882801584000,1.680584228515625,-0.21926595270633698,-0.13881763815879822,-0.24516725540161133
1769657882811571700,1.69057177734375,-0.17334693670272827,-0.11157482862472534,-0.24862538278102875
1769657882821559800,1.700559814453125,-0.13049209117889404,-0.06916632503271103,-0.25097233057022095
1769657882831548000,1.7105478515625,-0.08349529653787613,-0.011003682389855385,-0.25092706084251404
1769657882841535700,1.72053564453125,-0.032263290137052536,0.049939922988414764,-0.25499042868614197
1769657882851523800,1.73052392578125,0.016307441517710686,0.11471545696258545,-0.25662586092948914
1769657882861512000,1.740511962890625,0.06174434348940849,0.18638215959072113,-0.25738659501075745
1769657882871500000,1.7505,0.08903562277555466,0.2504764795303345,-0.2610985040664673
1769657882881488000,1.76048779296875,0.10686910897493362,0.29526370763778687,-0.2610439360141754
1769657882891475000,1.770474853515625,0.11063562333583832,0.3184907138347626,-0.25584492087364197
1769657882901463000,1.780463134765625,0.10542677342891693,0.33008283376693726,-0.25444844365119934
1769657882911451000,1.790450927734375,0.10392820835113525,0.3251924514770508,-0.24866008758544922
1769657882921439000,1.80043896484375,0.0962175652384758,0.31275472044944763,-0.24177472293376923
1769657882931427000,1.810427001953125,0.082649827003479,0.33226048946380615,-0.2507666051387787
1769657882941415000,1.820414794921875,0.05775971710681915,0.33950310945510864,-0.23388835787773132
1769657882951403000,1.830403076171875,0.05071645602583885,0.3582192659378052,-0.2274259328842163
1769657882961390800,1.840390869140625,0.04429231584072113,0.3708140254020691,-0.21310526132583618
1769657882971379000,1.85037890625,0.030646277591586113,0.36754685640335083,-0.1885828673839569
1769657882981366800,1.86036669921875,0.017263168469071388,0.3587552607059479,-0.17371965944766998
1769657882991355000,1.87035498046875,0.002873576246201992,0.3447595536708832,-0.16520793735980988
1769657883001343000,1.880343017578125,-0.0013453137362375855,0.32414084672927856,-0.16491511464118958
1769657883011330800,1.890330810546875,0.002403884194791317,0.2935784161090851,-0.1694110631942749
1769657883021319000,1.90031884765625,0.008679750375449657,0.26399675011634827,-0.17378711700439453
1769657883031307000,1.91030712890625,0.019956907257437706,0.24753306806087494,-0.15520784258842468
1769657883041293800,1.9202939453125,0.040291182696819305,0.2577899992465973,-0.1186828762292862
1769657883051282000,1.930281982421875,0.060996994376182556,0.30700254440307617,-0.07051082700490952
1769657883061270000,1.94027001953125,0.08282420784235,0.38642698526382446,-0.015172558836638927
1769657883071257900,1.9502578125,0.1118294894695282,0.48030930757522583,0.030078008770942688
1769657883081246000,1.960245849609375,0.14339236915111542,0.584979772567749,0.049346353858709335
1769657883091234000,1.970234130859375,0.16922584176063538,0.6718845963478088,0.04776523634791374
1769657883101222100,1.98022216796875,0.18859972059726715,0.7059141397476196,0.03548635542392731
1769657883111210000,1.9902099609375,0.21114924550056458,0.7131091952323914,0.029168806970119476
1769657883121197800,2.00019775390625,0.2273254245519638,0.7334768176078796,0.0351177453994751
1769657883131186000,2.01018603515625,0.2485329806804657,0.7688071131706238,0.05819350481033325
1769657883141173800,2.020173828125,0.25759854912757874,0.8014306426048279,0.08261999487876892
1769657883151161900,2.030161865234375,0.26898491382598877,0.8136380314826965,0.10290049761533737
1769657883161150000,2.04014990234375,0.27979543805122375,0.8185511827468872,0.11799990385770798
1769657883171137800,2.0501376953125,0.2939296364784241,0.8357298970222473,0.12425380200147629
1769657883181126000,2.0601259765625,0.310161292552948,0.854320764541626,0.13620851933956146
1769657883191113000,2.070113037109375,0.3217116892337799,0.8533013463020325,0.1473541110754013
1769657883201100300,2.080100341796875,0.3281794786453247,0.8490291237831116,0.16353240609169006
1769657883211088100,2.090088134765625,0.3348246216773987,0.843691885471344,0.1808735728263855
1769657883221076200,2.100076171875,0.34207069873809814,0.8272644877433777,0.1877508908510208
1769657883231064300,2.110064208984375,0.3514988422393799,0.8024243712425232,0.19604584574699402
1769657883241052200,2.12005224609375,0.356658399105072,0.7837921977043152,0.20728950202465057
1769657883251040300,2.130040283203125,0.3588879704475403,0.7836007475852966,0.2214660495519638
1769657883261028400,2.1400283203125,0.35731449723243713,0.7882850766181946,0.24375616014003754
1769657883271016400,2.150016357421875,0.35655468702316284,0.7956497669219971,0.2736924886703491
1769657883281004300,2.16000439453125,0.35558703541755676,0.800635039806366,0.30992016196250916
1769657883290992400,2.169992431640625,0.3484340310096741,0.8037741184234619,0.34035158157348633
1769657883300980200,2.179980224609375,0.33927252888679504,0.7990626692771912,0.3619746267795563
1769657883310968000,2.189968017578125,0.3313823938369751,0.7888609170913696,0.3756994903087616
1769657883320956200,2.1999560546875,0.3297715485095978,0.7547723650932312,0.3744569420814514
1769657883330943200,2.209943115234375,0.3282540738582611,0.7052085399627686,0.36324983835220337
1769657883340931000,2.21993115234375,0.32561203837394714,0.6852627396583557,0.35883456468582153
1769657883350919200,2.229919189453125,0.3254791498184204,0.6931659579277039,0.3625454008579254
1769657883360907300,2.2399072265625,0.33048802614212036,0.6871523261070251,0.36992698907852173
1769657883370895000,2.24989501953125,0.34900498390197754,0.67049241065979,0.38169896602630615
1769657883380883200,2.25988330078125,0.36694520711898804,0.6606636643409729,0.3866844177246094
1769657883390871300,2.269871337890625,0.3584638237953186,0.6716700196266174,0.3783649802207947
1769657883400859400,2.279859375,0.32800790667533875,0.6859719157218933,0.36469313502311707
1769657883410847200,2.28984716796875,0.28002360463142395,0.6960551738739014,0.353794127702713
1769657883420835300,2.29983544921875,0.2330792248249054,0.6840559244155884,0.3373025953769684
1769657883430823400,2.309823486328125,0.19860593974590302,0.6351153254508972,0.31800398230552673
1769657883440811300,2.319811279296875,0.17525745928287506,0.5826913118362427,0.28958627581596375
1769657883450799000,2.329799072265625,0.14788122475147247,0.5525065064430237,0.27294713258743286
1769657883460787200,2.339787109375,0.11284220218658447,0.5216143727302551,0.2673921585083008
1769657883470775300,2.349775390625,0.08298497647047043,0.4858962893486023,0.2690902054309845
1769657883480762400,2.359762451171875,0.06022317707538605,0.45165979862213135,0.2625957727432251
1769657883490750200,2.369750244140625,0.051956988871097565,0.41824883222579956,0.25121793150901794
1769657883500738000,2.379738037109375,0.05369381234049797,0.39802590012550354,0.23741984367370605
1769657883510726100,2.38972607421875,0.06469613313674927,0.4009127616882324,0.22464333474636078
1769657883520714200,2.39971435546875,0.07227783650159836,0.4238792061805725,0.21088044345378876
1769657883530702300,2.409702392578125,0.0762571319937706,0.46646422147750854,0.1923847794532776
1769657883540690200,2.419690185546875,0.06559335440397263,0.5315338373184204,0.1820850819349289
1769657883550678300,2.42967822265625,0.0632614940404892,0.5956481099128723,0.1750793606042862
1769657883560666400,2.439666259765625,0.07284022867679596,0.6278098821640015,0.16263051331043243
1769657883570654200,2.449654296875,0.0902133584022522,0.6189239621162415,0.15377098321914673
1769657883580642300,2.459642333984375,0.11033916473388672,0.5904597640037537,0.16888779401779175
1769657883590630400,2.46963037109375,0.12795570492744446,0.579599916934967,0.2067989557981491
1769657883600618200,2.4796181640625,0.14233776926994324,0.5930851101875305,0.26410338282585144
1769657883610606000,2.489606201171875,0.16456396877765656,0.626217782497406,0.3204420208930969
1769657883620594200,2.49959423828125,0.19002065062522888,0.6597137451171875,0.36155906319618225
1769657883630581200,2.509581298828125,0.2165907323360443,0.6819106936454773,0.375734806060791
1769657883640569000,2.519569091796875,0.2516009509563446,0.6984916925430298,0.3661891222000122
1769657883650557200,2.52955712890625,0.2835301160812378,0.7419283986091614,0.344267338514328
1769657883660545300,2.539545166015625,0.31620609760284424,0.7883749008178711,0.31261613965034485
1769657883670533000,2.549533203125,0.33752867579460144,0.8286117911338806,0.276103138923645
1769657883680521200,2.559521240234375,0.3581072986125946,0.8432748317718506,0.25925973057746887
1769657883690509300,2.56950927734375,0.3722793161869049,0.83623206615448,0.2571459710597992
1769657883700497200,2.5794970703125,0.38648152351379395,0.8155458569526672,0.2632409334182739
1769657883710485200,2.5894853515625,0.40144768357276917,0.8047733902931213,0.27114439010620117
1769657883720473300,2.599473388671875,0.4245545566082001,0.8004223108291626,0.26647788286209106
1769657883730461400,2.60946142578125,0.441745787858963,0.8065323829650879,0.25932756066322327
1769657883740449300,2.61944921875,0.4591720402240753,0.819997251033783,0.23785559833049774
1769657883750437400,2.629437255859375,0.4825889468193054,0.8335573077201843,0.19937080144882202
1769657883760425200,2.63942529296875,0.49609339237213135,0.8398734331130981,0.16087830066680908
1769657883770413000,2.6494130859375,0.48127394914627075,0.8161909580230713,0.12858827412128448
1769657883780401200,2.659401123046875,0.4469984769821167,0.7498739957809448,0.11173461377620697
1769657883790388200,2.66938818359375,0.4207671582698822,0.646905779838562,0.08660049736499786
1769657883800376000,2.6793759765625,0.3987239897251129,0.5455030202865601,0.06537602096796036
1769657883810364200,2.6893642578125,0.3676142692565918,0.482254296541214,0.0592811182141304
1769657883820352300,2.699352294921875,0.3263096809387207,0.4333893656730652,0.06008200719952583
1769657883830340000,2.709340087890625,0.28933221101760864,0.38041937351226807,0.07025688141584396
1769657883840328200,2.719328125,0.2596999704837799,0.35434871912002563,0.07925152033567429
1769657883850316300,2.72931640625,0.2458305060863495,0.3539937436580658,0.07518088072538376
1769657883860304400,2.739304443359375,0.24451059103012085,0.36772671341896057,0.05203647539019585
1769657883870292200,2.749292236328125,0.27094221115112305,0.36194631457328796,0.012386800721287727
1769657883880280300,2.7592802734375,0.29819029569625854,0.33965393900871277,-0.03356677666306496
1769657883890268400,2.769268310546875,0.31353089213371277,0.3218485713005066,-0.08439347892999649
1769657883900256300,2.77925634765625,0.29728713631629944,0.2937929034233093,-0.144074484705925
1769657883910244400,2.789244384765625,0.25146639347076416,0.2379637360572815,-0.20664624869823456
1769657883920232200,2.799232177734375,0.1976420134305954,0.18333567678928375,-0.2659120261669159
1769657883930220300,2.80922021484375,0.1624872237443924,0.12137723714113235,-0.30976602435112
1769657883940207400,2.819207275390625,0.1556268185377121,0.062294263392686844,-0.3249998390674591
1769657883950195200,2.8291953125,0.14391769468784332,0.027154384180903435,-0.30516836047172546
1769657883960183000,2.83918310546875,0.11530817300081253,0.015606368891894817,-0.2702028751373291
1769657883970171100,2.849171142578125,0.08157338201999664,0.010682184249162674,-0.2255701720714569
1769657883980159200,2.8591591796875,0.05221223831176758,0.01491834968328476,-0.18813541531562805
1769657883990147300,2.869147216796875,0.026546556502580643,0.028375035151839256,-0.1736518144607544
1769657884000135200,2.87913525390625,0.0014290198450908065,0.0334431529045105,-0.17274209856987
1769657884010123300,2.889123291015625,-0.010724315419793129,0.027824683114886284,-0.1765299141407013
1769657884020111400,2.899111328125,-0.01925121247768402,0.018195664510130882,-0.1737411618232727
1769657884030099200,2.90909912109375,-0.025783147662878036,0.018139472231268883,-0.16380144655704498
1769657884040087300,2.91908740234375,-0.031281810253858566,0.02194391004741192,-0.15630431473255157
1769657884050075400,2.929075439453125,-0.03449331969022751,0.029879065230488777,-0.14604048430919647
1769657884060063500,2.9390634765625,-0.028764842078089714,0.05589626729488373,-0.131736621260643
1769657884070051000,2.949051025390625,-0.019850444048643112,0.09031736105680466,-0.11861202865839005
1769657884080039200,2.9590390625,-0.014503601007163525,0.11502209305763245,-0.10647239536046982
1769657884090027300,2.96902734375,-0.018155328929424286,0.1250142753124237,-0.09698008745908737
1769657884100015000,2.97901513671875,-0.03212016075849533,0.14805547893047333,-0.08385750651359558
1769657884110002200,2.989002197265625,-0.040642544627189636,0.17092883586883545,-0.06287552416324615
1769657884119990300,2.998990234375,-0.04686196893453598,0.1720358431339264,-0.048944488167762756
1769657884129978000,3.00897802734375,-0.04644198715686798,0.16038984060287476,-0.038174666464328766
1769657884139966200,3.01896630859375,-0.05207309499382973,0.1573118269443512,-0.027911687269806862
1769657884149954300,3.028954345703125,-0.05920290946960449,0.15529023110866547,-0.020994659513235092
1769657884159942100,3.038942138671875,-0.06273355334997177,0.14776703715324402,-0.01625809445977211
1769657884169930200,3.04893017578125,-0.053781602531671524,0.13721320033073425,-0.011757617816329002
1769657884179918300,3.05891845703125,-0.06440114974975586,0.13675570487976074,-0.010502893477678299
1769657884189906400,3.068906494140625,-0.08679833263158798,0.1061842292547226,-0.02008548006415367
1769657884199894300,3.078894287109375,-0.11476483941078186,0.040661487728357315,-0.027727466076612473
1769657884209882400,3.08888232421875,-0.14012692868709564,-0.02189057134091854,-0.03429402410984039
1769657884219870200,3.0988701171875,-0.1582794487476349,-0.08550982922315598,-0.03046649694442749
1769657884229858300,3.1088583984375,-0.1815301775932312,-0.14815589785575867,-0.022243188694119453
1769657884239846100,3.11884619140625,-0.21061919629573822,-0.19050781428813934,-0.008423828519880772
1769657884249834200,3.128834228515625,-0.24546213448047638,-0.21205490827560425,0.017703644931316376
1769657884259821300,3.1388212890625,-0.28363171219825745,-0.22743792831897736,0.05327887088060379
1769657884269809200,3.14880908203125,-0.31515419483184814,-0.23233281075954437,0.08172223716974258
1769657884279797200,3.15879736328125,-0.3364476263523102,-0.23513250052928925,0.11292935907840729
1769657884289785300,3.168785400390625,-0.3546852171421051,-0.20874084532260895,0.14196181297302246
1769657884299773200,3.178773193359375,-0.3635465204715729,-0.16066795587539673,0.1679852157831192
1769657884309761300,3.18876123046875,-0.36669808626174927,-0.11257339268922806,0.19141437113285065
1769657884319749400,3.198749267578125,-0.37166839838027954,-0.07470248639583588,0.21830765902996063
1769657884329737200,3.2087373046875,-0.36244720220565796,-0.02193860150873661,0.24627432227134705
1769657884339725300,3.218725341796875,-0.3388563394546509,0.047270867973566055,0.2605854570865631
1769657884349713400,3.22871337890625,-0.3105147182941437,0.08468534797430038,0.23600180447101593
1769657884359701500,3.238701416015625,-0.3158264458179474,0.1561027616262436,0.15983237326145172
1769657884369689300,3.248689453125,-0.2621546983718872,0.13772748410701752,0.1383286863565445
1769657884379677200,3.25867724609375,-0.21110285818576813,0.07377879321575165,0.1625853180885315
1769657884389665300,3.268665283203125,-0.1475483924150467,-0.035635579377412796,0.14982157945632935
1769657884399653000,3.278653076171875,-0.08657792210578918,-0.18338020145893097,0.117620550096035
1769657884409641200,3.28864111328125,-0.08405031263828278,-0.2412879765033722,0.035452183336019516
1769657884419628300,3.298628173828125,-0.07513134181499481,-0.22155801951885223,-0.08774103969335556
1769657884429616000,3.3086162109375,-0.11052901297807693,-0.2137586921453476,-0.18846818804740906
1769657884439604200,3.318604248046875,-0.16185317933559418,-0.2607734501361847,-0.256068617105484
1769657884449592300,3.32859228515625,-0.2039225995540619,-0.3133607506752014,-0.30144888162612915
1769657884459580200,3.338580078125,-0.20885641872882843,-0.34856972098350525,-0.2938913404941559
1769657884469568300,3.348568359375,-0.19962483644485474,-0.44065678119659424,-0.2883783280849457
1769657884479556400,3.358556396484375,-0.20949095487594604,-0.5312881469726562,-0.30154937505722046
1769657884489544400,3.36854443359375,-0.2339467704296112,-0.6039812564849854,-0.29770004749298096
1769657884499532300,3.3785322265625,-0.25493013858795166,-0.6740648746490479,-0.2577730715274811
1769657884509520400,3.388520263671875,-0.25706225633621216,-0.7115667462348938,-0.19533711671829224
1769657884519508500,3.398508544921875,-0.2614324390888214,-0.7082458734512329,-0.1400560736656189
1769657884529496300,3.408496337890625,-0.27787506580352783,-0.6982627511024475,-0.09917176514863968
1769657884539484200,3.418484130859375,-0.2755797803401947,-0.6548393964767456,-0.06182584539055824
1769657884549472300,3.42847216796875,-0.22598133981227875,-0.5591744184494019,-0.007433177437633276
1769657884559460400,3.43846044921875,-0.1580016314983368,-0.437392920255661,0.08872933685779572
1769657884569448200,3.4484482421875,-0.06626159697771072,-0.27777794003486633,0.20357123017311096
1769657884579435300,3.458435302734375,0.021769512444734573,-0.08730589598417282,0.3089677393436432
1769657884589423400,3.46842333984375,0.09235978871583939,0.0865444615483284,0.36962389945983887
1769657884599411200,3.4784111328125,0.1542675793170929,0.20576104521751404,0.3718036711215973
1769657884609399300,3.4883994140625,0.2215438336133957,0.29270151257514954,0.3229924440383911
1769657884619387400,3.498387451171875,0.29133784770965576,0.3688872754573822,0.2243582010269165
1769657884629375200,3.508375244140625,0.36411377787590027,0.39959031343460083,0.10360940545797348
1769657884639363300,3.51836328125,0.42444363236427307,0.4091419577598572,-0.00125452084466815
1769657884649351400,3.528351318359375,0.4421437978744507,0.3781169354915619,-0.06724738329648972
1769657884659339300,3.53833935546875,0.4168221354484558,0.2940313220024109,-0.09731007367372513
1769657884669327400,3.548327392578125,0.3717305362224579,0.20549212396144867,-0.0971129983663559
1769657884679315500,3.5583154296875,0.29933109879493713,0.1383274495601654,-0.08060045540332794
1769657884689303300,3.56830322265625,0.21812041103839874,0.04785426706075668,-0.06047547981142998
1769657884699291100,3.578291015625,0.12404866516590118,-0.07666310667991638,-0.043177735060453415
1769657884709279200,3.588279296875,0.023729514330625534,-0.2244432419538498,-0.034450825303792953
1769657884719267300,3.598267333984375,-0.07848043739795685,-0.3927319645881653,-0.012323495000600815
1769657884729255200,3.608255126953125,-0.1794171780347824,-0.5502195954322815,0.02302730455994606
1769657884739243300,3.6182431640625,-0.2683805823326111,-0.6627504825592041,0.06142042204737663
1769657884749230300,3.628230224609375,-0.3386251926422119,-0.7448118329048157,0.09526947140693665
1769657884759218200,3.63821826171875,-0.37267810106277466,-0.8144248127937317,0.11561364680528641
1769657884769206300,3.648206298828125,-0.37187835574150085,-0.8559001088142395,0.12055914103984833
1769657884779194400,3.6581943359375,-0.3413812518119812,-0.8672453761100769,0.09331592917442322
1769657884789182200,3.66818212890625,-0.29986390471458435,-0.8411967754364014,0.032512765377759933
1769657884799170300,3.67817041015625,-0.24854204058647156,-0.7867529988288879,-0.02890278398990631
1769657884809158400,3.688158447265625,-0.16470307111740112,-0.6507304310798645,-0.06566505879163742
1769657884819146500,3.698146484375,-0.1085258200764656,-0.591291069984436,0.08256247639656067
1769657884829134300,3.70813427734375,-0.08836142718791962,-0.4891335070133209,0.1550137847661972
1769657884839122200,3.7181220703125,-0.05179259553551674,-0.35285231471061707,0.16356010735034943
1769657884849110300,3.7281103515625,-0.017818119376897812,-0.2688828408718109,0.17336852848529816
1769657884859098000,3.73809814453125,0.01134942751377821,-0.25126174092292786,0.17887260019779205
1769657884869086200,3.748086181640625,0.03609605133533478,-0.281661719083786,0.1886053830385208
1769657884879074300,3.75807421875,0.05401291325688362,-0.3576851189136505,0.21585683524608612
1769657884889062400,3.7680625,0.06420961767435074,-0.43712854385375977,0.25380370020866394
1769657884899050200,3.77805029296875,0.08052890002727509,-0.5203125476837158,0.29482364654541016
1769657884909037300,3.788037353515625,0.08274571597576141,-0.5904750823974609,0.321920782327652
1769657884919025200,3.798025146484375,0.08019572496414185,-0.6202036142349243,0.32580670714378357
1769657884929013200,3.80801318359375,0.061339475214481354,-0.6199175715446472,0.3086860179901123
1769657884939001300,3.81800146484375,0.029316820204257965,-0.6016988754272461,0.2664884924888611
1769657884948989400,3.827989501953125,0.0019773412495851517,-0.5812250375747681,0.19323451817035675
1769657884958977300,3.837977294921875,-0.01779017224907875,-0.5619673728942871,0.11566472053527832
1769657884968965400,3.84796533203125,-0.030738195404410362,-0.5077230334281921,0.05066415295004845
1769657884978953500,3.857953369140625,-0.03178054839372635,-0.43282008171081543,0.009974794462323189
1769657884988941300,3.86794140625,-0.004086336120963097,-0.35248422622680664,-0.004885644186288118
1769657884998929200,3.87792919921875,0.04778898507356644,-0.29858630895614624,0.016052594408392906
1769657885008917200,3.887917236328125,0.10518276691436768,-0.2740729749202728,0.057386450469493866
1769657885018905300,3.8979052734375,0.17360155284404755,-0.2272949516773224,0.09054036438465118
1769657885028893200,3.90789306640625,0.231024369597435,-0.15641331672668457,0.10996599495410919
1769657885038881300,3.91788134765625,0.2839895486831665,-0.12249544262886047,0.09776320308446884
1769657885048869400,3.927869384765625,0.3157495856285095,-0.11157621443271637,0.05443064123392105
1769657885058857200,3.937857177734375,0.32648226618766785,-0.07310664653778076,-0.02555844746530056
1769657885068844300,3.94784423828125,0.319485068321228,-0.04951982945203781,-0.15288017690181732
1769657885078832400,3.957832275390625,0.31395721435546875,-0.0018089055083692074,-0.30717313289642334
1769657885088820200,3.9678203125,0.320629745721817,0.09914274513721466,-0.4473116099834442
1769657885098808300,3.977808349609375,0.3056667447090149,0.15261051058769226,-0.5248609781265259
1769657885108796400,3.98779638671875,0.2836866080760956,0.15176522731781006,-0.5085896253585815
1769657885118784300,3.9977841796875,0.26659059524536133,0.1691642850637436,-0.45752623677253723
1769657885128772400,4.0077724609375,0.23311573266983032,0.1964198648929596,-0.3996887803077698
1769657885138760400,4.017760498046875,0.19125214219093323,0.17575490474700928,-0.31240519881248474
1769657885148748300,4.027748291015625,0.12451226264238358,0.05492224171757698,-0.16946133971214294
1769657885158736100,4.037736083984375,0.041379399597644806,-0.1320570409297943,-0.03390081971883774
1769657885168724200,4.04772412109375,-0.04240977019071579,-0.2602520287036896,0.05188492313027382
1769657885178712300,4.05771240234375,-0.1004963219165802,-0.34592169523239136,0.08508298546075821
1769657885188700200,4.0677001953125,-0.12744031846523285,-0.39696037769317627,0.06088656932115555
1769657885198688300,4.077688232421875,-0.14300408959388733,-0.38660576939582825,-0.023948926478624344
1769657885208676600,4.087676513671875,-0.15138638019561768,-0.3300221264362335,-0.15715545415878296
1769657885218664700,4.097664794921875,-0.12556031346321106,-0.2204766720533371,-0.330861896276474
1769657885228652500,4.107652587890625,-0.08561902493238449,-0.13778391480445862,-0.5077349543571472
1769657885238639600,4.1176396484375,-0.031247109174728394,-0.09558268636465073,-0.639646589756012
1769657885248627700,4.127627685546875,0.013553651049733162,-0.061099544167518616,-0.6777039766311646
1769657885258615600,4.137615478515625,0.0468389056622982,-0.04375198110938072,-0.6146647930145264
1769657885268603600,4.147603759765625,0.06864406913518906,-0.002551814541220665,-0.4629959166049957
1769657885278591700,4.157591796875,0.1072152778506279,0.06190566346049309,-0.2738147974014282
1769657885288579600,4.16757958984375,0.09743135422468185,0.03225722536444664,-0.06766349822282791
1769657885298567400,4.1775673828125,0.06357940286397934,-0.04455083608627319,0.13308869302272797
1769657885308555500,4.187555419921875,0.05046547204256058,-0.05224497616291046,0.2551586627960205
1769657885318543400,4.19754345703125,0.017256243154406548,-0.09256479889154434,0.3308074176311493
1769657885328531500,4.207531494140625,0.0035665305331349373,-0.16606351733207703,0.35215240716934204
1769657885338519600,4.21751953125,0.000672347960062325,-0.22368170320987701,0.3360165059566498
1769657885348507600,4.227507568359375,-0.017555125057697296,-0.21649383008480072,0.3119865357875824
1769657885358495500,4.23749560546875,-0.03565879911184311,-0.21125900745391846,0.2724243104457855
1769657885368483600,4.247483642578125,-0.04125702753663063,-0.2185499370098114,0.1927475780248642
1769657885378471700,4.2574716796875,-0.033510636538267136,-0.22440265119075775,0.06592060625553131
1769657885388459500,4.26745947265625,-0.024302486330270767,-0.14192934334278107,-0.08808094263076782
1769657885398447600,4.277447509765625,-0.03899417817592621,-0.11426098644733429,-0.18350747227668762
1769657885408434700,4.2874345703125,-0.06084621325135231,-0.13878150284290314,-0.2396050989627838
1769657885418422500,4.297422607421875,-0.10776122659444809,-0.116279236972332,-0.25844329595565796
1769657885428410600,4.30741064453125,-0.16672733426094055,-0.08161579817533493,-0.21170109510421753
1769657885438398700,4.317398681640625,-0.21778737008571625,-0.12436342239379883,-0.14464369416236877
1769657885448386600,4.327386474609375,-0.24766802787780762,-0.26369521021842957,-0.08852983266115189
1769657885458374400,4.33737451171875,-0.2504621148109436,-0.41759049892425537,-0.03621003031730652
1769657885468362500,4.347362548828125,-0.22599700093269348,-0.4712422788143158,-0.01900254748761654
1769657885478350600,4.3573505859375,-0.18324172496795654,-0.3607860803604126,-0.054110217839479446
1769657885488338400,4.36733837890625,-0.15042705833911896,-0.21091696619987488,-0.056451935321092606
1769657885498326500,4.377326416015625,-0.14407406747341156,-0.04289042577147484,0.035128600895404816
1769657885508314600,4.387314697265625,-0.1253643035888672,0.06251349300146103,0.19996042549610138
1769657885518302500,4.397302490234375,-0.09094506502151489,0.11951711028814316,0.33084896206855774
1769657885528290600,4.40729052734375,-0.08751038461923599,0.20573802292346954,0.4215801954269409
1769657885538278700,4.417278564453125,-0.09394378215074539,0.06797562539577484,0.539405107498169
1769657885548266800,4.427266845703125,-0.11362214386463165,-0.14067240059375763,0.603890061378479
1769657885558254600,4.437254638671875,-0.09435329586267471,-0.24956874549388885,0.6193085312843323
1769657885568241700,4.44724169921875,-0.0641794204711914,-0.08348044753074646,0.5010240077972412
1769657885578229800,4.457229736328125,-0.05543273314833641,0.22734671831130981,0.3753966689109802
1769657885588217600,4.467217529296875,-0.07764109969139099,0.43651407957077026,0.357261061668396
1769657885598205400,4.477205322265625,-0.09239572286605835,0.4773201048374176,0.3982057273387909
1769657885608193500,4.487193603515625,-0.08576925098896027,0.35169267654418945,0.43249577283859253
1769657885618181400,4.497181396484375,-0.06300448626279831,0.1530853658914566,0.4094099700450897
1769657885628169500,4.50716943359375,-0.0636492371559143,-0.041580259799957275,0.3223906457424164
1769657885638157600,4.517157470703125,-0.06546761095523834,-0.1348048448562622,0.2671363651752472
1769657885648145400,4.5271455078125,-0.06771451979875565,-0.15513008832931519,0.236593097448349
1769657885658133500,4.537133544921875,-0.07832880318164825,-0.062238000333309174,0.2522924542427063
1769657885668121600,4.54712158203125,-0.07142109423875809,0.03570294752717018,0.308839350938797
1769657885678109700,4.557109619140625,-0.04926979914307594,0.03351965919137001,0.3877527117729187
1769657885688097500,4.56709765625,-0.023891206830739975,-0.05936127528548241,0.46869122982025146
1769657885698085600,4.577085693359375,0.0007009480614215136,-0.14196133613586426,0.5226577520370483
1769657885708073700,4.58707373046875,0.011450797319412231,-0.12608835101127625,0.5467010736465454
1769657885718061600,4.5970615234375,0.01595277339220047,-0.08154108375310898,0.5594852566719055
1769657885728049400,4.60704931640625,0.014378846623003483,-0.04715781658887863,0.606971025466919
1769657885738037500,4.61703759765625,0.03792615607380867,-0.011483706533908844,0.6763012409210205
1769657885748024600,4.627024658203125,0.08759890496730804,0.03095296584069729,0.6924237012863159
1769657885758012400,4.637012451171875,0.14186450839042664,0.020104408264160156,0.6532484889030457
1769657885768000500,4.64700048828125,0.20907443761825562,-0.03553515300154686,0.5598135590553284
1769657885777988400,4.65698828125,0.24895255267620087,-0.04948945343494415,0.44249236583709717
1769657885787976400,4.6669765625,0.23716621100902557,0.023261981084942818,0.3484649360179901
1769657885797964500,4.676964599609375,0.1959618330001831,0.07896050810813904,0.2546928822994232
1769657885807952600,4.68695263671875,0.1464262455701828,0.03089630976319313,0.15493938326835632
1769657885817940500,4.6969404296875,0.15830230712890625,0.059074822813272476,0.08846958726644516
1769657885827928600,4.706928466796875,0.15312299132347107,0.039996735751628876,0.03445801883935928
1769657885837916700,4.716916748046875,0.06887258589267731,-0.029797635972499847,-0.05042685940861702
1769657885847904500,4.726904541015625,-0.05752849206328392,-0.06152760237455368,-0.17086724936962128
1769657885857892600,4.736892578125,-0.13029251992702484,-0.06949476152658463,-0.31119170784950256
1769657885867880700,4.746880615234375,-0.1971309334039688,-0.19373175501823425,-0.43661752343177795
1769657885877868500,4.75686865234375,-0.21090878546237946,-0.24815906584262848,-0.5047579407691956
1769657885887856400,4.7668564453125,-0.19729231297969818,-0.25663137435913086,-0.4616544246673584
1769657885897844500,4.776844482421875,-0.19062769412994385,-0.46178287267684937,-0.3963416814804077
1769657885907832600,4.78683251953125,-0.12926340103149414,-0.5780689716339111,-0.27938124537467957
1769657885917819400,4.7968193359375,-0.07247592508792877,-0.4852745831012726,-0.10904422402381897
1769657885927807500,4.806807373046875,-0.040668729692697525,-0.2988501191139221,0.08008335530757904
1769657885937795600,4.816795654296875,0.01463192980736494,-0.1556195765733719,0.19437465071678162
1769657885947783400,4.826783447265625,0.10214153677225113,0.0006153015419840813,0.19821040332317352
1769657885957771500,4.836771484375,0.172838494181633,0.17798195779323578,0.11743523925542831
1769657885967759600,4.846759521484375,0.22295518219470978,0.37083500623703003,-0.006658480037003756
1769657885977747500,4.85674755859375,0.2751365900039673,0.5555359721183777,-0.11426740139722824
1769657885987735600,4.866735595703125,0.2951526641845703,0.6292557716369629,-0.1993894875049591
1769657885997723600,4.8767236328125,0.29876646399497986,0.5255040526390076,-0.23498223721981049
1769657886007711700,4.886711669921875,0.26793986558914185,0.3430492877960205,-0.2248808741569519
1769657886017699600,4.896699462890625,0.17977528274059296,0.16947346925735474,-0.18616290390491486
1769657886027687400,4.9066875,0.08490949124097824,-0.021498076617717743,-0.15515971183776855
1769657886037675500,4.916675537109375,0.017880747094750404,-0.2184486836194992,-0.1472819298505783
1769657886047663400,4.926663330078125,-0.03715347498655319,-0.42715367674827576,-0.11541029065847397
1769657886057651500,4.9366513671875,-0.1431891918182373,-0.5978428721427917,-0.09154586493968964
1769657886067639600,4.9466396484375,-0.25932085514068604,-0.7361501455307007,-0.036006711423397064
1769657886077626400,4.95662646484375,-0.33349841833114624,-0.8605179786682129,-0.027234751731157303
1769657886087614500,4.966614501953125,-0.3397102355957031,-0.9842785000801086,-0.07530108094215393
1769657886097602600,4.9766025390625,-0.27568110823631287,-1.0511366128921509,-0.14621266722679138
1769657886107590400,4.98659033203125,-0.1726314127445221,-0.9699330925941467,-0.21024145185947418
1769657886117578500,4.99657861328125,-0.07820449769496918,-0.7566224336624146,-0.26551082730293274
1769657886127566600,5.006566650390625,-0.013287018053233624,-0.5017762780189514,-0.2939424514770508
1769657886137554700,5.0165546875,0.030609814450144768,-0.29283836483955383,-0.28544771671295166
1769657886147542500,5.02654248046875,0.0505899153649807,-0.1727132946252823,-0.2676178514957428
1769657886157530600,5.036530517578125,0.06553475558757782,-0.1407901644706726,-0.26010391116142273
1769657886167518700,5.046518798828125,0.07648354023694992,-0.12721788883209229,-0.2558756172657013
1769657886177506600,5.056506591796875,0.08344688266515732,-0.13768407702445984,-0.22323091328144073
1769657886187494400,5.066494384765625,0.10496389120817184,-0.15261241793632507,-0.15877309441566467
1769657886197482500,5.076482421875,0.12693901360034943,-0.14434528350830078,-0.08575355261564255
1769657886207471000,5.08647119140625,0.14631377160549164,-0.11855816096067429,-0.02336287871003151
1769657886217459000,5.096458984375,0.17558951675891876,-0.10695809125900269,0.03322646766901016
1769657886227447000,5.106447021484375,0.19934624433517456,-0.11586050689220428,0.08392853289842606
1769657886237435100,5.11643505859375,0.21938884258270264,-0.11518727988004684,0.10680841654539108
1769657886247423000,5.126423095703125,0.22340941429138184,-0.10518231987953186,0.08172836154699326
1769657886257410000,5.13641015625,0.21399401128292084,-0.11000010371208191,0.020890887826681137
1769657886267398100,5.146398193359375,0.17869727313518524,-0.14093990623950958,-0.08765822649002075
1769657886277386000,5.156385986328125,0.1410733312368393,-0.16335821151733398,-0.2270941138267517
1769657886287374000,5.1663740234375,0.1391979306936264,-0.1684427261352539,-0.33659955859184265
1769657886297362200,5.176362060546875,0.15039357542991638,-0.16590923070907593,-0.355997234582901
1769657886307350300,5.186350341796875,0.1523725688457489,-0.1575932502746582,-0.3130146265029907
1769657886317338000,5.196338134765625,0.17086070775985718,-0.1519189178943634,-0.22730275988578796
1769657886327326000,5.206325927734375,0.21218790113925934,-0.13519959151744843,-0.1262112855911255
1769657886337314000,5.21631396484375,0.25109121203422546,-0.0990121141076088,-0.03546587750315666
1769657886347302000,5.226302001953125,0.2814914584159851,-0.0733187347650528,0.029989030212163925
1769657886357290000,5.2362900390625,0.3053678870201111,-0.06431359797716141,0.07056178897619247
1769657886367278000,5.246278076171875,0.32388511300086975,-0.07455238699913025,0.08832959830760956
1769657886377266200,5.25626611328125,0.32090991735458374,-0.10468282550573349,0.07065858691930771
1769657886387254000,5.26625390625,0.30880025029182434,-0.14212366938591003,0.03871050477027893
1769657886397242000,5.2762421875,0.29315850138664246,-0.1416141390800476,-0.0017028870061039925
1769657886407230200,5.286230224609375,0.3214910924434662,-0.06009158492088318,-0.11749127507209778
1769657886417218000,5.296218017578125,0.31406620144844055,0.04734659567475319,-0.337166428565979
1769657886427206100,5.3062060546875,0.25381433963775635,0.10516542196273804,-0.6081507802009583
1769657886437193200,5.316193115234375,0.1414274126291275,0.09666653722524643,-0.8750119805335999
1769657886447181000,5.32618115234375,0.05280698835849762,0.27077123522758484,-0.9967042803764343
1769657886457169200,5.336169189453125,0.014037547633051872,0.560977041721344,-0.8723189830780029
1769657886467157200,5.3461572265625,-0.019174201413989067,0.7184708118438721,-0.4578949213027954
1769657886477144800,5.356144775390625,-0.03142453357577324,0.4785936772823334,0.14574570953845978
1769657886487133000,5.3661328125,-0.04101218283176422,-0.15914714336395264,0.6450588703155518
1769657886497121000,5.37612109375,-0.025172557681798935,-0.7002094388008118,0.9304622411727905
1769657886507109000,5.386109130859375,-0.027753960341215134,-0.8213816285133362,1.0314733982086182
1769657886517097000,5.396096923828125,-0.04222959280014038,-0.7011837959289551,0.9386482834815979
1769657886527085000,5.4060849609375,-0.05814863741397858,-0.5072076320648193,0.6638447046279907
1769657886537073200,5.4160732421875,-0.07388974726200104,-0.3133171498775482,0.36458542943000793
1769657886547061000,5.42606103515625,-0.1074351891875267,-0.1277608424425125,0.08851338177919388
1769657886557049000,5.436049072265625,-0.13209863007068634,-0.022451462224125862,-0.18957561254501343
1769657886567037200,5.446037109375,-0.12214986979961395,0.010967746376991272,-0.4215904772281647
1769657886577025000,5.45602490234375,-0.08585191518068314,-0.1041373610496521,-0.5475078821182251
1769657886587013000,5.46601318359375,-0.050778355449438095,-0.307678759098053,-0.5774351358413696
1769657886597001000,5.4760009765625,-0.06183028966188431,-0.5034637451171875,-0.5359288454055786
1769657886606988000,5.485988037109375,-0.11350307613611221,-0.6677994132041931,-0.4679178297519684
1769657886616976100,5.49597607421875,-0.17477653920650482,-0.7623206377029419,-0.4085931181907654
1769657886626964000,5.5059638671875,-0.211504727602005,-0.771426260471344,-0.34762537479400635
1769657886636952000,5.5159521484375,-0.228824645280838,-0.7338480949401855,-0.26757773756980896
1769657886646940000,5.52593994140625,-0.24429601430892944,-0.6449679732322693,-0.17355802655220032
1769657886656928000,5.535927978515625,-0.25828251242637634,-0.5469945073127747,-0.07561445981264114
1769657886666916000,5.545916015625,-0.2581155300140381,-0.46255818009376526,-0.012905534356832504
1769657886676904000,5.555904052734375,-0.24583107233047485,-0.38773274421691895,0.017969833686947823
1769657886686892000,5.56589208984375,-0.22263146936893463,-0.3328934609889984,0.013429943472146988
1769657886696880000,5.575880126953125,-0.2020672708749771,-0.25679197907447815,-0.010920561850070953
1769657886706868000,5.585867919921875,-0.1854850947856903,-0.181069016456604,-0.02112899161875248
1769657886716856000,5.59585595703125,-0.18256708979606628,-0.12762834131717682,-0.01776556856930256
1769657886726844200,5.60584423828125,-0.20884183049201965,-0.13262656331062317,-0.0038755855057388544
1769657886736832300,5.615832275390625,-0.24412542581558228,-0.24069370329380035,-0.014019021764397621
1769657886746820000,5.625820068359375,-0.26622194051742554,-0.42060407996177673,-0.04323762655258179
1769657886756808000,5.635807861328125,-0.2753608226776123,-0.5448538661003113,-0.08686874806880951
1769657886766796000,5.645796142578125,-0.29022499918937683,-0.5458919405937195,-0.12691150605678558
1769657886776784000,5.655783935546875,-0.3062175512313843,-0.4994616210460663,-0.1521259844303131
1769657886786771000,5.66577099609375,-0.31890591979026794,-0.4746209979057312,-0.160779669880867
1769657886796759000,5.675759033203125,-0.3168473243713379,-0.44621801376342773,-0.15180420875549316
1769657886806747000,5.685746826171875,-0.2990267872810364,-0.38757359981536865,-0.13833262026309967
1769657886816735000,5.69573486328125,-0.2700084149837494,-0.25837016105651855,-0.12168474495410919
1769657886826723000,5.70572314453125,-0.2536664605140686,-0.1659686118364334,-0.09934881329536438
1769657886836711200,5.715711181640625,-0.2434474676847458,-0.10250815749168396,-0.0723050981760025
1769657886846699000,5.725698974609375,-0.22840939462184906,-0.0754600241780281,-0.04587428271770477
1769657886856687000,5.73568701171875,-0.21747149527072906,-0.06287108361721039,-0.03914351388812065
1769657886866675200,5.74567529296875,-0.20578128099441528,-0.037814199924468994,-0.04744671657681465
1769657886876663000,5.7556630859375,-0.20526280999183655,-0.018180422484874725,-0.0568663515150547
1769657886886651100,5.765651123046875,-0.2143186330795288,-0.012210680171847343,-0.06024537235498428
1769657886896639200,5.77563916015625,-0.22432063519954681,-0.04089169576764107,-0.04715868830680847
1769657886906626800,5.785626708984375,-0.2364012598991394,-0.07675115764141083,-0.027488313615322113
1769657886916615000,5.795614990234375,-0.24241037666797638,-0.09059730917215347,0.005778215825557709
1769657886926603000,5.80560302734375,-0.24388550221920013,-0.08047916740179062,0.04834964498877525
1769657886936591000,5.815591064453125,-0.2415933907032013,-0.04730021208524704,0.10006173700094223
1769657886946579000,5.825578857421875,-0.23244702816009521,-0.002607842441648245,0.15022103488445282
1769657886956567000,5.835567138671875,-0.21764537692070007,0.016869492828845978,0.19376543164253235
1769657886966554000,5.84555419921875,-0.20143364369869232,0.030260667204856873,0.2209957242012024
1769657886976542000,5.8555419921875,-0.1825786828994751,0.04721315950155258,0.2342640608549118
1769657886986530000,5.865530029296875,-0.16999977827072144,0.06265763193368912,0.2488613724708557
1769657886996518100,5.87551806640625,-0.16332751512527466,0.07520036399364471,0.25470563769340515
1769657887006506000,5.885506103515625,-0.19041134417057037,0.0638451799750328,0.2717019319534302
1769657887016494000,5.895494140625,-0.2260371595621109,0.04238918051123619,0.3132566809654236
1769657887026482200,5.905482177734375,-0.2309405654668808,0.034779999405145645,0.38799405097961426
1769657887036470000,5.915469970703125,-0.18522900342941284,0.03222788870334625,0.4636504650115967
1769657887046458000,5.9254580078125,-0.12300878018140793,0.03708682954311371,0.497702956199646
1769657887056446000,5.935446044921875,-0.07998263090848923,0.06614154577255249,0.5006668567657471
1769657887066434000,5.94543408203125,-0.08071286976337433,0.17722412943840027,0.5016365051269531
1769657887076422000,5.955421875,-0.09484774619340897,0.28573668003082275,0.46785619854927063
1769657887086410000,5.965409912109375,-0.06381525844335556,0.33356228470802307,0.39560091495513916
1769657887096398000,5.975398193359375,0.006618833169341087,0.39077240228652954,0.3269786536693573
1769657887106386000,5.985385986328125,0.080262690782547,0.48312070965766907,0.3084084391593933
1769657887116374000,5.9953740234375,0.13958832621574402,0.5472185015678406,0.30945396423339844
1769657887126362000,6.005362060546875,0.15982913970947266,0.44220709800720215,0.2657608091831207
1769657887136350200,6.01535009765625,0.15312716364860535,0.3484506607055664,0.15853962302207947
1769657887146337000,6.0253369140625,0.15659965574741364,0.39606931805610657,0.02389312908053398
1769657887156325000,6.0353251953125,0.1467665582895279,0.40871164202690125,-0.11033991724252701
1769657887166313000,6.04531298828125,0.1013663113117218,0.3364845812320709,-0.24170486629009247
1769657887176301000,6.055301025390625,0.03586724400520325,0.1978008896112442,-0.34630751609802246
1769657887186289200,6.0652890625,0.007348515093326569,0.17845596373081207,-0.42061156034469604
1769657887196277200,6.07527734375,-0.020161863416433334,0.1761411726474762,-0.4643876850605011
1769657887206265000,6.08526513671875,-0.09113910794258118,0.06270089745521545,-0.48548898100852966
1769657887216253200,6.095253173828125,-0.08726516366004944,-0.025353379547595978,-0.44098034501075745
1769657887226241300,6.1052412109375,-0.055170077830553055,-0.10497870296239853,-0.29254186153411865
1769657887236229000,6.11522900390625,-0.04239252582192421,-0.10760235041379929,-0.09399408102035522
1769657887246217200,6.12521728515625,-0.042781081050634384,0.06200611963868141,0.06896261870861053
1769657887256205300,6.135205322265625,-0.01886921003460884,0.258797824382782,0.19064266979694366
1769657887266193200,6.145193115234375,0.041715044528245926,0.40277230739593506,0.2435210645198822
1769657887276181200,6.15518115234375,0.122487373650074,0.5626760125160217,0.21030662953853607
1769657887286169300,6.16516943359375,0.18730579316616058,0.7728664875030518,0.12540878355503082
1769657887296157400,6.175157470703125,0.235391303896904,0.9569295048713684,0.02530565857887268
1769657887306145300,6.185145263671875,0.28953737020492554,1.064990520477295,-0.05856740474700928
1769657887316132400,6.19513232421875,0.3627142906188965,1.0744454860687256,-0.09465973824262619
1769657887326120400,6.205120361328125,0.4128163456916809,0.9553446173667908,-0.09559344500303268
1769657887336108300,6.2151083984375,0.4159395694732666,0.6502007842063904,-0.08014769107103348
1769657887346096400,6.225096435546875,0.39998191595077515,0.4325414299964905,-0.045095428824424744
1769657887356084200,6.235084228515625,0.36781683564186096,0.36717909574508667,0.0009835519595071673
1769657887366072000,6.245072021484375,0.2833828926086426,0.2922308146953583,0.037398017942905426
1769657887376060200,6.25506005859375,0.18115976452827454,0.1488633155822754,0.047034669667482376
1769657887386048300,6.26504833984375,0.0909944549202919,0.012838900089263916,0.049792904406785965
1769657887396036000,6.2750361328125,0.02010471560060978,-0.04445945844054222,0.03859186917543411
1769657887406024200,6.285024169921875,-0.07108111679553986,-0.12643662095069885,0.00029055378399789333
1769657887416012300,6.29501220703125,-0.15522058308124542,-0.34451916813850403,-0.0515059232711792
1769657887426000400,6.30500048828125,-0.1670178472995758,-0.5428439974784851,-0.1282867193222046
1769657887435988200,6.31498828125,-0.14907675981521606,-0.6903868317604065,-0.22218993306159973
1769657887445976300,6.324976318359375,-0.11336056888103485,-0.7959268093109131,-0.2872389554977417
1769657887455964400,6.33496435546875,-0.07462532818317413,-0.7882223725318909,-0.3454238176345825
1769657887465952300,6.3449521484375,-0.03857491537928581,-0.624358057975769,-0.3632872402667999
1769657887475940400,6.3549404296875,-0.0015764692798256874,-0.4078980088233948,-0.3285590410232544
1769657887485928200,6.36492822265625,0.037817008793354034,-0.24663829803466797,-0.25725290179252625
1769657887495916300,6.374916259765625,0.09488935023546219,-0.11486643552780151,-0.17090706527233124
1769657887505903400,6.3849033203125,0.16122443974018097,0.014098474755883217,-0.08628726005554199
1769657887515891200,6.39489111328125,0.19776327908039093,0.11033578217029572,-0.00506589375436306
1769657887525879000,6.404879150390625,0.23022428154945374,0.09335707128047943,0.059772491455078125
1769657887535867100,6.4148671875,0.2638643682003021,0.012675780802965164,0.11052938550710678
1769657887545855200,6.424855224609375,0.27281099557876587,-0.04317949339747429,0.1602037250995636
1769657887555843300,6.43484326171875,0.2711631953716278,-0.07018336653709412,0.20293867588043213
1769657887565831200,6.4448310546875,0.2761811316013336,-0.05750751867890358,0.22256004810333252
1769657887575819300,6.4548193359375,0.28857243061065674,-0.03491881117224693,0.20957553386688232
1769657887585807400,6.464807373046875,0.3033953011035919,-0.05685766413807869,0.17149099707603455
1769657887595795200,6.474795166015625,0.3102976381778717,-0.07591906934976578,0.10353726148605347
1769657887605783300,6.484783203125,0.3183009624481201,-0.07313766330480576,0.014826295897364616
1769657887615771400,6.494771484375,0.3319888710975647,-0.0675526112318039,-0.058491382747888565
1769657887625759500,6.504759521484375,0.3552025854587555,-0.07594263553619385,-0.08307475596666336
1769657887635747000,6.5147470703125,0.37769269943237305,-0.07714083045721054,-0.060473259538412094
1769657887645735200,6.524735107421875,0.400326132774353,-0.07774217426776886,-0.0010078013874590397
1769657887655723300,6.53472314453125,0.4235057830810547,-0.08010741323232651,0.05012717843055725
1769657887665711000,6.544711181640625,0.46124330163002014,-0.09943956881761551,0.07514011859893799
1769657887675699200,6.55469921875,0.4863744378089905,-0.11326468735933304,0.08654514700174332
1769657887685686300,6.564686279296875,0.49617353081703186,-0.15743879973888397,0.07722195237874985
1769657887695674000,6.574674072265625,0.4787684381008148,-0.24900299310684204,0.047959521412849426
1769657887705662200,6.584662109375,0.4298669397830963,-0.3132874369621277,0.003450111486017704
1769657887715650300,6.594650390625,0.3858622610569,-0.26843178272247314,-0.03732195869088173
1769657887725638100,6.60463818359375,0.3620123267173767,-0.1528007984161377,-0.11411633342504501
1769657887735626200,6.614626220703125,0.32213294506073,-0.010690607130527496,-0.21869438886642456
1769657887745614300,6.6246142578125,0.27153393626213074,0.19739201664924622,-0.31584224104881287
1769657887755602400,6.6346025390625,0.24144479632377625,0.44036296010017395,-0.3492898941040039
1769657887765590300,6.64459033203125,0.20259566605091095,0.6519162058830261,-0.32615286111831665
1769657887775578400,6.654578369140625,0.12110991030931473,0.6640039086341858,-0.2706233561038971
1769657887785566200,6.664566162109375,0.013365337625145912,0.4082179367542267,-0.1910206824541092
1769657887795554000,6.674553955078125,-0.041767727583646774,0.0010313750244677067,-0.057149894535541534
1769657887805542100,6.684542236328125,-0.05447712913155556,-0.34430843591690063,0.093636155128479
1769657887815530200,6.6945302734375,-0.06388720124959946,-0.5732927322387695,0.23217026889324188
1769657887825518300,6.704518310546875,-0.10784880816936493,-0.7018669247627258,0.3496097922325134
1769657887835506200,6.714506103515625,-0.11466344445943832,-0.7539222240447998,0.431363046169281
1769657887845494300,6.724494384765625,-0.09138049185276031,-0.7078649401664734,0.4210294485092163
1769657887855482400,6.734482421875,-0.08025660365819931,-0.5574402213096619,0.2804567813873291
1769657887865470200,6.74447021484375,-0.08197620511054993,-0.3423912823200226,0.09150499105453491
1769657887875457300,6.754457275390625,-0.08167991042137146,-0.18938301503658295,-0.08082153648138046
1769657887885445400,6.7644453125,-0.059270475059747696,-0.09384851157665253,-0.23330454528331757
1769657887895433200,6.77443310546875,-0.03855466470122337,-0.03293098509311676,-0.3800019323825836
1769657887905421300,6.78442138671875,-0.0030334233306348324,-0.0191563181579113,-0.5560698509216309
1769657887915409400,6.794409423828125,0.012551208026707172,-0.0810537040233612,-0.7099962830543518
1769657887925397200,6.804397216796875,0.0053372373804450035,-0.26183921098709106,-0.7845174074172974
1769657887935385300,6.81438525390625,-0.046748775988817215,-0.5136538743972778,-0.7784268260002136
1769657887945373200,6.824373291015625,-0.13743126392364502,-0.6299362778663635,-0.6522156000137329
1769657887955361300,6.834361328125,-0.23406267166137695,-0.6099058389663696,-0.4212115705013275
1769657887965349000,6.84434912109375,-0.29197949171066284,-0.567378580570221,-0.13787201046943665
1769657887975337200,6.854337158203125,-0.30537092685699463,-0.5212766528129578,0.12349037826061249
1769657887985325300,6.8643251953125,-0.3048079311847687,-0.45929235219955444,0.2825460731983185
1769657887995313200,6.874313232421875,-0.3126390278339386,-0.4388497471809387,0.34496498107910156
1769657888005301200,6.88430126953125,-0.31585612893104553,-0.41256967186927795,0.3339938223361969
1769657888015289300,6.894289306640625,-0.32408371567726135,-0.38211318850517273,0.27302756905555725
1769657888025277400,6.90427734375,-0.34276074171066284,-0.32683420181274414,0.20365487039089203
1769657888035265300,6.914265380859375,-0.3581516444683075,-0.25190919637680054,0.12413597851991653
1769657888045253400,6.92425341796875,-0.36800506711006165,-0.1882769614458084,0.06274212896823883
1769657888055240200,6.934240234375,-0.3521934449672699,-0.2149450182914734,0.01656903140246868
1769657888065228300,6.944228271484375,-0.3032277822494507,-0.2687813639640808,-0.03265497460961342
1769657888075216400,6.95421630859375,-0.24640175700187683,-0.2708187401294708,-0.07262328267097473
1769657888085204500,6.96420458984375,-0.207053542137146,-0.2109527438879013,-0.08556225150823593
1769657888095192300,6.9741923828125,-0.1777912974357605,-0.1282694935798645,-0.08347929269075394
1769657888105180200,6.98418017578125,-0.14745549857616425,-0.052881523966789246,-0.06638579070568085
1769657888115168300,6.994168212890625,-0.12888559699058533,0.010779951699078083,-0.044274456799030304
1769657888125156000,7.004156005859375,-0.12059545516967773,0.04878219589591026,-0.0223529115319252
1769657888135144200,7.014144287109375,-0.12637299299240112,0.07310749590396881,-0.01604403182864189
1769657888145132300,7.02413232421875,-0.13222874701023102,0.09258639067411423,-0.0019393963739275932
1769657888155120400,7.034120361328125,-0.14111129939556122,0.10117349028587341,0.019970539957284927
1769657888165108200,7.044108154296875,-0.15235090255737305,0.10167070478200912,0.05271090939640999
1769657888175096300,7.054096435546875,-0.13674570620059967,0.11912041902542114,0.09912241995334625
1769657888185084400,7.06408447265625,-0.1152164489030838,0.13480085134506226,0.14155510067939758
1769657888195072300,7.074072265625,-0.11015445739030838,0.14052653312683105,0.1705830991268158
1769657888205059600,7.0840595703125,-0.11799027770757675,0.17511619627475739,0.17514349520206451
1769657888215047700,7.094047607421875,-0.14054256677627563,0.22324493527412415,0.1670950949192047
1769657888225035500,7.104035400390625,-0.15760304033756256,0.23910805583000183,0.16697819530963898
1769657888235023600,7.114023681640625,-0.17743650078773499,0.21261519193649292,0.17761044204235077
1769657888245010700,7.1240107421875,-0.19315794110298157,0.16631348431110382,0.20247292518615723
1769657888254998500,7.13399853515625,-0.20237208902835846,0.12979188561439514,0.2392946183681488
1769657888264986600,7.143986572265625,-0.2031438797712326,0.12102342396974564,0.2758912146091461
1769657888274974500,7.153974365234375,-0.2044740617275238,0.1335645467042923,0.3159141540527344
1769657888284962300,7.16396240234375,-0.20593559741973877,0.13935132324695587,0.3477059006690979
1769657888294950400,7.173950439453125,-0.19978687167167664,0.16399963200092316,0.36371874809265137
1769657888304938500,7.1839384765625,-0.19967608153820038,0.2016253024339676,0.3630358874797821
1769657888314926600,7.193926513671875,-0.1961742490530014,0.2494707703590393,0.3532199263572693
1769657888324914400,7.20391455078125,-0.1860118955373764,0.28888794779777527,0.34009799361228943
1769657888334902500,7.213902587890625,-0.16728906333446503,0.32285094261169434,0.32172247767448425
1769657888344890600,7.223890625,-0.13552874326705933,0.33772018551826477,0.29952317476272583
1769657888354878500,7.23387841796875,-0.09821415692567825,0.3131301999092102,0.29379624128341675
1769657888364866600,7.243866455078125,-0.08078483492136002,0.26821333169937134,0.30680975317955017
1769657888374854700,7.253854736328125,-0.08528819680213928,0.27174827456474304,0.3150399327278137
1769657888384842500,7.263842529296875,-0.07573916018009186,0.30414003133773804,0.31614673137664795
1769657888394830600,7.27383056640625,-0.05054996535181999,0.35765719413757324,0.3204747140407562
1769657888404818400,7.283818359375,-0.02488880790770054,0.4011676609516144,0.34413397312164307
1769657888414806500,7.293806640625,0.01714225299656391,0.4517478048801422,0.3422374427318573
1769657888424794400,7.30379443359375,0.07725805789232254,0.491995632648468,0.31463590264320374
1769657888434781400,7.313781494140625,0.13324791193008423,0.5479435324668884,0.24555665254592896
1769657888444769500,7.32376953125,0.170270636677742,0.6162301898002625,0.10605628788471222
1769657888454757400,7.33375732421875,0.18400922417640686,0.6731559038162231,-0.07359300553798676
1769657888464745500,7.343745361328125,0.17154216766357422,0.6681505441665649,-0.2269412875175476
1769657888474733600,7.353733642578125,0.12723612785339355,0.5863323211669922,-0.33845651149749756
1769657888484721400,7.363721435546875,0.05869622156023979,0.5623987913131714,-0.41679686307907104
1769657888494709500,7.37370947265625,-0.036627523601055145,0.5252068638801575,-0.4976852536201477
1769657888504697600,7.383697509765625,-0.11972533911466599,0.378302663564682,-0.5593057870864868
1769657888514685400,7.393685546875,-0.18248867988586426,0.16569508612155914,-0.5674968361854553
1769657888524673500,7.403673583984375,-0.20716314017772675,0.01892589032649994,-0.4723391830921173
1769657888534661600,7.41366162109375,-0.274187296628952,-0.10003692656755447,-0.23297695815563202
1769657888544649700,7.423649658203125,-0.28278636932373047,-0.10028406977653503,0.1786303073167801
1769657888554637300,7.43363720703125,-0.20517444610595703,0.16260099411010742,0.5788317918777466
1769657888564625400,7.44362548828125,-0.09875986725091934,0.5409900546073914,0.8643114566802979
1769657888574613500,7.453613525390625,0.00018487137276679277,0.8942273855209351,0.9749700427055359
1769657888584601300,7.463601318359375,0.08361637592315674,1.188568115234375,0.9113516211509705
1769657888594589400,7.47358935546875,0.12407709658145905,1.320896029472351,0.729055643081665
1769657888604577500,7.48357763671875,0.15407973527908325,1.2888438701629639,0.480330228805542
1769657888614564400,7.493564453125,0.20217841863632202,1.190694808959961,0.1823596954345703
1769657888624552400,7.503552490234375,0.24633470177650452,1.0992319583892822,-0.06850448995828629
1769657888634540500,7.51354052734375,0.29767540097236633,0.9789646863937378,-0.1974429488182068
1769657888644528600,7.523528564453125,0.3189314305782318,0.8038104176521301,-0.21133878827095032
1769657888654516500,7.5335166015625,0.30941444635391235,0.6327622532844543,-0.14599427580833435
1769657888664504600,7.543504638671875,0.30982404947280884,0.48857125639915466,-0.058077480643987656
1769657888674492700,7.55349267578125,0.2642212212085724,0.37636426091194153,0.014638809487223625
1769657888684480500,7.56348046875,0.14242741465568542,0.21935226023197174,0.04998641088604927
1769657888694468600,7.573468505859375,0.011558892205357552,0.04329437389969826,0.03870690241456032
1769657888704456400,7.58345654296875,-0.07384601980447769,-0.04496145248413086,0.03113819845020771
1769657888714444300,7.5934443359375,-0.08834979683160782,-0.11790697276592255,0.04749995097517967
1769657888724432400,7.603432373046875,-0.07204272598028183,-0.23873218894004822,0.050647538155317307
1769657888734420500,7.61342041015625,-0.05684585124254227,-0.325090229511261,0.040075719356536865
1769657888744408600,7.62340869140625,-0.04619560390710831,-0.31874629855155945,0.029653437435626984
1769657888754396400,7.633396484375,-0.03929077833890915,-0.32374492287635803,0.019389020279049873
1769657888764384500,7.643384521484375,-0.026390960440039635,-0.3264187276363373,0.010734546929597855
1769657888774372600,7.65337255859375,-0.010289222933351994,-0.2993761897087097,0.001286983140744269
1769657888784360400,7.6633603515625,-0.0011191604426130652,-0.21870239078998566,0.0085385050624609
1769657888794348500,7.6733486328125,0.0019578118808567524,-0.12153896689414978,0.017746711149811745
1769657888804335600,7.683335693359375,0.005350146442651749,-0.0762077048420906,0.024833649396896362
1769657888814323500,7.693323486328125,0.018023375421762466,-0.08294989168643951,0.029506636783480644
1769657888824311600,7.7033115234375,0.03909137845039368,-0.10629063099622726,0.03346143290400505
1769657888834299600,7.713299560546875,0.07052183151245117,-0.129866823554039,0.03993130475282669
1769657888844287500,7.72328759765625,0.09130807220935822,-0.1253543645143509,0.04917939752340317
1769657888854275600,7.733275634765625,0.10140635818243027,-0.11815378069877625,0.0509893074631691
1769657888864263400,7.743263427734375,0.10863763839006424,-0.12118685245513916,0.041218701750040054
1769657888874251500,7.75325146484375,0.1167239248752594,-0.1324010193347931,0.02722015604376793
1769657888884239400,7.7632392578125,0.12842212617397308,-0.14219346642494202,0.01344522088766098
1769657888894227500,7.7732275390625,0.14264830946922302,-0.16121993958950043,0.002105757826939225
1769657888904215600,7.783215576171875,0.1658276617527008,-0.16426579654216766,0.004229628946632147
1769657888914203400,7.793203369140625,0.19504742324352264,-0.15967288613319397,0.022726209834218025
1769657888924191500,7.80319140625,0.22019724547863007,-0.13902166485786438,0.0424429215490818
1769657888934179600,7.8131796875,0.23508206009864807,-0.11554716527462006,0.06530346721410751
1769657888944167700,7.823167724609375,0.25122109055519104,-0.0896013155579567,0.08887350559234619
1769657888954155500,7.833155517578125,0.26201331615448,-0.06153060868382454,0.08722755312919617
1769657888964143600,7.8431435546875,0.2744377553462982,-0.05449773371219635,0.06438136100769043
1769657888974131700,7.853131591796875,0.30331966280937195,-0.06120893731713295,0.04679933190345764
1769657888984119300,7.863119384765625,0.3381223678588867,-0.06610702723264694,0.07142078876495361
1769657888994107400,7.873107421875,0.36613529920578003,-0.06999077647924423,0.12518006563186646
1769657889004094700,7.8830947265625,0.38460299372673035,-0.05314308777451515,0.199704110622406
1769657889014082300,7.893082275390625,0.3851727843284607,-0.03494056314229965,0.28151264786720276
1769657889024070400,7.9030703125,0.408867210149765,0.05611824244260788,0.3254220485687256
1769657889034058500,7.91305859375,0.426701158285141,0.291656494140625,0.3064636290073395
1769657889044046300,7.92304638671875,0.42456796765327454,0.4841631054878235,0.22813579440116882
1769657889054034400,7.933034423828125,0.39092230796813965,0.5691519975662231,0.13950221240520477
1769657889064022500,7.9430224609375,0.35424259305000305,0.7212923169136047,0.08258220553398132
1769657889074010600,7.9530107421875,0.30698221921920776,0.979003369808197,0.06491082161664963
1769657889083998500,7.96299853515625,0.24619051814079285,1.1011650562286377,0.03848933428525925
1769657889093986600,7.972986572265625,0.11550354212522507,0.9916378855705261,-0.0024922690354287624
1769657889103974700,7.982974609375,-0.023757679387927055,0.741719663143158,0.005054596811532974
1769657889113962500,7.99296240234375,-0.10709761083126068,0.3581119179725647,0.06742244213819504
1769657889123950600,8.00295068359375,-0.14581730961799622,-0.005459102801978588,0.21373490989208221
1769657889133938400,8.0129384765625,-0.20573565363883972,-0.2635922133922577,0.38127148151397705
1769657889143926500,8.022926513671875,-0.26978495717048645,-0.4973463714122772,0.5163806080818176
1769657889153914400,8.032914306640626,-0.28080859780311584,-0.6553863286972046,0.5444177985191345
1769657889163902500,8.04290234375,-0.2886265814304352,-0.6225005388259888,0.4446381628513336
1769657889173890600,8.052890625,-0.30283114314079285,-0.4271736741065979,0.2154940962791443
1769657889183877400,8.06287744140625,-0.29686298966407776,-0.17454463243484497,-0.05453445389866829
1769657889193865500,8.072865478515626,-0.2661559283733368,0.005277873948216438,-0.2615557909011841
1769657889203853600,8.082853515625,-0.2438727468252182,0.08576259762048721,-0.39327895641326904
1769657889213841700,8.092841552734376,-0.27560675144195557,0.11787119507789612,-0.4754125475883484
1769657889223829800,8.102829833984375,-0.3095189332962036,0.03841525688767433,-0.5096690654754639
1769657889233817900,8.11281787109375,-0.34579846262931824,-0.08560047298669815,-0.4863784611225128
1769657889243805700,8.1228056640625,-0.3710545301437378,-0.1638026088476181,-0.423533171415329
1769657889253793800,8.132793701171876,-0.37097978591918945,-0.21222452819347382,-0.3310494124889374
1769657889263782000,8.142781982421875,-0.36437806487083435,-0.2907949388027191,-0.1931125968694687
1769657889273769700,8.152769775390626,-0.3603297173976898,-0.395498663187027,-0.03726431354880333
1769657889283757600,8.162757568359375,-0.36589521169662476,-0.4537135064601898,0.08263039588928223
1769657889293745700,8.17274560546875,-0.367864191532135,-0.457091361284256,0.1482202410697937
1769657889303733800,8.182733642578125,-0.35448208451271057,-0.41275665163993835,0.16744880378246307
1769657889313721600,8.1927216796875,-0.3293352723121643,-0.34608927369117737,0.1402338594198227
1769657889323709700,8.202709716796875,-0.3015182912349701,-0.25153958797454834,0.08198440074920654
1769657889333697800,8.21269775390625,-0.27327796816825867,-0.1656472086906433,0.019993415102362633
1769657889343686000,8.222685791015625,-0.23319658637046814,-0.0764281302690506,-0.02086959406733513
1769657889353673700,8.232673828125,-0.17804309725761414,0.028200922533869743,-0.04587499797344208
1769657889363661800,8.242661865234375,-0.1152350977063179,0.11863814294338226,-0.06158951669931412
1769657889373650000,8.25264990234375,-0.07136617600917816,0.22554302215576172,-0.08534438163042068
1769657889383636700,8.26263671875,-0.052986904978752136,0.30243220925331116,-0.08796439319849014
1769657889393624800,8.272624755859376,-0.04898922145366669,0.3237566351890564,-0.08615366369485855
1769657889403613000,8.282613037109375,-0.05386760085821152,0.2919294536113739,-0.08681466430425644
1769657889413600800,8.292600830078126,-0.06473542749881744,0.23751229047775269,-0.06744416058063507
1769657889423588900,8.3025888671875,-0.07404690235853195,0.1884976029396057,-0.04191430285573006
1769657889433576700,8.31257666015625,-0.09526816010475159,0.1516166627407074,-0.024856561794877052
1769657889443564500,8.322564453125,-0.11995859444141388,0.1240960955619812,-0.0075729116797447205
1769657889453552600,8.332552734375,-0.1405211091041565,0.09554723650217056,0.01659425161778927
1769657889463540700,8.342540771484375,-0.1562872976064682,0.07535301893949509,0.05011945590376854
1769657889473528800,8.35252880859375,-0.16084939241409302,0.0734933465719223,0.0876445546746254
1769657889483516700,8.3625166015625,-0.1520223468542099,0.0830644816160202,0.11865147203207016
1769657889493504800,8.3725048828125,-0.13546110689640045,0.10895279049873352,0.16346758604049683
1769657889503492900,8.382492919921875,-0.11318642646074295,0.15879811346530914,0.22761328518390656
1769657889513480700,8.392480712890626,-0.08815769851207733,0.21928173303604126,0.29210689663887024
1769657889523468800,8.40246875,-0.05977213382720947,0.2781945765018463,0.3392866551876068
1769657889533457000,8.412456787109376,-0.014204987324774265,0.3256478011608124,0.3519245684146881
1769657889543445000,8.422445068359375,0.021097343415021896,0.3551825284957886,0.32812976837158203
1769657889553432600,8.4324326171875,0.03006129153072834,0.3779703676700592,0.29899296164512634
1769657889563420700,8.442420654296875,0.014556368812918663,0.37672215700149536,0.2752404808998108
1769657889573407700,8.45240771484375,-0.023345693945884705,0.33251193165779114,0.24828453361988068
1769657889583395800,8.462395751953125,-0.06290615350008011,0.25619107484817505,0.22749030590057373
1769657889593383700,8.4723837890625,-0.11435891687870026,0.15977942943572998,0.20613063871860504
1769657889603371800,8.482371826171875,-0.16215039789676666,0.05506287142634392,0.18982835114002228
1769657889613359600,8.492359619140625,-0.19884006679058075,-0.04950164258480072,0.17713400721549988
1769657889623347700,8.50234765625,-0.24290312826633453,-0.15765181183815002,0.1783798336982727
1769657889633335800,8.512335693359375,-0.29148510098457336,-0.2454240769147873,0.18717217445373535
1769657889643323600,8.52232373046875,-0.33990880846977234,-0.3213670551776886,0.21434307098388672
1769657889653311700,8.532311767578125,-0.3872918486595154,-0.4076783359050751,0.2511101961135864
1769657889663299800,8.5422998046875,-0.4256320297718048,-0.48364022374153137,0.2772273123264313
1769657889673288000,8.552287841796876,-0.44934719800949097,-0.5312315821647644,0.28943273425102234
1769657889683275800,8.56227587890625,-0.46826520562171936,-0.5453253388404846,0.2770192325115204
1769657889693264000,8.572263916015626,-0.48373639583587646,-0.5102372765541077,0.2600066363811493
1769657889703251700,8.582251708984375,-0.4813811182975769,-0.4560350179672241,0.25554051995277405
1769657889713239600,8.592239501953125,-0.46246904134750366,-0.4124681353569031,0.2654375433921814
1769657889723227600,8.6022275390625,-0.4372033476829529,-0.3489554524421692,0.23723651468753815
1769657889733215700,8.6122158203125,-0.4144318699836731,-0.2911902666091919,0.189009889960289
1769657889743203600,8.62220361328125,-0.4244448244571686,-0.27183839678764343,0.16481667757034302
1769657889753191700,8.632191650390626,-0.4305248260498047,-0.2717742323875427,0.1418868750333786
1769657889763178800,8.6421787109375,-0.41057536005973816,-0.3005065619945526,0.10900349915027618
1769657889773166600,8.65216650390625,-0.36942562460899353,-0.2893310785293579,0.03336118534207344
1769657889783154700,8.66215478515625,-0.3186678886413574,-0.30387699604034424,-0.02644914947450161
1769657889793142800,8.672142822265625,-0.2611607611179352,-0.3289543390274048,-0.030927980318665504
1769657889803131000,8.682130859375,-0.18483270704746246,-0.4176860749721527,-0.000728266779333353
1769657889813118700,8.69211865234375,-0.1273951679468155,-0.5200100541114807,0.04463857412338257
1769657889823106800,8.70210693359375,-0.08438511192798615,-0.5755239129066467,0.06737956404685974
1769657889833095000,8.712094970703125,-0.0419878251850605,-0.568985104560852,0.052170392125844955
1769657889843082800,8.722082763671875,-0.006120373960584402,-0.5022002458572388,-0.02541547641158104
1769657889853070800,8.73207080078125,0.0325317308306694,-0.3734240233898163,-0.12781165540218353
1769657889863058700,8.74205859375,0.06374983489513397,-0.25890010595321655,-0.2788427174091339
1769657889873046800,8.752046875,0.04600439593195915,-0.13939209282398224,-0.4307797849178314
1769657889883034600,8.76203466796875,-0.0034624896943569183,-0.13971886038780212,-0.5623641610145569
1769657889893022700,8.772022705078125,-0.04998718947172165,-0.19942617416381836,-0.6691426634788513
1769657889903010800,8.7820107421875,-0.10036620497703552,-0.2904101312160492,-0.724598228931427
1769657889912998700,8.79199853515625,-0.1741609126329422,-0.4285724461078644,-0.7264949083328247
1769657889922986800,8.80198681640625,-0.25231990218162537,-0.5995420813560486,-0.7167783975601196
1769657889932974800,8.811974853515625,-0.31622010469436646,-0.7417435646057129,-0.6697368025779724
1769657889942962700,8.821962646484375,-0.35374459624290466,-0.8635892868041992,-0.530582070350647
1769657889952950800,8.83195068359375,-0.3229827284812927,-0.9160043597221375,-0.3266410529613495
1769657889962937900,8.841937744140624,-0.2263030707836151,-0.8423980474472046,-0.14229866862297058
1769657889972925700,8.85192578125,-0.08584174513816833,-0.6203433871269226,-0.03428710997104645
1769657889982913800,8.861913818359374,0.050452444702386856,-0.3441232442855835,0.015751557424664497
1769657889992902000,8.87190185546875,0.18096759915351868,-0.14600571990013123,0.01851474866271019
1769657890002890000,8.881889892578124,0.25885042548179626,-0.011766955256462097,-0.03592878580093384
1769657890012877800,8.8918779296875,0.3030850291252136,0.050075773149728775,-0.11935901641845703
1769657890022865700,8.90186572265625,0.327377587556839,0.13202764093875885,-0.21528688073158264
1769657890032853800,8.911853759765625,0.3410799503326416,0.20263221859931946,-0.2794328033924103
1769657890042841600,8.921841552734374,0.35264551639556885,0.235582172870636,-0.3016238510608673
1769657890052829700,8.93182958984375,0.36522048711776733,0.2473747730255127,-0.2852582633495331
1769657890062817800,8.94181787109375,0.370849072933197,0.14220280945301056,-0.2547336220741272
1769657890072805600,8.9518056640625,0.3682219684123993,0.017566321417689323,-0.20588727295398712
1769657890082793700,8.961793701171874,0.34577417373657227,-0.09320493787527084,-0.1875748485326767
1769657890092781800,8.97178173828125,0.31356382369995117,-0.1939181089401245,-0.19049236178398132
1769657890102770000,8.98177001953125,0.29375097155570984,-0.27884551882743835,-0.1870555579662323
1769657890112757800,8.9917578125,0.27104678750038147,-0.3699687123298645,-0.19410140812397003
1769657890122745900,9.001745849609375,0.23847633600234985,-0.426908403635025,-0.21418458223342896
1769657890132733700,9.011733642578125,0.2313263714313507,-0.4559518098831177,-0.24412870407104492
1769657890142721500,9.021721435546874,0.23683512210845947,-0.482978880405426,-0.2788025438785553
1769657890152708900,9.031708984375,0.2518317401409149,-0.4941660463809967,-0.3118947446346283
1769657890162697000,9.041697021484374,0.271889865398407,-0.5110989212989807,-0.3542405962944031
1769657890172684500,9.0516845703125,0.27861741185188293,-0.5389983654022217,-0.3941122889518738
1769657890182672600,9.061672607421874,0.27141863107681274,-0.5282785892486572,-0.423574835062027
1769657890192660700,9.07166064453125,0.2528139650821686,-0.5554436445236206,-0.46328914165496826
1769657890202648600,9.081648681640624,0.24817071855068207,-0.608698844909668,-0.4919623136520386
1769657890212636400,9.091636474609375,0.24492833018302917,-0.6236266493797302,-0.48356619477272034
1769657890222624500,9.10162451171875,0.24131575226783752,-0.6245886087417603,-0.4517776370048523
1769657890232612600,9.111612548828125,0.25402989983558655,-0.640346884727478,-0.40216779708862305
1769657890242600400,9.121600341796874,0.2698911428451538,-0.6719005107879639,-0.3436775803565979
1769657890252588500,9.131588623046875,0.28230446577072144,-0.6824045181274414,-0.29022735357284546
1769657890262576600,9.14157666015625,0.29468923807144165,-0.6674966812133789,-0.2360072284936905
1769657890272564700,9.151564697265625,0.30788904428482056,-0.6515772938728333,-0.17471358180046082
1769657890282552600,9.161552490234374,0.31808656454086304,-0.6488121151924133,-0.1139538437128067
1769657890292540700,9.171540771484375,0.31540730595588684,-0.6491277813911438,-0.0742817148566246
1769657890302528500,9.181528564453124,0.3139742612838745,-0.6157439947128296,-0.0553801953792572
1769657890312516400,9.191516357421875,0.32198673486709595,-0.5693368315696716,-0.05348655581474304
1769657890322504400,9.20150439453125,0.3418903946876526,-0.5214419960975647,-0.06719250977039337
1769657890332492500,9.211492431640625,0.3877755105495453,-0.4668589234352112,-0.06430229544639587
1769657890342480600,9.221480712890624,0.4293634295463562,-0.3775642216205597,-0.025847047567367554
1769657890352467500,9.231467529296875,0.46165716648101807,-0.31799355149269104,0.027898957952857018
1769657890362455600,9.24145556640625,0.4947868883609772,-0.28789767622947693,0.06806448101997375
1769657890372443400,9.251443359375,0.5302510261535645,-0.2753407955169678,0.08725972473621368
1769657890382431500,9.261431396484374,0.5651493668556213,-0.26360902190208435,0.10984812676906586
1769657890392419600,9.271419677734375,0.5983813405036926,-0.2323230504989624,0.1419147402048111
1769657890402407700,9.28140771484375,0.6392204165458679,-0.16166725754737854,0.14855718612670898
1769657890412395500,9.2913955078125,0.6596185564994812,-0.09109567105770111,0.14989373087882996
1769657890422383600,9.301383544921874,0.6495875120162964,-0.04175341874361038,0.13074612617492676
1769657890432371700,9.311371826171875,0.5952650308609009,-0.06999558955430984,0.0605616420507431
1769657890442359600,9.321359619140624,0.5447336435317993,-0.12658058106899261,-0.07383238524198532
1769657890452347400,9.331347412109375,0.5174580812454224,-0.04324842616915703,-0.2659994065761566
1769657890462335500,9.34133544921875,0.4887433350086212,0.2963900864124298,-0.4305598735809326
1769657890472323600,9.351323486328125,0.3845359981060028,0.7295194268226624,-0.4880652129650116
1769657890482311400,9.3613115234375,0.23758330941200256,0.9614256024360657,-0.44676196575164795
1769657890492299500,9.371299560546875,0.12737011909484863,0.692908525466919,-0.312017023563385
1769657890502287600,9.38128759765625,0.03729136288166046,0.29414406418800354,-0.14827094972133636
1769657890512275500,9.391275390625,0.003960917238146067,-0.25958752632141113,0.07696149498224258
1769657890522263600,9.401263671875,-0.040958888828754425,-0.732624888420105,0.3168955147266388
1769657890532251600,9.411251708984375,-0.14582297205924988,-0.9859790802001953,0.4755781292915344
1769657890542238500,9.421238525390624,-0.19198355078697205,-1.098670482635498,0.4380320906639099
1769657890552226600,9.4312265625,-0.1895350068807602,-1.0603089332580566,0.2814660668373108
1769657890562214700,9.441214599609374,-0.16672742366790771,-0.8160929679870605,0.09492842853069305
1769657890572202500,9.451202392578125,-0.17226378619670868,-0.6318885087966919,-0.09830746054649353
1769657890582190600,9.461190673828124,-0.1649579405784607,-0.5603538751602173,-0.2696206271648407
1769657890592178700,9.4711787109375,-0.1478986293077469,-0.4288858473300934,-0.4103619456291199
1769657890602166500,9.48116650390625,-0.14225777983665466,-0.3545871078968048,-0.49858367443084717
1769657890612154400,9.491154296875,-0.12093720585107803,-0.390571266412735,-0.5934785008430481
1769657890622142500,9.501142578125,-0.10963501781225204,-0.44585368037223816,-0.6635428071022034
1769657890632130600,9.511130615234375,-0.1232132762670517,-0.48698821663856506,-0.6802273988723755
1769657890642118400,9.521118408203124,-0.16861006617546082,-0.547612190246582,-0.6476931571960449
1769657890652106500,9.5311064453125,-0.23505453765392303,-0.6116032600402832,-0.5477237105369568
1769657890662094600,9.541094482421874,-0.30055660009384155,-0.64927077293396,-0.40356865525245667
1769657890672082700,9.551082763671875,-0.3664623200893402,-0.6662701368331909,-0.24869990348815918
1769657890682070500,9.561070556640624,-0.41479629278182983,-0.6479758620262146,-0.1417284458875656
1769657890692058600,9.57105859375,-0.42362016439437866,-0.5836097598075867,-0.08846224844455719
1769657890702046700,9.581046630859374,-0.43278995156288147,-0.5504390001296997,-0.06792528182268143
1769657890712034600,9.59103466796875,-0.424631267786026,-0.5643758773803711,-0.1025526374578476
1769657890722022700,9.601022705078124,-0.4389100968837738,-0.5692875385284424,-0.16421440243721008
1769657890732010500,9.611010498046875,-0.48366013169288635,-0.5673038959503174,-0.2255954146385193
1769657890741997600,9.62099755859375,-0.526972770690918,-0.5748392343521118,-0.27916091680526733
1769657890751985700,9.630985595703125,-0.5451433062553406,-0.588157057762146,-0.3166419267654419
1769657890761973500,9.640973388671876,-0.5116902589797974,-0.5640842318534851,-0.3296320140361786
1769657890771961300,9.65096142578125,-0.4147729277610779,-0.4554724395275116,-0.3237607181072235
1769657890781949400,9.660949462890626,-0.31437841057777405,-0.3577575981616974,-0.2860162854194641
1769657890791937500,9.6709375,-0.22477781772613525,-0.2558619976043701,-0.22065795958042145
1769657890801925600,9.680925537109376,-0.1682857871055603,-0.1094062477350235,-0.1566494107246399
1769657890811913500,9.69091357421875,-0.13416548073291779,0.012518373318016529,-0.10210300981998444
1769657890821901600,9.700901611328124,-0.1075703427195549,0.08642242103815079,-0.07099862396717072
1769657890831889700,9.7108896484375,-0.09574466943740845,0.09055911004543304,-0.05735946074128151
1769657890841877500,9.72087744140625,-0.10295651108026505,0.044640883803367615,-0.050543900579214096
1769657890851865600,9.730865478515625,-0.1274711936712265,0.011591124348342419,-0.045121513307094574
1769657890861853700,9.740853759765624,-0.15040872991085052,0.007892792113125324,-0.019841721281409264
1769657890871841800,9.750841796875,-0.15704073011875153,0.00986647978425026,0.023197758942842484
1769657890881829400,9.760829345703126,-0.15953078866004944,-0.002197373192757368,0.04497415944933891
1769657890891817500,9.7708173828125,-0.15242451429367065,0.015499131754040718,0.04502846300601959
1769657890901805600,9.7808056640625,-0.14592799544334412,0.04632309079170227,0.05445445328950882
1769657890911793400,9.79079345703125,-0.1552315056324005,0.08320609480142593,0.051496852189302444
1769657890921781500,9.800781494140624,-0.1671166718006134,0.07360459864139557,0.0543363131582737
1769657890931769600,9.81076953125,-0.17888367176055908,0.05737660452723503,0.0726158544421196
1769657890941756400,9.82075634765625,-0.18986201286315918,0.04445042088627815,0.11073341220617294
1769657890951744500,9.83074462890625,-0.1958153247833252,0.025279877707362175,0.15613673627376556
1769657890961732600,9.840732666015626,-0.19337451457977295,0.017323683947324753,0.1851755827665329
1769657890971720400,9.850720458984375,-0.18321743607521057,0.01266301330178976,0.21173396706581116
1769657890981708500,9.86070849609375,-0.18242381513118744,-0.014105482958257198,0.23494209349155426
1769657890991696600,9.870696533203125,-0.17598536610603333,-0.027946457266807556,0.2468050718307495
1769657891001684700,9.880684814453126,-0.17056716978549957,-0.022243298590183258,0.25044000148773193
1769657891011672600,9.890672607421875,-0.1618155539035797,0.0181536003947258,0.246983140707016
1769657891021660700,9.90066064453125,-0.14305545389652252,0.07955490797758102,0.23389023542404175
1769657891031648500,9.9106484375,-0.13280640542507172,0.15572808682918549,0.21336090564727783
1769657891041636400,9.92063623046875,-0.13240240514278412,0.23026756942272186,0.19183111190795898
1769657891051624400,9.93062451171875,-0.13790787756443024,0.2627240717411041,0.1878839135169983
1769657891061612500,9.940612548828126,-0.1496787816286087,0.24307981133460999,0.19287201762199402
1769657891071600400,9.950600341796875,-0.16582855582237244,0.2064054161310196,0.19590972363948822
1769657891081588500,9.96058837890625,-0.18608562648296356,0.1694793552160263,0.1750563681125641
1769657891091576600,9.97057666015625,-0.20887911319732666,0.11187926679849625,0.13073614239692688
1769657891101564700,9.980564697265624,-0.249781534075737,0.04558386281132698,0.09132775664329529
1769657891111552500,9.990552490234375,-0.27382731437683105,-0.048024602234363556,0.09321700036525726
1769657891121540600,10.00054052734375,-0.2740004360675812,-0.14452505111694336,0.12596215307712555
1769657891131528700,10.01052880859375,-0.2653522789478302,-0.17490175366401672,0.1881621927022934
1769657891141515500,10.020515625,-0.2263348400592804,-0.14400827884674072,0.25540435314178467
1769657891151503600,10.030503662109375,-0.13510087132453918,-0.04976043105125427,0.2644262909889221
1769657891161491700,10.04049169921875,-0.029678041115403175,0.08379708975553513,0.1873708963394165
1769657891171479600,10.0504794921875,0.06838802993297577,0.26839369535446167,0.030403446406126022
1769657891181467600,10.060467529296876,0.16542856395244598,0.47154682874679565,-0.15461885929107666
1769657891191455500,10.07045556640625,0.25748902559280396,0.632736325263977,-0.2941941022872925
1769657891201443300,10.080443359375,0.32231196761131287,0.7887871861457825,-0.3921012282371521
1769657891211431700,10.090431640625,0.3114977180957794,0.9026159048080444,-0.465384840965271
1769657891221419500,10.10041943359375,0.2525007128715515,0.9277892112731934,-0.5113589763641357
1769657891231407600,10.11040771484375,0.1542966514825821,0.8196629881858826,-0.5547106266021729
1769657891241395700,10.120395751953126,0.0713953748345375,0.603327214717865,-0.5294185876846313
1769657891251383600,10.130383544921875,-0.009476765990257263,0.3243408799171448,-0.4326123893260956
1769657891261371600,10.14037158203125,-0.0022353653330355883,0.15979240834712982,-0.2990492582321167
1769657891271359700,10.15035986328125,0.03452921286225319,0.18854764103889465,-0.12810350954532623
1769657891281347800,10.160347900390626,0.07350457459688187,0.3009231686592102,0.08702797442674637
1769657891291335700,10.170335693359375,0.11552434414625168,0.4870617091655731,0.26503974199295044
1769657891301323800,10.18032373046875,0.16460293531417847,0.6933677196502686,0.36374980211257935
1769657891311311600,10.1903115234375,0.24646896123886108,0.8717915415763855,0.3694528341293335
1769657891321299500,10.200299560546876,0.31727418303489685,1.0243362188339233,0.2947162687778473
1769657891331287600,10.21028759765625,0.37307122349739075,1.1940494775772095,0.1838948279619217
1769657891341275600,10.220275634765626,0.4311574101448059,1.422284483909607,0.05753397196531296
1769657891351262500,10.230262451171875,0.4678329527378082,1.5955612659454346,-0.0301063172519207
1769657891361250600,10.24025048828125,0.4700993001461029,1.5086910724639893,-0.07255976647138596
1769657891371238700,10.25023876953125,0.46348345279693604,1.2689123153686523,-0.06319846212863922
1769657891381226500,10.2602265625,0.4262780249118805,0.9931081533432007,-0.04254325479269028
1769657891391214600,10.270214599609375,0.3822162449359894,0.79123854637146,-0.049005091190338135
1769657891401202700,10.28020263671875,0.3280118703842163,0.6155660152435303,-0.060755759477615356
1769657891411190800,10.290190673828125,0.22336497902870178,0.418650358915329,-0.08768806606531143
1769657891421178600,10.3001787109375,0.12353479117155075,0.31167227029800415,-0.10067017376422882
1769657891431166700,10.310166748046875,0.07411378622055054,0.263023316860199,-0.11053844541311264
1769657891441154800,10.32015478515625,0.06967589259147644,0.2256074994802475,-0.11185324192047119
1769657891451142700,10.330142578125,0.08578049391508102,0.21142473816871643,-0.1293065994977951
1769657891461130500,10.340130615234376,0.1075718104839325,0.2231149524450302,-0.1491711139678955
1769657891471118600,10.35011865234375,0.13768312335014343,0.2782956063747406,-0.16801710426807404
1769657891481106400,10.3601064453125,0.17266614735126495,0.3481620252132416,-0.17271997034549713
1769657891491094500,10.370094482421875,0.17575867474079132,0.35313019156455994,-0.1560487449169159
1769657891501082600,10.38008251953125,0.15844173729419708,0.273887038230896,-0.15052855014801025
1769657891511070700,10.39007080078125,0.14069950580596924,0.1727992743253708,-0.1573326289653778
1769657891521058600,10.40005859375,0.11647699773311615,0.09601234644651413,-0.14891037344932556
1769657891531046700,10.410046630859375,0.09518352895975113,0.0455549955368042,-0.12099219858646393
1769657891541034800,10.42003466796875,0.08563663065433502,-0.00005110446363687515,-0.08606164902448654
1769657891551022600,10.430022705078125,0.08333276212215424,-0.04182925820350647,-0.048384156078100204
1769657891561009700,10.440009765625,0.08364914357662201,-0.07502236217260361,-0.006803956814110279
1769657891570997800,10.449997802734375,0.10971028357744217,-0.08419716358184814,0.02763005718588829
1769657891580985600,10.459985595703126,0.14128178358078003,-0.08070895820856094,0.052751921117305756
1769657891590973700,10.4699736328125,0.16592511534690857,-0.08917447924613953,0.06460665911436081
1769657891600961800,10.4799619140625,0.18108995258808136,-0.09164109826087952,0.054728467017412186
1769657891610949600,10.48994970703125,0.19452695548534393,-0.09665905684232712,0.027333350852131844
1769657891620937500,10.4999375,0.1956992745399475,-0.10668665170669556,-0.017355291172862053
1769657891630925600,10.509925537109375,0.19110451638698578,-0.12513969838619232,-0.07134875655174255
1769657891640913700,10.51991357421875,0.18333181738853455,-0.15135478973388672,-0.11916154623031616
1769657891650901500,10.529901611328125,0.17691203951835632,-0.18926498293876648,-0.12779615819454193
1769657891660889600,10.5398896484375,0.1753903031349182,-0.23272962868213654,-0.09199661016464233
1769657891670877700,10.549877685546875,0.18870477378368378,-0.259321004152298,-0.02091311104595661
1769657891680865500,10.559865478515626,0.22458209097385406,-0.2485426813364029,0.06080438941717148
1769657891690853600,10.569853515625,0.27909886837005615,-0.23687802255153656,0.15935570001602173
1769657891700841700,10.579841796875,0.31425365805625916,-0.16865208745002747,0.2328656017780304
1769657891710829800,10.589829833984375,0.3237466514110565,-0.07762226462364197,0.2433830350637436
1769657891720817700,10.599817626953126,0.3137888014316559,-0.0028625389095395803,0.18414421379566193
1769657891730805800,10.6098056640625,0.28179866075515747,0.1625480353832245,0.0795241966843605
1769657891740793600,10.619793701171876,0.23719282448291779,0.3639623820781708,-0.04202619940042496
1769657891750781400,10.629781494140625,0.22279784083366394,0.4634614586830139,-0.131596639752388
1769657891760769500,10.63976953125,0.22717368602752686,0.5183084607124329,-0.16890458762645721
1769657891770757600,10.649757568359375,0.18384666740894318,0.4862784743309021,-0.15577539801597595
1769657891780744400,10.659744384765625,0.12325123697519302,0.2742826044559479,-0.0643746480345726
1769657891790732500,10.669732666015625,0.046165745705366135,0.022765234112739563,0.05375662446022034
1769657891800720600,10.679720703125,-0.019345354288816452,-0.3078198730945587,0.2274077832698822
1769657891810708500,10.68970849609375,-0.123275026679039,-0.6514731049537659,0.34356752038002014
1769657891820696600,10.699696533203126,-0.2120986431837082,-0.8371622562408447,0.36372631788253784
1769657891830684700,10.7096845703125,-0.2749370038509369,-0.80967116355896,0.31175538897514343
1769657891840672800,10.7196728515625,-0.32066401839256287,-0.6979273557662964,0.20017878711223602
1769657891850660600,10.72966064453125,-0.33218255639076233,-0.5512723922729492,0.04181535914540291
1769657891860648700,10.739648681640626,-0.3367312550544739,-0.5026431083679199,-0.1170658990740776
1769657891870636800,10.74963671875,-0.32475927472114563,-0.48254820704460144,-0.2471863478422165
1769657891880624600,10.759624755859376,-0.28539642691612244,-0.4747864305973053,-0.3735608160495758
1769657891890612500,10.769612548828125,-0.2504499852657318,-0.4902808368206024,-0.49797260761260986
1769657891900600600,10.7796005859375,-0.22642137110233307,-0.557902991771698,-0.588676393032074
1769657891910588700,10.789588623046875,-0.20863690972328186,-0.6289017200469971,-0.6350253820419312
1769657891920576500,10.799576416015626,-0.21391263604164124,-0.7559139728546143,-0.6366645693778992
1769657891930564600,10.809564697265625,-0.2761586904525757,-0.8808477520942688,-0.5944394469261169
1769657891940552700,10.819552734375,-0.3490920066833496,-0.9374830722808838,-0.4765823781490326
1769657891950540500,10.82954052734375,-0.40126004815101624,-0.9227772951126099,-0.29375413060188293
1769657891960528600,10.839528564453126,-0.42152804136276245,-0.8467938303947449,-0.10755335539579391
1769657891970516700,10.849516845703125,-0.4349861145019531,-0.7756415009498596,0.037976622581481934
1769657891980504800,10.8595048828125,-0.4353770613670349,-0.7148822546005249,0.1163577139377594
1769657891990492700,10.86949267578125,-0.4156757593154907,-0.6527162790298462,0.135771706700325
1769657892000479700,10.879479736328125,-0.38645046949386597,-0.5910001397132874,0.10519888252019882
1769657892010467600,10.889467529296875,-0.3627060055732727,-0.5393342971801758,0.04619705677032471
1769657892020455700,10.89945556640625,-0.3518219292163849,-0.526776909828186,-0.026317358016967773
1769657892030443800,10.90944384765625,-0.3335081934928894,-0.559424877166748,-0.10649701207876205
1769657892040431600,10.919431640625,-0.3086784780025482,-0.5928345322608948,-0.17745374143123627
1769657892050419500,10.92941943359375,-0.29708337783813477,-0.5832595229148865,-0.22097475826740265
1769657892060407600,10.939407470703125,-0.3027324676513672,-0.5589432716369629,-0.2274656891822815
1769657892070395600,10.949395751953125,-0.324873149394989,-0.5479347109794617,-0.21889449656009674
1769657892080383500,10.959383544921875,-0.3236318528652191,-0.5609034895896912,-0.22543150186538696
1769657892090371600,10.96937158203125,-0.33589065074920654,-0.5582940578460693,-0.22050189971923828
1769657892100359700,10.979359619140626,-0.3473268151283264,-0.5166206955909729,-0.20345421135425568
1769657892110347800,10.98934765625,-0.3616935908794403,-0.45821860432624817,-0.18837153911590576
1769657892120335600,10.999335693359376,-0.3700743019580841,-0.4330165982246399,-0.17211534082889557
1769657892130323700,11.00932373046875,-0.3662511706352234,-0.40464237332344055,-0.16998113691806793
1769657892140311800,11.019311767578126,-0.35918259620666504,-0.34106311202049255,-0.17417320609092712
1769657892150299600,11.029299560546875,-0.3491191565990448,-0.27801093459129333,-0.18289874494075775
1769657892160287700,11.039287841796876,-0.3239658772945404,-0.23699985444545746,-0.17727895081043243
1769657892170275600,11.049275634765625,-0.2808074653148651,-0.20944969356060028,-0.17522487044334412
1769657892180263400,11.059263427734376,-0.22985613346099854,-0.18648552894592285,-0.1602182239294052
1769657892190251500,11.06925146484375,-0.18825875222682953,-0.12731529772281647,-0.13302528858184814
1769657892200239600,11.079239501953126,-0.1462756246328354,-0.0902310460805893,-0.07873675972223282
1769657892210226200,11.08922607421875,-0.08206713944673538,-0.012281190603971481,0.005848887376487255
1769657892220214300,11.09921435546875,-0.028106700628995895,0.0793113112449646,0.10266384482383728
1769657892230202400,11.109202392578124,0.006431524641811848,0.16359703242778778,0.18959641456604004
1769657892240190200,11.119190185546875,0.03170039877295494,0.2235269546508789,0.2679719030857086
1769657892250178300,11.12917822265625,0.05404604598879814,0.2270270138978958,0.3418768644332886
1769657892260166400,11.13916650390625,0.06904656440019608,0.23616909980773926,0.38254570960998535
1769657892270154500,11.149154541015625,0.06286904960870743,0.20320650935173035,0.3929480314254761
1769657892280142300,11.159142333984375,0.043531570583581924,0.1598326712846756,0.3962634205818176
1769657892290130400,11.16913037109375,0.04037624970078468,0.14595124125480652,0.40036439895629883
1769657892300118500,11.179118408203125,0.0437864288687706,0.17706042528152466,0.4064486622810364
1769657892310106400,11.1891064453125,0.04646477475762367,0.21485145390033722,0.3992655873298645
1769657892320094500,11.199094482421875,0.04367165267467499,0.23671972751617432,0.35546404123306274
1769657892330082300,11.209082275390625,0.04263582080602646,0.26377999782562256,0.3084021806716919
1769657892340070400,11.2190703125,0.06175358593463898,0.32207873463630676,0.2647191286087036
1769657892350058200,11.229058349609375,0.09176754206418991,0.40141573548316956,0.21187494695186615
1769657892360046300,11.23904638671875,0.14868994057178497,0.45768752694129944,0.16675247251987457
1769657892370034400,11.249034423828125,0.20205047726631165,0.4910252094268799,0.1278713494539261
1769657892380022300,11.259022216796875,0.20439112186431885,0.5145345330238342,0.050614386796951294
1769657892390010400,11.26901025390625,0.1879817098379135,0.5154770016670227,-0.09259025752544403
1769657892399998500,11.27899853515625,0.15513429045677185,0.4815184772014618,-0.24487406015396118
1769657892409986600,11.288986572265625,0.06326291710138321,0.4154573082923889,-0.38270696997642517
1769657892419974400,11.298974365234375,-0.05549222603440285,0.3115522265434265,-0.47485101222991943
1769657892429961500,11.30896142578125,-0.15607094764709473,0.21363016963005066,-0.4955606758594513
1769657892439949300,11.31894921875,-0.2122841626405716,0.1292886584997177,-0.4547061622142792
1769657892449937400,11.3289375,-0.21905581653118134,0.03472846746444702,-0.34320569038391113
1769657892459925500,11.338925537109375,-0.1497611701488495,0.025287561118602753,-0.15755407512187958
1769657892469913600,11.34891357421875,-0.04788973182439804,0.15789295732975006,0.08548536896705627
1769657892479901400,11.3589013671875,0.10273545980453491,0.48080071806907654,0.3077336251735687
1769657892489889300,11.36888916015625,0.24461135268211365,0.8706041574478149,0.440639853477478
1769657892499877400,11.37887744140625,0.3429264724254608,1.1462526321411133,0.4602639079093933
1769657892509865200,11.388865234375,0.38130322098731995,1.274066686630249,0.3624802231788635
1769657892519853300,11.398853271484375,0.38127365708351135,1.3653584718704224,0.2345438152551651
1769657892529841400,11.40884130859375,0.3894634544849396,1.4816070795059204,0.13269932568073273
1769657892539829500,11.41882958984375,0.3986265957355499,1.526688575744629,0.1267586201429367
1769657892549817300,11.4288173828125,0.4464164078235626,1.454025387763977,0.1955161839723587
1769657892559805400,11.438805419921875,0.5100457072257996,1.3045203685760498,0.2566743493080139
1769657892569793500,11.44879345703125,0.5332099795341492,1.1271631717681885,0.26933205127716064
1769657892579781400,11.458781494140625,0.5018895864486694,1.033625841140747,0.27828720211982727
1769657892589769500,11.46876953125,0.41612422466278076,0.9504809379577637,0.22975657880306244
1769657892599757300,11.47875732421875,0.29978111386299133,0.8528811931610107,0.14453382790088654
1769657892609745400,11.488745361328125,0.20626768469810486,0.717193603515625,0.04867153242230415
1769657892619733200,11.498733154296875,0.1568436622619629,0.6453912854194641,-0.01483207754790783
1769657892629721300,11.508721435546875,0.14196544885635376,0.6005491614341736,-0.026789914816617966
1769657892639708200,11.518708251953125,0.1448107659816742,0.564119279384613,-0.013650145381689072
1769657892649696300,11.5286962890625,0.1573786586523056,0.5193456411361694,0.006215445697307587
1769657892659684400,11.538684326171875,0.2018723487854004,0.4988308250904083,0.03341430798172951
1769657892669672400,11.54867236328125,0.2457018345594406,0.5558646321296692,0.05749238282442093
1769657892679660300,11.558660400390625,0.2654273509979248,0.6307735443115234,0.05826443061232567
1769657892689648400,11.5686484375,0.2641274929046631,0.6607989072799683,0.02869601361453533
1769657892699636500,11.578636474609375,0.25195151567459106,0.6364626884460449,-0.0023963910061866045
1769657892709624300,11.588624267578124,0.23419323563575745,0.5669788122177124,-0.018684471026062965
1769657892719612400,11.5986123046875,0.20674483478069305,0.46834516525268555,-0.01991245523095131
1769657892729600500,11.6086005859375,0.1719009280204773,0.35036930441856384,-0.004300606437027454
1769657892739588600,11.618588623046875,0.16136598587036133,0.238713338971138,0.013306084088981152
1769657892749576400,11.628576416015624,0.1560729742050171,0.12941497564315796,0.03633406385779381
1769657892759564300,11.638564208984375,0.15143056213855743,0.05006636306643486,0.06100798770785332
1769657892769552400,11.648552490234374,0.1553565263748169,0.02378329262137413,0.09775154292583466
1769657892779540200,11.658540283203125,0.17443807423114777,0.0034441989846527576,0.14150141179561615
1769657892789528300,11.6685283203125,0.18078747391700745,-0.010704309679567814,0.16739824414253235
1769657892799516400,11.678516357421875,0.1836080402135849,-0.00040773022919893265,0.16382721066474915
1769657892809504300,11.688504150390624,0.18491387367248535,0.01680133305490017,0.14049150049686432
1769657892819492400,11.698492431640625,0.20207156240940094,0.015975486487150192,0.11282231658697128
1769657892829480400,11.70848046875,0.23037323355674744,0.016512379050254822,0.10465839505195618
1769657892839468500,11.718468505859375,0.27291882038116455,0.01974598877131939,0.11681732535362244
1769657892849456400,11.728456298828124,0.3173578381538391,0.044861480593681335,0.13005991280078888
1769657892859444500,11.738444580078125,0.3460872173309326,0.06792418658733368,0.13282561302185059
1769657892869431600,11.748431640625,0.34001460671424866,0.03921576216816902,0.12490936368703842
1769657892879419400,11.75841943359375,0.3206592798233032,-0.029579544439911842,0.1025494635105133
1769657892889407500,11.768407470703124,0.31451138854026794,-0.08712995052337646,0.08670821040868759
1769657892899395600,11.7783955078125,0.3235469460487366,-0.12070947885513306,0.09751345217227936
1769657892909383400,11.788383544921874,0.35197925567626953,-0.12198067456483841,0.12981203198432922
1769657892919371300,11.798371337890625,0.38553348183631897,-0.07750722020864487,0.16642996668815613
1769657892929359400,11.808359375,0.4202146828174591,0.017738623544573784,0.20397105813026428
1769657892939347200,11.81834716796875,0.4555838406085968,0.1748020052909851,0.23203490674495697
1769657892949335300,11.828335205078124,0.495604008436203,0.37795159220695496,0.20245924592018127
1769657892959323400,11.838323486328125,0.526374101638794,0.4983709454536438,0.09850969165563583
1769657892969311500,11.8483115234375,0.513133704662323,0.501979649066925,-0.0251447930932045
1769657892979299300,11.85829931640625,0.4707324504852295,0.4485941529273987,-0.09492680430412292
1769657892989287400,11.868287353515624,0.437865674495697,0.42037099599838257,-0.08732002228498459
1769657892999275500,11.878275634765625,0.3880251348018646,0.4572765529155731,-0.0552518293261528
1769657893009263400,11.888263427734374,0.2862258851528168,0.41645193099975586,-0.006965923123061657
1769657893019251500,11.89825146484375,0.1868705451488495,0.3236090838909149,0.020505117252469063
1769657893029239300,11.9082392578125,0.12343522906303406,0.18375760316848755,0.059461623430252075
1769657893039227400,11.918227294921875,0.07940012961626053,0.05535648763179779,0.10520754009485245
1769657893049215200,11.92821533203125,0.002772391540929675,-0.08544676750898361,0.10211285948753357
1769657893059203300,11.938203369140625,-0.04166990891098976,-0.20491324365139008,0.02557707577943802
1769657893069191400,11.94819140625,-0.08380035310983658,-0.25827303528785706,-0.10230784118175507
1769657893079179300,11.95817919921875,-0.09738993644714355,-0.2478102743625641,-0.23511675000190735
1769657893089166300,11.968166259765624,-0.10575923323631287,-0.22070123255252838,-0.36503294110298157
1769657893099154400,11.978154541015625,-0.11592905223369598,-0.19317613542079926,-0.4835641086101532
1769657893109142300,11.988142333984374,-0.1582190990447998,-0.20408251881599426,-0.5694188475608826
1769657893119130400,11.99813037109375,-0.18877620995044708,-0.2349480241537094,-0.6216487884521484
1769657893129118500,12.008118408203124,-0.23957893252372742,-0.28118371963500977,-0.6261225938796997
1769657893139106300,12.018106201171875,-0.3188591003417969,-0.3303115665912628,-0.5700545310974121
1769657893149094400,12.028094482421874,-0.40025970339775085,-0.3232080340385437,-0.44367095828056335
1769657893159082500,12.03808251953125,-0.4458003044128418,-0.28565773367881775,-0.25763264298439026
1769657893169070600,12.048070556640624,-0.45187076926231384,-0.23978376388549805,-0.046874143183231354
1769657893179058400,12.058058349609375,-0.444161981344223,-0.20812970399856567,0.13495637476444244
1769657893189046300,12.06804638671875,-0.4351227879524231,-0.2240130454301834,0.24955683946609497
1769657893199034400,12.078034423828125,-0.4219532012939453,-0.2702122628688812,0.27015024423599243
1769657893209022200,12.088022216796874,-0.41389283537864685,-0.328158438205719,0.21979138255119324
1769657893219010600,12.098010498046875,-0.4194231629371643,-0.35264620184898376,0.14384202659130096
1769657893228998700,12.10799853515625,-0.43086308240890503,-0.35347944498062134,0.07019852846860886
1769657893238986800,12.11798681640625,-0.45194384455680847,-0.3620345890522003,0.03106098063290119
1769657893248974600,12.127974609375,-0.4417605698108673,-0.35970339179039,0.006949645932763815
1769657893258962700,12.137962646484375,-0.39384257793426514,-0.3360566794872284,-0.022342730313539505
1769657893268950800,12.14795068359375,-0.3211471140384674,-0.27711546421051025,-0.027781831100583076
1769657893278938600,12.157938720703125,-0.25774070620536804,-0.16359394788742065,-0.03584694862365723
1769657893288926700,12.1679267578125,-0.20901358127593994,-0.017988480627536774,-0.06027844920754433
1769657893298913800,12.177913818359375,-0.1576063185930252,0.16829989850521088,-0.07734318822622299
1769657893308901600,12.187901611328124,-0.12503193318843842,0.24999600648880005,-0.08649201691150665
1769657893318889700,12.1978896484375,-0.1062406599521637,0.21421298384666443,-0.08835490047931671
1769657893328877600,12.207877685546874,-0.08660615235567093,0.18209418654441833,-0.08463243395090103
1769657893338865400,12.217865478515625,-0.08951512724161148,0.1713230311870575,-0.07836122065782547
1769657893348853500,12.227853515625,-0.11477266252040863,0.13951008021831512,-0.07017738372087479
1769657893358841600,12.237841552734375,-0.14536386728286743,0.12124264985322952,-0.056212298572063446
1769657893368829700,12.24782958984375,-0.17842017114162445,0.10480616241693497,-0.04298720136284828
1769657893378817500,12.257817626953125,-0.20533406734466553,0.07612071931362152,-0.04244418442249298
1769657893388805600,12.2678056640625,-0.21805816888809204,0.007847767323255539,-0.028141863644123077
1769657893398793700,12.277793701171875,-0.2220102995634079,-0.005248060449957848,0.008485122583806515
1769657893408781600,12.287781494140624,-0.22909611463546753,0.006661164574325085,0.057486195117235184
1769657893418769700,12.297769775390625,-0.25745320320129395,-0.028256073594093323,0.08650453388690948
1769657893428757800,12.3077578125,-0.2712620198726654,-0.06939928978681564,0.1187257468700409
1769657893438745900,12.317745849609375,-0.28255462646484375,-0.1006658673286438,0.14000199735164642
