time,seconds_elapsed,acc_z,acc_y,acc_x,gyro_z,gyro_y,gyro_x
1.76966E+18,0.072526611,0.555963904,-0.103519996,0.240081114,-0.014674931,-0.022974351,0.008141011
1.76966E+18,0.082514893,0.439033661,-0.112917354,0.201975986,-0.038140886,-0.020662609,0.053920817
1.76966E+18,0.09250293,0.365216729,-0.072366733,0.16956717,-0.0425612,-0.044921875,0.078370765
1.76966E+18,0.102490967,0.282021729,-0.106177232,0.162041158,-0.04336492,-0.044140514,0.056104634
1.76966E+18,0.112479004,0.247086755,-0.117226449,0.090447602,-0.031132488,-0.021315092,0.021170616
1.76966E+18,0.122466797,-0.11163316,-0.12033669,-0.039814855,-0.032198109,0.016282048,0.014327765
1.76966E+18,0.132454834,-0.225959796,-0.072110712,-0.06016703,-0.02028499,0.024974607,-0.003937258
1.76966E+18,0.142442871,-0.225536602,-0.066106503,-0.097606095,-0.015887883,0.029509816,-0.046298485
1.76966E+18,0.152430664,-0.387854751,-0.072074472,-0.177869865,-0.034783274,-0.01298012,-0.046178911
1.76966E+18,0.162418945,0.014410803,-0.098082773,0.142641169,-0.016627805,0.008450851,-0.057332106
1.76966E+18,0.172406982,0.191923525,-0.078361589,0.126790251,-0.031811018,0.007178659,-0.07770928
1.76966E+18,0.182393799,0.079693714,-0.080074238,-0.05131883,-0.044691842,-0.051401008,-0.085528724
1.76966E+18,0.192381836,0.102782767,-0.147732647,0.153038352,-0.044631388,-0.04189885,-0.084413387
1.76966E+18,0.202369873,-0.030386955,-0.123498369,0.042096828,-0.04466296,-0.000136035,-0.090793744
1.76966E+18,0.21235791,0.197825004,-0.068102061,0.026359599,-0.047192696,-0.001508361,-0.075896285
1.76966E+18,0.222345947,0.100524175,-0.087736736,0.018613223,-0.055643056,-0.027680388,-0.061200127
1.76966E+18,0.232333984,0.019243045,-0.061009472,0.04096797,-0.063744389,-0.045574434,-0.059539646
1.76966E+18,0.242321777,-0.03642207,-0.041408115,0.07722864,-0.067347646,-0.066878393,-0.078804418
1.76966E+18,0.252310059,-0.034838089,-0.050461775,0.119778764,-0.065820321,-0.085288294,-0.113689169
1.76966E+18,0.262298096,-0.04153671,-0.111996732,0.097996995,-0.056171287,-0.105832897,-0.161845833
1.76966E+18,0.272285889,-0.070811247,-0.130883219,0.060584233,-0.045807064,-0.11490389,-0.20919551
1.76966E+18,0.282273682,-0.095322222,-0.153625797,-0.024777152,-0.034197543,-0.113848209,-0.252112091
1.76966E+18,0.292261719,-0.13617548,-0.154266433,-0.166414697,-0.023177117,-0.106491499,-0.275390774
1.76966E+18,0.30225,-0.229024883,-0.193383807,-0.274222599,-0.011706607,-0.097574174,-0.292054683
1.76966E+18,0.312237793,-0.261551261,-0.199748081,-0.324620077,-0.001518153,-0.065718777,-0.310258448
1.76966E+18,0.322224854,-0.244618831,-0.218850256,-0.283016147,0.003702544,0.004462911,-0.319418371
1.76966E+18,0.332212891,-0.233056403,-0.192776488,-0.119015817,-0.006966611,0.068364389,-0.329719752
1.76966E+18,0.342200684,-0.166111111,-0.167908004,-0.094290541,-0.014675923,0.107583962,-0.340202719
1.76966E+18,0.352188965,-0.099838092,-0.045596799,0.048004445,-0.013821847,0.111101471,-0.33836782
1.76966E+18,0.362177002,-0.056547159,0.086052728,0.217954915,-0.012714467,0.089478083,-0.346355528
1.76966E+18,0.372164795,0.10541202,0.129466922,0.257323487,-0.028684378,0.052061204,-0.353117555
1.76966E+18,0.382152832,0.126073261,0.022797523,0.225434165,-0.071427107,0.019599356,-0.34673062
1.76966E+18,0.392141113,0.049176338,-0.07476561,0.172408969,-0.108030654,0.012377395,-0.335277945
1.76966E+18,0.40212915,0.023785365,-0.034297406,0.211944861,-0.118290894,0.019327538,-0.332846522
1.76966E+18,0.412116943,0.050350131,-0.095952191,0.209561911,-0.14445512,0.007756104,-0.323407501
1.76966E+18,0.422104736,0.098984727,0.13292963,0.205612881,-0.153360739,0.085778199,-0.303807706
1.76966E+18,0.432092773,0.076166636,0.189554604,0.195252815,-0.106531173,0.059936482,-0.304811984
1.76966E+18,0.442080811,0.327852994,0.11199907,0.089954704,-0.110398568,-0.001504633,-0.232146889
1.76966E+18,0.452068848,-0.147675291,0.152357384,-0.142904058,-0.117572591,0.007510966,-0.224352345
1.76966E+18,0.462055908,-0.026339104,0.23870062,-0.104682317,-0.097838588,0.035808142,-0.199591905
1.76966E+18,0.472043701,-0.190769788,0.190468796,0.042167994,-0.07769417,0.004411072,-0.178683698
1.76966E+18,0.482031738,-0.370975585,0.120978496,0.050460606,-0.09723939,-0.047168147,-0.203377202
1.76966E+18,0.49202002,-0.087366733,0.142571903,-3.44868E-05,-0.10291858,0.008201106,-0.206137568
1.76966E+18,0.502007813,-0.223181563,0.038214872,-0.168189452,-0.088797748,0.000212805,-0.206854686
1.76966E+18,0.51199585,0.123302555,-0.088099724,-0.292690422,-0.081571527,-0.026837988,-0.193655804
1.76966E+18,0.521983887,0.033179216,-0.193904031,-0.175421449,-0.109584525,-0.018453281,-0.187741742
1.76966E+18,0.531971924,-0.18553302,-0.164039054,-0.196951144,-0.129044235,0.004443777,-0.207570031
1.76966E+18,0.541959961,-0.172536231,0.015717209,-0.070691639,-0.13605839,0.004473099,-0.231427297
1.76966E+18,0.551947998,-0.108742662,0.096065588,-0.01460238,-0.136461064,-0.00589725,-0.259063959
1.76966E+18,0.561936035,-0.03431085,0.071209964,0.031617374,-0.136196658,-0.000712648,-0.298372328
1.76966E+18,0.571923828,0.026226894,0.120702017,0.035135319,-0.141145349,0.004158539,-0.324784786
1.76966E+18,0.581911865,0.01366846,0.148795308,0.019774522,-0.149477154,0.036667984,-0.326439798
1.76966E+18,0.591899902,-0.125475213,0.077356211,0.059189125,-0.162233159,0.082696192,-0.310355902
1.76966E+18,0.601887939,-0.156046886,-0.002296002,0.034800241,-0.170067027,0.110221066,-0.298917532
1.76966E+18,0.611874756,-0.105642386,-0.029909401,-0.00935878,-0.184575394,0.117605738,-0.28432259
1.76966E+18,0.621862793,-0.035447745,-0.082231124,-0.024329116,-0.192347154,0.115081407,-0.273263335
1.76966E+18,0.631850586,-0.021214642,-0.126075526,0.022123715,-0.2087477,0.112957269,-0.265848279
1.76966E+18,0.641838867,0.006130465,-0.168422384,-0.033224809,-0.209534734,0.117686212,-0.270083606
1.76966E+18,0.651826904,0.056985039,-0.16986323,0.064691814,-0.215053618,0.133808196,-0.274082094
1.76966E+18,0.661814941,0.087121819,-0.17132395,0.069122782,-0.209023669,0.171702579,-0.293296516
1.76966E+18,0.671802734,0.109116217,-0.175119836,0.149614954,-0.207885697,0.207437396,-0.316655368
1.76966E+18,0.681791016,0.175129772,-0.156444946,0.099608375,-0.206442118,0.230374739,-0.329251349
1.76966E+18,0.691779053,0.160782098,-0.141801503,0.050474123,-0.208735898,0.233635247,-0.326615632
1.76966E+18,0.701766846,0.122237574,-0.091727851,-0.009578268,-0.212150469,0.226055712,-0.316579044
1.76966E+18,0.711754883,0.048389078,-0.046096565,-0.05084091,-0.224555731,0.183218494,-0.299507648
1.76966E+18,0.72174292,0.036775761,0.01696867,-0.124636945,-0.236959487,0.141146377,-0.271536022
1.76966E+18,0.731730957,-0.031550117,0.070661098,-0.171521592,-0.251384228,0.119841352,-0.248694912
1.76966E+18,0.74171875,-0.025150844,0.086482936,-0.175181576,-0.250551552,0.148093298,-0.239966661
1.76966E+18,0.751706055,-0.005230338,0.039749827,-0.068177318,-0.213959455,0.210278913,-0.235310391
1.76966E+18,0.761693848,-0.017681824,-0.074610712,0.113736781,-0.175563872,0.252448857,-0.265422165
1.76966E+18,0.771681641,0.215396353,-0.225789116,0.112751788,-0.141777411,0.262026638,-0.297441334
1.76966E+18,0.781669922,0.323173933,-0.308554493,0.052540627,-0.11569529,0.241415232,-0.287209153
1.76966E+18,0.791657959,0.146509206,-0.25862814,0.091352515,-0.094735146,0.218986094,-0.260201752
1.76966E+18,0.801645752,0.027659649,-0.14186697,0.0878901,-0.081597835,0.197702587,-0.222091496
1.76966E+18,0.811633789,-0.022091347,-0.051170215,0.031554464,-0.073134042,0.195570186,-0.174404129
1.76966E+18,0.82162207,-0.057993851,0.023715222,0.027517318,-0.06315399,0.219046861,-0.129458845
1.76966E+18,0.831609863,-0.064961315,0.06683774,0.020151246,-0.054803915,0.260079771,-0.10746406
1.76966E+18,0.8415979,0.043201976,0.066848261,0.012056348,-0.052199293,0.3027291,-0.094176538
1.76966E+18,0.851585938,0.178262773,0.045822424,0.035597748,-0.060526997,0.309918046,-0.080321446
1.76966E+18,0.861573975,0.334147857,0.08498656,0.077200144,-0.059919827,0.30484882,-0.071030125
1.76966E+18,0.871562012,0.439751088,0.06408698,0.167474581,-0.039373536,0.299056202,-0.069065511
1.76966E+18,0.881549805,0.473141207,0.009446458,0.228290723,-0.013760319,0.285876483,-0.063635059
1.76966E+18,0.891537842,0.408155269,-0.005974398,0.166379991,0.006283163,0.275303453,-0.042215783
1.76966E+18,0.901524902,0.288178717,0.040679801,0.113064654,0.014219208,0.263518751,-0.012801578
1.76966E+18,0.911512939,0.235294611,0.071200027,0.068928209,0.019667769,0.256271482,0.015723273
1.76966E+18,0.921500977,0.193664962,0.08095862,0.050834773,0.022324596,0.249196023,0.041125402
1.76966E+18,0.93148877,0.146255633,0.040790276,0.069538158,0.024330221,0.238568142,0.057639398
1.76966E+18,0.941476807,0.107831356,-0.003898176,0.105128308,0.028810386,0.227710128,0.059817221
1.76966E+18,0.951464844,0.117375503,-0.038355742,0.167827121,0.032968644,0.209809422,0.051661022
1.76966E+18,0.961452637,0.13559863,-0.056353171,0.222336491,0.041629564,0.191766933,0.03736138
1.76966E+18,0.971440918,0.13605558,-0.039644028,0.241774547,0.048970833,0.179740101,0.029639013
1.76966E+18,0.981428955,0.101132772,-0.04065642,0.267687206,0.05355525,0.170074463,0.029277712
1.76966E+18,0.991416992,0.085825349,-0.05406769,0.253106673,0.055255678,0.159701452,0.033939842
1.76966E+18,1.001404785,0.087899233,-0.060422612,0.238108718,0.052241553,0.146675557,0.041687708
1.76966E+18,1.011393066,0.100434962,-0.096775198,0.217859126,0.047643606,0.128058463,0.044456065
1.76966E+18,1.021381104,0.099526469,-0.138263392,0.199558696,0.040342376,0.107923925,0.040206585
1.76966E+18,1.031368896,0.119138494,-0.115087099,0.165014402,0.036322869,0.091012321,0.032323096
1.76966E+18,1.041356689,0.122104248,-0.096626145,0.106736474,0.034476083,0.073188245,0.015931113
1.76966E+18,1.051343994,0.14776823,-0.088377956,0.023478929,0.039063912,0.051620368,0.003028098
1.76966E+18,1.061331787,0.101475265,-0.076579966,-0.038109585,0.045772664,0.048098072,0.001565477
1.76966E+18,1.071319824,-0.045936406,-0.083964816,-0.0426351,0.061241638,0.066559903,-0.003312102
1.76966E+18,1.081307861,-0.091959322,-0.136593413,-0.037535512,0.084414668,0.099745594,-0.020051556
1.76966E+18,1.091295898,-0.026962753,-0.233595405,-0.023674379,0.110975973,0.129105613,-0.043368861
1.76966E+18,1.101283691,0.069782561,-0.311367796,-0.03216339,0.131844968,0.134552807,-0.060301609
1.76966E+18,1.111271973,0.037914391,-0.269531811,-0.064346362,0.138877317,0.130767658,-0.062418289
1.76966E+18,1.12126001,-0.086117537,-0.213764331,-0.104748295,0.139647275,0.153024107,-0.066835217
1.76966E+18,1.131247803,-0.10370591,-0.242532745,-0.103795452,0.153615832,0.187882766,-0.089981817
1.76966E+18,1.14123584,0.009963833,-0.284994169,-0.013351576,0.170245692,0.212940857,-0.135653779
1.76966E+18,1.151224121,0.12659692,-0.320160175,-0.040504152,0.176966444,0.231021062,-0.172785431
1.76966E+18,1.161212158,0.042722705,-0.279874926,-0.096165176,0.189195827,0.240695611,-0.187905326
1.76966E+18,1.171199951,-0.077339187,-0.193800571,-0.141598528,0.209607631,0.257996559,-0.187992409
1.76966E+18,1.181187988,-0.141874057,-0.213204944,-0.172055333,0.230703786,0.301175684,-0.188770145
1.76966E+18,1.191175049,-0.085944665,-0.227063958,-0.198329008,0.26848498,0.375441402,-0.197262704
1.76966E+18,1.201162842,0.034053076,-0.214550513,-0.146477094,0.301687866,0.451065809,-0.216808543
1.76966E+18,1.211151123,0.106974593,-0.275508547,-0.195014184,0.329919249,0.485140413,-0.233722284
1.76966E+18,1.221138916,0.200955045,-0.331520942,-0.293169292,0.366407305,0.478816777,-0.242813408
1.76966E+18,1.231126709,0.242782263,-0.228247615,-0.2792698,0.405308902,0.474679023,-0.238336906
1.76966E+18,1.241114746,0.101899555,-0.187339266,-0.244925924,0.443849564,0.473941743,-0.218745559
1.76966E+18,1.251103027,-0.029464652,-0.14428163,-0.205267137,0.472782403,0.47598812,-0.193955526
1.76966E+18,1.26109082,-0.192709926,-0.193949624,-0.186512752,0.48644048,0.489614546,-0.183743432
1.76966E+18,1.271078857,-0.26358094,-0.254719442,-0.085141897,0.496206045,0.489853978,-0.188958973
1.76966E+18,1.281066895,-0.285436067,-0.287622764,0.059780223,0.505440533,0.463812113,-0.209621564
1.76966E+18,1.291054932,-0.289959244,-0.212110134,0.313525997,0.530778348,0.410821319,-0.240184277
1.76966E+18,1.301042969,-0.282118394,-0.059327218,0.650612318,0.544993281,0.32913515,-0.275573999
1.76966E+18,1.311031006,-0.266136397,-0.009818214,0.745961283,0.536452532,0.253247827,-0.300704658
1.76966E+18,1.321019043,-0.356206324,-0.099111532,0.769773097,0.508158743,0.201534659,-0.306787372
1.76966E+18,1.331005859,-0.509008822,-0.141432085,0.792157801,0.492907077,0.177313477,-0.310689688
1.76966E+18,1.340993896,-0.60050396,-0.060388125,0.970531378,0.480879784,0.137134835,-0.30654183
1.76966E+18,1.350982178,-0.615485402,0.004493804,1.1515562,0.477346569,0.067299813,-0.302065849
1.76966E+18,1.360969971,-0.641477556,0.168513569,1.386746035,0.451340556,-0.018100314,-0.310690463
1.76966E+18,1.370958008,-0.599506839,0.258287948,1.407915664,0.402089924,-0.111787125,-0.321523935
1.76966E+18,1.380945801,-0.626919454,0.180716633,1.368799021,0.331752867,-0.206939608,-0.348480135
1.76966E+18,1.390933838,-0.546024109,0.18478432,1.364061032,0.250397027,-0.308781564,-0.391859323
1.76966E+18,1.400921875,-0.383243092,0.129745739,1.333479432,0.176776707,-0.440856576,-0.444058001
1.76966E+18,1.410909912,-0.124285866,0.021070845,1.207048077,0.107567012,-0.589984596,-0.497315615
1.76966E+18,1.420897949,0.055303954,-0.096818452,0.910196882,0.042777359,-0.703856826,-0.538621485
1.76966E+18,1.430885742,0.149338475,-0.130294605,0.575259994,-0.022937469,-0.750361443,-0.555380762
1.76966E+18,1.440874023,0.064235449,-0.128285604,0.324020796,-0.07288222,-0.758651495,-0.558541954
1.76966E+18,1.450862061,0.129391957,-0.107288408,0.150019297,-0.113808617,-0.779102445,-0.568022311
1.76966E+18,1.460849854,0.388198376,-0.044150692,-0.112510089,-0.130563006,-0.788973033,-0.577412069
1.76966E+18,1.470837891,0.513503649,0.013841478,-0.301953341,-0.137391344,-0.792389333,-0.566545308
1.76966E+18,1.480824951,0.507869881,0.000151976,-0.443649922,-0.137279347,-0.785504162,-0.540579796
1.76966E+18,1.490812744,0.552308888,0.036129298,-0.588814034,-0.142174229,-0.741776884,-0.494783014
1.76966E+18,1.500801025,0.545240704,0.043705871,-0.719882839,-0.142021194,-0.657451093,-0.457198381
1.76966E+18,1.510789063,0.528859185,0.076096567,-0.776935682,-0.13568899,-0.535413861,-0.415067971
1.76966E+18,1.5207771,0.364204045,-0.029834582,-0.736886142,-0.122337334,-0.427397102,-0.379217148
1.76966E+18,1.530764893,0.359527578,-0.092774145,-0.718783645,-0.116721794,-0.3535631,-0.348253638
1.76966E+18,1.54075293,0.364367419,-0.207081492,-0.727105337,-0.117323533,-0.289865732,-0.30980286
1.76966E+18,1.550740967,0.181909934,-0.262192554,-0.647646893,-0.13228038,-0.241220936,-0.266226083
1.76966E+18,1.56072876,0.034569794,-0.285699102,-0.562879821,-0.148478761,-0.223709166,-0.229619697
1.76966E+18,1.570716797,-0.007431319,-0.331947643,-0.460341968,-0.173128977,-0.222546965,-0.208052874
1.76966E+18,1.580705078,0.029309097,-0.34498365,-0.37855245,-0.197379872,-0.227635548,-0.210952491
1.76966E+18,1.590692871,0.131498428,-0.272273803,-0.365562328,-0.219447896,-0.238852248,-0.229495287
1.76966E+18,1.600680908,0.227099906,-0.134456986,-0.417270449,-0.244395822,-0.253087729,-0.239830032
1.76966E+18,1.610668945,0.263688054,0.009194529,-0.501904397,-0.270604521,-0.268769234,-0.239774108
1.76966E+18,1.620656982,0.265512931,0.198432907,-0.605399989,-0.293047875,-0.281427264,-0.232435346
1.76966E+18,1.630643799,0.284420168,0.373368618,-0.711586573,-0.306429178,-0.285438269,-0.225575849
1.76966E+18,1.64063208,0.285802855,0.505831799,-0.778720812,-0.308200359,-0.269759148,-0.221539184
1.76966E+18,1.650620117,0.199035403,0.50481064,-0.816482533,-0.301209301,-0.240134656,-0.225101963
1.76966E+18,1.66060791,0.087581253,0.425367685,-0.890502586,-0.283154726,-0.204713866,-0.229835555
1.76966E+18,1.670595947,-0.048580783,0.300000015,-0.935806248,-0.257804364,-0.166303098,-0.237210914
1.76966E+18,1.680584229,-0.231047182,0.209735806,-0.972814082,-0.219265953,-0.138817638,-0.245167255
1.76966E+18,1.690571777,-0.366812912,0.266636674,-0.955995926,-0.173346937,-0.111574829,-0.248625383
1.76966E+18,1.700559814,-0.543578762,0.36114568,-0.83861224,-0.130492091,-0.069166325,-0.250972331
1.76966E+18,1.710547852,-0.648010319,0.426895625,-0.717596189,-0.083495297,-0.011003682,-0.250927061
1.76966E+18,1.720535645,-0.649196899,0.528933858,-0.548358982,-0.03226329,0.049939923,-0.254990429
1.76966E+18,1.730523926,-0.602417758,0.567212443,-0.395882063,0.016307442,0.114715457,-0.256625861
1.76966E+18,1.740511963,-0.571020749,0.466781061,-0.369958955,0.061744343,0.18638216,-0.257386595
1.76966E+18,1.7505,-0.579642301,0.391782811,-0.324586613,0.089035623,0.25047648,-0.261098504
1.76966E+18,1.760487793,-0.505406998,0.298321852,-0.33211847,0.106869109,0.295263708,-0.261043936
1.76966E+18,1.770474854,-0.40924964,0.177691147,-0.39858913,0.110635623,0.318490714,-0.255844921
1.76966E+18,1.780463135,-0.312690131,-0.008650924,-0.525149663,0.105426773,0.330082834,-0.254448444
1.76966E+18,1.790450928,-0.160754041,-0.113774848,-0.583719341,0.103928208,0.325192451,-0.248660088
1.76966E+18,1.800438965,-0.026287995,-0.166407537,-0.63092416,0.096217565,0.31275472,-0.241774723
1.76966E+18,1.810427002,0.062772829,-0.145695004,-0.710301502,0.082649827,0.332260489,-0.250766605
1.76966E+18,1.820414795,0.079366674,-0.075453593,-0.651327335,0.057759717,0.339503109,-0.233888358
1.76966E+18,1.830403076,0.034491029,-0.053248775,-0.621348522,0.050716456,0.358219266,-0.227425933
1.76966E+18,1.840390869,0.080163086,0.01209785,-0.614978987,0.044292316,0.370814025,-0.213105261
1.76966E+18,1.850378906,0.050759589,0.089417236,-0.606494798,0.030646278,0.367546856,-0.188582867
1.76966E+18,1.860366699,-0.033929158,0.107386608,-0.684830814,0.017263168,0.358755261,-0.173719659
1.76966E+18,1.87035498,-0.065761051,0.105076577,-0.730444565,0.002873576,0.344759554,-0.165207937
1.76966E+18,1.880343018,-0.048244099,0.049847442,-0.791781369,-0.001345314,0.324140847,-0.164915115
1.76966E+18,1.890330811,-0.004671207,0.085418522,-0.817642371,0.002403884,0.293578416,-0.169411063
1.76966E+18,1.900318848,0.046949383,0.170042678,-0.825534147,0.00867975,0.26399675,-0.173787117
1.76966E+18,1.910307129,0.076059157,0.313449279,-0.897135594,0.019956907,0.247533068,-0.155207843
1.76966E+18,1.920293945,0.041891515,0.483236521,-0.954980904,0.040291183,0.257789999,-0.118682876
1.76966E+18,1.930281982,-0.030802842,0.625030426,-1.000053825,0.060996994,0.307002544,-0.070510827
1.76966E+18,1.94027002,-0.09980156,0.593434679,-1.148846064,0.082824208,0.386426985,-0.015172559
1.76966E+18,1.950257813,-0.128665543,0.537535098,-1.266427464,0.111829489,0.480309308,0.030078009
1.76966E+18,1.96024585,-0.119875795,0.480125111,-1.288526629,0.143392369,0.584979773,0.049346354
1.76966E+18,1.970234131,-0.075268007,0.37656303,-1.213453707,0.169225842,0.671884596,0.047765236
1.76966E+18,1.980222168,-0.061053311,0.283933261,-1.13835565,0.188599721,0.70591414,0.035486355
1.76966E+18,1.990209961,-0.034269642,0.217656662,-1.104182746,0.211149246,0.713109195,0.029168807
1.76966E+18,2.000197754,-0.091194475,0.204357036,-1.101360675,0.227325425,0.733476818,0.035117745
1.76966E+18,2.010186035,-0.168699739,0.211644855,-1.097058301,0.248532981,0.768807113,0.058193505
1.76966E+18,2.020173828,-0.209129073,0.162084997,-1.074749731,0.257598549,0.801430643,0.082619995
1.76966E+18,2.030161865,-0.204262051,0.108079266,-1.045581504,0.268984914,0.813638031,0.102900498
1.76966E+18,2.040149902,-0.157191965,0.12799685,-0.988003906,0.279795438,0.818551183,0.117999904
1.76966E+18,2.050137695,-0.125487497,0.166843006,-0.885790025,0.293929636,0.835729897,0.124253802
1.76966E+18,2.060125977,-0.134294489,0.228448106,-0.783658268,0.310161293,0.854320765,0.136208519
1.76966E+18,2.070113037,-0.178107911,0.292418766,-0.745413878,0.321711689,0.853301346,0.147354111
1.76966E+18,2.080100342,-0.22180063,0.341358445,-0.71420187,0.328179479,0.849029124,0.163532406
1.76966E+18,2.090088135,-0.290040054,0.329199221,-0.712881435,0.334824622,0.843691885,0.180873573
1.76966E+18,2.100076172,-0.334204774,0.312546193,-0.650609688,0.342070699,0.827264488,0.187750891
1.76966E+18,2.110064209,-0.278512113,0.35737493,-0.639792964,0.351498842,0.802424371,0.196045846
1.76966E+18,2.120052246,-0.23128216,0.439658661,-0.635709494,0.356658399,0.783792198,0.207289502
1.76966E+18,2.130040283,-0.215897836,0.480592729,-0.680259853,0.35888797,0.783600748,0.22146605
1.76966E+18,2.14002832,-0.181364575,0.503866052,-0.715204033,0.357314497,0.788285077,0.24375616
1.76966E+18,2.150016357,-0.175946057,0.480815431,-0.734876556,0.356554687,0.795649767,0.273692489
1.76966E+18,2.160004395,-0.263854058,0.420151996,-0.707263011,0.355587035,0.80063504,0.309920162
1.76966E+18,2.169992432,-0.367280822,0.314738734,-0.657493749,0.348434031,0.803774118,0.340351582
1.76966E+18,2.179980225,-0.464014519,0.172801037,-0.657668374,0.339272529,0.799062669,0.361974627
1.76966E+18,2.189968018,-0.550218346,0.041093058,-0.628725773,0.331382394,0.788860917,0.37569949
1.76966E+18,2.199956055,-0.585043575,-0.074451138,-0.540264815,0.329771549,0.754772365,0.374456942
1.76966E+18,2.209943115,-0.509646974,-0.043075756,-0.444472637,0.328254074,0.70520854,0.363249838
1.76966E+18,2.219931152,-0.413313382,-0.009154197,-0.359374579,0.325612038,0.68526274,0.358834565
1.76966E+18,2.229919189,-0.465196422,-0.015257775,-0.296387523,0.32547915,0.693165958,0.362545401
1.76966E+18,2.239907227,-0.52840545,0.10418752,-0.202801477,0.330488026,0.687152326,0.369926989
1.76966E+18,2.24989502,-0.471481786,0.284217339,-0.06866817,0.349004984,0.670492411,0.381698966
1.76966E+18,2.259883301,-0.44038639,0.3793927,-0.023582828,0.366945207,0.660663664,0.386684418
1.76966E+18,2.269871338,-0.34595308,0.572740266,0.078977675,0.358463824,0.67167002,0.37836498
1.76966E+18,2.279859375,-0.274661137,0.64280106,0.090457101,0.328007907,0.685971916,0.364693135
1.76966E+18,2.289847168,-0.275077463,0.660099986,0.031720249,0.280023605,0.696055174,0.353794128
1.76966E+18,2.299835449,-0.310523747,0.542496519,0.020164105,0.233079225,0.684055924,0.337302595
1.76966E+18,2.309823486,-0.265235137,0.365179466,0.036724195,0.19860594,0.635115325,0.318003982
1.76966E+18,2.319811279,-0.171502522,0.204137256,0.041816988,0.175257459,0.582691312,0.289586276
1.76966E+18,2.329799072,-0.100509854,0.104407884,0.045876201,0.147881225,0.552506506,0.272947133
1.76966E+18,2.339787109,-0.152536102,-0.03456161,0.036589901,0.112842202,0.521614373,0.267392159
1.76966E+18,2.349775391,-0.2638789,-0.143645085,-0.021275866,0.082984976,0.485896289,0.269090205
1.76966E+18,2.359762451,-0.292599091,-0.233549813,-0.049890551,0.060223177,0.451659799,0.262595773
1.76966E+18,2.369750244,-0.285344882,-0.308404855,-0.02095511,0.051956989,0.418248832,0.251217932
1.76966E+18,2.379738037,-0.198807731,-0.251000129,-0.003695055,0.053693812,0.3980259,0.237419844
1.76966E+18,2.389726074,-0.120382283,-0.18027941,-0.003041706,0.064696133,0.400912762,0.224643335
1.76966E+18,2.399714355,-0.084177143,-0.126544897,-0.038497342,0.072277837,0.423879206,0.210880443
1.76966E+18,2.409702393,0.005112521,-0.104595516,-0.119595517,0.076257132,0.466464221,0.192384779
1.76966E+18,2.419690186,0.037822073,-0.134312609,-0.219635854,0.065593354,0.531533837,0.182085082
1.76966E+18,2.429678223,0.006064999,-0.30256139,-0.374290701,0.063261494,0.59564811,0.175079361
1.76966E+18,2.43966626,-0.00209025,-0.51421209,-0.43617871,0.072840229,0.627809882,0.162630513
1.76966E+18,2.449654297,0.091578214,-0.631212329,-0.438952558,0.090213358,0.618923962,0.153770983
1.76966E+18,2.459642334,0.150115743,-0.666490563,-0.50965165,0.110339165,0.590459764,0.168887794
1.76966E+18,2.469630371,0.082756609,-0.561903815,-0.547901447,0.127955705,0.579599917,0.206798956
1.76966E+18,2.479618164,-0.062716861,-0.354831675,-0.558822654,0.142337769,0.59308511,0.264103383
1.76966E+18,2.489606201,-0.201104464,-0.085516722,-0.476397031,0.164563969,0.626217782,0.320442021
1.76966E+18,2.499594238,-0.321328049,0.107360889,-0.309766206,0.190020651,0.659713745,0.361559063
1.76966E+18,2.509581299,-0.354562795,0.186526196,-0.113769879,0.216590732,0.681910694,0.375734806
1.76966E+18,2.519569092,-0.251423615,0.213073426,0.043403235,0.251600951,0.698491693,0.366189122
1.76966E+18,2.529557129,-0.131534669,0.1877005,0.186391317,0.283530116,0.741928399,0.344267339
1.76966E+18,2.539545166,-0.046465691,0.16992519,0.318617914,0.316206098,0.788374901,0.31261614
1.76966E+18,2.549533203,0.098212537,0.160541275,0.4480673,0.337528676,0.828611791,0.276103139
1.76966E+18,2.55952124,0.217623345,0.118859019,0.505883968,0.358107299,0.843274832,0.259259731
1.76966E+18,2.569509277,0.287973185,0.017785248,0.582847819,0.372279316,0.836232066,0.257145971
1.76966E+18,2.57949707,0.411864645,-0.193409525,0.592884352,0.386481524,0.815545857,0.263240933
1.76966E+18,2.589485352,0.571889495,-0.362072732,0.659072396,0.401447684,0.80477339,0.27114439
1.76966E+18,2.599473389,0.706940501,-0.464332499,0.770973997,0.424554557,0.800422311,0.266477883
1.76966E+18,2.609461426,0.887771846,-0.490580454,0.85056922,0.441745788,0.806532383,0.259327561
1.76966E+18,2.619449219,1.06817839,-0.497078584,0.98949736,0.45917204,0.819997251,0.237855598
1.76966E+18,2.629437256,1.214814181,-0.413139487,1.240366848,0.482588947,0.833557308,0.199370801
1.76966E+18,2.639425293,1.355269239,-0.318442849,1.456037744,0.496093392,0.839873433,0.160878301
1.76966E+18,2.649413086,1.373318105,-0.298893515,1.611447355,0.481273949,0.816190958,0.128588274
1.76966E+18,2.659401123,1.317378922,-0.344402051,1.609340884,0.446998477,0.749873996,0.111734614
1.76966E+18,2.669388184,1.272262016,-0.438868387,1.573544471,0.420767158,0.64690578,0.086600497
1.76966E+18,2.679375977,1.288460286,-0.50677814,1.524371421,0.39872399,0.54550302,0.065376021
1.76966E+18,2.689364258,1.150888822,-0.543650366,1.416772193,0.367614269,0.482254297,0.059281118
1.76966E+18,2.699352295,0.878607566,-0.511181928,1.371762693,0.326309681,0.433389366,0.060082007
1.76966E+18,2.709340088,0.656883069,-0.461569464,1.327271371,0.289332211,0.380419374,0.070256881
1.76966E+18,2.719328125,0.396101112,-0.464878442,1.325421359,0.25969997,0.354348719,0.07925152
1.76966E+18,2.729316406,0.190105223,-0.519419595,1.450212545,0.245830506,0.353993744,0.075180881
1.76966E+18,2.739304443,0.052127662,-0.516371314,1.606195572,0.244510591,0.367726713,0.052036475
1.76966E+18,2.749292236,-0.071955521,-0.509881952,1.725655333,0.270942211,0.361946315,0.012386801
1.76966E+18,2.759280273,-0.107298053,-0.48385553,1.790697714,0.298190296,0.339653939,-0.033566777
1.76966E+18,2.769268311,-0.148160809,-0.487998036,1.72906368,0.313530892,0.321848571,-0.084393479
1.76966E+18,2.779256348,-0.213272602,-0.540031006,1.797452157,0.297287136,0.293792903,-0.144074485
1.76966E+18,2.789244385,-0.151629654,-0.587753127,1.71722039,0.251466393,0.237963736,-0.206646249
1.76966E+18,2.799232178,-0.02365487,-0.700010556,1.548228974,0.197642013,0.183335677,-0.265912026
1.76966E+18,2.809220215,0.041352878,-0.820435509,1.478014451,0.162487224,0.121377237,-0.309766024
1.76966E+18,2.819207275,0.131782798,-0.911232801,1.46901486,0.155626819,0.062294263,-0.324999839
1.76966E+18,2.829195313,0.182611506,-0.876461347,1.307855161,0.143917695,0.027154384,-0.30516836
1.76966E+18,2.839183105,0.179041393,-0.723681354,1.063705044,0.115308173,0.015606369,-0.270202875
1.76966E+18,2.849171143,0.186327897,-0.42139995,0.870177445,0.081573382,0.010682184,-0.225570172
1.76966E+18,2.85915918,0.106753863,-0.185801973,0.785584268,0.052212238,0.01491835,-0.188135415
1.76966E+18,2.869147217,-0.079211045,-0.186733116,0.728835084,0.026546557,0.028375035,-0.173651814
1.76966E+18,2.879135254,-0.238504512,-0.243224819,0.717514064,0.00142902,0.033443153,-0.172742099
1.76966E+18,2.889123291,-0.397874698,-0.320624285,0.647795215,-0.010724315,0.027824683,-0.176529914
1.76966E+18,2.899111328,-0.553063214,-0.341219329,0.641041942,-0.019251212,0.018195665,-0.173741162
1.76966E+18,2.909099121,-0.730611592,-0.327583018,0.62074325,-0.025783148,0.018139472,-0.163801447
1.76966E+18,2.919087402,-0.827608177,-0.267163913,0.669132895,-0.03128181,0.02194391,-0.156304315
1.76966E+18,2.929075439,-0.8704586,-0.17363515,0.653497226,-0.03449332,0.029879065,-0.146040484
1.76966E+18,2.939063477,-0.926765886,-0.083933836,0.715416507,-0.028764842,0.055896267,-0.131736621
1.76966E+18,2.949051025,-0.956228419,-0.079828154,0.748302293,-0.019850444,0.090317361,-0.118612029
1.76966E+18,2.959039063,-0.946427156,-0.094451139,0.806666219,-0.014503601,0.115022093,-0.106472395
1.76966E+18,2.969027344,-0.881427153,-0.071807345,0.810213098,-0.018155329,0.125014275,-0.096980087
1.76966E+18,2.979015137,-0.879552007,-0.116333885,0.776677323,-0.032120161,0.148055479,-0.083857507
1.76966E+18,2.989002197,-0.963371861,-0.22780104,0.811418966,-0.040642545,0.170928836,-0.062875524
1.76966E+18,2.998990234,-1.001249464,-0.340676893,0.916821707,-0.046861969,0.172035843,-0.048944488
1.76966E+18,3.008978027,-0.96085228,-0.424392118,1.002991924,-0.046441987,0.160389841,-0.038174666
1.76966E+18,3.018966309,-0.949588835,-0.499382185,1.114091123,-0.052073095,0.157311827,-0.027911687
1.76966E+18,3.028954346,-0.972958605,-0.563210222,1.187808686,-0.059202909,0.155290231,-0.02099466
1.76966E+18,3.038942139,-0.932695568,-0.640096477,1.195455985,-0.062733553,0.147767037,-0.016258094
1.76966E+18,3.048930176,-0.82920626,-0.682586543,1.252550622,-0.053781603,0.1372132,-0.011757618
1.76966E+18,3.058918457,-0.722441875,-0.657168608,1.2372984,-0.06440115,0.136755705,-0.010502893
1.76966E+18,3.068906494,-0.660857818,-0.634718291,1.336477152,-0.086798333,0.106184229,-0.02008548
1.76966E+18,3.078894287,-0.529096063,-0.600146744,1.403991476,-0.114764839,0.040661488,-0.027727466
1.76966E+18,3.088882324,-0.484638789,-0.64513038,1.40839731,-0.140126929,-0.021890571,-0.034294024
1.76966E+18,3.098870117,-0.516847407,-0.725861621,1.489272343,-0.158279449,-0.085509829,-0.030466497
1.76966E+18,3.108858398,-0.543251429,-0.705178314,1.483333016,-0.181530178,-0.148155898,-0.022243189
1.76966E+18,3.118846191,-0.493440812,-0.572347468,1.276151278,-0.210619196,-0.190507814,-0.008423829
1.76966E+18,3.128834229,-0.475253706,-0.353313672,1.14974462,-0.245462134,-0.212054908,0.017703645
1.76966E+18,3.138821289,-0.556827243,-0.203989956,1.033274104,-0.283631712,-0.227437928,0.053278871
1.76966E+18,3.148809082,-0.649068596,-0.141772862,0.899888839,-0.315154195,-0.232332811,0.081722237
1.76966E+18,3.158797363,-0.67990271,-0.084457568,0.801403915,-0.336447626,-0.235132501,0.112929359
1.76966E+18,3.1687854,-0.747077135,-0.039338323,0.673959584,-0.354685217,-0.208740845,0.141961813
1.76966E+18,3.178773193,-0.829161836,0.072114219,0.561190552,-0.36354652,-0.160667956,0.167985216
1.76966E+18,3.18876123,-0.950801134,0.205171859,0.52749535,-0.366698086,-0.112573393,0.191414371
1.76966E+18,3.198749268,-1.038086034,0.301679931,0.58718994,-0.371668398,-0.074702486,0.218307659
1.76966E+18,3.208737305,-1.211533552,0.248126035,0.657461015,-0.362447202,-0.021938602,0.246274322
1.76966E+18,3.218725342,-1.369422852,0.104317284,0.894217077,-0.338856339,0.047270868,0.260585457
1.76966E+18,3.228713379,-1.407553406,0.069064768,1.174776186,-0.310514718,0.084685348,0.236001804
1.76966E+18,3.238701416,-1.154494445,0.384661581,1.268640318,-0.315826446,0.156102762,0.159832373
1.76966E+18,3.248689453,-1.078919856,0.671084321,1.374081345,-0.262154698,0.137727484,0.138328686
1.76966E+18,3.258677246,-1.360990247,0.635414457,1.958386523,-0.211102858,0.073778793,0.162585318
1.76966E+18,3.268665283,-1.397754481,0.888787745,2.257362017,-0.147548392,-0.035635579,0.149821579
1.76966E+18,3.278653076,-0.80205288,1.232327626,2.448861909,-0.086577922,-0.183380201,0.11762055
1.76966E+18,3.288641113,-0.254273013,1.282470252,2.502260468,-0.084050313,-0.241287977,0.035452183
1.76966E+18,3.298628174,0.382005805,1.763921059,2.372220861,-0.075131342,-0.22155802,-0.08774104
1.76966E+18,3.308616211,0.916520971,2.34820271,2.644170108,-0.110529013,-0.213758692,-0.188468188
1.76966E+18,3.318604248,0.993894133,2.244966207,2.504215694,-0.161853179,-0.26077345,-0.256068617
1.76966E+18,3.328592285,1.165328851,1.959485717,1.9189519,-0.2039226,-0.313360751,-0.301448882
1.76966E+18,3.338580078,1.377192317,1.354311499,1.396872438,-0.208856419,-0.348569721,-0.29389134
1.76966E+18,3.348568359,1.376998255,0.819433054,1.175988192,-0.199624836,-0.440656781,-0.288378328
1.76966E+18,3.358556396,1.769781183,0.571899139,0.769701639,-0.209490955,-0.531288147,-0.301549375
1.76966E+18,3.368544434,2.165076386,0.34143794,0.186749191,-0.23394677,-0.603981256,-0.297700047
1.76966E+18,3.378532227,2.087873319,-0.19206571,-0.370170406,-0.254930139,-0.674064875,-0.257773072
1.76966E+18,3.388520264,1.768498888,-0.805166044,-0.73539415,-0.257062256,-0.711566746,-0.195337117
1.76966E+18,3.398508545,1.545223947,-1.365495741,-0.952809113,-0.261432439,-0.708245873,-0.140056074
1.76966E+18,3.408496338,1.443368086,-1.960124599,-1.361509887,-0.277875066,-0.698262751,-0.099171765
1.76966E+18,3.418484131,1.470306361,-2.267634551,-1.878038729,-0.27557978,-0.654839396,-0.061825845
1.76966E+18,3.428472168,1.464685307,-1.892258685,-2.078311856,-0.22598134,-0.559174418,-0.007433177
1.76966E+18,3.438460449,1.244926411,-1.135450722,-1.960349786,-0.158001631,-0.43739292,0.088729337
1.76966E+18,3.448448242,0.779859753,-0.34966684,-1.877606329,-0.066261597,-0.27777794,0.20357123
1.76966E+18,3.458435303,0.248510943,0.406173155,-1.755315143,0.021769512,-0.087305896,0.308967739
1.76966E+18,3.46842334,-0.221106218,1.036584689,-1.436554606,0.092359789,0.086544462,0.369623899
1.76966E+18,3.478411133,-0.50737596,1.464056069,-1.007071449,0.154267579,0.205761045,0.371803671
1.76966E+18,3.488399414,-0.634701925,1.579602018,-0.759667444,0.221543834,0.292701513,0.322992444
1.76966E+18,3.498387451,-0.729878455,1.401127027,-0.539950488,0.291337848,0.368887275,0.224358201
1.76966E+18,3.508375244,-0.675718703,1.180081306,-0.199396199,0.364113778,0.399590313,0.103609405
1.76966E+18,3.518363281,-0.471653343,0.962330536,0.075740447,0.424443632,0.409141958,-0.001254521
1.76966E+18,3.528351318,-0.317410291,0.71348963,0.33055575,0.442143798,0.378116935,-0.067247383
1.76966E+18,3.538339355,-0.284677358,0.367123001,0.414234297,0.416822135,0.294031322,-0.097310074
1.76966E+18,3.548327393,-0.131214351,0.051595747,0.477502215,0.371730536,0.205492124,-0.097112998
1.76966E+18,3.55831543,0.053404258,-0.3001894,0.538633414,0.299331099,0.13832745,-0.080600455
1.76966E+18,3.568303223,0.269677649,-0.685708474,0.425169971,0.218120411,0.047854267,-0.06047548
1.76966E+18,3.578291016,0.515080981,-0.869571588,0.40965676,0.124048665,-0.076663107,-0.043177735
1.76966E+18,3.588279297,0.746112966,-0.985377649,0.375227105,0.023729514,-0.224443242,-0.034450825
1.76966E+18,3.598267334,0.905889979,-0.990500984,0.339569809,-0.078480437,-0.392731965,-0.012323495
1.76966E+18,3.608255127,0.788246765,-1.006957028,0.151326872,-0.179417178,-0.550219595,0.023027305
1.76966E+18,3.618243164,0.534697244,-0.928206148,-0.073348437,-0.268380582,-0.662750483,0.061420422
1.76966E+18,3.628230225,0.260683027,-0.855152602,-0.224347977,-0.338625193,-0.744811833,0.095269471
1.76966E+18,3.638218262,-0.039893327,-0.920766353,-0.404042719,-0.372678101,-0.814424813,0.115613647
1.76966E+18,3.648206299,-0.298007672,-1.058469189,-0.50685895,-0.371878356,-0.855900109,0.120559141
1.76966E+18,3.658194336,-0.495164859,-1.282867727,-0.530132274,-0.341381252,-0.867245376,0.093315929
1.76966E+18,3.668182129,-0.521852521,-1.426563666,-0.504270103,-0.299863905,-0.841196775,0.032512765
1.76966E+18,3.67817041,-0.462109708,-1.383275144,-0.591247545,-0.248542041,-0.786752999,-0.028902784
1.76966E+18,3.688158447,-0.561853839,-1.204879647,-0.691979225,-0.164703071,-0.650730431,-0.065665059
1.76966E+18,3.698146484,-0.857237738,-0.69701605,-0.785920076,-0.10852582,-0.59129107,0.082562476
1.76966E+18,3.708134277,-0.966835446,-0.391506332,-1.16071858,-0.088361427,-0.489133507,0.155013785
1.76966E+18,3.71812207,-0.395435196,-0.55082771,-1.236888066,-0.051792596,-0.352852315,0.163560107
1.76966E+18,3.728110352,-0.144346804,-0.436428008,-1.026312156,-0.017818119,-0.268882841,0.173368528
1.76966E+18,3.738098145,-0.330965354,-0.476805027,-0.745902538,0.011349428,-0.251261741,0.1788726
1.76966E+18,3.748086182,-0.413954895,-0.494108044,-0.460297106,0.036096051,-0.281661719,0.188605383
1.76966E+18,3.758074219,-0.557565786,-0.469765045,-0.244214853,0.054012913,-0.357685119,0.215856835
1.76966E+18,3.7680625,-0.72478157,-0.479382768,-0.131866969,0.064209618,-0.437128544,0.2538037
1.76966E+18,3.778050293,-0.826716489,-0.56224693,-0.046084729,0.0805289,-0.520312548,0.294823647
1.76966E+18,3.788037354,-0.863101515,-0.590499795,0.1638013,0.082745716,-0.590475082,0.321920782
1.76966E+18,3.798025146,-0.770980865,-0.577559065,0.220900028,0.080195725,-0.620203614,0.325806707
1.76966E+18,3.808013184,-0.782452546,-0.449557539,0.309325331,0.061339475,-0.619917572,0.308686018
1.76966E+18,3.818001465,-0.788801769,-0.378229502,0.295132409,0.02931682,-0.601698875,0.266488492
1.76966E+18,3.827989502,-0.713511842,-0.377408249,0.164712716,0.001977341,-0.581225038,0.193234518
1.76966E+18,3.837977295,-0.65631886,-0.268736861,0.06768179,-0.017790172,-0.561967373,0.115664721
1.76966E+18,3.847965332,-0.691892862,-0.129407886,-0.049381578,-0.030738195,-0.507723033,0.050664153
1.76966E+18,3.857953369,-0.847596634,-0.087198976,-0.137771809,-0.031780548,-0.432820082,0.009974794
1.76966E+18,3.867941406,-1.007837465,-0.033933834,-0.136297207,-0.004086336,-0.352484226,-0.004885644
1.76966E+18,3.877929199,-1.153536414,-0.018690672,-0.08879209,0.047788985,-0.298586309,0.016052594
1.76966E+18,3.887917236,-1.402133427,0.009313772,-0.127388947,0.105182767,-0.274072975,0.05738645
1.76966E+18,3.897905273,-1.543614905,-0.056266662,-0.237259919,0.173601553,-0.227294952,0.090540364
1.76966E+18,3.907893066,-1.526703517,-0.020450083,-0.174429807,0.23102437,-0.156413317,0.109965995
1.76966E+18,3.917881348,-1.536510626,0.017569559,-0.065331135,0.283989549,-0.122495443,0.097763203
1.76966E+18,3.927869385,-1.348913001,0.060430211,0.030952918,0.315749586,-0.111576214,0.054430641
1.76966E+18,3.937857178,-1.086718547,0.338111426,0.090006726,0.326482266,-0.073106647,-0.025558447
1.76966E+18,3.947844238,-0.676897391,0.76247841,0.179943602,0.319485068,-0.049519829,-0.152880177
1.76966E+18,3.957832275,-0.158856829,1.114776183,0.221657715,0.313957214,-0.001808906,-0.307173133
1.76966E+18,3.967820313,0.168605485,1.194801321,0.34951311,0.320629746,0.099142745,-0.44731161
1.76966E+18,3.97780835,0.319568638,1.39139766,0.590975888,0.305666745,0.152610511,-0.524860978
1.76966E+18,3.987796387,0.390706122,1.801585896,0.480897849,0.283686608,0.151765227,-0.508589625
1.76966E+18,3.99778418,0.212532159,2.06343592,0.220729786,0.266590595,0.169164285,-0.457526237
1.76966E+18,4.007772461,0.415043129,2.081423997,0.025799627,0.233115733,0.196419865,-0.39968878
1.76966E+18,4.017760498,0.795058345,1.925298785,-0.185040341,0.191252142,0.175754905,-0.312405199
1.76966E+18,4.027748291,1.098709283,1.858726418,-0.199266143,0.124512263,0.054922242,-0.16946134
1.76966E+18,4.037736084,1.219291911,1.669583318,-0.295054959,0.0413794,-0.132057041,-0.03390082
1.76966E+18,4.047724121,1.470194425,1.421223474,-0.464612485,-0.04240977,-0.260252029,0.051884923
1.76966E+18,4.057712402,1.517365196,0.944636474,-0.510713142,-0.100496322,-0.345921695,0.085082985
1.76966E+18,4.067700195,1.333218296,0.262306536,-0.471700397,-0.127440318,-0.396960378,0.060886569
1.76966E+18,4.077688232,1.149158199,-0.432430463,-0.329504049,-0.14300409,-0.386605769,-0.023948926
1.76966E+18,4.087676514,1.103312978,-1.051491167,-0.255177123,-0.15138638,-0.330022126,-0.157155454
1.76966E+18,4.097664795,1.169164045,-1.478061213,-0.24943098,-0.125560313,-0.220476672,-0.330861896
1.76966E+18,4.107652588,1.35136434,-1.608923389,-0.147289579,-0.085619025,-0.137783915,-0.507734954
1.76966E+18,4.117639648,1.670495756,-1.533860842,-0.21722207,-0.031247109,-0.095582686,-0.63964659
1.76966E+18,4.127627686,1.919118489,-1.193142448,-0.194188109,0.013553651,-0.061099544,-0.677703977
1.76966E+18,4.137615479,1.951960874,-0.609262948,-0.164850663,0.046838906,-0.043751981,-0.614664793
1.76966E+18,4.14760376,1.90892808,0.000216858,0.003038345,0.068644069,-0.002551815,-0.462995917
1.76966E+18,4.157591797,1.697791759,0.54799687,0.277644098,0.107215278,0.061905663,-0.273814797
1.76966E+18,4.16757959,1.545297889,1.00056762,0.516993245,0.097431354,0.032257225,-0.067663498
1.76966E+18,4.177567383,1.429009013,1.074804238,0.29056174,0.063579403,-0.044550836,0.133088693
1.76966E+18,4.18755542,1.175516629,0.809905932,0.303071677,0.050465472,-0.052244976,0.255158663
1.76966E+18,4.197543457,0.925898894,0.841007757,0.653903761,0.017256243,-0.092564799,0.330807418
1.76966E+18,4.207531494,0.648958122,0.451008322,0.595728636,0.003566531,-0.166063517,0.352152407
1.76966E+18,4.217519531,0.442140248,0.207488904,0.801211753,0.000672348,-0.223681703,0.336016506
1.76966E+18,4.227507568,0.163800423,0.156853526,0.923367476,-0.017555125,-0.21649383,0.311986536
1.76966E+18,4.237495605,-0.307392025,-0.094951489,0.879403538,-0.035658799,-0.211259007,0.27242431
1.76966E+18,4.247483643,-0.435609239,-0.455484591,0.811874601,-0.041257028,-0.218549937,0.192747578
1.76966E+18,4.25747168,-0.313083953,-0.78593352,0.84861151,-0.033510637,-0.224402651,0.065920606
1.76966E+18,4.267459473,-0.177948045,-1.00121527,0.882163943,-0.024302486,-0.141929343,-0.088080943
1.76966E+18,4.27744751,-0.205701582,-1.158505434,0.842527221,-0.038994178,-0.114260986,-0.183507472
1.76966E+18,4.28743457,-0.264993145,-1.33529408,0.804213273,-0.060846213,-0.138781503,-0.239605099
1.76966E+18,4.297422607,-0.044972237,-1.314780284,0.771737237,-0.107761227,-0.116279237,-0.258443296
1.76966E+18,4.307410645,0.006621464,-1.15374918,0.765373547,-0.166727334,-0.081615798,-0.211701095
1.76966E+18,4.317398682,-0.155954093,-1.150975623,0.815757288,-0.21778737,-0.124363422,-0.144643694
1.76966E+18,4.327386475,0.064797759,-1.211342121,0.738014708,-0.247668028,-0.26369521,-0.088529833
1.76966E+18,4.337374512,0.50389294,-1.244877311,0.68739102,-0.250462115,-0.417590499,-0.03621003
1.76966E+18,4.347362549,0.668422116,-1.212999241,0.695104956,-0.225997001,-0.471242279,-0.019002547
1.76966E+18,4.357350586,0.570778903,-1.225728959,0.570527851,-0.183241725,-0.36078608,-0.054110218
1.76966E+18,4.367338379,0.223210497,-1.214766835,0.333776612,-0.150427058,-0.210916966,-0.056451935
1.76966E+18,4.377326416,-0.338406318,-1.27450205,-0.004637597,-0.144074067,-0.042890426,0.035128601
1.76966E+18,4.387314697,-0.852179139,-1.145403376,-0.167508484,-0.125364304,0.062513493,0.199960425
1.76966E+18,4.39730249,-0.840658213,-1.264818276,-0.074769118,-0.090945065,0.11951711,0.330848962
1.76966E+18,4.407290527,-0.442433971,-1.467554432,0.168417708,-0.087510385,0.205738023,0.421580195
1.76966E+18,4.417278564,-0.362868705,-1.303404319,0.549921701,-0.093943782,0.067975625,0.539405107
1.76966E+18,4.427266846,-0.222578921,-0.691487057,0.593202624,-0.113622144,-0.140672401,0.603890061
1.76966E+18,4.437254639,-0.217798555,-0.861441473,0.579948298,-0.094353296,-0.249568745,0.619308531
1.76966E+18,4.447241699,-0.477394371,-1.328159406,0.960413012,-0.06417942,-0.083480448,0.501024008
1.76966E+18,4.457229736,-0.594368892,-1.136147472,1.228433834,-0.055432733,0.227346718,0.375396669
1.76966E+18,4.467217529,-1.037791727,-0.944367594,1.304511403,-0.0776411,0.43651408,0.357261062
1.76966E+18,4.477205322,-1.169919539,-1.082064,1.180434942,-0.092395723,0.477320105,0.398205727
1.76966E+18,4.487193604,-0.554034397,-1.004329603,1.052012268,-0.085769251,0.351692677,0.432495773
1.76966E+18,4.497181396,0.181260238,-0.647611675,1.20978554,-0.063004486,0.153085366,0.40940997
1.76966E+18,4.507169434,0.767982414,-0.259521289,1.431784907,-0.063649237,-0.04158026,0.322390646
1.76966E+18,4.517157471,1.067435316,0.044250061,1.259462886,-0.065467611,-0.134804845,0.267136365
1.76966E+18,4.527145508,0.484898171,0.190993696,1.188556581,-0.06771452,-0.155130088,0.236593097
1.76966E+18,4.537133545,-0.30823359,0.361761767,1.090825398,-0.078328803,-0.062238,0.252292454
1.76966E+18,4.547121582,-0.781989751,0.336375981,0.915366832,-0.071421094,0.035702948,0.308839351
1.76966E+18,4.557109619,-0.91247944,0.307811565,0.894621712,-0.049269799,0.033519659,0.387752712
1.76966E+18,4.567097656,-0.892146554,0.184909408,0.958271177,-0.023891207,-0.059361275,0.46869123
1.76966E+18,4.577085693,-0.909410846,0.099496732,1.03490565,0.000700948,-0.141961336,0.522657752
1.76966E+18,4.58707373,-0.991636564,0.173528182,1.084492688,0.011450797,-0.126088351,0.546701074
1.76966E+18,4.597061523,-0.925163857,0.447176197,1.090550819,0.015952773,-0.081541084,0.559485257
1.76966E+18,4.607049316,-0.630285351,0.748329473,1.072212322,0.014378847,-0.047157817,0.606971025
1.76966E+18,4.617037598,-0.254039132,1.180485211,1.12335901,0.037926156,-0.011483707,0.676301241
1.76966E+18,4.627024658,0.17953356,1.502201967,1.458686358,0.087598905,0.030952966,0.692423701
1.76966E+18,4.637012451,0.78914766,1.798531769,1.85008923,0.141864508,0.020104408,0.653248489
1.76966E+18,4.647000488,1.143563228,1.984547677,2.196638522,0.209074438,-0.035535153,0.559813559
1.76966E+18,4.656988281,1.258854399,2.041224673,2.45075766,0.248952553,-0.049489453,0.442492366
1.76966E+18,4.666976563,1.065208142,1.892474374,2.440935062,0.237166211,0.023261981,0.348464936
1.76966E+18,4.6769646,0.72307104,1.639787899,2.263545528,0.195961833,0.078960508,0.254692882
1.76966E+18,4.686952637,0.921340938,1.733940347,1.750418019,0.146426246,0.03089631,0.154939383
1.76966E+18,4.69694043,1.508397315,1.757750846,0.967405939,0.158302307,0.059074823,0.088469587
1.76966E+18,4.706928467,1.953442929,1.339005209,0.154075878,0.153122991,0.039996736,0.034458019
1.76966E+18,4.716916748,2.182414182,0.687974665,-0.816045749,0.068872586,-0.029797636,-0.050426859
1.76966E+18,4.726904541,2.439240241,0.085911274,-1.709047021,-0.057528492,-0.061527602,-0.170867249
1.76966E+18,4.736892578,2.51357389,-0.469422515,-2.239803126,-0.13029252,-0.069494762,-0.311191708
1.76966E+18,4.746880615,2.203880164,-1.123908168,-2.535631992,-0.197130933,-0.193731755,-0.436617523
1.76966E+18,4.756868652,1.863745707,-1.349141988,-2.85669876,-0.210908785,-0.248159066,-0.504757941
1.76966E+18,4.766856445,1.411353822,-1.318683137,-2.859083609,-0.197292313,-0.256631374,-0.461654425
1.76966E+18,4.776844482,0.861298777,-0.960948141,-2.842525566,-0.190627694,-0.461782873,-0.396341681
1.76966E+18,4.78683252,0.889258797,-0.212652571,-2.566215639,-0.129263401,-0.578068972,-0.279381245
1.76966E+18,4.796819336,0.122159157,0.724744599,-1.867430825,-0.072475925,-0.485274583,-0.109044224
1.76966E+18,4.806807373,-0.936340939,1.332758424,-1.39517864,-0.04066873,-0.298850119,0.080083355
1.76966E+18,4.816795654,-1.475093596,1.631448525,-0.921450244,0.01463193,-0.155619577,0.194374651
1.76966E+18,4.826783447,-1.676834312,1.657093838,-0.276103006,0.102141537,0.000615302,0.198210403
1.76966E+18,4.836771484,-1.655116985,1.265890289,0.211767897,0.172838494,0.177981958,0.117435239
1.76966E+18,4.846759521,-1.439806009,0.585721913,0.435107573,0.222955182,0.370835006,-0.00665848
1.76966E+18,4.856747559,-1.014341951,0.004667992,0.668622315,0.27513659,0.555535972,-0.114267401
1.76966E+18,4.866735596,-0.556804958,-0.436226933,0.868524125,0.295152664,0.629255772,-0.199389488
1.76966E+18,4.876723633,-0.018246435,-0.711389443,0.816989752,0.298766464,0.525504053,-0.234982237
1.76966E+18,4.88671167,0.412573085,-0.768191527,0.798943224,0.267939866,0.343049288,-0.224880874
1.76966E+18,4.896699463,0.799902935,-0.867670723,0.548178364,0.179775283,0.169473469,-0.186162904
1.76966E+18,4.9066875,0.979214377,-1.163317218,0.089620065,0.084909491,-0.021498077,-0.155159712
1.76966E+18,4.916675537,1.204754487,-1.212865385,-0.248658242,0.017880747,-0.218448684,-0.14728193
1.76966E+18,4.92666333,1.30738842,-0.978026702,-0.489108628,-0.037153475,-0.427153677,-0.115410291
1.76966E+18,4.936651367,0.926653073,-0.766236301,-0.709691992,-0.143189192,-0.597842872,-0.091545865
1.76966E+18,4.946639648,0.552679475,-0.606073212,-0.982525182,-0.259320855,-0.736150146,-0.036006711
1.76966E+18,4.956626465,-0.148235774,-0.64398764,-1.150818679,-0.333498418,-0.860517979,-0.027234752
1.76966E+18,4.966614502,-0.476218167,-0.755061996,-0.824467249,-0.339710236,-0.9842785,-0.075301081
1.76966E+18,4.976602539,-0.730477006,-0.943902314,-0.688363372,-0.275681108,-1.051136613,-0.146212667
1.76966E+18,4.986590332,-1.084319596,-1.200007657,-0.692432229,-0.172631413,-0.969933093,-0.210241452
1.76966E+18,4.996578613,-1.320954004,-1.373967802,-0.792621912,-0.078204498,-0.756622434,-0.265510827
1.76966E+18,5.00656665,-1.393897806,-1.289281686,-1.005928562,-0.013287018,-0.501776278,-0.293942451
1.76966E+18,5.016554688,-1.290059538,-1.037451535,-1.176469545,0.030609814,-0.292838365,-0.285447717
1.76966E+18,5.02654248,-1.1633623,-0.765894356,-1.134963231,0.050589915,-0.172713295,-0.267617851
1.76966E+18,5.036530518,-0.864110473,-0.624629444,-1.131714166,0.065534756,-0.140790164,-0.260103911
1.76966E+18,5.046518799,-0.508861376,-0.570961566,-1.075867191,0.07648354,-0.127217889,-0.255875617
1.76966E+18,5.056506592,-0.370696622,-0.545804913,-0.953093336,0.083446883,-0.137684077,-0.223230913
1.76966E+18,5.066494385,-0.331035789,-0.618586656,-0.892133548,0.104963891,-0.152612418,-0.158773094
1.76966E+18,5.076482422,-0.433146941,-0.670074852,-0.775339353,0.126939014,-0.144345284,-0.085753553
1.76966E+18,5.086471191,-0.636626025,-0.725156103,-0.588905219,0.146313772,-0.118558161,-0.023362879
1.76966E+18,5.096458984,-0.863025527,-0.794438898,-0.396054789,0.175589517,-0.106958091,0.033226468
1.76966E+18,5.106447021,-1.03201782,-0.799343621,-0.201417475,0.199346244,-0.115860507,0.083928533
1.76966E+18,5.116435059,-1.087258719,-0.82298344,-0.055013739,0.219388843,-0.11518728,0.106808417
1.76966E+18,5.126423096,-1.094186399,-0.848619401,0.175896665,0.223409414,-0.10518232,0.081728362
1.76966E+18,5.136410156,-1.059945107,-0.86468557,0.335388723,0.213994011,-0.110000104,0.020890888
1.76966E+18,5.146398193,-0.989127796,-0.846381851,0.408280649,0.178697273,-0.140939906,-0.087658226
1.76966E+18,5.156385986,-0.738506071,-0.744335435,0.317098741,0.141073331,-0.163358212,-0.227094114
1.76966E+18,5.166374023,-0.486407552,-0.640574032,0.234235749,0.139197931,-0.168442726,-0.336599559
1.76966E+18,5.176362061,-0.415492042,-0.432300115,0.122112468,0.150393575,-0.165909231,-0.355997235
1.76966E+18,5.186350342,-0.639484629,-0.179459326,-0.029417525,0.152372569,-0.15759325,-0.313014627
1.76966E+18,5.196338135,-0.91573888,0.037570144,-0.197044375,0.170860708,-0.151918918,-0.22730276
1.76966E+18,5.206325928,-1.049696977,0.238306652,-0.179303551,0.212187901,-0.135199592,-0.126211286
1.76966E+18,5.216313965,-1.164907776,0.366770535,-0.08789894,0.251091212,-0.099012114,-0.035465878
1.76966E+18,5.226302002,-1.281324589,0.412765978,0.005579846,0.281491458,-0.073318735,0.02998903
1.76966E+18,5.236290039,-1.394955498,0.401153281,0.095457101,0.305367887,-0.064313598,0.070561789
1.76966E+18,5.246278076,-1.44888831,0.394752767,0.235377028,0.323885113,-0.074552387,0.088329598
1.76966E+18,5.256266113,-1.420749573,0.538011483,0.392817415,0.320909917,-0.104682826,0.070658587
1.76966E+18,5.266253906,-1.148535244,0.958846201,0.382769483,0.30880025,-0.142123669,0.038710505
1.76966E+18,5.276242188,-0.715436088,1.534566944,0.398528778,0.293158501,-0.141614139,-0.001702887
1.76966E+18,5.286230225,-0.443511975,1.863909373,0.651458706,0.321491092,-0.060091585,-0.117491275
1.76966E+18,5.296218018,0.041599254,2.097932064,1.094260926,0.314066201,0.047346596,-0.337166429
1.76966E+18,5.306206055,0.78991331,2.217457438,1.037957147,0.25381434,0.105165422,-0.60815078
1.76966E+18,5.316193115,1.400222041,2.359707854,0.602059884,0.141427413,0.096666537,-0.875011981
1.76966E+18,5.326181152,1.604417749,2.281139929,0.002999182,0.052806988,0.270771235,-0.99670428
1.76966E+18,5.336169189,1.223364421,2.184241982,-0.204561326,0.014037548,0.560977042,-0.872318983
1.76966E+18,5.346157227,0.733159961,2.024139683,-0.265943139,-0.019174201,0.718470812,-0.457894921
1.76966E+18,5.356144775,0.485026912,1.649682101,-0.728266636,-0.031424534,0.478593677,0.14574571
1.76966E+18,5.366132813,0.693663963,1.341061557,-1.068373328,-0.041012183,-0.159147143,0.64505887
1.76966E+18,5.376121094,1.188642652,1.220151451,-1.203444062,-0.025172558,-0.700209439,0.930462241
1.76966E+18,5.386109131,0.838393629,0.866532074,-0.635145577,-0.02775396,-0.821381629,1.031473398
1.76966E+18,5.396096924,0.049527563,0.301257906,0.054898004,-0.042229593,-0.701183796,0.938648283
1.76966E+18,5.406084961,-0.228760679,-0.259722949,0.473660591,-0.058148637,-0.507207632,0.663844705
1.76966E+18,5.416073242,-0.134492495,-1.048615903,0.65013301,-0.073889747,-0.31331715,0.364585429
1.76966E+18,5.426061035,0.066946461,-1.852961278,0.514955602,-0.107435189,-0.127760842,0.088513382
1.76966E+18,5.436049072,0.967089128,-2.142709364,0.240461492,-0.13209863,-0.022451462,-0.189575613
1.76966E+18,5.446037109,2.235779569,-1.808862609,0.101802378,-0.12214987,0.010967746,-0.421590477
1.76966E+18,5.456024902,3.364212229,-1.249236091,-0.004421616,-0.085851915,-0.104137361,-0.547507882
1.76966E+18,5.466013184,3.90887674,-0.710539548,-0.092011052,-0.050778355,-0.307678759,-0.577435136
1.76966E+18,5.476000977,3.782678464,-0.092673608,-0.012758359,-0.06183029,-0.503463745,-0.535928845
1.76966E+18,5.485988037,3.269302241,0.457004348,0.075929978,-0.113503076,-0.667799413,-0.46791783
1.76966E+18,5.495976074,2.399878537,0.787425804,0.139495272,-0.174776539,-0.762320638,-0.408593118
1.76966E+18,5.505963867,1.489896174,0.980343747,0.125750824,-0.211504728,-0.77142626,-0.347625375
1.76966E+18,5.515952148,0.626677608,1.094184061,0.119479781,-0.228824645,-0.733848095,-0.267577738
1.76966E+18,5.525939941,0.03111863,1.114012797,0.101521808,-0.244296014,-0.644967973,-0.173558027
1.76966E+18,5.535927979,-0.254622484,0.994103977,0.067764499,-0.258282512,-0.546994507,-0.07561446
1.76966E+18,5.545916016,-0.392368575,0.739092274,0.02358049,-0.25811553,-0.46255818,-0.012905534
1.76966E+18,5.555904053,-0.36553544,0.445879143,0.047847501,-0.245831072,-0.387732744,0.017969834
1.76966E+18,5.56589209,-0.231484697,0.183328861,0.200210145,-0.222631469,-0.332893461,0.013429943
1.76966E+18,5.575880127,-0.046125791,-0.161818455,0.227761877,-0.202067271,-0.256791979,-0.010920562
1.76966E+18,5.58586792,0.078384532,-0.494629437,0.268742999,-0.185485095,-0.181069016,-0.021128992
1.76966E+18,5.595855957,0.062009735,-0.868842105,0.370937299,-0.18256709,-0.127628341,-0.017765569
1.76966E+18,5.605844238,0.170625301,-1.16172615,0.454631189,-0.20884183,-0.132626563,-0.003875586
1.76966E+18,5.615832275,0.319181539,-1.310006494,0.542471093,-0.244125426,-0.240693703,-0.014019022
1.76966E+18,5.625820068,0.48119011,-1.302592418,0.582869739,-0.266221941,-0.42060408,-0.043237627
1.76966E+18,5.635807861,0.494682044,-1.329392747,0.639581514,-0.275360823,-0.544853866,-0.086868748
1.76966E+18,5.645796143,0.330113706,-1.253221946,0.620939357,-0.290224999,-0.545891941,-0.126911506
1.76966E+18,5.655783936,0.03963526,-1.287043551,0.555346941,-0.306217551,-0.499461621,-0.152125984
1.76966E+18,5.665770996,-0.181221879,-1.38491122,0.399091965,-0.31890592,-0.474620998,-0.16077967
1.76966E+18,5.675759033,-0.338378407,-1.330543086,0.222538589,-0.316847324,-0.446218014,-0.151804209
1.76966E+18,5.685746826,-0.50796472,-1.237037119,0.22102497,-0.299026787,-0.3875736,-0.13833262
1.76966E+18,5.695734863,-0.545555176,-1.128919274,0.267729438,-0.270008415,-0.258370161,-0.121684745
1.76966E+18,5.705723145,-0.593005713,-1.117018409,0.301480024,-0.253666461,-0.165968612,-0.099348813
1.76966E+18,5.715711182,-0.553619459,-1.109720653,0.315168065,-0.243447468,-0.102508157,-0.072305098
1.76966E+18,5.725698975,-0.542934326,-1.146184297,0.443688355,-0.228409395,-0.075460024,-0.045874283
1.76966E+18,5.735687012,-0.507636291,-1.15865098,0.582917377,-0.217471495,-0.062871084,-0.039143514
1.76966E+18,5.745675293,-0.353100321,-1.093999937,0.749394472,-0.205781281,-0.0378142,-0.047446717
1.76966E+18,5.755663086,-0.282460851,-1.088136013,0.845407161,-0.20526281,-0.018180422,-0.056866352
1.76966E+18,5.765651123,-0.25361338,-1.077341063,0.84347707,-0.214318633,-0.01221068,-0.060245372
1.76966E+18,5.77563916,-0.226425075,-1.034041435,0.776200938,-0.224320635,-0.040891696,-0.047158688
1.76966E+18,5.785626709,-0.290031578,-0.968611223,0.691071462,-0.23640126,-0.076751158,-0.027488314
1.76966E+18,5.79561499,-0.371223715,-0.83852763,0.620617578,-0.242410377,-0.090597309,0.005778216
1.76966E+18,5.805603027,-0.445111081,-0.715979694,0.562926436,-0.243885502,-0.080479167,0.048349645
1.76966E+18,5.815591064,-0.461353848,-0.573124882,0.480192039,-0.241593391,-0.047300212,0.100061737
1.76966E+18,5.825578857,-0.430375284,-0.388313089,0.502153403,-0.232447028,-0.002607842,0.150221035
1.76966E+18,5.835567139,-0.302600991,-0.257530408,0.532189353,-0.217645377,0.016869493,0.193765432
1.76966E+18,5.845554199,-0.156117686,-0.181773448,0.633877018,-0.201433644,0.030260667,0.220995724
1.76966E+18,5.855541992,-0.13916531,-0.132622756,0.777609636,-0.182578683,0.04721316,0.234264061
1.76966E+18,5.865530029,-0.249860896,-0.076074355,0.976795553,-0.169999778,0.062657632,0.248861372
1.76966E+18,5.875518066,-0.416743065,-0.033211365,1.179734392,-0.163327515,0.075200364,0.254705638
1.76966E+18,5.885506104,-0.500117148,0.101156774,1.355528474,-0.190411344,0.06384518,0.271701932
1.76966E+18,5.895494141,-0.565402179,0.184018012,1.415184194,-0.22603716,0.042389181,0.313256681
1.76966E+18,5.905482178,-0.67008077,0.228912801,1.384565476,-0.230940565,0.034779999,0.387994051
1.76966E+18,5.915469971,-0.713093398,0.306183087,1.404141991,-0.185229003,0.032227889,0.463650465
1.76966E+18,5.925458008,-0.54402161,0.530371782,1.26444725,-0.12300878,0.03708683,0.497702956
1.76966E+18,5.935446045,-0.098158834,1.064924064,1.082941367,-0.079982631,0.066141546,0.500666857
1.76966E+18,5.945434082,0.267346211,1.598095121,0.982075393,-0.08071287,0.177224129,0.501636505
1.76966E+18,5.955421875,0.332104222,1.725055614,0.945641413,-0.094847746,0.28573668,0.467856199
1.76966E+18,5.965409912,0.571863411,1.709960336,0.993018373,-0.063815258,0.333562285,0.395600915
1.76966E+18,5.975398193,0.894392141,1.951763598,1.277914781,0.006618833,0.390772402,0.326978654
1.76966E+18,5.985385986,1.002348585,2.078841579,1.495917626,0.080262691,0.48312071,0.308408439
1.76966E+18,5.995374023,0.748490801,1.605427364,1.706255052,0.139588326,0.547218502,0.309453964
1.76966E+18,6.005362061,0.595990282,1.179320843,1.686969483,0.15982914,0.442207098,0.265760809
1.76966E+18,6.015350098,0.679117405,0.93809392,1.38035648,0.153127164,0.348450661,0.158539623
1.76966E+18,6.025336914,1.036329253,0.839442407,0.867733121,0.156599656,0.396069318,0.023893129
1.76966E+18,6.035325195,1.566271996,0.721170833,0.189698981,0.146766558,0.408711642,-0.110339917
1.76966E+18,6.045312988,1.974505591,0.510233249,-0.69577701,0.101366311,0.336484581,-0.241704866
1.76966E+18,6.055301025,2.120816096,-0.07203414,-1.622129785,0.035867244,0.19780089,-0.346307516
1.76966E+18,6.065289063,2.082908683,-0.810810771,-2.435410746,0.007348515,0.178455964,-0.42061156
1.76966E+18,6.075277344,1.97269708,-1.215908406,-2.91229819,-0.020161863,0.176141173,-0.464387685
1.76966E+18,6.085265137,1.958994718,-1.023885951,-3.24369609,-0.091139108,0.062700897,-0.485488981
1.76966E+18,6.095253174,1.930987936,-0.504877275,-3.288412892,-0.087265164,-0.02535338,-0.440980345
1.76966E+18,6.105241211,1.422736801,0.255961551,-2.663592894,-0.055170078,-0.104978703,-0.292541862
1.76966E+18,6.115229004,0.581394844,1.086860002,-2.147598159,-0.042392526,-0.10760235,-0.093994081
1.76966E+18,6.125217285,-0.10449622,1.726573617,-1.699105034,-0.042781081,0.06200612,0.068962619
1.76966E+18,6.135205322,-0.7429659,2.124868586,-0.955082903,-0.01886921,0.258797824,0.19064267
1.76966E+18,6.145193115,-1.158550515,2.048385651,-0.358304027,0.041715045,0.402772307,0.243521065
1.76966E+18,6.155181152,-1.171595875,1.588657431,-0.013505671,0.122487374,0.562676013,0.21030663
1.76966E+18,6.165169434,-1.007098483,1.06280225,0.375351754,0.187305793,0.772866488,0.125408784
1.76966E+18,6.175157471,-0.850489871,0.419510776,0.717942957,0.235391304,0.956929505,0.025305659
1.76966E+18,6.185145264,-0.586227671,-0.164451142,0.882158536,0.28953737,1.06499052,-0.058567405
1.76966E+18,6.195132324,-0.210675791,-0.5105863,1.02241924,0.362714291,1.074445486,-0.094659738
1.76966E+18,6.205120361,-0.034503158,-0.615517332,1.047368972,0.412816346,0.955344617,-0.095593445
1.76966E+18,6.215108398,0.076225308,-0.733242963,0.778239458,0.415939569,0.650200784,-0.080147691
1.76966E+18,6.225096436,0.014251813,-0.820581055,0.571595919,0.399981916,0.43254143,-0.045095429
1.76966E+18,6.235084229,0.01518018,-0.970818963,0.101796241,0.367816836,0.367179096,0.000983552
1.76966E+18,6.245072021,-0.106874128,-1.055492804,-0.367296604,0.283382893,0.292230815,0.037398018
1.76966E+18,6.255060059,-0.200405668,-0.89289518,-0.858072873,0.181159765,0.148863316,0.04703467
1.76966E+18,6.26504834,-0.144458959,-0.780837073,-1.1188012,0.090994455,0.0128389,0.049792904
1.76966E+18,6.275036133,-0.099980131,-0.869412598,-1.187589198,0.020104716,-0.044459458,0.038591869
1.76966E+18,6.28502417,-0.115514531,-0.868421249,-1.043709719,-0.071081117,-0.126436621,0.000290554
1.76966E+18,6.295012207,-0.095277068,-0.932338718,-0.96281452,-0.155220583,-0.344519168,-0.051505923
1.76966E+18,6.305000488,0.00850472,-1.271024144,-0.828066734,-0.167017847,-0.542843997,-0.128286719
1.76966E+18,6.314988281,-0.09108042,-1.527284971,-0.797414991,-0.14907676,-0.690386832,-0.222189933
1.76966E+18,6.324976318,-0.275795109,-1.5549463,-0.86597181,-0.113360569,-0.795926809,-0.287238955
1.76966E+18,6.334964355,-0.589091682,-1.42436411,-0.908513605,-0.074625328,-0.788222373,-0.345423818
1.76966E+18,6.344952148,-0.728538877,-1.218570904,-1.149733514,-0.038574915,-0.624358058,-0.36328724
1.76966E+18,6.35494043,-0.919859614,-0.983172833,-1.326785779,-0.001576469,-0.407898009,-0.328559041
1.76966E+18,6.364928223,-1.054030768,-0.851992677,-1.499004048,0.037817009,-0.246638298,-0.257252902
1.76966E+18,6.37491626,-0.976365491,-0.728060592,-1.618257035,0.09488935,-0.114866436,-0.170907065
1.76966E+18,6.38490332,-0.882283039,-0.57040101,-1.59031572,0.16122444,0.014098475,-0.08628726
1.76966E+18,6.394891113,-0.811755943,-0.501975708,-1.519935192,0.197763279,0.110335782,-0.005065894
1.76966E+18,6.40487915,-0.78930095,-0.483881249,-1.371172326,0.230224282,0.093357071,0.059772491
1.76966E+18,6.414867188,-0.695876817,-0.455726583,-1.005254316,0.263864368,0.012675781,0.110529386
1.76966E+18,6.424855225,-0.691400548,-0.471965186,-0.715742085,0.272810996,-0.043179493,0.160203725
1.76966E+18,6.434843262,-0.924814021,-0.57427639,-0.394102486,0.271163195,-0.070183367,0.202938676
1.76966E+18,6.444831055,-1.087095199,-0.606791589,-0.089312022,0.276181132,-0.057507519,0.222560048
1.76966E+18,6.454819336,-1.231653088,-0.58049278,0.158836809,0.288572431,-0.034918811,0.209575534
1.76966E+18,6.464807373,-1.297833825,-0.587827361,0.304215587,0.303395301,-0.056857664,0.171490997
1.76966E+18,6.474795166,-1.168373771,-0.533486699,0.276808524,0.310297638,-0.075919069,0.103537261
1.76966E+18,6.484783203,-1.023315604,-0.431904393,0.291856163,0.318300962,-0.073137663,0.014826296
1.76966E+18,6.494771484,-0.902630246,-0.374297423,0.283278012,0.331988871,-0.067552611,-0.058491383
1.76966E+18,6.504759521,-0.875970203,-0.190257783,0.250967396,0.355202585,-0.075942636,-0.083074756
1.76966E+18,6.51474707,-1.008406497,0.083585461,0.237641466,0.377692699,-0.07714083,-0.06047326
1.76966E+18,6.524735107,-1.271021806,0.239722364,0.200349262,0.400326133,-0.077742174,-0.001007801
1.76966E+18,6.534723145,-1.473663855,0.33542964,0.209870539,0.423505783,-0.080107413,0.050127178
1.76966E+18,6.544711182,-1.513973507,0.449990085,0.249384218,0.461243302,-0.099439569,0.075140119
1.76966E+18,6.554699219,-1.435496914,0.574185789,0.31317923,0.486374438,-0.113264687,0.086545147
1.76966E+18,6.564686279,-1.473655526,0.634681467,0.437974945,0.496173531,-0.1574388,0.077221952
1.76966E+18,6.574674072,-1.427231774,0.81967563,0.541797723,0.478768438,-0.249002993,0.047959521
1.76966E+18,6.584662109,-1.137335659,1.262652037,0.495761656,0.42986694,-0.313287437,0.003450111
1.76966E+18,6.594650391,-0.84129768,1.959797851,0.504359973,0.385862261,-0.268431783,-0.037321959
1.76966E+18,6.604638184,-0.706164548,2.333845683,0.689019791,0.362012327,-0.152800798,-0.114116333
1.76966E+18,6.614626221,-0.418648679,2.556494747,0.875402194,0.322132945,-0.010690607,-0.218694389
1.76966E+18,6.624614258,0.019361703,2.787422395,0.706807376,0.271533936,0.197392017,-0.315842241
1.76966E+18,6.634602539,0.447393054,2.986740268,0.365253993,0.241444796,0.44036296,-0.349289894
1.76966E+18,6.644590332,0.832762637,2.635121709,0.140831489,0.202595666,0.651916206,-0.326152861
1.76966E+18,6.654578369,1.653987689,1.9729116,-0.354865577,0.12110991,0.664003909,-0.270623356
1.76966E+18,6.664566162,2.58214649,1.682975883,-1.019572472,0.013365338,0.408217937,-0.191020682
1.76966E+18,6.674553955,2.867814028,1.246664195,-1.4513094,-0.041767728,0.001031375,-0.057149895
1.76966E+18,6.684542236,2.410305238,0.600908961,-1.368591661,-0.054477129,-0.344308436,0.093636155
1.76966E+18,6.694530273,1.563148311,0.343754401,-1.185268061,-0.063887201,-0.573292732,0.232170269
1.76966E+18,6.704518311,0.375316756,0.415514984,-0.874941298,-0.107848808,-0.701866925,0.349609792
1.76966E+18,6.714506104,-0.680959964,0.046226329,-0.851630273,-0.114663444,-0.753922224,0.431363046
1.76966E+18,6.724494385,-1.096023113,-0.478027262,-0.453116693,-0.091380492,-0.70786494,0.421029449
1.76966E+18,6.734482422,-0.877796469,-0.896422186,0.153263685,-0.080256604,-0.557440221,0.280456781
1.76966E+18,6.744470215,-0.311902049,-1.130409221,0.333594241,-0.081976205,-0.342391282,0.091504991
1.76966E+18,6.754457275,0.213053626,-1.221532676,0.44967795,-0.08167991,-0.189383015,-0.080821536
1.76966E+18,6.764445313,1.067557993,-1.015204048,0.54182052,-0.059270475,-0.093848512,-0.233304545
1.76966E+18,6.774433105,1.994291803,-0.674471041,0.464925788,-0.038554665,-0.032930985,-0.380001932
1.76966E+18,6.784421387,2.796691743,-0.405314493,0.344523047,-0.003033423,-0.019156318,-0.556069851
1.76966E+18,6.794409424,3.429815459,-0.131764678,0.302397431,0.012551208,-0.081053704,-0.709996283
1.76966E+18,6.804397217,3.675829032,-0.057482467,0.21594869,0.005337237,-0.261839211,-0.784517407
1.76966E+18,6.814385254,3.558308568,0.118446347,0.166789522,-0.046748776,-0.513653874,-0.778426826
1.76966E+18,6.824373291,3.131751381,0.42475043,-0.124227853,-0.137431264,-0.629936278,-0.6522156
1.76966E+18,6.834361328,2.151467109,0.772474903,-0.357078577,-0.234062672,-0.609905839,-0.421211571
1.76966E+18,6.844349121,1.134449582,1.120327387,-0.515607636,-0.291979492,-0.567378581,-0.13787201
1.76966E+18,6.854337158,0.413543538,1.057637414,-0.561904692,-0.305370927,-0.521276653,0.123490378
1.76966E+18,6.864325195,0.138258132,0.584838116,-0.579733486,-0.304807931,-0.459292352,0.282546073
1.76966E+18,6.874313232,0.165426709,0.196745392,-0.468775157,-0.312639028,-0.438849747,0.344964981
1.76966E+18,6.88430127,0.072370824,-0.315327932,-0.108881815,-0.315856129,-0.412569672,0.333993822
1.76966E+18,6.894289307,-0.066468322,-0.796299431,0.186309338,-0.324083716,-0.382113189,0.273027569
1.76966E+18,6.904277344,-0.125081839,-1.234355333,0.362114233,-0.342760742,-0.326834202,0.20365487
1.76966E+18,6.914265381,-0.134205057,-1.600769309,0.588845306,-0.358151644,-0.251909196,0.124135979
1.76966E+18,6.924253418,0.062992901,-1.778029079,0.756969583,-0.368005067,-0.188276961,0.062742129
1.76966E+18,6.934240234,0.315526012,-1.845352557,0.862189077,-0.352193445,-0.214945018,0.016569031
1.76966E+18,6.944228271,0.467598807,-1.807863076,0.936432417,-0.303227782,-0.268781364,-0.032654975
1.76966E+18,6.954216309,0.448189173,-1.643406674,0.925802302,-0.246401757,-0.27081874,-0.072623283
1.76966E+18,6.96420459,0.218774853,-1.509145503,0.692066026,-0.207053542,-0.210952744,-0.085562252
1.76966E+18,6.974192383,-0.075150883,-1.439517255,0.355037427,-0.177791297,-0.128269494,-0.083479293
1.76966E+18,6.984180176,-0.248842659,-1.319115683,0.120828858,-0.147455499,-0.052881524,-0.066385791
1.76966E+18,6.994168213,-0.372260949,-1.175803191,0.016103286,-0.128885597,0.010779952,-0.044274457
1.76966E+18,7.004156006,-0.439809613,-1.103406063,0.009022095,-0.120595455,0.048782196,-0.022352912
1.76966E+18,7.014144287,-0.396824751,-1.120740644,0.047366147,-0.126372993,0.073107496,-0.016044032
1.76966E+18,7.024132324,-0.29384836,-1.133080486,0.16325521,-0.132228747,0.092586391,-0.001939396
1.76966E+18,7.034120361,-0.233475651,-1.161996199,0.282310044,-0.141111299,0.10117349,0.01997054
1.76966E+18,7.044108154,-0.130541274,-1.172010812,0.390700861,-0.152350903,0.101670705,0.052710909
1.76966E+18,7.054096436,-0.027267946,-1.106529748,0.559031475,-0.136745706,0.119120419,0.09912242
1.76966E+18,7.064084473,-0.080500355,-1.102460306,0.786340932,-0.115216449,0.134800851,0.141555101
1.76966E+18,7.074072266,-0.105293508,-1.076194231,0.865106133,-0.110154457,0.140526533,0.170583099
1.76966E+18,7.08405957,-0.102578989,-0.986046342,0.89407913,-0.117990278,0.175116196,0.175143495
1.76966E+18,7.094047607,-0.043281508,-0.805904879,0.851365192,-0.140542567,0.223244935,0.167095095
1.76966E+18,7.1040354,-0.035841713,-0.644123249,0.752372319,-0.15760304,0.239108056,0.166978195
1.76966E+18,7.114023682,-0.120396385,-0.615913053,0.647737932,-0.177436501,0.212615192,0.177610442
1.76966E+18,7.124010742,-0.130209338,-0.546959344,0.526617105,-0.193157941,0.166313484,0.202472925
1.76966E+18,7.133998535,-0.06491817,-0.416920759,0.500668133,-0.202372089,0.129791886,0.239294618
1.76966E+18,7.143986572,0.032498175,-0.273279181,0.503750317,-0.20314388,0.121023424,0.275891215
1.76966E+18,7.153974365,0.112428036,-0.051997314,0.569448531,-0.204474062,0.133564547,0.315914154
1.76966E+18,7.163962402,0.143412446,0.209955587,0.72163202,-0.205935597,0.139351323,0.347705901
1.76966E+18,7.173950439,0.175427879,0.432240493,0.895137699,-0.199786872,0.163999632,0.363718748
1.76966E+18,7.183938477,0.092619758,0.505670471,1.091447037,-0.199676082,0.201625302,0.363035887
1.76966E+18,7.193926514,-0.076910294,0.41484103,1.216787527,-0.196174249,0.24947077,0.353219926
1.76966E+18,7.203914551,-0.302299451,0.228673147,1.385635735,-0.186011896,0.288887948,0.340097994
1.76966E+18,7.213902588,-0.44049102,0.068806994,1.444828221,-0.167289063,0.322850943,0.321722478
1.76966E+18,7.223890625,-0.356674161,0.210876209,1.390120772,-0.135528743,0.337720186,0.299523175
1.76966E+18,7.233878418,-0.122076301,0.526312862,1.269636782,-0.098214157,0.3131302,0.293796241
1.76966E+18,7.243866455,0.238721078,1.110962762,1.115795589,-0.080784835,0.268213332,0.306809753
1.76966E+18,7.253854736,0.552815084,1.822054099,1.032166288,-0.085288197,0.271748275,0.315039933
1.76966E+18,7.263842529,0.791038149,2.361424011,1.09934422,-0.07573916,0.304140031,0.316146731
1.76966E+18,7.273830566,0.868569133,2.66146728,1.194032382,-0.050549965,0.357657194,0.320474714
1.76966E+18,7.283818359,0.766566556,2.541211838,1.258213763,-0.024888808,0.401167661,0.344133973
1.76966E+18,7.293806641,0.451661233,2.083903539,1.306011287,0.017142253,0.451747805,0.342237443
1.76966E+18,7.303794434,0.3792728,1.623124349,1.472738849,0.077258058,0.491995633,0.314635903
1.76966E+18,7.313781494,0.317705292,1.041411087,1.485046834,0.133247912,0.547943532,0.245556653
1.76966E+18,7.323769531,0.472144122,0.393048301,0.932340763,0.170270637,0.61623019,0.106056288
1.76966E+18,7.333757324,0.992921562,-0.11569208,0.118560328,0.184009224,0.673155904,-0.073593006
1.76966E+18,7.343745361,1.357619893,-0.638352849,-0.658102674,0.171542168,0.668150544,-0.226941288
1.76966E+18,7.353733643,1.486062733,-1.106898581,-1.501872881,0.127236128,0.586332321,-0.338456511
1.76966E+18,7.363721436,1.615589277,-1.283362232,-2.334399518,0.058696222,0.562398791,-0.416796863
1.76966E+18,7.373709473,1.658939758,-1.226934243,-2.820207059,-0.036627524,0.525206864,-0.497685254
1.76966E+18,7.38369751,1.836381899,-1.07746615,-2.996630962,-0.119725339,0.378302664,-0.559305787
1.76966E+18,7.393685547,2.096196034,-0.513619969,-3.095246527,-0.18248868,0.165695086,-0.567496836
1.76966E+18,7.403673584,1.984004072,0.327856574,-2.927304621,-0.20716314,0.01892589,-0.472339183
1.76966E+18,7.413661621,1.454531285,1.201550795,-2.535746558,-0.274187297,-0.100036927,-0.232976958
1.76966E+18,7.423649658,0.587808072,2.076100756,-2.329492749,-0.282786369,-0.10028407,0.178630307
1.76966E+18,7.433637207,-0.831739505,2.994946955,-1.287478728,-0.205174446,0.162600994,0.578831792
1.76966E+18,7.443625488,-1.816228461,3.399425581,-0.169568047,-0.098759867,0.540990055,0.864311457
1.76966E+18,7.453613525,-2.232656176,2.989830635,0.503014258,0.000184871,0.894227386,0.974970043
1.76966E+18,7.463601318,-2.138864963,2.179569898,0.850011878,0.083616376,1.188568115,0.911351621
1.76966E+18,7.473589355,-1.979879685,1.066016536,1.123705631,0.124077097,1.320896029,0.729055643
1.76966E+18,7.483577637,-1.449779122,-0.221882756,1.105905625,0.154079735,1.28884387,0.480330229
1.76966E+18,7.493564453,-0.758322459,-1.074775012,1.138885665,0.202178419,1.190694809,0.182359695
1.76966E+18,7.50355249,-0.302943667,-1.433308464,1.307451549,0.246334702,1.099231958,-0.06850449
1.76966E+18,7.513540527,-0.133852006,-1.657161058,1.064243388,0.297675401,0.978964686,-0.197442949
1.76966E+18,7.523528564,-0.22825704,-1.494552329,0.510479041,0.318931431,0.803810418,-0.211338788
1.76966E+18,7.533516602,-0.475095812,-1.228388533,-0.215594177,0.309414446,0.632762253,-0.145994276
1.76966E+18,7.543504639,-0.623635683,-0.851336843,-0.716113257,0.309824049,0.488571256,-0.058077481
1.76966E+18,7.553492676,-0.659049673,-0.826255009,-0.862908331,0.264221221,0.376364261,0.014638809
1.76966E+18,7.563480469,-0.476126908,-0.889150733,-1.335550977,0.142427415,0.21935226,0.049986411
1.76966E+18,7.573468506,-0.269355943,-1.098664421,-2.040486422,0.011558892,0.043294374,0.038706902
1.76966E+18,7.583456543,-0.067979896,-1.098648055,-2.110457199,-0.07384602,-0.044961452,0.031138198
1.76966E+18,7.593444336,-0.181670645,-1.226840135,-1.773739273,-0.088349797,-0.117906973,0.047499951
1.76966E+18,7.603432373,-0.364521952,-1.557172744,-1.544036783,-0.072042726,-0.238732189,0.050647538
1.76966E+18,7.61342041,-0.196692712,-1.606131713,-1.646024747,-0.056845851,-0.32509023,0.040075719
1.76966E+18,7.623408691,-0.153255867,-1.457300749,-1.518982129,-0.046195604,-0.318746299,0.029653437
1.76966E+18,7.633396484,-0.357908671,-1.274080025,-1.279313542,-0.039290778,-0.323744923,0.01938902
1.76966E+18,7.643384521,-0.417221277,-1.038313121,-1.130968608,-0.02639096,-0.326418728,0.010734547
1.76966E+18,7.653372559,-0.458446363,-0.744334851,-0.97447807,-0.010289223,-0.29937619,0.001286983
1.76966E+18,7.663360352,-0.550771523,-0.515100563,-0.88020258,-0.00111916,-0.218702391,0.008538505
1.76966E+18,7.673348633,-0.710865054,-0.345482247,-0.807985777,0.001957812,-0.121538967,0.017746711
1.76966E+18,7.683335693,-0.856018206,-0.214618902,-0.780332631,0.005350146,-0.076207705,0.024833649
1.76966E+18,7.693323486,-0.939697264,-0.156454298,-0.701717067,0.018023375,-0.082949892,0.029506637
1.76966E+18,7.703311523,-0.972659622,-0.126768769,-0.566980388,0.039091378,-0.106290631,0.033461433
1.76966E+18,7.713299561,-1.05690099,-0.121371879,-0.469469277,0.070521832,-0.129866824,0.039931305
1.76966E+18,7.723287598,-1.162052971,-0.153891754,-0.462479857,0.091308072,-0.125354365,0.049179398
1.76966E+18,7.733275635,-1.300153208,-0.253981191,-0.393567356,0.101406358,-0.118153781,0.050989307
1.76966E+18,7.743263428,-1.310467682,-0.347231721,-0.319108912,0.108637638,-0.121186852,0.041218702
1.76966E+18,7.753251465,-1.299754564,-0.430813675,-0.242111013,0.116723925,-0.132401019,0.027220156
1.76966E+18,7.763239258,-1.298041915,-0.458818704,-0.127057523,0.128422126,-0.142193466,0.013445221
1.76966E+18,7.773227539,-1.23423083,-0.459494996,-0.076781042,0.142648309,-0.16121994,0.002105758
1.76966E+18,7.783215576,-1.109173613,-0.374344185,-0.177500885,0.165827662,-0.164265797,0.004229629
1.76966E+18,7.793203369,-1.152878242,-0.358886503,-0.253568518,0.195047423,-0.159672886,0.02272621
1.76966E+18,7.803191406,-1.231048692,-0.352091436,-0.326216406,0.220197245,-0.139021665,0.042442922
1.76966E+18,7.813179688,-1.25722709,-0.304764453,-0.368990841,0.23508206,-0.115547165,0.065303467
1.76966E+18,7.823167725,-1.353092187,-0.295227978,-0.353439928,0.251221091,-0.089601316,0.088873506
1.76966E+18,7.833155518,-1.406388893,-0.277213013,-0.303171338,0.262013316,-0.061530609,0.087227553
1.76966E+18,7.843143555,-1.280112291,-0.101600426,-0.250632757,0.274437755,-0.054497734,0.064381361
1.76966E+18,7.853131592,-1.054454181,0.141432085,-0.24744799,0.303319663,-0.061208937,0.046799332
1.76966E+18,7.863119385,-0.968824062,0.418259314,-0.199347099,0.338122368,-0.066107027,0.071420789
1.76966E+18,7.873107422,-1.142494795,0.656942983,-0.146269296,0.366135299,-0.069990776,0.125180066
1.76966E+18,7.883094727,-1.273084,0.951710942,-0.123698568,0.384602994,-0.053143088,0.199704111
1.76966E+18,7.893082275,-1.359931093,1.382679516,-0.04781126,0.385172784,-0.034940563,0.281512648
1.76966E+18,7.903070313,-1.218558629,2.021294815,0.044900633,0.40886721,0.056118242,0.325422049
1.76966E+18,7.913058594,-0.892922653,2.573648127,0.273627556,0.426701158,0.291656494,0.306463629
1.76966E+18,7.923046387,-0.605647716,2.715039296,0.549191341,0.424567968,0.484163105,0.228135794
1.76966E+18,7.933034424,0.004631751,2.851443908,0.730415631,0.390922308,0.569151998,0.139502212
1.76966E+18,7.943022461,0.538320147,2.799056719,0.854635592,0.354242593,0.721292317,0.082582206
1.76966E+18,7.953010742,1.125633677,2.679830035,0.741837188,0.306982219,0.97900337,0.064910822
1.76966E+18,7.962998535,1.832500674,2.467607673,0.49894467,0.246190518,1.101165056,0.038489334
1.76966E+18,7.972986572,2.746798123,2.27051449,0.094264968,0.115503542,0.991637886,-0.002492269
1.76966E+18,7.982974609,3.473125024,1.891031774,-0.738969232,-0.023757679,0.741719663,0.005054597
1.76966E+18,7.992962402,3.399892614,1.307456809,-1.146988892,-0.107097611,0.358111918,0.067422442
1.76966E+18,8.002950684,2.923479217,0.812507054,-1.196515139,-0.14581731,-0.005459103,0.21373491
1.76966E+18,8.012938477,1.954837598,0.436696304,-1.214772096,-0.205735654,-0.263592213,0.381271482
1.76966E+18,8.022926514,0.894321998,-0.141978613,-1.383314014,-0.269784957,-0.497346371,0.516380608
1.76966E+18,8.032914307,0.211264916,-0.716290659,-1.369548232,-0.280808598,-0.655386329,0.544417799
1.76966E+18,8.042902344,0.254541747,-0.876236891,-0.68045596,-0.288626581,-0.622500539,0.444638163
1.76966E+18,8.052890625,0.772996297,-0.74063132,-0.064906187,-0.302831143,-0.427173674,0.215494096
1.76966E+18,8.062877441,1.433480313,-0.590747048,-0.041245326,-0.29686299,-0.174544632,-0.054534454
1.76966E+18,8.072865479,1.950235073,-0.43681087,-0.225936123,-0.266155928,0.005277874,-0.261555791
1.76966E+18,8.082853516,2.37067933,-0.167135851,-0.407143754,-0.243872747,0.085762598,-0.393278956
1.76966E+18,8.092841553,2.681800458,0.112153384,-0.707728875,-0.275606751,0.117871195,-0.475412548
1.76966E+18,8.102829834,2.768248908,0.23777123,-0.842262725,-0.309518933,0.038415257,-0.509669065
1.76966E+18,8.112817871,2.626586521,0.33422494,-0.753203801,-0.345798463,-0.085600473,-0.486378461
1.76966E+18,8.122805664,2.37775789,0.295376447,-0.679537969,-0.37105453,-0.163802609,-0.423533171
1.76966E+18,8.132793701,2.057941415,0.199935128,-0.489289538,-0.370979786,-0.212224528,-0.331049412
1.76966E+18,8.142781982,1.580272318,0.060989598,-0.244667127,-0.364378065,-0.290794939,-0.193112597
1.76966E+18,8.152769775,0.94204463,-0.114807698,-0.0477569,-0.360329717,-0.395498663,-0.037264314
1.76966E+18,8.162757568,0.398172731,-0.281957577,0.129694886,-0.365895212,-0.453713506,0.082630396
1.76966E+18,8.172745605,0.055625441,-0.488750901,0.330772754,-0.367864192,-0.457091361,0.148220241
1.76966E+18,8.182733643,-0.086681089,-0.758011494,0.518610032,-0.354482085,-0.412756652,0.167448804
1.76966E+18,8.19272168,-0.104376905,-1.026868767,0.695872433,-0.329335272,-0.346089274,0.140233859
1.76966E+18,8.202709717,-0.028134208,-1.177684766,0.822151373,-0.301518291,-0.251539588,0.081984401
1.76966E+18,8.212697754,-0.02508651,-1.171215863,0.866887756,-0.273277968,-0.165647209,0.019993415
1.76966E+18,8.222685791,-0.020347244,-1.134084694,0.802614313,-0.233196586,-0.07642813,-0.020869594
1.76966E+18,8.232673828,-0.083152952,-1.075799094,0.691830464,-0.178043097,0.028200923,-0.045874998
1.76966E+18,8.242661865,-0.183703576,-0.98774847,0.546348519,-0.115235098,0.118638143,-0.061589517
1.76966E+18,8.252649902,-0.202166284,-0.939941009,0.33997459,-0.071366176,0.225543022,-0.085344382
1.76966E+18,8.262636719,-0.194007528,-0.900865721,0.193431445,-0.052986905,0.302432209,-0.087964393
1.76966E+18,8.272624756,-0.244693759,-0.933145942,0.159270525,-0.048989221,0.323756635,-0.086153664
1.76966E+18,8.282613037,-0.174610717,-0.940921252,0.219604582,-0.053867601,0.291929454,-0.086814664
1.76966E+18,8.29260083,-0.039388629,-0.923311361,0.276242999,-0.064735427,0.23751229,-0.067444161
1.76966E+18,8.302588867,-0.038936099,-1.024429557,0.297720964,-0.074046902,0.188497603,-0.041914303
1.76966E+18,8.31257666,-0.038140053,-1.102982869,0.245492764,-0.09526816,0.151616663,-0.024856562
1.76966E+18,8.322564453,-0.013023184,-1.10407534,0.243773685,-0.119958594,0.124096096,-0.007572912
1.76966E+18,8.332552734,-0.153309607,-1.083392618,0.256105636,-0.140521109,0.095547237,0.016594252
1.76966E+18,8.342540771,-0.355507309,-1.044734094,0.265109611,-0.156287298,0.075353019,0.050119456
1.76966E+18,8.352528809,-0.521881017,-0.941991512,0.359879022,-0.160849392,0.073493347,0.087644555
1.76966E+18,8.362516602,-0.661218176,-0.78375676,0.520326919,-0.152022347,0.083064482,0.118651472
1.76966E+18,8.372504883,-0.804313811,-0.622365006,0.741604549,-0.135461107,0.10895279,0.163467586
1.76966E+18,8.38249292,-0.998994671,-0.446174326,1.001844946,-0.113186426,0.158798113,0.227613285
1.76966E+18,8.392480713,-1.180146188,-0.267287247,1.298142891,-0.088157699,0.219281733,0.292106897
1.76966E+18,8.40246875,-1.267900459,-0.127003747,1.530049175,-0.059772134,0.278194577,0.339286655
1.76966E+18,8.412456787,-1.194327931,-0.097024788,1.689616636,-0.014204987,0.325647801,0.351924568
1.76966E+18,8.422445068,-0.956968716,-0.149267017,1.697228134,0.021097343,0.355182528,0.328129768
1.76966E+18,8.432432617,-0.736822575,-0.343263987,1.630051079,0.030061292,0.377970368,0.298992962
1.76966E+18,8.442420654,-0.653421823,-0.61528177,1.551588222,0.014556369,0.376722157,0.275240481
1.76966E+18,8.452407715,-0.548518848,-0.736835435,1.346894793,-0.023345694,0.332511932,0.248284534
1.76966E+18,8.462395752,-0.355102893,-0.649245414,1.146509876,-0.062906154,0.256191075,0.227490306
1.76966E+18,8.472383789,-0.193753827,-0.552916791,1.001072354,-0.114358917,0.159779429,0.206130639
1.76966E+18,8.482371826,0.009939247,-0.412181456,0.860228882,-0.162150398,0.055062871,0.189828351
1.76966E+18,8.492359619,0.13366379,-0.281629076,0.829232417,-0.198840067,-0.049501643,0.177134007
1.76966E+18,8.502347656,0.138697692,-0.100721305,0.959996978,-0.242903128,-0.157651812,0.178379834
1.76966E+18,8.512335693,0.003009119,-0.057149874,1.026863067,-0.291485101,-0.245424077,0.187172174
1.76966E+18,8.52232373,-0.221435578,-0.006949965,1.109536675,-0.339908808,-0.321367055,0.214343071
1.76966E+18,8.532311768,-0.455874467,0.07562135,1.226891427,-0.387291849,-0.407678336,0.251110196
1.76966E+18,8.542299805,-0.563434678,0.015817162,1.252319444,-0.42563203,-0.483640224,0.277227312
1.76966E+18,8.552287842,-0.665009385,-0.106642512,1.297782241,-0.449347198,-0.531231582,0.289432734
1.76966E+18,8.562275879,-0.798085145,-0.243318927,1.371341545,-0.468265206,-0.545325339,0.277019233
1.76966E+18,8.572263916,-0.867381384,-0.246422154,1.334029613,-0.483736396,-0.510237277,0.260006636
1.76966E+18,8.582251709,-0.992563761,-0.201480019,1.277761198,-0.481381118,-0.456035018,0.25554052
1.76966E+18,8.592239502,-1.023047162,-0.03211714,1.236827568,-0.462469041,-0.412468135,0.265437543
1.76966E+18,8.602227539,-0.953922773,0.335952787,1.213446985,-0.437203348,-0.348955452,0.237236515
1.76966E+18,8.61221582,-0.428181573,1.062097901,1.239439066,-0.41443187,-0.291190267,0.18900989
1.76966E+18,8.622203613,0.061192437,1.47324826,1.457508401,-0.424444824,-0.271838397,0.164816678
1.76966E+18,8.63219165,0.103203185,1.454153683,1.4038433,-0.430524826,-0.271774232,0.141886875
1.76966E+18,8.642178711,0.35934243,1.775589869,1.570453812,-0.41057536,-0.300506562,0.109003499
1.76966E+18,8.652166504,0.669638214,2.038734025,1.942296681,-0.369425625,-0.289331079,0.033361185
1.76966E+18,8.662154785,0.932291371,2.116722105,2.209516562,-0.318667889,-0.303876996,-0.026449149
1.76966E+18,8.672142822,0.963281553,1.614389254,2.313984506,-0.261160761,-0.328954339,-0.03092798
1.76966E+18,8.682130859,0.424660414,0.898128405,2.078461348,-0.184832707,-0.417686075,-0.000728267
1.76966E+18,8.692118652,0.038214909,0.564831101,1.741041119,-0.127395168,-0.520010054,0.044638574
1.76966E+18,8.702106934,-0.196882736,0.334772053,1.005620519,-0.084385112,-0.575523913,0.067379564
1.76966E+18,8.712094971,-0.127174428,0.372975819,0.285372939,-0.041987825,-0.568985105,0.052170392
1.76966E+18,8.722082764,0.292325827,0.588711158,-0.224875216,-0.006120374,-0.502200246,-0.025415476
1.76966E+18,8.732070801,0.872847249,0.698422994,-0.624778497,0.032531731,-0.373424023,-0.127811655
1.76966E+18,8.742058594,1.21172849,0.45082712,-0.79289123,0.063749835,-0.258900106,-0.278842717
1.76966E+18,8.752046875,1.628953785,0.030657589,-0.86664211,0.046004396,-0.139392093,-0.430779785
1.76966E+18,8.762034668,1.822528731,-0.74153616,-1.111606467,-0.00346249,-0.13971886,-0.562364161
1.76966E+18,8.772022705,1.868514237,-1.223347616,-1.288544896,-0.049987189,-0.199426174,-0.669142663
1.76966E+18,8.782010742,1.948800072,-1.359493286,-1.43382372,-0.100366205,-0.290410131,-0.724598229
1.76966E+18,8.791998535,1.900683983,-1.386341545,-1.73138584,-0.174160913,-0.428572446,-0.726494908
1.76966E+18,8.801986816,1.87945181,-1.175737724,-1.936599785,-0.252319902,-0.599542081,-0.716778398
1.76966E+18,8.811974854,1.864692633,-0.686839524,-2.026491799,-0.316220105,-0.741743565,-0.669736803
1.76966E+18,8.821962646,1.422436357,-0.311898542,-2.016443721,-0.353744596,-0.863589287,-0.53058207
1.76966E+18,8.831950684,0.777643246,0.168735103,-1.932684803,-0.322982728,-0.91600436,-0.326641053
1.76966E+18,8.841937744,0.22537173,0.761211751,-1.47105981,-0.226303071,-0.842398047,-0.142298669
1.76966E+18,8.851925781,-0.003608838,0.972248703,-0.838393337,-0.085841745,-0.620343387,-0.03428711
1.76966E+18,8.861913818,-0.132945997,1.055062011,-0.038582536,0.050452445,-0.344123244,0.015751557
1.76966E+18,8.871901855,-0.496928946,1.175549508,0.804656194,0.180967599,-0.14600572,0.018514749
1.76966E+18,8.881889893,-0.799950939,1.106713288,1.183201776,0.258850425,-0.011766955,-0.035928786
1.76966E+18,8.89187793,-0.853791251,0.784865598,1.221776568,0.303085029,0.050075773,-0.119359016
1.76966E+18,8.901865723,-0.601302344,0.503642765,1.187970014,0.327377588,0.132027641,-0.215286881
1.76966E+18,8.91185376,-0.413694198,0.179810624,0.958546779,0.34107995,0.202632219,-0.279432803
1.76966E+18,8.921841553,-0.424368737,-0.228795312,0.509966853,0.352645516,0.235582173,-0.301623851
1.76966E+18,8.93182959,-0.381462492,-0.576080809,0.016680063,0.365220487,0.247374773,-0.285258263
1.76966E+18,8.941817871,-0.212703972,-0.862793472,-0.348177039,0.370849073,0.142202809,-0.254733622
1.76966E+18,8.951805664,-0.078938512,-1.023428271,-0.631794075,0.368221968,0.017566321,-0.205887273
1.76966E+18,8.961793701,-0.110409207,-0.975817794,-0.711430506,0.345774174,-0.093204938,-0.187574849
1.76966E+18,8.971781738,0.037056386,-0.750038615,-0.829130272,0.313563824,-0.193918109,-0.190492362
1.76966E+18,8.98177002,0.105492136,-0.738860218,-1.007735173,0.293750972,-0.278845519,-0.187055558
1.76966E+18,8.991757813,-0.008426468,-0.888975377,-1.072288602,0.271046788,-0.369968712,-0.194101408
1.76966E+18,9.00174585,-0.016360804,-0.93665132,-1.123953615,0.238476336,-0.426908404,-0.214184582
1.76966E+18,9.011733643,-0.024167679,-0.972338135,-1.011704223,0.231326371,-0.45595181,-0.244128704
1.76966E+18,9.021721436,-0.097508809,-1.213827508,-0.883194601,0.236835122,-0.48297888,-0.278802544
1.76966E+18,9.031708984,-0.170476978,-1.458451673,-0.771802119,0.25183174,-0.494166046,-0.311894745
1.76966E+18,9.041697021,-0.3029273,-1.719525452,-0.701478436,0.271889865,-0.511098921,-0.354240596
1.76966E+18,9.05168457,-0.351871583,-1.782218932,-0.667824588,0.278617412,-0.538998365,-0.394112289
1.76966E+18,9.061672607,-0.351367725,-1.759676261,-0.631112668,0.271418631,-0.528278589,-0.423574835
1.76966E+18,9.071660645,-0.500384713,-1.765031066,-0.514213989,0.252813965,-0.555443645,-0.463289142
1.76966E+18,9.081648682,-0.389222678,-1.688772002,-0.546711799,0.248170719,-0.608698845,-0.491962314
1.76966E+18,9.091636475,-0.356831982,-1.601796314,-0.525184004,0.24492833,-0.623626649,-0.483566195
1.76966E+18,9.101624512,-0.520535447,-1.596526265,-0.609140783,0.241315752,-0.624588609,-0.451777637
1.76966E+18,9.111612549,-0.567016628,-1.626706883,-0.705751876,0.2540299,-0.640346885,-0.402167797
1.76966E+18,9.121600342,-0.596573489,-1.611909712,-0.705811059,0.269891143,-0.671900511,-0.34367758
1.76966E+18,9.131588623,-0.588220671,-1.489950388,-0.669448829,0.282304466,-0.682404518,-0.290227354
1.76966E+18,9.14157666,-0.645028089,-1.280017598,-0.620817338,0.294689238,-0.667496681,-0.236007228
1.76966E+18,9.151564697,-0.741411072,-1.06610246,-0.556259087,0.307889044,-0.651577294,-0.174713582
1.76966E+18,9.16155249,-0.841442714,-0.822199011,-0.496678917,0.318086565,-0.648812115,-0.113953844
1.76966E+18,9.171540771,-0.902930837,-0.555921818,-0.534066399,0.315407306,-0.649127781,-0.074281715
1.76966E+18,9.181528564,-0.912702874,-0.283578457,-0.627149025,0.313974261,-0.615743995,-0.055380195
1.76966E+18,9.191516357,-0.979302202,-0.104652215,-0.573548222,0.321986735,-0.569336832,-0.053486556
1.76966E+18,9.201504395,-1.001111883,-0.019213819,-0.517178538,0.341890395,-0.521441996,-0.06719251
1.76966E+18,9.211492432,-1.010669985,0.203867791,-0.436497274,0.387775511,-0.466858923,-0.064302295
1.76966E+18,9.221480713,-1.180914323,0.51992053,-0.317116569,0.42936343,-0.377564222,-0.025847048
1.76966E+18,9.231467529,-1.469880829,0.722699942,-0.212112472,0.461657166,-0.317993551,0.027898958
1.76966E+18,9.241455566,-1.602189697,0.980591,-0.07067308,0.494786888,-0.287897676,0.068064481
1.76966E+18,9.251443359,-1.552999842,1.162870644,0.074918755,0.530251026,-0.275340796,0.087259725
1.76966E+18,9.261431396,-1.464164205,1.342062259,0.299967281,0.565149367,-0.263609022,0.109848127
1.76966E+18,9.271419678,-1.46468443,1.422618143,0.529371373,0.598381341,-0.23232305,0.14191474
1.76966E+18,9.281407715,-1.603794794,1.440724293,0.792355954,0.639220417,-0.161667258,0.148557186
1.76966E+18,9.291395508,-1.662000315,1.844991322,1.125301376,0.659618556,-0.091095671,0.149893731
1.76966E+18,9.301383545,-1.685226877,2.497899351,1.26819009,0.649587512,-0.041753419,0.130746126
1.76966E+18,9.311371826,-1.392857211,3.226597656,1.360806999,0.595265031,-0.06999559,0.060561642
1.76966E+18,9.321359619,-0.99739425,3.55765215,1.615964832,0.544733644,-0.126580581,-0.073832385
1.76966E+18,9.331347412,-0.359381593,3.59108271,1.734042638,0.517458081,-0.043248426,-0.265999407
1.76966E+18,9.341335449,0.354229618,3.841811621,1.697374995,0.488743335,0.296390086,-0.430559874
1.76966E+18,9.351323486,0.836408812,3.699861649,1.583100381,0.384535998,0.729519427,-0.488065213
1.76966E+18,9.361311523,1.544203957,3.004373539,0.748685739,0.237583309,0.961425602,-0.446761966
1.76966E+18,9.371299561,2.459821257,2.223170555,-0.265246681,0.127370119,0.692908525,-0.312017024
1.76966E+18,9.381287598,3.196703453,1.348189217,-0.980443992,0.037291363,0.294144064,-0.14827095
1.76966E+18,9.391275391,3.165912009,1.045008819,-1.434793442,0.003960917,-0.259587526,0.076961495
1.76966E+18,9.401263672,2.33842892,0.721857061,-1.186698971,-0.040958889,-0.732624888,0.316895515
1.76966E+18,9.411251709,1.00609895,0.055507368,-1.123391451,-0.145822972,-0.98597908,0.475578129
1.76966E+18,9.421238525,-0.017578911,-0.852345143,-1.023509519,-0.191983551,-1.098670483,0.438032091
1.76966E+18,9.431226563,0.003910525,-1.569241952,-0.494584721,-0.189535007,-1.060308933,0.281466067
1.76966E+18,9.4412146,0.344976563,-1.814451807,0.003948153,-0.166727424,-0.816092968,0.094928429
1.76966E+18,9.451202393,0.660596172,-1.853241849,0.181671741,-0.172263786,-0.631888509,-0.098307461
1.76966E+18,9.461190674,1.328048931,-1.659495054,0.033080724,-0.164957941,-0.560353875,-0.269620627
1.76966E+18,9.471178711,1.999839939,-1.129558157,0.136802964,-0.147898629,-0.428885847,-0.410361946
1.76966E+18,9.481166504,2.367263384,-0.628205549,0.291020297,-0.14225778,-0.354587108,-0.498583674
1.76966E+18,9.491154297,2.675249137,-0.553713494,0.22477234,-0.120937206,-0.390571266,-0.593478501
1.76966E+18,9.501142578,3.060099518,-0.613854367,0.028083354,-0.109635018,-0.44585368,-0.663542807
1.76966E+18,9.511130615,2.95446823,-0.535256631,-0.155628076,-0.123213276,-0.486988217,-0.680227399
1.76966E+18,9.521118408,2.398550503,-0.180693252,-0.220681856,-0.168610066,-0.54761219,-0.647693157
1.76966E+18,9.531106445,1.747038898,0.094682025,-0.447461443,-0.235054538,-0.61160326,-0.547723711
1.76966E+18,9.541094482,1.13247609,0.400896676,-0.616040479,-0.3005566,-0.649270773,-0.403568655
1.76966E+18,9.551082764,0.743535298,0.548456305,-0.564062747,-0.36646232,-0.666270137,-0.248699903
1.76966E+18,9.561070557,0.591427431,0.402377855,-0.447666903,-0.414796293,-0.647975862,-0.141728446
1.76966E+18,9.571058594,0.740845255,0.103770756,-0.32778497,-0.423620164,-0.58360976,-0.088462248
1.76966E+18,9.581046631,0.68548979,-0.342881125,-0.092215927,-0.432789952,-0.550439,-0.067925282
1.76966E+18,9.591034668,0.544873843,-0.685277097,0.045018415,-0.424631268,-0.564375877,-0.102552637
1.76966E+18,9.601022705,0.558842747,-0.889885477,0.2991282,-0.438910097,-0.569287539,-0.164214402
1.76966E+18,9.611010498,0.54325574,-1.118523552,0.618754999,-0.483660132,-0.567303896,-0.225595415
1.76966E+18,9.620997559,0.562166265,-1.154762156,0.872561125,-0.526972771,-0.574839234,-0.279160917
1.76966E+18,9.630985596,0.441013509,-1.224462884,1.006983332,-0.545143306,-0.588157058,-0.316641927
1.76966E+18,9.640973389,0.168191425,-1.286637309,1.008423009,-0.511690259,-0.564084232,-0.329632014
1.76966E+18,9.650961426,-0.119814128,-1.255406304,0.99927758,-0.414772928,-0.45547244,-0.323760718
1.76966E+18,9.660949463,-0.343939767,-1.203930968,0.955116951,-0.314378411,-0.357757598,-0.286016285
1.76966E+18,9.6709375,-0.473676666,-1.237435179,0.766148331,-0.224777818,-0.255861998,-0.22065796
1.76966E+18,9.680925537,-0.596725538,-1.221800972,0.534053393,-0.168285787,-0.109406248,-0.156649411
1.76966E+18,9.690913574,-0.683398517,-1.163025542,0.486064438,-0.134165481,0.012518373,-0.10210301
1.76966E+18,9.700901611,-0.69102302,-1.170917172,0.589022708,-0.107570343,0.086422421,-0.070998624
1.76966E+18,9.710889648,-0.62020812,-1.227514673,0.742892835,-0.095744669,0.09055911,-0.057359461
1.76966E+18,9.720877441,-0.576480184,-1.395331492,0.912513196,-0.102956511,0.044640884,-0.050543901
1.76966E+18,9.730865479,-0.504368887,-1.573786025,0.986355847,-0.127471194,0.011591124,-0.045121513
1.76966E+18,9.74085376,-0.453859109,-1.659324958,1.103068501,-0.15040873,0.007892792,-0.019841721
1.76966E+18,9.750841797,-0.451330248,-1.69081023,1.099538574,-0.15704073,0.00986648,0.023197759
1.76966E+18,9.760829346,-0.425076155,-1.662261596,0.966313468,-0.159530789,-0.002197373,0.044974159
1.76966E+18,9.770817383,-0.299078881,-1.522238793,0.761602504,-0.152424514,0.015499132,0.045028463
1.76966E+18,9.780805664,-0.302017784,-1.371149822,0.532013119,-0.145927995,0.046323091,0.054454453
1.76966E+18,9.790793457,-0.385555168,-1.213650983,0.359682914,-0.155231506,0.083206095,0.051496852
1.76966E+18,9.800781494,-0.385466321,-1.04068511,0.238246154,-0.167116672,0.073604599,0.054336313
1.76966E+18,9.810769531,-0.417924968,-0.902379633,0.262748727,-0.178883672,0.057376605,0.072615854
1.76966E+18,9.820756348,-0.512754146,-0.843750333,0.357871773,-0.189862013,0.044450421,0.110733412
1.76966E+18,9.830744629,-0.575489931,-0.763393187,0.510811341,-0.195815325,0.025279878,0.156136736
1.76966E+18,9.840732666,-0.526162055,-0.708233025,0.660122197,-0.193374515,0.017323684,0.185175583
1.76966E+18,9.850720459,-0.472642062,-0.595004121,0.817211725,-0.183217436,0.012663013,0.211733967
1.76966E+18,9.860708496,-0.460914288,-0.468376806,0.997703755,-0.182423815,-0.014105483,0.234942093
1.76966E+18,9.870696533,-0.456848354,-0.260826527,1.084909744,-0.175985366,-0.027946457,0.246805072
1.76966E+18,9.880684814,-0.491907976,0.051047466,1.24285282,-0.17056717,-0.022243299,0.250440001
1.76966E+18,9.890672607,-0.643202188,0.281775207,1.342813223,-0.161815554,0.0181536,0.246983141
1.76966E+18,9.900660645,-0.820515515,0.426071449,1.377517018,-0.143055454,0.079554908,0.233890235
1.76966E+18,9.910648438,-0.915177739,0.475012883,1.369648331,-0.132806405,0.155728087,0.213360906
1.76966E+18,9.92063623,-0.95132808,0.512533927,1.296452892,-0.132402405,0.230267569,0.191831112
1.76966E+18,9.930624512,-0.958696636,0.575898438,1.2257576,-0.137907878,0.262724072,0.187883914
1.76966E+18,9.940612549,-0.845869956,0.629386867,1.114042169,-0.149678782,0.243079811,0.192872018
1.76966E+18,9.950600342,-0.543705968,0.749386289,0.933347895,-0.165828556,0.206405416,0.195909724
1.76966E+18,9.960588379,-0.194484461,0.986689901,0.781260998,-0.186085626,0.169479355,0.175056368
1.76966E+18,9.97057666,0.292027136,1.491809168,0.733106185,-0.208879113,0.111879267,0.130736142
1.76966E+18,9.980564697,0.869139626,2.234373502,0.861684488,-0.249781534,0.045583863,0.091327757
1.76966E+18,9.99055249,1.239136137,2.727991132,1.051528868,-0.273827314,-0.048024602,0.093217
1.76966E+18,10.00054053,1.318210258,2.864446598,1.277310239,-0.274000436,-0.144525051,0.125962153
1.76966E+18,10.01052881,1.135109946,2.773911756,1.404463185,-0.265352279,-0.174901754,0.188162193
1.76966E+18,10.02051563,0.55157356,2.113644013,1.373983145,-0.22633484,-0.144008279,0.255404353
1.76966E+18,10.03050366,-0.211939381,1.078299679,1.360834764,-0.135100871,-0.049760431,0.264426291
1.76966E+18,10.0404917,-0.558488454,0.229350023,1.287950437,-0.029678041,0.08379709,0.187370896
1.76966E+18,10.05047949,-0.378986494,0.138888246,0.92477705,0.06838803,0.268393695,0.030403446
1.76966E+18,10.06046753,0.032215339,0.355799643,0.359641706,0.165428564,0.471546829,-0.154618859
1.76966E+18,10.07045557,0.33114093,0.225993698,-0.296107976,0.257489026,0.632736325,-0.294194102
1.76966E+18,10.08044336,0.613430077,-0.357259779,-0.987983594,0.322311968,0.788787186,-0.392101228
1.76966E+18,10.09043164,0.935931627,-0.939622445,-1.682457412,0.311497718,0.902615905,-0.465384841
1.76966E+18,10.10041943,1.268924542,-1.446495278,-2.418240123,0.252500713,0.927789211,-0.511358976
1.76966E+18,10.11040771,1.448184546,-1.602402463,-2.781101375,0.154296651,0.819662988,-0.554710627
1.76966E+18,10.12039575,1.778893003,-1.225944063,-2.885455191,0.071395375,0.603327215,-0.529418588
1.76966E+18,10.13038354,1.77200032,-0.806458421,-2.552919227,-0.009476766,0.32434088,-0.432612389
1.76966E+18,10.14037158,1.732266714,-0.11067279,-2.211655182,-0.002235365,0.159792408,-0.299049258
1.76966E+18,10.15035986,1.487453749,0.78740593,-1.531529915,0.034529213,0.188547641,-0.12810351
1.76966E+18,10.1603479,0.883728051,1.48296769,-1.155678394,0.073504575,0.300923169,0.087027974
1.76966E+18,10.17033569,0.100865097,2.036075035,-0.794360718,0.115524344,0.487061709,0.265039742
1.76966E+18,10.18032373,-0.508773771,2.425137481,-0.245331144,0.164602935,0.69336772,0.363749802
1.76966E+18,10.19031152,-0.799721953,2.466544427,0.351569751,0.246468961,0.871791542,0.369452834
1.76966E+18,10.20029956,-0.866895135,2.080973915,0.865118408,0.317274183,1.024336219,0.294716269
1.76966E+18,10.2102876,-0.666228844,1.52601422,1.138076686,0.373071223,1.194049478,0.183894828
1.76966E+18,10.22027563,-0.332520621,0.895649448,1.254189622,0.43115741,1.422284484,0.057533972
1.76966E+18,10.23026245,-0.121225164,0.3987281,1.272083152,0.467832953,1.595561266,-0.030106317
1.76966E+18,10.24025049,-0.093270039,0.01162088,0.840852128,0.4700993,1.508691072,-0.072559766
1.76966E+18,10.25023877,-0.178163441,-0.158691263,0.276208074,0.463483453,1.268912315,-0.063198462
1.76966E+18,10.26022656,-0.275784296,-0.085323829,-0.038609717,0.426278025,0.993108153,-0.042543255
1.76966E+18,10.2702146,0.065571666,0.296429755,-0.588232727,0.382216245,0.791238546,-0.049005091
1.76966E+18,10.28020264,0.268999239,0.466552513,-1.06184115,0.32801187,0.615566015,-0.060755759
1.76966E+18,10.29019067,0.198622876,0.358776613,-1.370526137,0.223364979,0.418650359,-0.087688066
1.76966E+18,10.30017871,0.129586311,0.335454774,-1.770724894,0.123534791,0.31167227,-0.100670174
1.76966E+18,10.31016675,-0.230825502,0.058135963,-1.834328474,0.074113786,0.263023317,-0.110538445
1.76966E+18,10.32015479,-0.490805787,-0.511354362,-1.618309934,0.069675893,0.225607499,-0.111853242
1.76966E+18,10.33014258,-0.602387363,-1.132051143,-1.421723532,0.085780494,0.211424738,-0.129306599
1.76966E+18,10.34013062,-0.557117312,-1.518839798,-1.234785833,0.10757181,0.223114952,-0.149171114
1.76966E+18,10.35011865,-0.58944371,-1.602287312,-1.021033777,0.137683123,0.278295606,-0.168017104
1.76966E+18,10.36010645,-0.567722584,-1.54684015,-0.876846547,0.172666147,0.348162025,-0.17271997
1.76966E+18,10.37009448,-0.605192922,-1.457502994,-0.791033181,0.175758675,0.353130192,-0.156048745
1.76966E+18,10.38008252,-0.565693417,-1.393113232,-0.821183989,0.158441737,0.273887038,-0.15052855
1.76966E+18,10.3900708,-0.437222227,-1.41241882,-0.755467362,0.140699506,0.172799274,-0.157332629
1.76966E+18,10.40005859,-0.396798009,-1.485319806,-0.721590519,0.116476998,0.096012346,-0.148910373
1.76966E+18,10.41004663,-0.495646652,-1.485301101,-0.78388214,0.095183529,0.045554996,-0.120992199
1.76966E+18,10.42003467,-0.620006022,-1.397534555,-0.763360161,0.085636631,-5.11045E-05,-0.086061649
1.76966E+18,10.43002271,-0.778614867,-1.333479139,-0.709864718,0.083332762,-0.041829258,-0.048384156
1.76966E+18,10.44000977,-0.980219828,-1.31043261,-0.589215016,0.083649144,-0.075022362,-0.006803957
1.76966E+18,10.4499978,-1.19169298,-1.306370183,-0.449337466,0.109710284,-0.084197164,0.027630057
1.76966E+18,10.4599856,-1.374387342,-1.284243691,-0.300698811,0.141281784,-0.080708958,0.052751921
1.76966E+18,10.46997363,-1.491390943,-1.248757368,-0.245505623,0.165925115,-0.089174479,0.064606659
1.76966E+18,10.47996191,-1.501003113,-1.140792083,-0.185389008,0.181089953,-0.091641098,0.054728467
1.76966E+18,10.48994971,-1.430790197,-1.0309423,-0.124657769,0.194526955,-0.096659057,0.027333351
1.76966E+18,10.4999375,-1.273028908,-0.869006355,-0.028368016,0.195699275,-0.106686652,-0.017355291
1.76966E+18,10.50992554,-1.00601361,-0.623907559,0.045696752,0.191104516,-0.125139698,-0.071348757
1.76966E+18,10.51991357,-0.689572164,-0.3349591,0.096045422,0.183331817,-0.15135479,-0.119161546
1.76966E+18,10.52990161,-0.475863947,0.004427169,0.120920043,0.17691204,-0.189264983,-0.127796158
1.76966E+18,10.53988965,-0.559632801,0.331231604,0.067031801,0.175390303,-0.232729629,-0.09199661
1.76966E+18,10.54987769,-0.901890388,0.510278257,0.005120119,0.188704774,-0.259321004,-0.020913111
1.76966E+18,10.55986548,-1.3602688,0.614766221,0.032595279,0.224582091,-0.248542681,0.060804389
1.76966E+18,10.56985352,-1.762799069,0.673826313,0.178492235,0.279098868,-0.236878023,0.1593557
1.76966E+18,10.5798418,-2.03929049,0.720059656,0.30050738,0.314253658,-0.168652087,0.232865602
1.76966E+18,10.58982983,-2.090495631,0.825415051,0.365226812,0.323746651,-0.077622265,0.243383035
1.76966E+18,10.59981763,-1.694739386,1.202781214,0.417782929,0.313788801,-0.002862539,0.184144214
1.76966E+18,10.60980566,-1.002777843,1.770562397,0.63166358,0.281798661,0.162548035,0.079524197
1.76966E+18,10.6197937,-0.412830129,2.100880977,0.949671545,0.237192824,0.363962382,-0.042026199
1.76966E+18,10.62978149,0.188572607,2.124102863,1.141734917,0.222797841,0.463461459,-0.13159664
1.76966E+18,10.63976953,0.808802939,1.907459177,1.052037987,0.227173686,0.518308461,-0.168904588
1.76966E+18,10.64975757,1.427291395,1.894661654,0.741140146,0.183846667,0.486278474,-0.155775398
1.76966E+18,10.65974438,1.834920595,2.149949252,0.314770591,0.123251237,0.274282604,-0.064374648
1.76966E+18,10.66973267,1.667895803,1.618717638,-0.243858733,0.046165746,0.022765234,0.053756624
1.76966E+18,10.6797207,1.347180332,1.370193544,-0.443809935,-0.019345354,-0.307819873,0.227407783
1.76966E+18,10.6897085,0.579100011,0.84533731,-0.282140825,-0.123275027,-0.651473105,0.34356752
1.76966E+18,10.69969653,0.260797447,0.372901,-0.511459284,-0.212098643,-0.837162256,0.363726318
1.76966E+18,10.70968457,-0.043956923,-0.129238959,-0.250917419,-0.274937004,-0.809671164,0.311755389
1.76966E+18,10.71967285,-0.230498024,-0.906456088,0.087644381,-0.320664018,-0.697927356,0.200178787
1.76966E+18,10.72966064,-0.00290164,-1.527093247,0.096426238,-0.332182556,-0.551272392,0.041815359
1.76966E+18,10.73964868,0.578771363,-1.802982319,0.047844286,-0.336731255,-0.502643108,-0.117065899
1.76966E+18,10.74963672,1.304477501,-1.602183852,-0.202524268,-0.324759275,-0.482548207,-0.247186348
1.76966E+18,10.75962476,2.0565409,-1.150112869,-0.437649367,-0.285396427,-0.474786431,-0.373560816
1.76966E+18,10.76961255,2.75056829,-0.533187424,-0.372334599,-0.250449985,-0.490280837,-0.497972608
1.76966E+18,10.77960059,3.211189074,-0.123496031,-0.189631468,-0.226421371,-0.557902992,-0.588676393
1.76966E+18,10.78958862,3.269069601,0.168474991,0.119099258,-0.20863691,-0.62890172,-0.635025382
1.76966E+18,10.79957642,2.919493947,0.425137383,0.581355535,-0.213912636,-0.755913973,-0.636664569
1.76966E+18,10.8095647,2.472076342,0.537940171,0.572108691,-0.27615869,-0.880847752,-0.594439447
1.76966E+18,10.81955273,1.924275141,0.890850523,0.293091258,-0.349092007,-0.937483072,-0.476582378
1.76966E+18,10.82954053,1.06045028,1.457353941,0.279345641,-0.401260048,-0.922777295,-0.293754131
1.76966E+18,10.83952856,0.256816706,1.716982782,0.44050008,-0.421528041,-0.84679383,-0.107553355
1.76966E+18,10.84951685,-0.183472069,1.478420694,0.47403147,-0.434986115,-0.775641501,0.037976623
1.76966E+18,10.85950488,-0.304834157,1.039448262,0.444620375,-0.435377061,-0.714882255,0.116357714
1.76966E+18,10.86949268,-0.326018399,0.81677874,0.710517337,-0.415675759,-0.652716279,0.135771707
1.76966E+18,10.87947974,-0.298022139,0.426577645,1.042861578,-0.386450469,-0.59100014,0.105198883
1.76966E+18,10.88946753,-0.202025817,-0.033259296,1.254392451,-0.362706006,-0.539334297,0.046197057
1.76966E+18,10.89945557,-0.030805473,-0.409849798,1.366958507,-0.351821929,-0.52677691,-0.026317358
1.76966E+18,10.90944385,0.238732476,-0.618173399,1.358653036,-0.333508193,-0.559424877,-0.106497012
1.76966E+18,10.91943164,0.499862077,-0.658662062,1.230549511,-0.308678478,-0.592834532,-0.177453741
1.76966E+18,10.92941943,0.497048189,-0.695993721,0.909452055,-0.297083378,-0.583259523,-0.220974758
1.76966E+18,10.93940747,0.29965617,-0.649692573,0.491510136,-0.302732468,-0.558943272,-0.227465689
1.76966E+18,10.94939575,0.046474313,-0.525238511,0.073250237,-0.324873149,-0.547934711,-0.218894497
1.76966E+18,10.95938354,-0.095047789,-0.546158549,-0.153442257,-0.323631853,-0.56090349,-0.225431502
1.76966E+18,10.96937158,-0.107341454,-0.642681818,-0.235824772,-0.335890651,-0.558294058,-0.2205019
1.76966E+18,10.97935962,-0.200613612,-0.773793585,-0.412156906,-0.347326815,-0.516620696,-0.203454211
1.76966E+18,10.98934766,-0.378899948,-0.839332517,-0.360878262,-0.361693591,-0.458218604,-0.188371539
1.76966E+18,10.99933569,-0.445787957,-1.005052656,-0.319033947,-0.370074302,-0.433016598,-0.172115341
1.76966E+18,11.00932373,-0.476974538,-1.174461128,-0.184073396,-0.366251171,-0.404642373,-0.169981137
1.76966E+18,11.01931177,-0.460919914,-1.235546004,0.073705726,-0.359182596,-0.341063112,-0.174173206
1.76966E+18,11.02929956,-0.491842437,-1.263470368,0.421029656,-0.349119157,-0.278010935,-0.182898745
1.76966E+18,11.03928784,-0.532649371,-1.304168874,0.635347091,-0.323965877,-0.236999854,-0.177278951
1.76966E+18,11.04927563,-0.525810173,-1.28613988,0.829113905,-0.280807465,-0.209449694,-0.17522487
1.76966E+18,11.05926343,-0.400873149,-1.179960895,0.985160499,-0.229856133,-0.186485529,-0.160218224
1.76966E+18,11.06925146,-0.373682652,-1.201741934,1.021264663,-0.188258752,-0.127315298,-0.133025289
1.76966E+18,11.0792395,-0.447287987,-1.072272673,0.997915936,-0.146275625,-0.090231046,-0.07873676
1.76966E+18,11.08922607,-0.611234686,-0.896595204,0.945930605,-0.082067139,-0.012281191,0.005848887
1.76966E+18,11.09921436,-0.800877114,-0.85958737,0.921589068,-0.028106701,0.079311311,0.102663845
1.76966E+18,11.10920239,-0.845135797,-0.775190592,0.929242943,0.006431525,0.163597032,0.189596415
1.76966E+18,11.11919019,-0.788071116,-0.625617286,0.928573958,0.031700399,0.223526955,0.267971903
1.76966E+18,11.12917822,-0.77623937,-0.46722179,1.019140218,0.054046046,0.227027014,0.341876864
1.76966E+18,11.1391665,-0.672753131,-0.342646732,1.04277273,0.069046564,0.2361691,0.38254571
1.76966E+18,11.14915454,-0.544007508,-0.324288653,1.147015195,0.06286905,0.203206509,0.392948031
1.76966E+18,11.15914233,-0.543504966,-0.34496553,1.213797406,0.043531571,0.159832671,0.396263421
1.76966E+18,11.16913037,-0.604572233,-0.366346756,1.139017913,0.04037625,0.145951241,0.400364399
1.76966E+18,11.17911841,-0.572615179,-0.327037075,0.906861308,0.043786429,0.177060425,0.406448662
1.76966E+18,11.18910645,-0.393935167,-0.13195757,0.601737667,0.046464775,0.214851454,0.399265587
1.76966E+18,11.19909448,0.027376594,0.291782221,0.335263343,0.043671653,0.236719728,0.355464041
1.76966E+18,11.20908228,0.662692267,0.767552644,0.075577219,0.042635821,0.263779998,0.308402181
1.76966E+18,11.21907031,1.201946517,1.161973987,-0.020421734,0.061753586,0.322078735,0.264719129
1.76966E+18,11.22905835,1.568542279,1.39492408,0.133695354,0.091767542,0.401415735,0.211874947
1.76966E+18,11.23904639,1.8724469,1.457450387,0.313800138,0.148689941,0.457687527,0.166752473
1.76966E+18,11.24903442,1.835593964,1.233849137,0.530783139,0.202050477,0.491025209,0.127871349
1.76966E+18,11.25902222,1.609676254,0.680098817,0.522652586,0.204391122,0.514534533,0.050614387
1.76966E+18,11.26901025,1.665312216,0.087120065,0.162873664,0.18798171,0.515477002,-0.092590258
1.76966E+18,11.27899854,1.816038346,-0.446037548,-0.499450866,0.15513429,0.481518477,-0.24487406
1.76966E+18,11.28898657,1.711328117,-1.059847492,-1.435960732,0.063262917,0.415457308,-0.38270697
1.76966E+18,11.29897437,1.649268259,-1.376885735,-2.36881792,-0.055492226,0.311552227,-0.474851012
1.76966E+18,11.30896143,1.535679143,-1.226252106,-3.141569302,-0.156070948,0.21363017,-0.495560676
1.76966E+18,11.31894922,1.362685214,-0.750102913,-3.428316745,-0.212284163,0.129288658,-0.454706162
1.76966E+18,11.3289375,1.210844986,-0.064556936,-3.348650503,-0.219055817,0.034728467,-0.34320569
1.76966E+18,11.33892554,1.138418486,0.571222848,-3.074007048,-0.14976117,0.025287561,-0.157554075
1.76966E+18,11.34891357,0.841034645,1.263877195,-2.317541176,-0.047889732,0.157892957,0.085485369
1.76966E+18,11.35890137,0.360861749,1.969817141,-1.428392196,0.10273546,0.480800718,0.307733625
1.76966E+18,11.36888916,-0.109507838,2.776236984,-0.23596155,0.244611353,0.870604157,0.440639853
1.76966E+18,11.37887744,-0.499088316,2.954411531,0.729335727,0.342926472,1.146252632,0.460263908
1.76966E+18,11.38886523,-0.525571834,2.606063957,1.070984533,0.381303221,1.274066687,0.362480223
1.76966E+18,11.39885327,-0.249797914,1.841117696,1.141604568,0.381273657,1.365358472,0.234543815
1.76966E+18,11.40884131,-0.204792066,0.701361386,1.082041788,0.389463454,1.48160708,0.132699326
1.76966E+18,11.41882959,-0.172119485,0.05233166,0.741641958,0.398626596,1.526688576,0.12675862
1.76966E+18,11.42881738,0.041100072,0.115132692,0.213756586,0.446416408,1.454025388,0.195516184
1.76966E+18,11.43880542,0.314694895,0.310937588,-0.099219376,0.510045707,1.304520369,0.256674349
1.76966E+18,11.44879346,0.479149836,0.489977228,-0.325159152,0.53320998,1.127163172,0.269332051
1.76966E+18,11.45878149,0.474010866,0.761547267,-0.618118893,0.501889586,1.033625841,0.278287202
1.76966E+18,11.46876953,-0.101200467,0.86726448,-0.914933994,0.416124225,0.950480938,0.229756579
1.76966E+18,11.47875732,-0.602367343,0.949277577,-0.967119231,0.299781114,0.852881193,0.144533828
1.76966E+18,11.48874536,-0.662941346,0.648858461,-1.038104154,0.206267685,0.717193604,0.048671532
1.76966E+18,11.49873315,-0.533397267,0.218898187,-1.180382189,0.156843662,0.645391285,-0.014832078
1.76966E+18,11.50872144,-0.551970012,-0.127025374,-1.268089845,0.141965449,0.600549161,-0.026789915
1.76966E+18,11.51870825,-0.547643235,-0.320338454,-1.351568923,0.144810766,0.564119279,-0.013650145
1.76966E+18,11.52869629,-0.401867129,-0.507719221,-1.340622289,0.157378659,0.519345641,0.006215446
1.76966E+18,11.53868433,-0.31561844,-0.67204469,-1.333158967,0.201872349,0.498830825,0.033414308
1.76966E+18,11.54867236,-0.359424702,-0.81251173,-1.292690033,0.245701835,0.555864632,0.057492383
1.76966E+18,11.5586604,-0.429078815,-0.959539444,-1.23528823,0.265427351,0.630773544,0.058264431
1.76966E+18,11.56864844,-0.487474889,-1.059231406,-1.047704634,0.264127493,0.660798907,0.028696014
1.76966E+18,11.57863647,-0.498654309,-1.131249179,-0.916092808,0.251951516,0.636462688,-0.002396391
1.76966E+18,11.58862427,-0.569464606,-1.148055352,-0.703693628,0.234193236,0.566978812,-0.018684471
1.76966E+18,11.5986123,-0.610746026,-1.101919624,-0.470181517,0.206744835,0.468345165,-0.019912455
1.76966E+18,11.60860059,-0.628011487,-1.117449201,-0.419968164,0.171900928,0.350369304,-0.004300606
1.76966E+18,11.61858862,-0.591545651,-1.16079033,-0.462054032,0.161365986,0.238713339,0.013306084
1.76966E+18,11.62857642,-0.558200723,-1.073590186,-0.433011186,0.156072974,0.129414976,0.036334064
1.76966E+18,11.63856421,-0.613436872,-1.001270215,-0.387898371,0.151430562,0.050066363,0.061007988
1.76966E+18,11.64855249,-0.775829913,-0.959201005,-0.354479208,0.155356526,0.023783293,0.097751543
1.76966E+18,11.65854028,-1.025722227,-0.865307501,-0.332477804,0.174438074,0.003444199,0.141501412
1.76966E+18,11.66852832,-1.156412261,-0.790602681,-0.36966801,0.180787474,-0.01070431,0.167398244
1.76966E+18,11.67851636,-1.237680678,-0.795039202,-0.432697005,0.18360804,-0.00040773,0.163827211
1.76966E+18,11.68850415,-1.277515698,-0.777017807,-0.385261008,0.184913874,0.016801333,0.1404915
1.76966E+18,11.69849243,-1.30062331,-0.741591105,-0.369834306,0.202071562,0.015975486,0.112822317
1.76966E+18,11.70848047,-1.296314069,-0.583251724,-0.28568595,0.230373234,0.016512379,0.104658395
1.76966E+18,11.71846851,-1.332353496,-0.406466001,-0.178049459,0.27291882,0.019745989,0.116817325
1.76966E+18,11.7284563,-1.367101131,-0.23486674,-0.0573755,0.317357838,0.044861481,0.130059913
1.76966E+18,11.73844458,-1.360051651,0.001696283,0.074592007,0.346087217,0.067924187,0.132825613
1.76966E+18,11.74843164,-1.336772189,0.277896319,0.125871821,0.340014607,0.039215762,0.124909364
1.76966E+18,11.75841943,-1.238003188,0.425949284,0.075427289,0.32065928,-0.029579544,0.102549464
1.76966E+18,11.76840747,-1.099019372,0.485104069,0.032089083,0.314511389,-0.087129951,0.08670821
1.76966E+18,11.77839551,-1.056300174,0.540876809,0.03331804,0.323546946,-0.120709479,0.097513452
1.76966E+18,11.78838354,-1.01086748,0.705370621,-0.011013561,0.351979256,-0.121980675,0.129812032
1.76966E+18,11.79837134,-0.908700068,1.017304235,0.075052318,0.385533482,-0.07750722,0.166429967
1.76966E+18,11.80835938,-0.793424168,1.481453778,0.243662918,0.420214683,0.017738624,0.203971058
1.76966E+18,11.81834717,-0.783622905,1.82938225,0.438542516,0.455583841,0.174802005,0.232034907
1.76966E+18,11.82833521,-0.882847834,1.812836189,0.747651135,0.495604008,0.377951592,0.202459246
1.76966E+18,11.83832349,-1.026172601,1.564841671,1.036634958,0.526374102,0.498370945,0.098509692
1.76966E+18,11.84831152,-0.831221837,1.599907724,1.144104861,0.513133705,0.501979649,-0.025144793
1.76966E+18,11.85829932,-0.754666859,1.690917782,0.983195337,0.47073245,0.448594153,-0.094926804
1.76966E+18,11.86828735,-0.819251706,1.69466749,0.806627933,0.437865674,0.420370996,-0.087320022
1.76966E+18,11.87827563,-0.714315121,1.645136274,0.566437951,0.388025135,0.457276553,-0.055251829
1.76966E+18,11.88826343,-0.358116542,1.609065428,0.146586107,0.286225885,0.416451931,-0.006965923
1.76966E+18,11.89825146,0.360693114,1.350143274,-0.4444117,0.186870545,0.323609084,0.020505117
1.76966E+18,11.90823926,1.248699938,0.863410727,-0.77805358,0.123435229,0.183757603,0.059461623
1.76966E+18,11.91822729,1.682719132,0.036356092,-0.985600352,0.07940013,0.055356488,0.10520754
1.76966E+18,11.92821533,1.698332881,-0.902788798,-1.012182362,0.002772392,-0.085446768,0.102112859
1.76966E+18,11.93820337,1.704870466,-1.598583197,-1.001705976,-0.041669909,-0.204913244,0.025577076
1.76966E+18,11.94819141,1.794377134,-1.817314795,-0.800300483,-0.083800353,-0.258273035,-0.102307841
1.76966E+18,11.9581792,1.93072271,-1.73434016,-0.697527799,-0.097389936,-0.247810274,-0.23511675
1.76966E+18,11.96816626,2.194025271,-1.425865747,-0.569409368,-0.105759233,-0.220701233,-0.365032941
1.76966E+18,11.97815454,2.562857268,-1.029294532,-0.373946418,-0.115929052,-0.193176135,-0.483564109
1.76966E+18,11.98814233,2.962655043,-0.509834605,-0.063893796,-0.158219099,-0.204082519,-0.569418848
1.76966E+18,11.99813037,3.083060707,-0.166278357,0.087204236,-0.18877621,-0.234948024,-0.621648788
1.76966E+18,12.00811841,2.98739084,0.323304318,0.267533331,-0.239578933,-0.28118372,-0.626122594
1.76966E+18,12.0181062,2.615503986,0.750669899,0.24484716,-0.3188591,-0.330311567,-0.570054531
1.76966E+18,12.02809448,2.134302331,0.96132925,-0.031112054,-0.400259703,-0.323208034,-0.443670958
1.76966E+18,12.03808252,1.484562704,1.055046813,-0.259304432,-0.445800304,-0.285657734,-0.257632643
1.76966E+18,12.04807056,0.782852359,0.988281554,-0.358386737,-0.451870769,-0.239783764,-0.046874143
1.76966E+18,12.05805835,0.169063604,0.765001791,-0.497566075,-0.444161981,-0.208129704,0.134956375
1.76966E+18,12.06804639,-0.27440044,0.479871429,-0.528632245,-0.435122788,-0.224013045,0.249556839
1.76966E+18,12.07803442,-0.42992301,0.05931845,-0.324871713,-0.421953201,-0.270212263,0.270150244
1.76966E+18,12.08802222,-0.348885918,-0.544122659,-0.015164544,-0.413892835,-0.328158438,0.219791383
1.76966E+18,12.0980105,-0.292961348,-1.071498182,0.289639364,-0.419423163,-0.352646202,0.143842027
1.76966E+18,12.10799854,-0.254393279,-1.352304251,0.616325433,-0.430863082,-0.353479445,0.070198528
1.76966E+18,12.11798682,-0.160841719,-1.37986855,0.854181127,-0.451943845,-0.362034589,0.031060981
1.76966E+18,12.12797461,-0.141270757,-1.359467567,1.023243854,-0.44176057,-0.359703392,0.006949646
1.76966E+18,12.13796265,-0.200170836,-1.189203355,1.208102701,-0.393842578,-0.336056679,-0.02234273
1.76966E+18,12.14795068,-0.323235929,-1.026515715,1.168093639,-0.321147114,-0.277115464,-0.027781831
1.76966E+18,12.15793872,-0.579076484,-1.029010455,0.994389223,-0.257740706,-0.163593948,-0.035846949
1.76966E+18,12.16792676,-0.738266198,-1.058542839,0.726121148,-0.209013581,-0.017988481,-0.060278449
1.76966E+18,12.17791382,-0.77058456,-1.087462059,0.407088224,-0.157606319,0.168299899,-0.077343188
1.76966E+18,12.18790161,-0.864234465,-1.107068092,0.112948626,-0.125031933,0.249996006,-0.086492017
1.76966E+18,12.19788965,-0.820809165,-0.993057682,-0.127919985,-0.10624066,0.214212984,-0.0883549
1.76966E+18,12.20787769,-0.756474347,-0.86592534,-0.085834117,-0.086606152,0.182094187,-0.084632434
1.76966E+18,12.21786548,-0.705929278,-0.845485194,0.004644903,-0.089515127,0.171323031,-0.078361221
1.76966E+18,12.22785352,-0.583760696,-0.818891787,0.138994921,-0.114772663,0.13951008,-0.070177384
