time,seconds_elapsed,z,y,x
1769667635793897500,0.0728974609375,0.014043132774531841,-0.02716117911040783,-0.045267678797245026
1769667635803885300,0.08288525390625,0.007802583277225494,-0.03246556222438812,-0.03937707096338272
1769667635813874200,0.092874267578125,0.00005145289469510317,-0.0408710315823555,-0.04154062271118164
1769667635823862300,0.1028623046875,-0.006070837378501892,-0.03732062876224518,-0.05140262842178345
1769667635833851400,0.112851318359375,-0.013094392605125904,-0.009078603237867355,-0.055181123316287994
1769667635843840300,0.12284033203125,-0.007664852309972048,0.010222855024039745,-0.04520447179675102
1769667635853828000,0.132828125,-0.015505464747548103,0.05131782963871956,-0.058097630739212036
1769667635863817200,0.142817138671875,-0.03884410485625267,0.08178110420703888,-0.061121027916669846
1769667635873806300,0.152806396484375,-0.09265939891338348,0.182547926902771,-0.05724160000681877
1769667635883794400,0.16279443359375,-0.20674683153629303,0.26849132776260376,-0.0965280756354332
1769667635893783300,0.172783203125,-0.2702094316482544,0.3983960449695587,-0.18270716071128845
1769667635903771400,0.182771484375,-0.2254636585712433,0.27359965443611145,-0.21608509123325348
1769667635913760300,0.19276025390625,-0.2383432388305664,0.171517476439476,-0.3075260519981384
1769667635923749000,0.2027490234375,-0.34603190422058105,-0.06458906084299088,-0.5435271263122559
1769667635933737200,0.2127373046875,-0.41338056325912476,-0.28512194752693176,-0.6269966959953308
1769667635943726300,0.222726318359375,-0.5574852824211121,-0.22825895249843597,-0.6182894706726074
1769667635953714400,0.23271435546875,-0.745172381401062,-0.38070279359817505,-0.7206217050552368
1769667635963703300,0.242703369140625,-0.793323814868927,-0.6217306852340698,-0.8277236819267273
1769667635973692200,0.252692138671875,-0.8048523664474487,-0.8775994777679443,-0.9589296579360962
1769667635983680300,0.26268017578125,-0.8034312725067139,-1.0358312129974365,-1.1173694133758545
1769667635993669400,0.27266943359375,-0.764723002910614,-0.9769494533538818,-1.2245179414749146
1769667636003658200,0.282658203125,-0.8023580312728882,-0.8244337439537048,-1.2750067710876465
1769667636013646300,0.292646240234375,-0.8541437387466431,-0.7349169254302979,-1.3413317203521729
1769667636023635500,0.302635498046875,-0.9242983460426331,-0.8026229739189148,-1.4445116519927979
1769667636033623300,0.312623291015625,-0.8917185068130493,-0.9984627962112427,-1.5802226066589355
1769667636043612200,0.322612060546875,-0.8915156126022339,-1.1802204847335815,-1.630218267440796
1769667636053601300,0.332601318359375,-0.9465171098709106,-1.294567584991455,-1.558843731880188
1769667636063589400,0.34258935546875,-0.865772545337677,-1.2390178442001343,-1.4845219850540161
1769667636073578200,0.352578125,-0.8137631416320801,-0.9653729200363159,-1.4556379318237305
1769667636083567400,0.3625673828125,-0.7275509238243103,-0.58891761302948,-1.3871759176254272
1769667636093555500,0.372555419921875,-0.6393622159957886,-0.07908737659454346,-1.4009135961532593
1769667636103544600,0.382544677734375,-0.6273374557495117,0.1516222208738327,-1.4345782995224
1769667636113532400,0.392532470703125,-0.5250499844551086,0.38479503989219666,-1.5775418281555176
1769667636123521300,0.402521240234375,-0.5437912940979004,0.6398633122444153,-1.795210838317871
1769667636133510400,0.412510498046875,-0.44982248544692993,0.6051655411720276,-1.7615482807159424
1769667636143498500,0.42249853515625,-0.3768271505832672,0.716279149055481,-1.5888659954071045
1769667636153487400,0.4324873046875,-0.27216944098472595,0.9849920868873596,-1.4752848148345947
1769667636163476500,0.4424765625,-0.1304129809141159,1.311295986175537,-1.4642813205718994
1769667636173464300,0.45246435546875,-0.07716654241085052,1.4445281028747559,-1.462215542793274
1769667636183453400,0.462453369140625,-0.11029033362865448,1.750939130783081,-1.6187374591827393
1769667636193441300,0.472441162109375,-0.2671433091163635,2.245026111602783,-2.011312246322632
1769667636203430400,0.482430419921875,-0.3476185202598572,2.029723644256592,-2.194303512573242
1769667636213419500,0.49241943359375,-0.49449050426483154,1.779184103012085,-2.4264562129974365
1769667636223407600,0.50240771484375,-0.3748213052749634,0.9820217490196228,-2.181943893432617
1769667636233396200,0.512396240234375,-0.28241148591041565,0.6045295596122742,-1.661587119102478
1769667636243385300,0.52238525390625,-0.30241087079048157,0.30942294001579285,-1.2136203050613403
1769667636253373400,0.53237353515625,-0.30796489119529724,0.01093504298478365,-0.8963355422019958
1769667636263362300,0.5423623046875,-0.3039636015892029,-0.22758561372756958,-0.7383497357368469
1769667636273350400,0.552350341796875,-0.32730141282081604,-0.32320642471313477,-0.6533246040344238
1769667636283339500,0.562339599609375,-0.5697150826454163,-0.2100306898355484,-0.4835183918476105
1769667636293328600,0.57232861328125,-0.7412631511688232,-0.6346442699432373,-0.20341482758522034
1769667636303316500,0.58231640625,-0.6367515325546265,-0.5188287496566772,-0.2998238205909729
1769667636313305300,0.592305419921875,-0.20082987844944,0.8824414014816284,-0.2549932301044464
1769667636323293400,0.60229345703125,-0.6876977682113647,1.4991601705551147,-0.2060052901506424
1769667636333282600,0.612282470703125,-0.6342281699180603,0.025241918861865997,-0.3721045255661011
1769667636343271400,0.622271484375,-0.27471062541007996,-0.6198468804359436,-0.5316668748855591
1769667636353259300,0.63225927734375,-0.15014100074768066,0.006517420522868633,-0.47861433029174805
1769667636363248400,0.642248291015625,-0.09123261272907257,0.1862940788269043,-0.2931460440158844
1769667636373237200,0.6522373046875,-0.010867996141314507,-0.027093032374978065,-0.25757741928100586
1769667636383225300,0.662225341796875,0.09879056364297867,-0.06079036369919777,-0.3386567234992981
1769667636393214500,0.67221435546875,0.1793927401304245,0.1204364150762558,-0.3003911077976227
1769667636403202300,0.682202392578125,0.2258116751909256,0.417918860912323,-0.14638946950435638
1769667636413191400,0.69219140625,0.3816835582256317,0.5609298348426819,-0.11977410316467285
1769667636423180300,0.70218017578125,0.4790191650390625,0.681825578212738,-0.09667138010263443
1769667636433168400,0.71216845703125,0.5503830909729004,0.7207292914390564,-0.04973449930548668
1769667636443157500,0.722157470703125,0.5936558246612549,0.783623993396759,0.021697349846363068
1769667636453146400,0.732146484375,0.4817871153354645,0.5053350925445557,0.09918468445539474
1769667636463134500,0.742134521484375,0.4579003155231476,0.5745441913604736,0.12377069145441055
1769667636473123300,0.752123291015625,0.5682917833328247,0.6131267547607422,0.20375926792621613
1769667636483111400,0.762111328125,0.6126799583435059,0.8341010212898254,0.20502832531929016
1769667636493100300,0.772100341796875,0.6370641589164734,0.5824083685874939,0.27187445759773254
1769667636503089400,0.78208935546875,0.6237354874610901,0.3698834180831909,0.44595396518707275
1769667636513077500,0.792077392578125,0.4625205397605896,0.442162424325943,0.3536008596420288
1769667636523066600,0.802066650390625,0.4012856185436249,0.05223230645060539,0.37810978293418884
1769667636533055200,0.81205517578125,0.40817439556121826,0.13846252858638763,0.37593451142311096
1769667636543043300,0.822043212890625,0.43123018741607666,0.3086068630218506,0.2572360634803772
1769667636553032400,0.832032470703125,0.6151238679885864,0.3677058815956116,0.21447978913784027
1769667636563020500,0.8420205078125,0.6934190988540649,0.576911985874176,0.2559475898742676
1769667636573009400,0.852009521484375,0.5439249873161316,0.3615357577800751,0.5251686573028564
1769667636582998500,0.86199853515625,0.5002895593643188,0.30541369318962097,0.5701524019241333
1769667636592986400,0.871986328125,0.5260202288627625,0.32152262330055237,0.5348276495933533
1769667636602975500,0.8819755859375,0.5725165009498596,0.3540416657924652,0.4489535689353943
1769667636612964400,0.89196435546875,0.5759274363517761,0.36549991369247437,0.3942386507987976
1769667636622952400,0.901952392578125,0.5122742056846619,0.25369444489479065,0.35916393995285034
1769667636632941600,0.911941650390625,0.4864194691181183,0.08474111557006836,0.3235657513141632
1769667636642929400,0.921929443359375,0.52561354637146,-0.07506278902292252,0.23095448315143585
1769667636652918300,0.931918212890625,0.6319738030433655,-0.16818341612815857,0.08275862783193588
1769667636662907400,0.941907470703125,0.6340290904045105,-0.3029192388057709,-0.07657299190759659
1769667636672895500,0.9518955078125,0.4545133709907532,-0.4766140580177307,-0.18167462944984436
1769667636682884400,0.96188427734375,0.31824544072151184,-0.3704754412174225,-0.2610628306865692
1769667636692873500,0.97187353515625,0.29496437311172485,-0.12579435110092163,-0.32278773188591003
1769667636702861300,0.981861328125,0.2493387758731842,-0.0863596573472023,-0.33965280652046204
1769667636712850400,0.991850341796875,0.19707611203193665,-0.08033345639705658,-0.3299333155155182
1769667636722838500,1.001838623046875,0.12992961704730988,-0.17128340899944305,-0.21117006242275238
1769667636732827400,1.011827392578125,0.05320315808057785,-0.3515658378601074,-0.117771677672863
1769667636742816500,1.02181640625,-0.04816046357154846,-0.4785061478614807,-0.14028340578079224
1769667636752804600,1.0318046875,-0.11987698823213577,-0.5088334083557129,-0.20122690498828888
1769667636762793200,1.041793212890625,-0.1762653887271881,-0.4829265773296356,-0.23040246963500977
1769667636772782300,1.0517822265625,-0.22653095424175262,-0.45387735962867737,-0.2479953169822693
1769667636782770400,1.0617705078125,-0.2588628828525543,-0.3960936367511749,-0.276373028755188
1769667636792759300,1.07175927734375,-0.2697903513908386,-0.15420615673065186,-0.3461185693740845
1769667636802747400,1.081747314453125,-0.2366480827331543,-0.07909484207630157,-0.40204495191574097
1769667636812736500,1.091736572265625,-0.2212132066488266,-0.27319854497909546,-0.3188563287258148
1769667636822725400,1.101725341796875,-0.1252979189157486,-0.23588597774505615,-0.4163478910923004
1769667636832713500,1.11171337890625,-0.10880283266305923,-0.40807902812957764,-0.3147895634174347
1769667636842702300,1.121702392578125,0.032128553837537766,-0.5235962867736816,-0.31031373143196106
1769667636852690400,1.1316904296875,0.19227641820907593,-0.4964296817779541,-0.369385302066803
1769667636862679600,1.141679443359375,0.342562198638916,-0.3490259349346161,-0.38385218381881714
1769667636872668400,1.15166845703125,0.4713297486305237,-0.18205372989177704,-0.3512992858886719
1769667636882656300,1.16165625,0.5922223925590515,-0.04834553226828575,-0.32700440287590027
1769667636892645400,1.171645263671875,0.4927760064601898,-0.10603972524404526,-0.14705753326416016
1769667636902634500,1.181634521484375,0.3299233913421631,-0.33273980021476746,-0.005786239169538021
1769667636912622300,1.191622314453125,0.07179730385541916,-0.6036143898963928,0.07867565006017685
1769667636922611500,1.201611572265625,-0.3415871858596802,-0.933594822883606,0.06958766281604767
1769667636932599300,1.211599365234375,-0.539967954158783,-1.2042330503463745,0.10655499994754791
1769667636942588400,1.22158837890625,-0.8478077054023743,-1.3096401691436768,0.14559006690979004
1769667636952577300,1.231577392578125,-0.9440484642982483,-1.4724268913269043,0.04266741871833801
1769667636962565400,1.2415654296875,-0.8755722045898438,-1.1658045053482056,-0.21168476343154907
1769667636972554500,1.251554443359375,-0.9308857917785645,-1.039698839187622,-0.4607422351837158
1769667636982543400,1.26154345703125,-0.8521015048027039,-0.8008397221565247,-0.7005248665809631
1769667636992531200,1.27153125,-0.6801412105560303,-0.6117571592330933,-0.5767680406570435
1769667637002520300,1.281520263671875,-0.5449190139770508,-0.6289730072021484,-0.41140609979629517
1769667637012508400,1.29150830078125,-0.38368913531303406,-0.5050742030143738,-0.4911848306655884
1769667637022497500,1.30149755859375,-0.2604864239692688,-0.35522663593292236,-0.4713825583457947
1769667637032486400,1.311486328125,-0.04241694137454033,-0.018407067283988,-0.3742743730545044
1769667637042474500,1.321474609375,0.19166524708271027,0.013589474372565746,-0.2623455226421356
1769667637052463400,1.33146337890625,0.2730059027671814,-0.12757323682308197,-0.10251191258430481
1769667637062452200,1.3414521484375,0.23288682103157043,-0.012186442501842976,-0.016115671023726463
1769667637072441000,1.351441162109375,0.09344583004713058,-0.03269917145371437,-0.08496663719415665
1769667637082430200,1.36143017578125,-0.0020416949409991503,-0.16146160662174225,-0.12092216312885284
1769667637092418300,1.371418212890625,-0.029923658818006516,-0.23648792505264282,-0.14012302458286285
1769667637102407000,1.381406982421875,-0.026981336995959282,-0.19074366986751556,-0.12985959649085999
1769667637112396000,1.39139599609375,0.010290933772921562,-0.09755460917949677,-0.103109210729599
1769667637122384100,1.401384033203125,0.057780325412750244,-0.028520436957478523,-0.0634031742811203
1769667637132373000,1.411373046875,0.09446670114994049,0.003152271034196019,-0.020265288650989532
1769667637142362000,1.421362060546875,0.11647544056177139,0.0024836098309606314,0.04903178662061691
1769667637152350200,1.43135009765625,0.0831582248210907,0.04300573468208313,0.07827463001012802
1769667637162339000,1.441339111328125,0.05358193814754486,0.1008831039071083,0.060238391160964966
1769667637172327200,1.4513271484375,0.02444535866379738,0.14789694547653198,-0.0442667119204998
1769667637182316000,1.46131591796875,0.004817062523216009,-0.00330482074059546,-0.15863482654094696
1769667637192305200,1.47130517578125,-0.0354217030107975,-0.14816240966320038,-0.2136181890964508
1769667637202293200,1.481293212890625,-0.20976437628269196,-0.0201713964343071,0.09649503231048584
1769667637212282000,1.4912822265625,-0.2867606282234192,-0.15547914803028107,0.28087207674980164
1769667637222271000,1.50127099609375,-0.2163352370262146,-0.1582026481628418,-0.03506182134151459
1769667637232259000,1.511259033203125,-0.1696566790342331,-0.08134354650974274,-0.31574222445487976
1769667637242248000,1.521248046875,-0.07155909389257431,-0.035111427307128906,-0.44284361600875854
1769667637252236000,1.531236083984375,-0.11604586988687515,-0.14639747142791748,-0.3761759102344513
1769667637262225200,1.54122509765625,-0.15296782553195953,-0.3749520182609558,-0.20626084506511688
1769667637272214300,1.55121435546875,-0.16396933794021606,-0.32076892256736755,-0.22943753004074097
1769667637282202000,1.5612021484375,-0.17872798442840576,-0.45523786544799805,-0.25182852149009705
1769667637292191000,1.57119091796875,-0.1922680288553238,-0.47398170828819275,-0.21455465257167816
1769667637302180000,1.58118017578125,-0.2243456393480301,-0.477866530418396,-0.23236508667469025
1769667637312168200,1.591168212890625,-0.2661876380443573,-0.5366891026496887,-0.2879016101360321
1769667637322157000,1.601156982421875,-0.36233726143836975,-0.6448814272880554,-0.33087071776390076
1769667637332145000,1.611144775390625,-0.4657648503780365,-0.7971506118774414,-0.34026050567626953
1769667637342134000,1.621134033203125,-0.5141302943229675,-0.9385482668876648,-0.38358554244041443
1769667637352123100,1.631123046875,-0.5329164862632751,-0.9878806471824646,-0.5066712498664856
1769667637362111000,1.641111083984375,-0.518934965133667,-1.1635241508483887,-0.6870195269584656
1769667637372100000,1.65110009765625,-0.4978773593902588,-1.4110010862350464,-0.8840582966804504
1769667637382088200,1.661088134765625,-0.5001749992370605,-1.5173908472061157,-1.0951576232910156
1769667637392077000,1.6710771484375,-0.45546954870224,-1.4078985452651978,-1.254267930984497
1769667637402066000,1.68106591796875,-0.4297531843185425,-1.1850941181182861,-1.4314820766448975
1769667637412054000,1.691053955078125,-0.48495012521743774,-0.8834090828895569,-1.5916059017181396
1769667637422043100,1.701043212890625,-0.4831291437149048,-0.5409596562385559,-1.6648898124694824
1769667637432032000,1.711031982421875,-0.3557341694831848,-0.30679967999458313,-1.687334418296814
1769667637442020000,1.72102001953125,-0.2837851345539093,-0.23288120329380035,-1.6648406982421875
1769667637452009000,1.731009033203125,-0.24985408782958984,-0.12518003582954407,-1.5849581956863403
1769667637461997000,1.7409970703125,-0.17870193719863892,-0.022918304428458214,-1.4665542840957642
1769667637471986200,1.750986083984375,-0.20735809206962585,-0.1122678890824318,-1.3277479410171509
1769667637481975000,1.76097509765625,-0.19787821173667908,-0.3077513873577118,-1.2635093927383423
1769667637491963100,1.770963134765625,-0.22867047786712646,-0.32927000522613525,-1.164381742477417
1769667637501952300,1.7809521484375,-0.2646140158176422,-0.1416008472442627,-1.1184161901474
1769667637511941000,1.790941162109375,-0.2579132616519928,0.47254541516304016,-1.3082915544509888
1769667637521929000,1.800928955078125,-0.17091722786426544,0.5257112383842468,-1.5898158550262451
1769667637531918000,1.81091796875,-0.17559000849723816,0.4513009488582611,-1.5826386213302612
1769667637541907200,1.8209072265625,-0.2901114225387573,0.378237247467041,-1.1279770135879517
1769667637551895000,1.83089501953125,-0.25062820315361023,0.3177688419818878,-0.7192217111587524
1769667637561884200,1.84088427734375,-0.1115829199552536,0.4785255789756775,-0.592693567276001
1769667637571872000,1.8508720703125,0.017255213111639023,0.8692712783813477,-0.49819451570510864
1769667637581861000,1.860861083984375,0.061488088220357895,0.9961793422698975,-0.3400598466396332
1769667637591850000,1.87085009765625,-0.009933631867170334,0.9955306053161621,-0.22580650448799133
1769667637601838000,1.880838134765625,-0.07819167524576187,0.656910240650177,-0.23616237938404083
1769667637611827200,1.8908271484375,-0.04171622917056084,0.37067392468452454,-0.1941392868757248
1769667637621816000,1.900816162109375,-0.03934146836400032,0.5724270939826965,-0.1138806864619255
1769667637631804000,1.910803955078125,-0.0572565495967865,0.7068386673927307,-0.09228058904409409
1769667637641793000,1.92079296875,-0.039173442870378494,0.5866795182228088,-0.19055573642253876
1769667637651781000,1.930781005859375,-0.03271793946623802,0.36632925271987915,-0.17043796181678772
1769667637661770000,1.94077001953125,-0.05266038700938225,0.5144351124763489,-0.03641827031970024
1769667637671759000,1.950759033203125,-0.03497140482068062,0.7597429156303406,-0.02737150900065899
1769667637681747000,1.960746826171875,0.06188526377081871,0.040546633303165436,-0.4115285873413086
1769667637691736000,1.970736083984375,0.16275382041931152,0.11158698052167892,-0.7270905375480652
1769667637701724200,1.98072412109375,0.15693458914756775,0.2688795030117035,-0.6835907697677612
1769667637711713000,1.990713134765625,0.11220626533031464,0.8185311555862427,-0.2810387909412384
1769667637721702100,2.0007021484375,-0.01310623437166214,0.582038402557373,0.4030725359916687
1769667637731690200,2.010690185546875,0.007339384872466326,-0.16016830503940582,0.6281527876853943
1769667637741679000,2.02067919921875,0.07630439847707748,-0.07244042307138443,0.3839951753616333
1769667637751668000,2.03066796875,0.07331953197717667,0.17845438420772552,0.09152816981077194
1769667637761656000,2.040656005859375,0.04308527708053589,0.13043729960918427,0.029051590710878372
1769667637771645200,2.050645263671875,0.022053491324186325,0.022932937368750572,0.11628716439008713
1769667637781634000,2.060634033203125,0.023461446166038513,-0.018099071457982063,0.14097338914871216
1769667637791622100,2.0706220703125,0.030431736260652542,-0.015330182388424873,0.08643292635679245
1769667637801611300,2.080611328125,0.03657584637403488,0.0014517339877784252,0.03166021779179573
1769667637811599000,2.09059912109375,0.035929229110479355,0.003569479566067457,0.0328541100025177
1769667637821588000,2.100587890625,0.030335577204823494,-0.00046849646605551243,0.0673447996377945
1769667637831577000,2.1105771484375,0.027435660362243652,-0.01368443388491869,0.0804653987288475
1769667637841565200,2.120565185546875,0.030153844505548477,-0.015128456987440586,0.06714796274900436
1769667637851554000,2.130553955078125,0.025698110461235046,0.002483826130628586,0.05281056836247444
1769667637861542000,2.1405419921875,0.024766288697719574,0.009412089362740517,0.052592433989048004
1769667637871531000,2.150531005859375,0.02252337336540222,0.034316107630729675,0.06709600985050201
1769667637881520000,2.16052001953125,0.012091425247490406,0.059470489621162415,0.0872027575969696
1769667637891508200,2.17050830078125,0.003931233659386635,0.09353285282850266,0.09869802743196487
1769667637901497000,2.1804970703125,-0.0013593595940619707,0.1010684072971344,0.0965128019452095
1769667637911486200,2.190486328125,-0.004222790244966745,0.10942300409078598,0.09529759734869003
1769667637921474000,2.20047412109375,-0.0073920199647545815,0.10589436441659927,0.09760329127311707
1769667637931463000,2.210462890625,-0.00777578167617321,0.10766030848026276,0.08927931636571884
1769667637941451000,2.220450927734375,-0.010932891629636288,0.10503917932510376,0.08573684841394424
1769667637951440100,2.230440185546875,-0.015341488644480705,0.10940703004598618,0.08781624585390091
1769667637961429000,2.240428955078125,-0.016143999993801117,0.11010395735502243,0.08295854181051254
1769667637971417000,2.2504169921875,-0.01415062416344881,0.10389479994773865,0.076256163418293
1769667637981406000,2.260406005859375,-0.015248317271471024,0.09332969039678574,0.07411832362413406
1769667637991395000,2.27039501953125,-0.015682412311434746,0.08178328722715378,0.0646771490573883
1769667638001383200,2.280383056640625,-0.011798274703323841,0.07022679597139359,0.05229919031262398
1769667638011372000,2.2903720703125,-0.013717081397771835,0.06303440034389496,0.041213784366846085
1769667638021361200,2.300361083984375,-0.014588122256100178,0.058037444949150085,0.04366886615753174
1769667638031349200,2.310349365234375,-0.015251781791448593,0.04742075130343437,0.039428845047950745
1769667638041337900,2.320337890625,-0.010337327606976032,0.03343553841114044,0.031021522358059883
1769667638051326000,2.330325927734375,-0.010163423605263233,0.017397981137037277,0.030323507264256477
1769667638061315000,2.340315185546875,-0.010324159637093544,0.021725157275795937,0.022197749465703964
1769667638071304200,2.35030419921875,-0.00760746980085969,0.010828299447894096,0.02781515382230282
1769667638081292000,2.3602919921875,-0.011685500852763653,0.0042808772996068,0.022900095209479332
1769667638091281000,2.370281005859375,-0.009298508986830711,-0.004336046986281872,0.02577710896730423
1769667638101269000,2.38026904296875,-0.01057320274412632,-0.007339085452258587,0.03057156503200531
1769667638111257900,2.3902578125,-0.012271766550838947,-0.004403483122587204,0.024182375520467758
1769667638121246700,2.400246826171875,-0.00883810967206955,-0.014883417636156082,0.02217291295528412
1769667638131234800,2.41023486328125,-0.00907806120812893,-0.0239592045545578,0.005373427644371986
1769667638141224000,2.420223876953125,-0.010616405867040157,-0.03555832803249359,0.0031743033323436975
1769667638151213000,2.430213134765625,-0.005043475888669491,-0.046696729958057404,0.0007260593120008707
1769667638161201000,2.440200927734375,-0.0041786436922848225,-0.0646515041589737,0.0014199648285284638
1769667638171190000,2.45018994140625,-0.0016523691592738032,-0.07662347704172134,-0.0014024530537426472
1769667638181179000,2.460178955078125,0.00011605292093008757,-0.09302987903356552,-0.0013267644681036472
1769667638191167000,2.4701669921875,-0.0013870352413505316,-0.09985849261283875,-0.0014423453249037266
1769667638201155800,2.48015576171875,-0.00010335131082683802,-0.11165646463632584,-0.0006929764058440924
1769667638211144000,2.49014404296875,-0.0006295919301919639,-0.12133385241031647,0.005400336347520351
1769667638221133000,2.500133056640625,-0.00554189458489418,-0.12520290911197662,0.011128967627882957
1769667638231122000,2.510121826171875,-0.003694192972034216,-0.13237081468105316,0.009437860921025276
1769667638241109800,2.52010986328125,-0.0021322951652109623,-0.14626015722751617,0.01055016741156578
1769667638251099000,2.530098876953125,-0.008073274977505207,-0.1587091088294983,0.013731046579778194
1769667638261088000,2.540087890625,-0.008995198644697666,-0.17841339111328125,-0.007031884044408798
1769667638271075800,2.550075927734375,-0.004676350392401218,-0.16459186375141144,-0.028082840144634247
1769667638281065000,2.56006494140625,-0.007141434587538242,-0.15829099714756012,-0.02827872335910797
1769667638291052800,2.570052734375,-0.011656558141112328,-0.1435653120279312,-0.03336722403764725
1769667638301042000,2.5800419921875,-0.01451174821704626,-0.15895920991897583,-0.04580902308225632
1769667638311030800,2.59003076171875,-0.0114424554631114,-0.17276689410209656,-0.06217841058969498
1769667638321019000,2.600018798828125,-0.014120087958872318,-0.181030735373497,-0.06166653335094452
1769667638331008000,2.610008056640625,-0.015049531124532223,-0.19438594579696655,-0.045941099524497986
1769667638340996900,2.619996826171875,-0.010593951679766178,-0.22089920938014984,-0.049453847110271454
1769667638350984700,2.629984619140625,-0.02188761904835701,-0.21536436676979065,-0.1132274940609932
1769667638360973800,2.639973876953125,-0.021948687732219696,-0.19501085579395294,-0.11656402796506882
1769667638370962000,2.6499619140625,-0.030609020963311195,-0.20103572309017181,-0.09607899188995361
1769667638380951000,2.659950927734375,-0.009743052534759045,-0.2099410593509674,-0.10555095970630646
1769667638390940000,2.66993994140625,-0.03694777563214302,-0.1735609471797943,-0.10775233060121536
1769667638400928000,2.679927978515625,-0.041216474026441574,-0.17215189337730408,-0.12098519504070282
1769667638410916900,2.689916748046875,-0.03178435564041138,-0.16535523533821106,-0.13867443799972534
1769667638420905700,2.69990576171875,-0.03525880351662636,-0.17083603143692017,-0.15163663029670715
1769667638430893800,2.709893798828125,-0.047600157558918,-0.1587972193956375,-0.17612199485301971
1769667638440883000,2.719883056640625,-0.040238067507743835,-0.1906934678554535,-0.20151780545711517
1769667638450871000,2.72987109375,-0.03918798267841339,-0.16526399552822113,-0.1908273547887802
1769667638460860000,2.73985986328125,-0.07146681100130081,-0.17521215975284576,-0.19214116036891937
1769667638470848800,2.749848876953125,-0.09378170222043991,-0.16873028874397278,-0.2129894495010376
1769667638480836900,2.7598369140625,-0.10613995790481567,-0.18304145336151123,-0.22234882414340973
1769667638490826000,2.769825927734375,-0.1331087350845337,-0.15721651911735535,-0.19662508368492126
1769667638500814800,2.77981494140625,-0.13707275688648224,-0.1756141632795334,-0.2291523516178131
1769667638510803000,2.789802978515625,-0.17762790620326996,-0.14151132106781006,-0.2202126532793045
1769667638520792000,2.7997919921875,-0.20252828299999237,-0.1392902433872223,-0.2208649069070816
1769667638530780000,2.80977978515625,-0.23402096331119537,-0.14601606130599976,-0.20615866780281067
1769667638540768800,2.819768798828125,-0.25883862376213074,-0.10064998269081116,-0.1819852739572525
1769667638550758000,2.8297578125,-0.2719557583332062,-0.11674586683511734,-0.2142486721277237
1769667638560746000,2.83974609375,-0.2981579601764679,-0.08997593075037003,-0.22621159255504608
1769667638570735000,2.849735107421875,-0.2916944622993469,-0.09015996009111404,-0.21706523001194
1769667638580724000,2.859723876953125,-0.2521844506263733,-0.09570879489183426,-0.19646374881267548
1769667638590711800,2.8697119140625,-0.2434072196483612,-0.10664080083370209,-0.19842809438705444
1769667638600701000,2.879700927734375,-0.2628946304321289,-0.10686393827199936,-0.21492858231067657
1769667638610689000,2.88968896484375,-0.293782502412796,-0.0754394382238388,-0.22579453885555267
1769667638620678000,2.899677978515625,-0.2833448648452759,-0.08165169507265091,-0.22205357253551483
1769667638630667000,2.9096669921875,-0.3024540841579437,-0.08452391624450684,-0.22817137837409973
1769667638640654800,2.91965478515625,-0.2552069127559662,-0.10030462592840195,-0.23594249784946442
1769667638650643700,2.929643798828125,-0.21654152870178223,-0.075289286673069,-0.2512623369693756
1769667638660632800,2.9396328125,-0.19098255038261414,-0.06702655553817749,-0.25494384765625
1769667638670621000,2.949620849609375,-0.16690358519554138,-0.05998356267809868,-0.25762325525283813
1769667638680610000,2.959610107421875,-0.1474941074848175,-0.047258954495191574,-0.27541491389274597
1769667638690599000,2.969598876953125,-0.14444690942764282,-0.03855361416935921,-0.2959931790828705
1769667638700586800,2.979586669921875,-0.1428782194852829,-0.06292316317558289,-0.32678237557411194
1769667638710575900,2.989575927734375,-0.11318317800760269,-0.03038732521235943,-0.32236233353614807
1769667638720564000,2.99956396484375,-0.0907859355211258,-0.004784540738910437,-0.3177616596221924
1769667638730552800,3.009552734375,-0.08424707502126694,0.0020318201277405024,-0.30818599462509155
1769667638740542000,3.0195419921875,-0.06900551915168762,-0.015981249511241913,-0.29549092054367065
1769667638750530000,3.029530029296875,-0.05361803621053696,-0.036763761192560196,-0.2696968913078308
1769667638760519000,3.039518798828125,-0.03693659231066704,-0.04233657941222191,-0.23486559092998505
1769667638770507800,3.0495078125,-0.02617182582616806,-0.039310429245233536,-0.18767251074314117
1769667638780496000,3.059495849609375,-0.015429944731295109,-0.04336610436439514,-0.14993342757225037
1769667638790485000,3.069485107421875,-0.009554212912917137,-0.05562650039792061,-0.12613968551158905
1769667638800473000,3.07947314453125,-0.00497349351644516,-0.06501257419586182,-0.10591631382703781
1769667638810462000,3.0894619140625,0.001398119144141674,-0.0698656514286995,-0.08165464550256729
1769667638820451000,3.099451171875,0.0055568888783454895,-0.07366473227739334,-0.05881822481751442
1769667638830439000,3.10943896484375,0.0068077752366662025,-0.07877400517463684,-0.053730785846710205
1769667638840427800,3.119427734375,0.004047879949212074,-0.07535470277070999,-0.05228615924715996
1769667638850417000,3.1294169921875,0.0019642228726297617,-0.07504390925168991,-0.049744438380002975
1769667638860405000,3.139405029296875,0.0011839804938063025,-0.058696139603853226,-0.04395438730716705
1769667638870394000,3.14939404296875,0.0016452398849651217,-0.041533131152391434,-0.04605349153280258
1769667638880381700,3.159381591796875,0.008206694386899471,-0.023911897093057632,-0.054609112441539764
1769667638890370800,3.169370849609375,0.007876195944845676,-0.021950477734208107,-0.053904175758361816
1769667638900360000,3.17935986328125,0.00849031750112772,-0.02002774551510811,-0.047879982739686966
1769667638910348000,3.18934814453125,0.008392579853534698,-0.01659626141190529,-0.04770208150148392
1769667638920337000,3.1993369140625,0.00717578548938036,-0.020202146843075752,-0.05714678391814232
1769667638930326000,3.209325927734375,0.007232510484755039,-0.024088498204946518,-0.07063249498605728
1769667638940313900,3.21931396484375,0.008417678996920586,-0.01822269707918167,-0.09066332131624222
1769667638950302700,3.229302734375,0.007636041380465031,-0.016300959512591362,-0.09691562503576279
1769667638960291800,3.239291748046875,0.008687905967235565,-0.018611259758472443,-0.11064880341291428
1769667638970280000,3.249280029296875,0.00636855885386467,-0.02310134842991829,-0.12457393854856491
1769667638980269000,3.25926904296875,0.006100421771407127,-0.02443408966064453,-0.11765148490667343
1769667638990257200,3.269257080078125,0.005506004206836224,-0.010374197736382484,-0.1005590483546257
1769667639000245800,3.279245849609375,0.003985523246228695,-0.006890255957841873,-0.07716456800699234
1769667639010235000,3.28923486328125,0.00439378572627902,-0.013649092987179756,-0.057213764637708664
1769667639020223000,3.299222900390625,0.007917817682027817,-0.026194488629698753,-0.0409608855843544
1769667639030211800,3.3092119140625,0.008261099457740784,-0.03229392692446709,-0.023852471262216568
1769667639040200000,3.319199951171875,0.007484056055545807,-0.02777012437582016,0.007153840735554695
1769667639050189000,3.32918896484375,0.007587652653455734,-0.029085461050271988,0.03210552781820297
1769667639060178000,3.339177978515625,0.007903073914349079,-0.036105528473854065,0.0538729690015316
1769667639070165800,3.349165771484375,0.009841056540608406,-0.04444015771150589,0.07390739768743515
1769667639080155100,3.359155029296875,0.0058394502848386765,-0.04888562113046646,0.09746645390987396
1769667639090144300,3.369144287109375,0.015292074531316757,-0.047098107635974884,0.118777334690094
1769667639100132000,3.379132080078125,0.01884288899600506,-0.050561729818582535,0.13460947573184967
1769667639110121000,3.389120849609375,0.025874167680740356,-0.055072590708732605,0.150613471865654
1769667639120110000,3.399110107421875,0.0330243855714798,-0.06701849400997162,0.1712813824415207
1769667639130098200,3.40909814453125,0.038902778178453445,-0.056868117302656174,0.19150783121585846
1769667639140087000,3.419087158203125,0.04122878611087799,-0.0828760489821434,0.20813773572444916
1769667639150075000,3.429074951171875,0.03965219482779503,-0.06125464290380478,0.2188340425491333
1769667639160064000,3.43906396484375,0.040354181081056595,-0.06629975140094757,0.21960818767547607
1769667639170053000,3.44905322265625,0.042271923273801804,-0.07371558994054794,0.2309173047542572
1769667639180041000,3.459041015625,0.047931134700775146,-0.06766858696937561,0.25424864888191223
1769667639190030000,3.469030029296875,0.04909307137131691,-0.045483388006687164,0.2633207142353058
1769667639200019200,3.479019287109375,0.06106945499777794,-0.06494644284248352,0.26665425300598145
1769667639210007300,3.48900732421875,0.07760928571224213,-0.06253495067358017,0.2832353413105011
1769667639219996000,3.498995849609375,0.09140757471323013,-0.07675942778587341,0.2796557545661926
1769667639229984000,3.50898388671875,0.10988032072782516,-0.07708913087844849,0.2812398076057434
1769667639239973000,3.51897314453125,0.11458683013916016,-0.07031247764825821,0.26113149523735046
1769667639249962000,3.5289619140625,0.1433715969324112,-0.1036941334605217,0.24796561896800995
1769667639259950000,3.5389501953125,0.16274334490299225,-0.1150471568107605,0.2530558705329895
1769667639269939200,3.548939208984375,0.1779199093580246,-0.0454462431371212,0.2412271797657013
1769667639279928000,3.558927978515625,0.18217453360557556,-0.047362759709358215,0.24791975319385529
1769667639289916200,3.568916259765625,0.20194663107395172,-0.07097141444683075,0.27399954199790955
1769667639299905000,3.578905029296875,0.27732160687446594,-0.005865811370313168,0.3036189079284668
1769667639309894100,3.58889404296875,0.28326737880706787,-0.028767399489879608,0.2814619541168213
1769667639319882200,3.59888232421875,0.3168969452381134,-0.0018351692706346512,0.28522369265556335
1769667639329871000,3.60887109375,0.3860885202884674,0.0664815679192543,0.3052397668361664
1769667639339859000,3.61885888671875,0.37378764152526855,0.04581482335925102,0.3062153458595276
1769667639349848000,3.62884814453125,0.40557193756103516,0.06732331216335297,0.32520633935928345
1769667639359837000,3.6388369140625,0.4735972583293915,0.08160405606031418,0.3678969442844391
1769667639369825000,3.648824951171875,0.5087323784828186,0.09112699329853058,0.3772544860839844
1769667639379814100,3.658814208984375,0.4893673360347748,0.09561750292778015,0.36317968368530273
1769667639389803300,3.66880322265625,0.5141373872756958,0.07495217025279999,0.3063635230064392
1769667639399791000,3.678791015625,0.4885087311267853,0.028538955375552177,0.26729753613471985
1769667639409780000,3.688780029296875,0.502541184425354,0.02041950821876526,0.24154025316238403
1769667639419768000,3.69876806640625,0.5054245591163635,0.03041013702750206,0.22584988176822662
1769667639429757200,3.708757080078125,0.4990135133266449,0.09591803699731827,0.22211985290050507
1769667639439746000,3.71874609375,0.4850877821445465,0.14530088007450104,0.2088531255722046
1769667639449734000,3.72873388671875,0.49103328585624695,0.14301136136054993,0.19219079613685608
1769667639459723000,3.738722900390625,0.5137612819671631,0.13321666419506073,0.16405652463436127
1769667639469712100,3.748712158203125,0.5210535526275635,0.15232723951339722,0.15876376628875732
1769667639479700000,3.758699951171875,0.5130602121353149,0.2556012272834778,0.1512949913740158
1769667639489689000,3.768689208984375,0.5359460711479187,0.2842067778110504,0.14724725484848022
1769667639499678200,3.77867822265625,0.5231306552886963,0.2846832573413849,0.1498328596353531
1769667639509666000,3.788666015625,0.545562744140625,0.22541379928588867,0.1515149027109146
1769667639519655000,3.798655029296875,0.543725848197937,0.19104987382888794,0.1407991647720337
1769667639529643000,3.80864306640625,0.5314164757728577,0.20768611133098602,0.130181685090065
1769667639539632000,3.818632080078125,0.5179867744445801,0.2106902152299881,0.10590247809886932
1769667639549621000,3.82862109375,0.4917021691799164,0.19823195040225983,0.11679241061210632
1769667639559609000,3.838609130859375,0.4787227213382721,0.16752009093761444,0.13770484924316406
1769667639569598000,3.848597900390625,0.48918652534484863,0.16479408740997314,0.14453080296516418
1769667639579587000,3.858587158203125,0.500700831413269,0.13021238148212433,0.12172655761241913
1769667639589575200,3.8685751953125,0.4844512939453125,0.17824356257915497,0.08485882729291916
1769667639599564000,3.87856396484375,0.5253571271896362,0.17664338648319244,0.05996239557862282
1769667639609552100,3.88855224609375,0.5050481557846069,0.22280795872211456,0.06765440106391907
1769667639619541200,3.898541259765625,0.5248619914054871,0.23609645664691925,0.09305062144994736
1769667639629530000,3.908530029296875,0.5471933484077454,0.24732087552547455,0.09996232390403748
1769667639639518000,3.91851806640625,0.5803859233856201,0.25954389572143555,0.08875871449708939
1769667639649507000,3.928507080078125,0.5974295735359192,0.26811712980270386,0.07560296356678009
1769667639659496200,3.93849609375,0.6231245994567871,0.2458973377943039,0.03833365812897682
1769667639669484000,3.948484130859375,0.627830445766449,0.16918951272964478,0.03258442506194115
1769667639679473200,3.95847314453125,0.6189404129981995,0.1511826068162918,0.07468003779649734
1769667639689462300,3.968462158203125,0.5892570614814758,0.13057160377502441,0.10786329209804535
1769667639699450000,3.9784501953125,0.5689587593078613,0.09324260801076889,0.07524196058511734
1769667639709439000,3.98843896484375,0.5589918494224548,0.04149259626865387,0.02886674366891384
1769667639719427000,3.998427001953125,0.5671889185905457,0.057595591992139816,0.02521548606455326
1769667639729416200,4.008416259765625,0.5561522841453552,0.03709937259554863,0.03605987876653671
1769667639739405000,4.018405029296875,0.5754955410957336,0.01771261915564537,0.04299388825893402
1769667639749393000,4.028392822265625,0.5889418125152588,0.05427169427275658,0.04198002442717552
1769667639759382000,4.038382080078125,0.6316366791725159,0.060960959643125534,0.0212783794850111
1769667639769371100,4.04837109375,0.640970766544342,0.05547458305954933,0.005346018821001053
1769667639779359000,4.05835888671875,0.7072882056236267,0.07136586308479309,0.018022656440734863
1769667639789348000,4.06834814453125,0.7827123999595642,0.07774493098258972,0.01847965456545353
1769667639799337200,4.078337158203125,0.8473358154296875,0.15198373794555664,0.014167402870953083
1769667639809325000,4.088324951171875,0.8910079002380371,0.1400517076253891,-0.048917289823293686
1769667639819314000,4.09831396484375,0.9206148386001587,0.026700256392359734,-0.15170395374298096
1769667639829302000,4.108302001953125,0.9052161574363708,-0.05732274428009987,-0.1557953655719757
1769667639839291100,4.118291015625,0.8291581273078918,-0.057555075734853745,-0.10475876927375793
1769667639849280000,4.128280029296875,0.7604589462280273,-0.021928902715444565,-0.11596987396478653
1769667639859268000,4.13826806640625,0.7302353978157043,-0.01035371609032154,-0.044855400919914246
1769667639869257000,4.148257080078125,0.7501920461654663,-0.03279484063386917,-0.06667494028806686
1769667639879246000,4.15824609375,0.7958574891090393,-0.07241114228963852,-0.13415558636188507
1769667639889234200,4.168234130859375,0.876954197883606,-0.17299102246761322,-0.1483321338891983
1769667639899223000,4.17822314453125,0.8960293531417847,-0.2671985924243927,-0.20353423058986664
1769667639909212200,4.188212158203125,0.9076950550079346,-0.3599940538406372,-0.16581961512565613
1769667639919200300,4.1982001953125,0.9467757344245911,-0.3564143180847168,-0.13460773229599
1769667639929188900,4.20818896484375,0.8960627913475037,-0.26810044050216675,-0.1540064662694931
1769667639939177000,4.218177001953125,0.7325087785720825,-0.11287625133991241,-0.017603527754545212
1769667639949166000,4.228166015625,0.4936802387237549,-0.27388086915016174,0.15959575772285461
1769667639959155200,4.2381552734375,0.3579648733139038,-0.4976999759674072,0.3718973696231842
1769667639969143000,4.24814306640625,0.31423869729042053,-0.526028037071228,0.5361528396606445
1769667639979132200,4.258132080078125,0.33563780784606934,-0.48851361870765686,0.5473195314407349
1769667639989121000,4.26812109375,0.32859960198402405,-0.33467692136764526,0.4480489194393158
1769667639999109000,4.278109130859375,0.2676313817501068,-0.36442798376083374,0.4457091987133026
1769667640009098000,4.288097900390625,0.27168551087379456,-0.33177924156188965,0.4797697067260742
1769667640019086000,4.298086181640625,0.29517993330955505,-0.3764215409755707,0.4506169259548187
1769667640029075200,4.3080751953125,0.3168295621871948,-0.2772129476070404,0.49914076924324036
1769667640039064000,4.31806396484375,0.3487250804901123,-0.16675226390361786,0.48872804641723633
1769667640049052000,4.328052001953125,0.3671432435512543,-0.10305745154619217,0.5117409229278564
1769667640059041000,4.338041015625,0.3676227033138275,-0.07886017858982086,0.5271614789962769
1769667640069030100,4.348030029296875,0.3211769163608551,-0.003459963947534561,0.47424769401550293
1769667640079018200,4.358018310546875,0.28203099966049194,0.029538389295339584,0.42057931423187256
1769667640089007400,4.36800732421875,0.28545820713043213,0.034473761916160583,0.3694130778312683
1769667640098996500,4.37799658203125,0.28710800409317017,0.030859416350722313,0.29860296845436096
1769667640108984300,4.387984375,0.3452618420124054,0.06157738342881203,0.255748987197876
1769667640118973200,4.39797314453125,0.3419770896434784,0.07311692088842392,0.25048407912254333
1769667640128961300,4.407961181640625,0.3255770802497864,0.0984659492969513,0.2819613218307495
1769667640138950400,4.417950439453125,0.34138017892837524,0.14369140565395355,0.27788829803466797
1769667640148939300,4.427939208984375,0.31918618083000183,0.15295547246932983,0.23565268516540527
1769667640158927000,4.437927001953125,0.28450697660446167,0.16444970667362213,0.15913435816764832
1769667640168916200,4.447916259765625,0.2891552746295929,0.2578126788139343,0.06331515312194824
1769667640178905300,4.4579052734375,0.28732049465179443,0.3621682822704315,0.022541645914316177
1769667640188893400,4.4678935546875,0.26466524600982666,0.41060131788253784,-0.023149143904447556
1769667640198882300,4.47788232421875,0.29528459906578064,0.42372918128967285,-0.03889792412519455
1769667640208871400,4.487871337890625,0.31503379344940186,0.44039151072502136,-0.025369595736265182
1769667640218859300,4.497859375,0.3335169851779938,0.3972588777542114,-0.004518503323197365
1769667640228848000,4.50784814453125,0.31908106803894043,0.36935508251190186,-0.007719357497990131
1769667640238837200,4.517837158203125,0.3195211589336395,0.3697589039802551,0.011148408986628056
1769667640248825300,4.527825439453125,0.23494954407215118,0.35286009311676025,-0.026863686740398407
1769667640258814200,4.537814208984375,0.16585533320903778,0.408089816570282,-0.08196865767240524
1769667640268802000,4.547802001953125,0.11629711091518402,0.5866265296936035,-0.11723849922418594
1769667640278791200,4.557791259765625,0.09875910729169846,0.7664290070533752,-0.18658871948719025
1769667640288780300,4.5677802734375,0.10074316710233688,0.9004690647125244,-0.2541597783565521
1769667640298768400,4.577768310546875,0.10352405905723572,0.950406014919281,-0.27306240797042847
1769667640308757200,4.58775732421875,0.09853728860616684,0.9040113687515259,-0.24966546893119812
1769667640318746400,4.597746337890625,0.09714522212743759,0.782957136631012,-0.2337736040353775
1769667640328734500,4.607734375,0.06286421418190002,0.6697062253952026,-0.23448146879673004
1769667640338723000,4.61772314453125,0.03816039115190506,0.6667543649673462,-0.2947336733341217
1769667640348712200,4.627712158203125,0.061892617493867874,0.736556351184845,-0.3750695288181305
1769667640358700300,4.6377001953125,0.08828160166740417,0.7277515530586243,-0.3897964656352997
1769667640368689400,4.647689453125,0.07532212883234024,0.7254945635795593,-0.39379680156707764
1769667640378677200,4.65767724609375,0.07850900292396545,0.722926914691925,-0.4260086119174957
1769667640388666400,4.667666259765625,0.08366861194372177,0.6541840434074402,-0.4227699339389801
1769667640398655200,4.6776552734375,0.14541716873645782,0.45951172709465027,-0.29578346014022827
1769667640408643300,4.687643310546875,0.19363422691822052,0.30316048860549927,-0.2153932899236679
1769667640418632200,4.697632080078125,0.23187710344791412,0.27121150493621826,-0.203248530626297
1769667640428621300,4.707621337890625,0.25742480158805847,0.2511075735092163,-0.22412532567977905
1769667640438609400,4.717609375,0.2841988205909729,0.20396830141544342,-0.23746223747730255
1769667640448598300,4.727598388671875,0.2822672426700592,0.16274230182170868,-0.24046574532985687
1769667640458586000,4.737586181640625,0.3090612590312958,0.13089577853679657,-0.2372508943080902
1769667640468575200,4.7475751953125,0.35608524084091187,0.13816754519939423,-0.19260458648204803
1769667640478564400,4.757564453125,0.39621779322624207,0.15161891281604767,-0.20924876630306244
1769667640488552400,4.767552490234375,0.4553013741970062,0.12344560027122498,-0.23846843838691711
1769667640498541300,4.777541259765625,0.5201753973960876,0.03277050703763962,-0.21844035387039185
1769667640508530400,4.787530517578125,0.5713435411453247,0.006532776635140181,-0.18940231204032898
1769667640518518300,4.797518310546875,0.6325151324272156,0.19835451245307922,-0.22473500669002533
1769667640528507100,4.807507080078125,0.6435667276382446,0.34573596715927124,-0.24856019020080566
1769667640538496300,4.817496337890625,0.6015717387199402,0.38123613595962524,-0.25250834226608276
1769667640548484400,4.827484375,0.6252427101135254,0.4474279582500458,-0.2877872586250305
1769667640558473500,4.837473388671875,0.6249634027481079,0.5446004271507263,-0.3069775700569153
1769667640568462300,4.84746240234375,0.6177973747253418,0.6173737049102783,-0.28072598576545715
1769667640578450200,4.8574501953125,0.6044376492500305,0.45838630199432373,-0.24651692807674408
1769667640588439300,4.867439208984375,0.5438398122787476,0.3936741352081299,-0.22591231763362885
1769667640598427400,4.877427490234375,0.5660860538482666,0.37555748224258423,-0.2113504260778427
1769667640608416300,4.887416259765625,0.5577221512794495,0.4131232500076294,-0.15751303732395172
1769667640618405400,4.8974052734375,0.5331903696060181,0.42658963799476624,-0.14286242425441742
1769667640628393200,4.907393310546875,0.5357438325881958,0.36586958169937134,-0.09254173189401627
1769667640638382000,4.917382080078125,0.5285936594009399,0.2614748477935791,-0.06693794578313828
1769667640648371200,4.92737109375,0.5286732912063599,0.20294202864170074,-0.048957884311676025
1769667640658359300,4.937359375,0.4546906352043152,0.20385533571243286,-0.027124950662255287
1769667640668348400,4.947348388671875,0.3478054702281952,0.09384014457464218,-0.023451386019587517
1769667640678337300,4.957337158203125,0.19411715865135193,-0.051125191152095795,-0.06246301904320717
1769667640688325000,4.9673251953125,0.07608824968338013,-0.1928655505180359,-0.0810481533408165
1769667640698314200,4.977314208984375,0.008550645783543587,-0.2338114082813263,-0.04264119639992714
1769667640708302300,4.98730224609375,-0.04653603956103325,-0.20331422984600067,-0.01340395212173462
1769667640718291200,4.997291259765625,-0.15232647955417633,-0.20658786594867706,-0.014113133773207664
1769667640728280300,5.0072802734375,-0.21112267673015594,-0.2485872507095337,-0.027235593646764755
1769667640738268400,5.017268310546875,-0.2838268578052521,-0.28032025694847107,0.010110137984156609
1769667640748257300,5.02725732421875,-0.35012465715408325,-0.32639509439468384,-0.00947368424385786
1769667640758246100,5.03724609375,-0.4186926484107971,-0.34715527296066284,0.003085214411839843
1769667640768234200,5.047234130859375,-0.4743410050868988,-0.48547348380088806,-0.011076943017542362
1769667640778223400,5.057223388671875,-0.43717333674430847,-0.6101364493370056,-0.05869356915354729
1769667640788212200,5.067212158203125,-0.3765113055706024,-0.6196812391281128,-0.09459510445594788
1769667640798200300,5.077200439453125,-0.30882495641708374,-0.5317010879516602,-0.06854244321584702
1769667640808189400,5.087189453125,-0.23279012739658356,-0.47730201482772827,-0.10194487124681473
1769667640818178300,5.09717822265625,-0.18604983389377594,-0.5565852522850037,-0.1715526133775711
1769667640828166100,5.107166259765625,-0.1479826122522354,-0.7349222302436829,-0.3048449158668518
1769667640838155300,5.1171552734375,-0.0904206782579422,-0.6237007975578308,-0.3513239324092865
1769667640848143400,5.127143310546875,-0.04564681276679039,-0.36782994866371155,-0.25568875670433044
1769667640858132500,5.137132568359375,-0.035028353333473206,-0.22658418118953705,-0.15062016248703003
1769667640868121300,5.147121337890625,-0.04439708963036537,-0.18698351085186005,-0.06099467724561691
1769667640878109200,5.157109130859375,-0.06426571309566498,-0.16939468681812286,0.008046086877584457
1769667640888098300,5.167098388671875,-0.0776132121682167,0.014056101441383362,0.041539598256349564
1769667640898087200,5.177087158203125,-0.06636136025190353,0.05105835571885109,0.011540374718606472
1769667640908075300,5.1870751953125,-0.07034359127283096,0.06745436787605286,-0.00889645703136921
1769667640918064400,5.197064453125,-0.07168113440275192,0.14238521456718445,-0.012363859452307224
1769667640928053500,5.207053466796875,-0.06878947466611862,0.05518905073404312,-0.00878883246332407
1769667640938041000,5.217041015625,-0.06485068053007126,0.1041932925581932,0.018487289547920227
1769667640948030200,5.2270302734375,-0.05314742028713226,0.18016448616981506,0.023209871724247932
1769667640958018300,5.237018310546875,-0.06095908582210541,0.19248081743717194,0.016024867072701454
1769667640968007400,5.24700732421875,-0.04805074259638786,0.15033948421478271,0.025974435731768608
1769667640977996300,5.256996337890625,-0.0489095114171505,0.13499200344085693,0.02541467733681202
1769667640987984100,5.266984130859375,-0.03912505879998207,0.14571256935596466,0.011089001782238483
1769667640997973200,5.27697314453125,-0.03539915010333061,0.182333841919899,0.002224923577159643
1769667641007962000,5.286962158203125,-0.027172647416591644,0.20092323422431946,0.014751101844012737
1769667641017950200,5.2969501953125,-0.025438746437430382,0.1701166182756424,0.031814660876989365
1769667641027939300,5.306939208984375,-0.026595624163746834,0.17499499022960663,0.031281761825084686
1769667641037928400,5.316928466796875,-0.020718339830636978,0.16663016378879547,0.0210877675563097
1769667641047916300,5.326916259765625,-0.008963148109614849,0.16036108136177063,0.00971234031021595
1769667641057905200,5.3369052734375,-0.0006753432098776102,0.14695563912391663,0.001647968776524067
1769667641067893200,5.346893310546875,0.002595817670226097,0.14398860931396484,-0.002031454350799322
1769667641077881900,5.3568818359375,0.007227998226881027,0.15172898769378662,-0.021403566002845764
1769667641087870700,5.36687060546875,0.004124350380152464,0.16903766989707947,-0.03117337077856064
1769667641097858600,5.376858642578125,0.005488870199769735,0.17852388322353363,-0.029200084507465363
1769667641107847700,5.38684765625,-0.0011272209230810404,0.1673404574394226,-0.028143875300884247
1769667641117836800,5.3968369140625,-0.006587814539670944,0.15301866829395294,-0.02916914038360119
1769667641127825000,5.406824951171875,-0.005859706085175276,0.1431327611207962,-0.031681034713983536
1769667641137813800,5.416813720703125,-0.008591029793024063,0.0958717092871666,-0.018297480419278145
1769667641147802600,5.426802734375,-0.01450271438807249,0.053439825773239136,0.00044957571662962437
1769667641157790700,5.436790771484375,-0.04030665382742882,0.050333522260189056,0.004385119769722223
1769667641167779600,5.446779541015625,-0.03946403041481972,0.015439720824360847,0.00754096545279026
1769667641177767700,5.456767578125,-0.03570787236094475,-0.06951962411403656,-0.038956206291913986
1769667641187756800,5.4667568359375,-0.06469345092773438,-0.005659146700054407,-0.0623273067176342
1769667641197746000,5.476745849609375,-0.02825501561164856,0.059057798236608505,-0.04319249838590622
1769667641207733500,5.4867333984375,-0.029901914298534393,-0.008883437141776085,-0.033712178468704224
1769667641217722600,5.49672265625,-0.032503653317689896,-0.044898372143507004,-0.03017539530992508
1769667641227711700,5.506711669921875,-0.06480725854635239,-0.08932255953550339,-0.0442667119204998
1769667641237699800,5.516699951171875,-0.06673175096511841,-0.029644932597875595,-0.05290732905268669
1769667641247688700,5.526688720703125,-0.048292823135852814,-0.0019813491962850094,-0.05127960443496704
1769667641257677800,5.536677734375,-0.0805266723036766,-0.07092763483524323,-0.04651472717523575
1769667641267665700,5.546665771484375,-0.11734593659639359,-0.0838940292596817,-0.029362371191382408
1769667641277654500,5.556654541015625,-0.12038078159093857,-0.032853007316589355,-0.03512369096279144
1769667641287643600,5.5666435546875,-0.11271406710147858,-0.04883090779185295,-0.027200786396861076
1769667641297631700,5.5766318359375,-0.07956357300281525,-0.03067363053560257,-0.0327027328312397
1769667641307620900,5.586620849609375,-0.06189402937889099,-0.04867606610059738,-0.04072630777955055
1769667641317608700,5.596608642578125,-0.05596045404672623,-0.027579760178923607,-0.05515531450510025
1769667641327597600,5.60659765625,-0.047937147319316864,0.017432987689971924,-0.04845240339636803
1769667641337586700,5.616586669921875,-0.026610173285007477,-0.029153021052479744,-0.02671918459236622
1769667641347574800,5.62657470703125,-0.032680317759513855,0.020627053454518318,-0.026573244482278824
1769667641357563600,5.636563720703125,-0.0823751911520958,-0.03423438221216202,-0.02003462240099907
1769667641367552800,5.646552734375,-0.10242772847414017,-0.10414236783981323,-0.03424818068742752
1769667641377540600,5.65654052734375,-0.10599825531244278,-0.0683501735329628,-0.04579629749059677
1769667641387529700,5.66652978515625,-0.10948672890663147,-0.05457550659775734,-0.055856652557849884
1769667641397518600,5.6765185546875,-0.08677715063095093,-0.012412523850798607,-0.061655499041080475
1769667641407506700,5.686506591796875,-0.08086519688367844,0.03805278241634369,-0.06223180145025253
1769667641417495800,5.696495849609375,-0.06496617197990417,0.0677313581109047,-0.059864342212677
1769667641427484000,5.70648388671875,-0.0731375515460968,0.10663774609565735,-0.05955781042575836
1769667641437472800,5.71647265625,-0.11254269629716873,0.08389484137296677,-0.06544624269008636
1769667641447461600,5.726461669921875,-0.13917483389377594,0.07742922008037567,-0.08005154877901077
1769667641457449700,5.73644970703125,-0.14958713948726654,0.09964058548212051,-0.057937394827604294
1769667641467438600,5.7464384765625,-0.24570034444332123,0.06750954687595367,-0.04411905258893967
1769667641477427700,5.756427734375,-0.30165159702301025,-0.04958966746926308,-0.007431432604789734
1769667641487415800,5.766415771484375,-0.3422674834728241,-0.17931810021400452,-0.0020995172671973705
1769667641497405000,5.776405029296875,-0.3763118088245392,-0.1448378711938858,-0.0018892418593168259
1769667641507393500,5.7863935546875,-0.3560478091239929,-0.004611511714756489,0.010986609384417534
1769667641517381600,5.796381591796875,-0.3027796149253845,0.11439018696546555,0.014954681508243084
1769667641527370800,5.806370849609375,-0.33438417315483093,0.2223597913980484,0.011668873019516468
1769667641537358800,5.81635888671875,-0.37793436646461487,0.2313712239265442,-0.036735814064741135
1769667641547347700,5.82634765625,-0.5111808776855469,0.23135870695114136,-0.11644928902387619
1769667641557336800,5.8363369140625,-0.6391294002532959,0.25750717520713806,-0.24545055627822876
1769667641567324700,5.84632470703125,-0.7133088111877441,0.3017047345638275,-0.35016366839408875
1769667641577313500,5.8563134765625,-0.8350179195404053,0.43186214566230774,-0.486788809299469
1769667641587302700,5.866302734375,-0.8766657710075378,0.9113906621932983,-0.4298136830329895
1769667641597290800,5.876290771484375,-0.7192451357841492,1.3412994146347046,-0.05913449451327324
1769667641607279900,5.88627978515625,-0.6124731302261353,1.085750699043274,0.39533179998397827
1769667641617268700,5.896268798828125,-0.6271461844444275,0.6465161442756653,0.6229650974273682
1769667641627256600,5.906256591796875,-0.7714892029762268,0.7052508592605591,0.6790059804916382
1769667641637245700,5.91624560546875,-0.8386023044586182,0.987891435623169,0.6277722120285034
1769667641647234600,5.926234619140625,-0.8259890675544739,1.1960039138793945,0.5042356252670288
1769667641657222700,5.93622265625,-0.8740060925483704,1.2095084190368652,0.477448046207428
1769667641667211800,5.946211669921875,-0.8603885173797607,1.0332098007202148,0.6036003828048706
1769667641677199600,5.95619970703125,-0.7507975101470947,1.0138758420944214,0.6698752045631409
1769667641687188700,5.966188720703125,-0.6084566116333008,0.907737135887146,0.6493297219276428
1769667641697177600,5.976177490234375,-0.5175639390945435,0.7186776399612427,0.6362943649291992
1769667641707165700,5.986165771484375,-0.5847214460372925,0.5506737232208252,0.7359173893928528
1769667641717154800,5.99615478515625,-0.6628662943840027,0.23405829071998596,0.7994608283042908
1769667641727143700,6.006143798828125,-0.65088951587677,0.08950217813253403,0.7512139678001404
1769667641737131500,6.016131591796875,-0.6293486952781677,0.2584957182407379,0.6288896799087524
1769667641747120600,6.02612060546875,-0.6394956111907959,0.5791096687316895,0.6247644424438477
1769667641757109800,6.03610986328125,-0.6702500581741333,0.5525113940238953,0.607323408126831
1769667641767097600,6.04609765625,-0.6092594265937805,0.44266027212142944,0.5978521704673767
1769667641777086700,6.056086669921875,-0.4289829134941101,0.9242437481880188,0.6907657384872437
1769667641787074800,6.06607470703125,-0.20339107513427734,1.523309588432312,0.68349689245224
1769667641797063700,6.076063720703125,-0.3897760510444641,1.5377968549728394,0.5535107851028442
1769667641807052500,6.086052490234375,-0.6390894651412964,0.8570820093154907,0.6572903990745544
1769667641817040600,6.09604052734375,-0.7707565426826477,0.23088577389717102,0.7757214903831482
1769667641827029800,6.10602978515625,-0.9590529799461365,-0.13884912431240082,0.7887134552001953
1769667641837018600,6.1160185546875,-1.1646525859832764,-0.22495557367801666,0.8162363767623901
1769667641847006700,6.1260068359375,-1.1784603595733643,-0.22234700620174408,0.7465489506721497
1769667641856995600,6.13599560546875,-1.0879957675933838,-0.22291718423366547,0.5538395643234253
1769667641866984700,6.145984619140625,-0.9614340662956238,-0.37655919790267944,0.31245946884155273
1769667641876972800,6.155972900390625,-1.0276819467544556,-0.6790551543235779,0.14891506731510162
1769667641886961700,6.165961669921875,-1.0803483724594116,-1.1095572710037231,0.09611684083938599
1769667641896949800,6.17594970703125,-1.0773141384124756,-1.3570741415023804,0.11555296182632446
1769667641906939000,6.18593896484375,-1.245116949081421,-1.2296658754348755,0.13799355924129486
1769667641916927700,6.195927734375,-1.2110724449157715,-0.4470996558666229,0.23088328540325165
1769667641926915600,6.20591552734375,-1.2523481845855713,-0.14568094909191132,0.21308352053165436
1769667641936904700,6.21590478515625,-1.3603802919387817,-0.24499350786209106,0.30747249722480774
1769667641946893600,6.2258935546875,-1.3601683378219604,-0.06486395746469498,0.6466801166534424
1769667641956881700,6.235881591796875,-1.3701473474502563,-0.10916566848754883,0.9148125648498535
1769667641966870800,6.245870849609375,-1.4097810983657837,-0.08317295461893082,1.0584274530410767
1769667641976860000,6.25585986328125,-1.4421271085739136,-0.14430062472820282,1.152700662612915
1769667641986847700,6.26584765625,-1.4287983179092407,-0.12769341468811035,1.1272648572921753
1769667641996836600,6.275836669921875,-1.4898051023483276,-0.18858997523784637,1.0518593788146973
1769667642006824700,6.28582470703125,-1.6120660305023193,-0.4014580547809601,1.0007081031799316
1769667642016813800,6.295813720703125,-1.727376103401184,-0.6140334606170654,0.9598418474197388
1769667642026802700,6.305802734375,-1.7668490409851074,-0.7825924158096313,0.919772207736969
1769667642036790500,6.31579052734375,-1.6366015672683716,-0.7143121957778931,0.8131456971168518
1769667642046779600,6.325779541015625,-1.447598934173584,-0.6357609629631042,0.7474694848060608
1769667642056768800,6.335768798828125,-1.2701185941696167,-0.4051916003227234,0.6505626440048218
1769667642066756600,6.345756591796875,-1.1567257642745972,-0.20849399268627167,0.7030394077301025
1769667642076745200,6.3557451171875,-1.074735164642334,-0.07964123040437698,0.7370028495788574
1769667642086734000,6.365734130859375,-0.9809820652008057,0.12931305170059204,0.9462236762046814
1769667642096722200,6.37572216796875,-0.9009637236595154,0.2645382285118103,1.2534310817718506
1769667642106711000,6.3857109375,-0.7661513090133667,0.42502111196517944,1.2527517080307007
1769667642116699100,6.39569921875,-0.6512596607208252,0.531819760799408,1.0257248878479004
1769667642126688300,6.405688232421875,-0.6816039681434631,0.5577483177185059,0.5830507278442383
1769667642136677400,6.415677490234375,-0.71405428647995,0.5737178325653076,0.32200515270233154
1769667642146665200,6.425665283203125,-0.7823449373245239,0.3849518895149231,0.2703707218170166
1769667642156654000,6.435654052734375,-0.9052581191062927,-0.0020141892600804567,0.2902509272098541
1769667642166643200,6.445643310546875,-1.3630136251449585,-1.5525734424591064,0.059122346341609955
1769667642176631300,6.45563134765625,-1.5772942304611206,-3.5145740509033203,-0.48115161061286926
1769667642186620200,6.4656201171875,-1.868758201599121,-3.8153860569000244,-0.951039731502533
1769667642196609300,6.475609375,-2.1340935230255127,-3.2473273277282715,-1.0652070045471191
1769667642206597000,6.48559716796875,-2.1421215534210205,-3.296839952468872,-1.0032671689987183
1769667642216586200,6.495586181640625,-2.234103202819824,-3.4482715129852295,-0.6465836763381958
1769667642226574000,6.505573974609375,-2.107006072998047,-3.487025022506714,-0.05823146924376488
1769667642236563200,6.515563232421875,-1.8243005275726318,-3.8656604290008545,-0.5065141916275024
1769667642246552300,6.52555224609375,-1.366431474685669,-3.0275990962982178,-1.0571544170379639
1769667642256540200,6.5355400390625,-0.9981855154037476,-1.3125735521316528,-0.9965906143188477
1769667642266529000,6.545529052734375,-0.7014123797416687,0.6384620666503906,-0.5662828683853149
1769667642276518100,6.55551806640625,-0.21540841460227966,1.089887261390686,-0.33471032977104187
1769667642286506200,6.56550634765625,0.17922838032245636,0.9629101157188416,-0.14610233902931213
1769667642296495000,6.5754951171875,0.4389949440956116,0.6582074165344238,-0.0748869925737381
1769667642306484200,6.585484130859375,0.47000133991241455,0.6305781602859497,-0.1470962017774582
1769667642316472000,6.59547216796875,0.4438508152961731,0.8891453146934509,-0.2796653211116791
1769667642326461200,6.605461181640625,0.38334324955940247,1.110288381576538,-0.3459511399269104
1769667642336450000,6.615449951171875,0.3210020959377289,1.1712323427200317,-0.3518764078617096
1769667642346438100,6.625438232421875,0.26947179436683655,1.2177602052688599,-0.3126368522644043
1769667642356427300,6.63542724609375,0.26253777742385864,1.236743450164795,-0.2612919509410858
1769667642366415400,6.645415283203125,0.25761890411376953,1.1633152961730957,-0.19487299025058746
1769667642376404000,6.655404052734375,0.2530755400657654,1.2566461563110352,-0.2078266590833664
1769667642386393000,6.66539306640625,0.2279597967863083,1.441725730895996,-0.334675133228302
1769667642396381200,6.675381103515625,0.18500179052352905,1.5035771131515503,-0.5031352043151855
1769667642406370000,6.6853701171875,0.12550197541713715,1.4705123901367188,-0.5276517271995544
1769667642416359200,6.695359130859375,0.07673701643943787,1.3230209350585938,-0.48536717891693115
1769667642426347300,6.70534716796875,0.029606791213154793,0.9103623032569885,-0.3637307584285736
1769667642436336000,6.715336181640625,0.0012843782315030694,0.5917636752128601,-0.09326952695846558
1769667642446325000,6.725324951171875,-0.008934703655540943,0.37038519978523254,0.15539701282978058
1769667642456313000,6.73531298828125,-0.030464230105280876,0.20611611008644104,0.3110198676586151
1769667642466302200,6.74530224609375,-0.030021879822015762,0.09817313402891159,0.32701483368873596
1769667642476290300,6.755290283203125,-0.010847180150449276,0.024269960820674896,0.14474104344844818
1769667642486279200,6.765279052734375,0.018172219395637512,0.04393154755234718,0.017114365473389626
1769667642496268300,6.775268310546875,0.052491310983896255,0.07464951276779175,0.04440724104642868
1769667642506256100,6.785256103515625,0.08622397482395172,-0.050766997039318085,0.10252033919095993
1769667642516245200,6.795245361328125,0.11660843342542648,-0.08102021366357803,0.10269572585821152
1769667642526234000,6.805234130859375,0.11219237744808197,-0.18923430144786835,0.16230499744415283
1769667642536222200,6.81522216796875,0.08628171682357788,-0.2590303122997284,0.2788906395435333
1769667642546211300,6.82521142578125,0.06076943501830101,-0.3700753450393677,0.32815006375312805
1769667642556200200,6.8352001953125,0.062292952090501785,-0.41440126299858093,0.21657153964042664
1769667642566188000,6.84518798828125,0.11404776573181152,-0.1518673598766327,0.1354905366897583
1769667642576177200,6.85517724609375,0.1271030455827713,-0.2661203145980835,0.17201878130435944
1769667642586165200,6.865165283203125,0.13864357769489288,-0.3088483512401581,0.1847636103630066
1769667642596154000,6.875154052734375,0.14124032855033875,-0.39667385816574097,0.15050280094146729
1769667642606143200,6.885143310546875,0.15399660170078278,-0.46927136182785034,0.09459613263607025
1769667642616131000,6.895131103515625,0.15094581246376038,-0.48111671209335327,0.0923825278878212
1769667642626120200,6.9051201171875,0.14818598330020905,-0.44559574127197266,0.11877099424600601
1769667642636109000,6.915109130859375,0.14159050583839417,-0.4352607727050781,0.0975068062543869
1769667642646097200,6.92509716796875,0.1698801964521408,-0.4172048270702362,0.06148781627416611
1769667642656086300,6.935086181640625,0.2396193891763687,-0.3615959584712982,0.001888275146484375
1769667642666075100,6.9450751953125,0.3121583163738251,-0.32862231135368347,-0.08629272133111954
1769667642676063000,6.95506298828125,0.3740532398223877,-0.24917416274547577,-0.1590796262025833
1769667642686052000,6.965052001953125,0.4139407277107239,-0.24446037411689758,-0.19431564211845398
1769667642696041200,6.975041259765625,0.44116562604904175,-0.2716357409954071,-0.1734752357006073
1769667642706029000,6.985029052734375,0.4819793701171875,-0.3084336817264557,-0.14509791135787964
1769667642716018200,6.99501806640625,0.4922793507575989,-0.35606902837753296,-0.11296568065881729
1769667642726006300,7.00500634765625,0.423303484916687,-0.39081820845603943,-0.04863196611404419
1769667642735995100,7.0149951171875,0.3473324179649353,-0.4344889223575592,0.0063532679341733456
1769667642745984000,7.02498388671875,0.24630433320999146,-0.4372575283050537,0.051805973052978516
1769667642755972000,7.03497216796875,0.17406019568443298,-0.4465973675251007,0.07113929092884064
1769667642765961200,7.044961181640625,0.11537423729896545,-0.3947743773460388,0.06456714123487473
1769667642775950000,7.0549501953125,0.08663448691368103,-0.35560017824172974,0.07127629965543747
1769667642785938200,7.064938232421875,0.06385167688131332,-0.3427419066429138,0.09901738166809082
1769667642795927000,7.074927001953125,0.0765211209654808,-0.3719936013221741,0.08345925807952881
1769667642805916200,7.084916259765625,0.06325964629650116,-0.28050869703292847,0.07477815449237823
1769667642815904300,7.094904296875,0.08866483718156815,-0.32468029856681824,0.03733288124203682
1769667642825893000,7.10489306640625,0.08424878865480423,-0.2183448076248169,0.012574272230267525
1769667642835881200,7.114881103515625,0.10915736109018326,-0.2638009488582611,-0.008355483412742615
1769667642845870300,7.124870361328125,0.07465478032827377,-0.25016847252845764,-0.014868775382637978
1769667642855859000,7.13485888671875,0.08752042055130005,-0.2515604794025421,-0.0066735465079545975
1769667642865847000,7.144846923828125,0.08426870405673981,-0.2244013249874115,-0.00921153835952282
1769667642875836200,7.154836181640625,0.06695552170276642,-0.21107788383960724,-0.026791216805577278
1769667642885825300,7.1648251953125,0.04730858653783798,-0.1649780422449112,-0.04195978492498398
1769667642895813000,7.174813232421875,0.059967316687107086,-0.1613614708185196,-0.0626470148563385
1769667642905802200,7.18480224609375,0.07279016822576523,-0.1758727729320526,-0.0876045674085617
1769667642915791400,7.194791259765625,0.04132761061191559,-0.008711721748113632,-0.06899036467075348
1769667642925779200,7.204779296875,0.019474241882562637,0.006549255922436714,-0.07355529069900513
1769667642935768000,7.21476806640625,0.008312365971505642,0.0486152246594429,-0.09527531266212463
1769667642945757200,7.224757080078125,0.008964573964476585,0.050312723964452744,-0.11635743081569672
1769667642955745300,7.234745361328125,0.010881662368774414,0.05724456161260605,-0.12246620655059814
1769667642965734100,7.244734130859375,0.01200258731842041,0.06463216990232468,-0.13164639472961426
1769667642975722000,7.254721923828125,0.013236136175692081,0.0806327760219574,-0.13211676478385925
1769667642985711000,7.264711181640625,0.011586573906242847,0.07809318602085114,-0.11927925050258636
1769667642995700200,7.2747001953125,0.014925793744623661,0.06811168789863586,-0.10570745170116425
1769667643005688000,7.28468798828125,0.014888242818415165,0.07595789432525635,-0.10191643983125687
1769667643015677200,7.29467724609375,0.007268644869327545,0.10175790637731552,-0.10893931239843369
1769667643025666300,7.304666259765625,0.008101149462163448,0.09901005774736404,-0.10639838874340057
1769667643035654100,7.314654052734375,0.01188178826123476,0.1088971272110939,-0.11327075213193893
1769667643045643000,7.32464306640625,0.008608231320977211,0.10613063722848892,-0.13314618170261383
1769667643055632100,7.334632080078125,0.015016130171716213,0.10441145300865173,-0.15492160618305206
1769667643065620200,7.3446201171875,0.01647154800593853,0.10111872106790543,-0.16286714375019073
1769667643075609000,7.354609130859375,0.022023601457476616,0.09052437543869019,-0.1552167683839798
1769667643085598200,7.36459814453125,0.024556001648306847,0.07954069972038269,-0.1375831812620163
1769667643095587300,7.37458740234375,0.03069033846259117,0.06174367666244507,-0.12303254008293152
1769667643105576200,7.384576171875,0.03289863094687462,0.04501689597964287,-0.10019327700138092
1769667643115564300,7.394564208984375,0.036591045558452606,0.03236110135912895,-0.08399233967065811
1769667643125553400,7.404553466796875,0.041765566915273666,0.023962289094924927,-0.07420629262924194
1769667643135542300,7.414542236328125,0.053090523928403854,-0.00030568824149668217,-0.06272081285715103
1769667643145530000,7.424530029296875,0.07317768037319183,-0.04154287278652191,-0.03870868310332298
1769667643155519200,7.434519287109375,0.09732804447412491,-0.07195556163787842,-0.02289224974811077
1769667643165508400,7.44450830078125,0.13538753986358643,-0.07213106006383896,-0.022322332486510277
1769667643175496400,7.454496337890625,0.15320517122745514,-0.1053595319390297,-0.03583709895610809
1769667643185485300,7.4644853515625,0.1669795662164688,-0.10820272564888,-0.028696633875370026
1769667643195474400,7.474474365234375,0.1724269986152649,-0.17868009209632874,-0.02249419502913952
1769667643205462300,7.484462158203125,0.19006352126598358,-0.18278402090072632,-0.038281410932540894
1769667643215451100,7.494451171875,0.24091888964176178,-0.15961605310440063,-0.10494689643383026
1769667643225439200,7.504439208984375,0.3371785879135132,-0.3424937427043915,-0.29031357169151306
1769667643235428400,7.514428466796875,0.24141748249530792,-0.3095843195915222,-0.24943417310714722
1769667643245417500,7.52441748046875,0.21368305385112762,-0.2626202702522278,-0.12303893268108368
1769667643255405300,7.5344052734375,0.22000394761562347,-0.32361021637916565,-0.20850330591201782
1769667643265394200,7.544394287109375,0.272251158952713,-0.3114563524723053,-0.2727302014827728
1769667643275383300,7.55438330078125,0.16550904512405396,-0.29444006085395813,-0.1798287034034729
1769667643285371400,7.564371337890625,0.17100074887275696,-0.27120479941368103,-0.13459278643131256
1769667643295360300,7.5743603515625,0.18057866394519806,-0.26287218928337097,-0.12323444336652756
1769667643305349400,7.584349365234375,0.1375981718301773,-0.24512912333011627,-0.10248655080795288
1769667643315337200,7.594337158203125,0.14330819249153137,-0.18754564225673676,-0.09940674901008606
1769667643325326000,7.604326171875,0.16053539514541626,-0.1931699812412262,-0.09444127976894379
1769667643335314200,7.614314208984375,0.1482362151145935,-0.17261411249637604,-0.09018539637327194
1769667643345303300,7.62430322265625,0.12128662317991257,-0.1886868178844452,-0.07403092831373215
1769667643355292400,7.63429248046875,0.1256735622882843,-0.1521196812391281,-0.06759823858737946
1769667643365280500,7.644280517578125,0.13081052899360657,-0.12332826107740402,-0.05013642460107803
1769667643375269000,7.65426904296875,0.12631727755069733,-0.11758802831172943,-0.05149253085255623
1769667643385258200,7.66425830078125,0.10793346911668777,-0.14264944195747375,-0.054602570831775665
1769667643395246300,7.674246337890625,0.10654604434967041,-0.12404725700616837,-0.0458577498793602
1769667643405235200,7.684235107421875,0.0936928316950798,-0.1049521267414093,-0.04714805260300636
1769667643415224300,7.694224365234375,0.07980216294527054,-0.10949723422527313,-0.05708908662199974
1769667643425212400,7.70421240234375,0.05236867815256119,-0.09240133315324783,-0.04985327646136284
1769667643435201300,7.714201171875,0.039834775030612946,-0.07139219343662262,-0.05867047235369682
1769667643445190100,7.724190185546875,0.03744938224554062,-0.058901701122522354,-0.06439893692731857
1769667643455178200,7.73417822265625,0.03863811865448952,-0.06252487748861313,-0.06239692121744156
1769667643465167400,7.74416748046875,0.033444952219724655,-0.053371861577034,-0.05815557390451431
1769667643475155500,7.754155517578125,0.035194870084524155,-0.018252436071634293,-0.05362243577837944
1769667643485144300,7.764144287109375,0.03347073867917061,-0.029500560835003853,-0.05391138792037964
1769667643495133400,7.774133544921875,0.030209070071578026,-0.013668389990925789,-0.05987158045172691
1769667643505121300,7.784121337890625,0.03308528661727905,-0.00937191303819418,-0.05316414684057236
1769667643515110100,7.794110107421875,0.03293676674365997,-0.009671044535934925,-0.04458300769329071
1769667643525099300,7.804099365234375,0.0387408584356308,-0.0025670614559203386,-0.037874504923820496
1769667643535087400,7.81408740234375,0.04960165172815323,0.0012631022837013006,-0.03962966799736023
1769667643545076500,7.824076416015625,0.05990089476108551,0.02476443350315094,-0.0219526719301939
1769667643555065300,7.8340654296875,0.07935506850481033,0.04133952036499977,-0.011041752994060516
1769667643565053200,7.84405322265625,0.10146037489175797,0.03437215834856033,-0.02015428990125656
1769667643575042300,7.854042236328125,0.09649006277322769,0.03553399071097374,-0.010823322460055351
1769667643585030400,7.864030517578125,0.13571177423000336,0.007099952548742294,-0.0060898191295564175
1769667643595019300,7.874019287109375,0.159028097987175,-0.03491881489753723,-0.0017805180978029966
1769667643605008400,7.88400830078125,0.17575009167194366,-0.010592171922326088,-0.001713672885671258
1769667643614996200,7.893996337890625,0.16678974032402039,-0.0421164371073246,-0.0074905878864228725
1769667643624985300,7.9039853515625,0.2068151831626892,-0.00596136087551713,0.020264077931642532
1769667643634974200,7.91397412109375,0.20904448628425598,-0.0033523952588438988,0.03491928428411484
1769667643644962300,7.92396240234375,0.2481335699558258,0.013813009485602379,0.05234035477042198
1769667643654951400,7.933951416015625,0.25285959243774414,-0.029936470091342926,0.052254170179367065
1769667643664940300,7.943940185546875,0.27496248483657837,0.02124043181538582,0.07294613122940063
1769667643674928000,7.95392822265625,0.27666234970092773,0.04721647500991821,0.07325441390275955
1769667643684917200,7.963917236328125,0.2638551890850067,0.018590422347187996,0.05471188575029373
1769667643694906000,7.973906005859375,0.27025383710861206,0.0020867649000138044,0.054989010095596313
1769667643704894200,7.983894287109375,0.255725234746933,-0.030044006183743477,0.03228209540247917
1769667643714883300,7.99388330078125,0.24550870060920715,-0.05060401186347008,0.047197967767715454
1769667643724871400,8.003871337890626,0.2752610146999359,-0.05285891145467758,0.06340330094099045
1769667643734860300,8.0138603515625,0.2923498749732971,-0.04544496163725853,0.06671831011772156
1769667643744849200,8.02384912109375,0.3111075758934021,-0.044457729905843735,0.086672842502594
1769667643754837200,8.033837158203125,0.3152158558368683,-0.05398521572351456,0.09472156316041946
1769667643764826400,8.043826416015625,0.3344106078147888,-0.0009414369706064463,0.10667143762111664
1769667643774815200,8.053815185546876,0.31376686692237854,-0.04922657459974289,0.10587430745363235
1769667643784803300,8.06380322265625,0.3461492955684662,0.010077495127916336,0.11990649998188019
1769667643794792200,8.073792236328124,0.3343401849269867,0.017393624410033226,0.14208316802978516
1769667643804780300,8.0837802734375,0.3520544767379761,0.00002874922938644886,0.11812802404165268
1769667643814769200,8.09376904296875,0.37522614002227783,-0.013974549248814583,0.09501062333583832
1769667643824758300,8.10375830078125,0.3292085826396942,-0.028569737449288368,0.09205904603004456
1769667643834746400,8.113746337890625,0.39532455801963806,-0.05008850619196892,0.09437114745378494
1769667643844735500,8.123735595703126,0.41509026288986206,-0.028727026656270027,0.0935402438044548
1769667643854724000,8.13372412109375,0.46296176314353943,-0.07931914180517197,0.06914050877094269
1769667643864712200,8.143712158203124,0.5088270306587219,-0.03421398252248764,0.04052271693944931
1769667643874701300,8.153701416015625,0.5501441359519958,0.09177007526159286,0.017890993505716324
1769667643884690200,8.163690185546875,0.5932125449180603,0.17803119122982025,-0.043123092502355576
1769667643894678300,8.17367822265625,0.5827894806861877,0.22655291855335236,-0.07800836861133575
1769667643904667400,8.18366748046875,0.5739898681640625,0.16975568234920502,-0.10171343386173248
1769667643914656500,8.193656494140624,0.5656131505966187,0.06370913982391357,-0.11739279329776764
1769667643924644400,8.203644287109375,0.5880217552185059,0.026698127388954163,-0.13481812179088593
1769667643934633200,8.21363330078125,0.6264863014221191,0.007011505775153637,-0.11149768531322479
1769667643944621300,8.223621337890625,0.6711956858634949,0.031516581773757935,-0.05443679541349411
1769667643954610400,8.2336103515625,0.6832481622695923,0.038314543664455414,-0.008141156286001205
1769667643964599300,8.243599365234376,0.69985032081604,-0.06897889077663422,-0.04974878579378128
1769667643974587100,8.253587158203125,0.7085573077201843,-0.0767807587981224,-0.12189359217882156
1769667643984576300,8.263576171875,0.7498554587364197,-0.02245573326945305,-0.15125733613967896
1769667643994565400,8.2735654296875,0.7768185138702393,0.003133009420707822,-0.15285860002040863
1769667644004553200,8.28355322265625,0.7965240478515625,-0.018356570973992348,-0.06279155611991882
1769667644014542300,8.293542236328125,0.7632673382759094,-0.15687009692192078,0.013515420258045197
1769667644024531500,8.303531494140625,0.734817624092102,-0.2669300436973572,0.02004149556159973
1769667644034519300,8.313519287109376,0.7224091291427612,-0.23919427394866943,-0.01756393536925316
1769667644044508200,8.323508056640625,0.7696541547775269,-0.17811760306358337,-0.05600560083985329
1769667644054497300,8.333497314453124,0.8183591365814209,-0.1158028095960617,-0.11972729116678238
1769667644064485400,8.3434853515625,0.8708593845367432,-0.14486055076122284,-0.17853893339633942
1769667644074474200,8.35347412109375,0.8966690301895142,-0.18438109755516052,-0.2108253389596939
1769667644084461600,8.363461669921875,0.8698081374168396,-0.13754941523075104,-0.21926116943359375
1769667644094450400,8.373450439453125,0.8210024833679199,-0.04735178500413895,-0.175456240773201
1769667644104439600,8.383439453125,0.7737820148468018,-0.10279373824596405,-0.10568967461585999
1769667644114427400,8.393427490234375,0.774088442325592,-0.20087189972400665,-0.04480558633804321
1769667644124416300,8.403416259765624,0.7548611760139465,-0.21273894608020782,0.034846365451812744
1769667644134405400,8.4134052734375,0.7376309037208557,-0.1697012186050415,0.0773601159453392
1769667644144393500,8.4233935546875,0.7613149285316467,-0.16319352388381958,0.06451542675495148
1769667644154382600,8.433382568359375,0.7702952027320862,0.03346724435687065,0.022819759324193
1769667644164371500,8.443371337890625,0.7970436811447144,0.29889172315597534,-0.02803569659590721
1769667644174359300,8.453359375,0.7931401133537292,0.4414840638637543,0.006696802563965321
1769667644184348400,8.463348388671875,0.7885704040527344,0.3725247085094452,0.08350236713886261
1769667644194336500,8.47333642578125,0.7660587430000305,0.2523275315761566,0.11081410199403763
1769667644204325400,8.483325439453125,0.7217450737953186,0.13509146869182587,0.0846962109208107
1769667644214314500,8.493314453125,0.7221915125846863,-0.16977499425411224,-0.019332069903612137
1769667644224302300,8.50330224609375,0.7467873692512512,-0.5027065873146057,-0.19191741943359375
1769667644234291200,8.513291259765625,0.7997961640357971,-0.140152245759964,-0.23898591101169586
1769667644244280300,8.5232802734375,0.8072828650474548,0.5382611751556396,-0.1011582612991333
1769667644254268400,8.533268310546875,0.8161530494689941,0.7649393081665039,0.09388688951730728
1769667644264257500,8.543257568359374,0.9095050692558289,0.776358425617218,0.18909621238708496
1769667644274246400,8.553246337890625,0.9681093692779541,0.6810081601142883,0.2719407081604004
1769667644284234500,8.563234375,0.9569046497344971,0.6326001286506653,0.316800594329834
1769667644294223400,8.573223388671876,0.9496661424636841,0.6905145645141602,0.23744656145572662
1769667644304212200,8.583212158203125,0.8657947182655334,0.7121069431304932,0.12188614904880524
1769667644314200300,8.593200439453126,0.8021571040153503,0.6824589967727661,0.05802864953875542
1769667644324189400,8.603189453125,0.7414535284042358,0.7417619824409485,0.06420478224754333
1769667644334177500,8.613177490234374,0.7031260132789612,0.6131132245063782,0.1446734070777893
1769667644344166400,8.62316650390625,0.6103982329368591,0.4102143943309784,0.29663580656051636
1769667644354155300,8.6331552734375,0.5243245363235474,0.5832677483558655,0.34128326177597046
1769667644364143400,8.643143310546876,0.46766313910484314,0.7765333652496338,0.24538125097751617
1769667644374132500,8.653132568359375,0.43799740076065063,0.8307205438613892,0.158743217587471
1769667644384121300,8.663121337890624,0.38004541397094727,0.8576464056968689,0.06858482211828232
1769667644394109400,8.673109375,0.32126930356025696,0.7288639545440674,0.11129192262887955
1769667644404098600,8.6830986328125,0.2541685700416565,0.5039637684822083,0.16662655770778656
1769667644414087200,8.693087158203125,0.18262404203414917,0.435312956571579,0.1873483806848526
1769667644424075300,8.7030751953125,0.14616936445236206,0.44159507751464844,0.16307154297828674
1769667644434064400,8.713064453125,0.18712389469146729,0.49271443486213684,0.14986680448055267
1769667644444052500,8.723052490234375,0.24164147675037384,0.5718068480491638,0.0778309553861618
1769667644454041600,8.73304150390625,0.2472156286239624,0.5787516236305237,-0.0625135749578476
1769667644464030500,8.743030517578125,0.3117102086544037,0.5326434969902039,-0.13579951226711273
1769667644474018300,8.753018310546874,0.3005596995353699,0.5475193858146667,-0.18236397206783295
1769667644484007400,8.76300732421875,0.2904442250728607,0.4683353900909424,-0.2920507788658142
1769667644493996300,8.772996337890625,0.28396153450012207,0.5152513980865479,-0.36057695746421814
1769667644503984400,8.782984375,0.2612279951572418,0.7605417966842651,-0.4339129626750946
1769667644513973500,8.792973388671875,0.19124536216259003,0.6382668018341064,-0.4575555622577667
1769667644523962600,8.802962646484374,0.1277332305908203,0.4491160213947296,-0.3977803587913513
1769667644533950200,8.8129501953125,0.12085830420255661,0.26745495200157166,-0.37726688385009766
1769667644543939300,8.822939208984375,0.13884475827217102,0.04571456462144852,-0.3990989327430725
1769667644553928400,8.832928466796876,0.20873068273067474,-0.1614283174276352,-0.4899088442325592
1769667644563916500,8.84291650390625,0.5984358191490173,-0.25910454988479614,-0.5370246767997742
1769667644573905400,8.852905517578124,0.8152723908424377,-0.2011038213968277,-0.4867023527622223
1769667644583893200,8.862893310546875,0.9583795070648193,-0.03659956529736519,-0.42120271921157837
1769667644593882400,8.87288232421875,0.9419273138046265,0.014386462979018688,-0.4638460576534271
1769667644603871200,8.882871337890625,0.8114925622940063,0.28600946068763733,-0.5718420147895813
1769667644613859300,8.892859375,0.7686637043952942,0.5743443369865417,-0.7285029888153076
1769667644623848400,8.902848388671876,0.803497850894928,0.4121609926223755,-0.8938932418823242
1769667644633837600,8.912837646484375,0.8672930002212524,0.42599961161613464,-1.1039938926696777
1769667644643825400,8.922825439453124,0.9786956906318665,1.0346623659133911,-1.329903483390808
1769667644653814300,8.932814208984375,1.039953351020813,1.6066259145736694,-1.2908910512924194
1769667644663803400,8.942803466796875,1.0586967468261719,1.5021049976348877,-1.10941743850708
1769667644673791500,8.95279150390625,1.084383249282837,1.0864332914352417,-0.7520127892494202
1769667644683780400,8.9627802734375,1.0186151266098022,0.6733472347259521,-0.3237570524215698
1769667644693768400,8.9727685546875,0.8696805238723755,0.026993073523044586,-0.07466533780097961
1769667644703757600,8.982757568359375,0.847233772277832,-0.14442715048789978,0.03833552077412605
1769667644713746400,8.992746337890624,0.8223885297775269,0.10235957056283951,-0.09913937002420425
1769667644723734300,9.002734375,0.8426917195320129,0.20817042887210846,-0.3312130868434906
1769667644733723400,9.012723388671875,0.856502890586853,0.3865791857242584,-0.40001940727233887
1769667644743712500,9.02271240234375,0.7689839601516724,0.485503613948822,-0.304708868265152
1769667644753700600,9.03270068359375,0.620119035243988,0.4600779116153717,-0.19746316969394684
1769667644763689500,9.042689453125,0.41670283675193787,0.36566829681396484,-0.07999727129936218
1769667644773678300,9.05267822265625,0.2170320600271225,0.3235355019569397,-0.01456393487751484
1769667644783666400,9.06266650390625,0.03987538442015648,-0.09544578939676285,0.011753955855965614
1769667644793655300,9.0726552734375,-0.025235667824745178,-0.2468109428882599,-0.06472121179103851
1769667644803644400,9.08264453125,-0.13378745317459106,-0.04993382468819618,-0.10436316579580307
1769667644813632500,9.092632568359376,-0.12225364148616791,0.1841242015361786,-0.07686928659677505
1769667644823621600,9.10262158203125,-0.07339555025100708,0.2874625623226166,-0.07356137037277222
1769667644833609200,9.112609130859376,0.023983746767044067,0.3388794958591461,-0.1358296126127243
1769667644843598300,9.122598388671875,0.09564755111932755,0.3761499226093292,-0.1469547152519226
1769667644853587500,9.13258740234375,0.060920726507902145,0.1971876174211502,-0.08209128677845001
1769667644863575600,9.142575439453125,0.06376635283231735,0.09945560991764069,-0.021367855370044708
1769667644873564400,9.152564453125,0.0013394963461905718,0.13720765709877014,-0.005252635106444359
1769667644883553500,9.162553466796876,-0.00924017746001482,0.16635994613170624,-0.0002219236921519041
1769667644893541400,9.172541259765625,-0.011781352572143078,0.12116310745477676,0.03511859476566315
1769667644903530200,9.1825302734375,-0.01964779756963253,0.06578320264816284,0.10009120404720306
1769667644913519400,9.192519287109375,-0.05701122432947159,-0.0259990394115448,0.15154188871383667
1769667644923507500,9.202507568359374,-0.1014665737748146,-0.10509279370307922,0.1660960614681244
1769667644933496600,9.21249658203125,-0.12940283119678497,-0.1338823437690735,0.17943772673606873
1769667644943484400,9.222484375,-0.1048215925693512,-0.20764684677124023,0.2146521806716919
1769667644953473300,9.232473388671876,-0.073359414935112,-0.28796127438545227,0.2534429728984833
1769667644963462400,9.24246240234375,-0.019733738154172897,-0.3101014792919159,0.25138118863105774
1769667644973450500,9.252450439453124,0.004242023453116417,-0.4171260893344879,0.25836241245269775
1769667644983439400,9.262439453125,-0.0006755031063221395,-0.46645286679267883,0.26845231652259827
1769667644993428500,9.272428466796875,0.014579061418771744,-0.4452802836894989,0.276267409324646
1769667645003416300,9.282416259765625,0.03508114069700241,-0.38694798946380615,0.2757400870323181
1769667645013405400,9.292405517578125,0.03648499399423599,-0.32573172450065613,0.2644347548484802
1769667645023394300,9.302394287109376,0.03131233528256416,-0.2835850715637207,0.22072561085224152
1769667645033382400,9.31238232421875,0.02454518713057041,-0.2472536414861679,0.19505290687084198
1769667645043371500,9.32237158203125,0.007908154278993607,-0.2926919460296631,0.20957326889038086
1769667645053359600,9.332359619140625,-0.015041742473840714,-0.36361435055732727,0.21390189230442047
1769667645063348200,9.34234814453125,-0.08346980065107346,-0.5863574147224426,0.232131227850914
1769667645073337300,9.35233740234375,-0.0876576229929924,-0.44469428062438965,0.2055821716785431
1769667645083325700,9.36232568359375,-0.07441691309213638,-0.3156138062477112,0.10763882100582123
1769667645093314600,9.372314453125,-0.15017183125019073,-0.3206057846546173,0.11794329434633255
1769667645103303700,9.3823037109375,-0.16456355154514313,-0.40307164192199707,0.19100871682167053
1769667645113291800,9.392291748046874,-0.11832677572965622,-0.35411328077316284,0.15749885141849518
1769667645123280600,9.40228076171875,-0.07272040843963623,-0.2425587773323059,0.06992214173078537
1769667645133269800,9.412269775390625,-0.05255062133073807,-0.11870990693569183,0.0072725266218185425
1769667645143257600,9.422257568359376,-0.04409881308674812,-0.03299527242779732,-0.0005752760916948318
1769667645153246700,9.432246826171875,-0.03541690856218338,-0.025566648691892624,0.018360065296292305
1769667645163235600,9.442235595703124,-0.03175559639930725,-0.023451566696166992,0.012204967439174652
1769667645173223700,9.4522236328125,-0.03153763711452484,-0.04277905821800232,0.013173257000744343
1769667645183212800,9.462212890625,-0.0315227247774601,-0.07008471339941025,0.0033794825430959463
1769667645193200600,9.47220068359375,-0.028934083878993988,-0.08375328034162521,-0.0007817596197128296
1769667645203189500,9.482189453125,-0.031624943017959595,-0.10291153192520142,0.0037906216457486153
1769667645213178600,9.4921787109375,-0.043217722326517105,-0.11145535111427307,0.015467352233827114
1769667645223166700,9.502166748046875,-0.07343873381614685,-0.09016124904155731,0.033076971769332886
1769667645233155800,9.51215576171875,-0.1150544211268425,-0.17203925549983978,0.08118550479412079
1769667645243144700,9.522144775390625,-0.09763894975185394,-0.14066243171691895,0.03485316038131714
1769667645253132800,9.5321328125,-0.09858158230781555,-0.14007751643657684,-0.013723894953727722
1769667645263121700,9.54212158203125,-0.10044685751199722,-0.12534411251544952,-0.042206935584545135
1769667645273110500,9.552110595703125,-0.06707097589969635,-0.03489543870091438,-0.060462310910224915
1769667645283098600,9.5620986328125,-0.055117908865213394,-0.012737404555082321,-0.06217605620622635
1769667645293087700,9.572087646484375,-0.04627300426363945,-0.03293926268815994,-0.05466708168387413
1769667645303075800,9.582075927734374,-0.04226041957736015,-0.041990015655756,-0.05268728733062744
1769667645313064700,9.592064697265625,-0.06609755754470825,-0.018154937773942947,-0.02465488202869892
1769667645323053600,9.602053466796875,-0.132449671626091,-0.00008911848999559879,-0.0015777915250509977
1769667645333041700,9.612041748046876,-0.23401302099227905,-0.05444436892867088,0.022066982463002205
1769667645343030800,9.62203076171875,-0.24644145369529724,-0.030883116647601128,0.04599255695939064
1769667645353019600,9.63201953125,-0.23981545865535736,0.06821222603321075,0.07803238928318024
1769667645363007700,9.6420078125,-0.29065653681755066,-0.017942896112799644,0.09507129341363907
1769667645372996900,9.651996826171874,-0.3235635459423065,-0.05754612758755684,0.1195124015212059
1769667645382985500,9.6619853515625,-0.2630815804004669,0.04768681898713112,0.15082824230194092
1769667645392973600,9.6719736328125,-0.29836392402648926,-0.07613365352153778,0.15217766165733337
1769667645402962700,9.681962646484376,-0.35419097542762756,-0.17896203696727753,0.17802977561950684
1769667645412951800,9.691951904296875,-0.4096820652484894,-0.1527363806962967,0.18680456280708313
1769667645422940000,9.70193994140625,-0.4192798435688019,-0.19453708827495575,0.14350475370883942
1769667645432928800,9.7119287109375,-0.4347159266471863,-0.10867220908403397,0.10987924039363861
1769667645442917600,9.721917724609375,-0.45827239751815796,-0.2294047623872757,0.11654753237962723
1769667645452905700,9.73190576171875,-0.5067951679229736,-0.23809084296226501,0.12137656658887863
1769667645462894600,9.74189453125,-0.5873320698738098,-0.2085593044757843,0.1135798990726471
1769667645472882700,9.751882568359376,-0.6029007434844971,-0.19045765697956085,0.15356270968914032
1769667645482871800,9.761871826171875,-0.6368550062179565,-0.1667744368314743,0.20187830924987793
1769667645492860700,9.771860595703124,-0.6253055334091187,-0.1911429911851883,0.23080982267856598
1769667645502848500,9.7818486328125,-0.7023491859436035,-0.16356834769248962,0.20353825390338898
1769667645512837600,9.791837646484375,-0.7168192267417908,-0.18958184123039246,0.24207791686058044
1769667645522826800,9.80182666015625,-0.7514421343803406,-0.20879654586315155,0.2013171762228012
1769667645532814800,9.81181494140625,-0.8289599418640137,-0.15189553797245026,0.18005318939685822
1769667645542803700,9.8218037109375,-0.9061564803123474,-0.07835553586483002,0.14802494645118713
1769667645552792800,9.831792724609375,-0.9440764784812927,-0.03156270086765289,0.1501239836215973
1769667645562780700,9.84178076171875,-0.9667181372642517,-0.1496371477842331,0.17632630467414856
1769667645572769500,9.85176953125,-0.99541175365448,-0.27423545718193054,0.2271939367055893
1769667645582757600,9.861757568359375,-1.0399668216705322,-0.4150303900241852,0.2757393717765808
1769667645592746800,9.871746826171876,-1.0243128538131714,-0.355765700340271,0.2565377354621887
1769667645602735900,9.88173583984375,-1.0178723335266113,-0.1486804336309433,0.21876558661460876
1769667645612723700,9.8917236328125,-1.0324631929397583,-0.05718332156538963,0.23329316079616547
1769667645622712600,9.901712646484375,-1.0528193712234497,-0.07659324258565903,0.22107857465744019
1769667645632701700,9.91170166015625,-1.070855975151062,-0.1449911892414093,0.17354649305343628
1769667645642689800,9.921689697265625,-1.1394834518432617,-0.20456290245056152,0.1703709363937378
1769667645652678700,9.9316787109375,-1.1964973211288452,-0.16746018826961517,0.1787138730287552
1769667645662667800,9.941667724609376,-1.2063623666763306,-0.2135336846113205,0.1241811215877533
1769667645672655600,9.951655517578125,-1.2250996828079224,-0.2929765582084656,0.06633543223142624
1769667645682644500,9.96164453125,-1.15961492061615,-0.28103572130203247,0.016845375299453735
1769667645692633600,9.971633544921875,-1.086287021636963,-0.22495394945144653,0.03494071960449219
1769667645702621700,9.98162158203125,-1.0655816793441772,-0.1472913771867752,0.015013881027698517
1769667645712610800,9.99161083984375,-0.9987877607345581,-0.09934073686599731,-0.030536431819200516
1769667645722599000,10.001598876953125,-1.0338307619094849,-0.005363110918551683,0.022004805505275726
1769667645732587800,10.011587890625,-1.076469898223877,-0.019742580130696297,0.08755624294281006
1769667645742576600,10.02157666015625,-1.0707454681396484,0.006825647316873074,0.16844764351844788
1769667645752564700,10.031564697265624,-1.0398259162902832,-0.019868813455104828,0.22060617804527283
1769667645762553600,10.0415537109375,-1.01234769821167,-0.07725460827350616,0.2121405154466629
1769667645772542700,10.051542724609375,-0.9698183536529541,0.05338667705655098,0.1458134949207306
1769667645782530800,10.06153076171875,-0.8878121972084045,0.21470819413661957,0.036698728799819946
1769667645792519700,10.071519775390625,-0.7543190121650696,0.2152216136455536,0.007232034578919411
1769667645802508500,10.081508544921874,-0.6931312680244446,0.148447647690773,0.06621705740690231
1769667645812496600,10.09149658203125,-0.645482063293457,0.14678451418876648,0.065025694668293
1769667645822485800,10.10148583984375,-0.5713335275650024,0.168545201420784,0.03771550580859184
1769667645832474600,10.111474609375,-0.5054817795753479,0.1193859875202179,0.0634281188249588
1769667645842462700,10.121462646484375,-0.48152658343315125,0.12043021619319916,0.07857191562652588
1769667645852451800,10.131451904296876,-0.44772955775260925,0.07571204006671906,0.07362444698810577
1769667645862439700,10.141439697265625,-0.3975588083267212,0.041577767580747604,0.0893474817276001
1769667645872428500,10.151428466796874,-0.36020368337631226,0.09120617061853409,0.0822034552693367
1769667645882417700,10.161417724609375,-0.3054639995098114,0.10807942599058151,0.08256831020116806
1769667645892405800,10.17140576171875,-0.27956992387771606,0.1053495854139328,0.06985995918512344
1769667645902395000,10.181394775390626,-0.2049526870250702,0.17777292430400848,0.04183924198150635
1769667645912383700,10.1913837890625,-0.15176722407341003,0.13167889416217804,0.03253953158855438
1769667645922371600,10.20137158203125,-0.08656079322099686,0.16988299787044525,0.005133476108312607
1769667645932360700,10.211360595703125,-0.007725628092885017,0.16259366273880005,-0.020830214023590088
1769667645942349600,10.221349609375,0.008249876089394093,0.06229662522673607,0.007717541418969631
1769667645952337700,10.231337646484375,0.011874513700604439,-0.01329879555851221,0.04750203713774681
1769667645962326800,10.241326904296875,0.017313754186034203,-0.03138592094182968,0.06539314985275269
1769667645972316000,10.25131591796875,0.012364039197564125,-0.08316989243030548,0.07021310925483704
1769667645982303700,10.2613037109375,0.013251137919723988,-0.052862584590911865,0.06868844479322433
1769667645992292600,10.271292724609374,0.006559460889548063,-0.05074899271130562,0.07771331816911697
1769667646002280700,10.28128076171875,0.007639105897396803,-0.0762287825345993,0.06226032227277756
1769667646012269800,10.291269775390624,0.0050129154697060585,-0.05169558897614479,0.054672494530677795
1769667646022258700,10.3012587890625,-0.0053715487010777,-0.00447880569845438,0.05324637517333031
1769667646032246500,10.31124658203125,0.013118366710841656,-0.07728472352027893,0.04636318236589432
1769667646042235600,10.321235595703126,0.01834269054234028,-0.0826195701956749,0.031236426904797554
1769667646052224500,10.331224609375,0.0006905080517753959,-0.02744675800204277,0.03420073911547661
1769667646062212600,10.341212646484376,-0.001203798339702189,-0.04676346480846405,0.03913477808237076
1769667646072201700,10.35120166015625,0.008481304161250591,-0.04498722031712532,0.04702446609735489
1769667646082191000,10.361191162109375,-0.0045042685233056545,0.021303653717041016,0.034962479025125504
1769667646092179200,10.37117919921875,0.004034784156829119,0.0023448511492460966,0.03952544927597046
1769667646102168300,10.381168212890625,0.01986008696258068,0.012069649994373322,0.050097398459911346
1769667646112156400,10.391156494140626,0.022775860503315926,0.073719322681427,0.0490126796066761
1769667646122145500,10.4011455078125,0.02509787119925022,0.09707098454236984,0.045131657272577286
1769667646132134400,10.411134521484374,0.022144995629787445,0.08964915573596954,0.054994575679302216
1769667646142122200,10.421122314453125,0.02368696592748165,0.1292831152677536,0.04839792475104332
1769667646152111400,10.431111328125,0.03731555491685867,0.1580171138048172,0.04519633576273918
1769667646162100200,10.441100341796876,0.04990937560796738,0.13144755363464355,0.03845560923218727
1769667646172088300,10.45108837890625,0.054304927587509155,0.15598948299884796,0.02075878158211708
1769667646182077400,10.461077392578124,0.04820175841450691,0.19754332304000854,0.014783713035285473
1769667646192066300,10.47106640625,0.03888224810361862,0.1969926357269287,0.03280096873641014
1769667646202054100,10.48105419921875,0.04957297444343567,0.005611750762909651,-0.0030161519534885883
1769667646212043300,10.491043212890625,0.056557681411504745,0.09186927229166031,-0.0708933025598526
1769667646222032400,10.501032470703125,0.06502334028482437,0.29901793599128723,-0.03804001584649086
1769667646232020500,10.5110205078125,0.12229590117931366,0.2811756134033203,0.014910461381077766
1769667646242009300,10.52100927734375,0.20631809532642365,0.2491430938243866,0.01390165463089943
1769667646251997200,10.5309970703125,0.2931728661060333,0.2881864309310913,-0.028785429894924164
1769667646261986300,10.540986328125,0.32236137986183167,0.23645907640457153,-0.04855567216873169
1769667646271975200,10.55097509765625,0.37061208486557007,0.3905786871910095,-0.04062791168689728
1769667646281963300,10.56096337890625,0.35483020544052124,0.3864361345767975,-0.02360844798386097
1769667646291952400,10.570952392578125,0.44673019647598267,0.39897555112838745,-0.04091480001807213
1769667646301941500,10.58094140625,0.5531694889068604,0.25973987579345703,-0.06626623123884201
1769667646311929300,10.590929443359375,0.5348436236381531,0.4505290985107422,-0.05539700388908386
1769667646321918200,10.600918212890624,0.6186421513557434,0.4799288213253021,-0.044765401631593704
1769667646331907300,10.6109072265625,0.7170069217681885,0.5020973682403564,-0.04236353188753128
1769667646341895400,10.6208955078125,0.8095733523368835,0.6354841589927673,-0.07064922899007797
1769667646351884300,10.63088427734375,0.8593416810035706,0.44863834977149963,-0.1330752968788147
1769667646361873400,10.640873291015625,0.83665931224823,0.6232951283454895,-0.11009860783815384
1769667646371861200,10.650861328125,0.8436862230300903,0.6250373721122742,-0.0859086737036705
1769667646381850400,10.660850341796875,0.8336181044578552,0.6289945840835571,-0.0801413357257843
1769667646391838200,10.670838134765624,0.7970684766769409,0.463750958442688,-0.06433210521936417
1769667646401827300,10.680827392578125,0.7488647103309631,0.369719535112381,-0.05444831773638725
1769667646411816400,10.69081640625,0.6851030588150024,0.3493451476097107,-0.07275635004043579
1769667646421804500,10.700804443359376,0.6250035166740417,0.33150196075439453,-0.07842488586902618
1769667646431793200,10.710793212890625,0.577095091342926,0.3251141607761383,-0.07157686352729797
1769667646441782300,10.7207822265625,0.5555919408798218,0.31049153208732605,-0.08316081762313843
1769667646451770400,10.730770263671875,0.5213160514831543,0.20453399419784546,-0.0923285260796547
1769667646461759200,10.74075927734375,0.41686365008354187,0.0646493211388588,-0.09716776013374329
1769667646471748400,10.750748291015626,0.33408209681510925,-0.060651108622550964,-0.044535256922245026
1769667646481736400,10.760736328125,0.2360444962978363,-0.20409083366394043,0.01471075601875782
1769667646491725600,10.7707255859375,0.2309332638978958,-0.22432975471019745,0.033947188407182693
1769667646501714200,10.780714111328125,0.18823879957199097,-0.1477537602186203,0.05012455955147743
1769667646511702300,10.790702392578124,0.11513355374336243,-0.18958298861980438,0.021574592217803
1769667646521691400,10.80069140625,0.09653963148593903,-0.18556347489356995,0.025457214564085007
1769667646531679500,10.810679443359374,0.09560384601354599,-0.21467401087284088,0.014577489346265793
1769667646541668400,10.82066845703125,0.11430589109659195,-0.23543308675289154,0.011283425614237785
1769667646551657500,10.830657470703125,0.13378660380840302,-0.21089544892311096,0.034407779574394226
1769667646561645300,10.840645263671876,0.16284194588661194,-0.20314644277095795,0.01438986323773861
1769667646571634200,10.85063427734375,0.1944977045059204,-0.1785406470298767,0.0006863407324999571
1769667646581623300,10.860623291015624,0.21962064504623413,-0.17830336093902588,-0.007319120690226555
1769667646591611400,10.870611328125,0.22499394416809082,-0.1444827765226364,-0.025935595855116844
1769667646601600500,10.8806005859375,0.2176225781440735,-0.15215454995632172,-0.04033184424042702
1769667646611589400,10.89058935546875,0.18714727461338043,-0.17747525870800018,-0.022938789799809456
1769667646621577200,10.9005771484375,0.14943452179431915,-0.1623157411813736,-0.0166380163282156
1769667646631566300,10.91056640625,0.11587803810834885,-0.17356014251708984,-0.006050224415957928
1769667646641554400,10.920554443359375,0.10587120801210403,-0.20261628925800323,0.020844772458076477
1769667646651543300,10.930543212890624,0.10307798534631729,-0.23142480850219727,0.0056806933134794235
1769667646661532400,10.940532470703126,0.11683481186628342,-0.2364794909954071,0.004607439041137695
1769667646671520300,10.950520263671875,0.11884395778179169,-0.24781104922294617,0.008647860959172249
1769667646681509400,10.96050927734375,0.12928888201713562,-0.3335842788219452,0.023229999467730522
1769667646691498200,10.970498291015625,0.11706855893135071,-0.342241108417511,0.05088352411985397
1769667646701486300,10.980486328125,0.10854458063840866,-0.3335149884223938,0.06398840993642807
1769667646711475500,10.990475341796875,0.1093548834323883,-0.38389137387275696,0.09429647773504257
1769667646721464300,11.00046435546875,0.1075628399848938,-0.4702044129371643,0.1239987164735794
1769667646731452200,11.0104521484375,0.11450396478176117,-0.5524788498878479,0.1341995745897293
1769667646741441300,11.020441162109375,0.1061142086982727,-0.6331731677055359,0.1274186372756958
1769667646751430400,11.030430419921874,0.13727153837680817,-0.734846830368042,0.08736174553632736
1769667646761418200,11.040418212890625,0.1555679887533188,-0.8739975094795227,0.07224723696708679
1769667646771407400,11.050407470703124,0.14287537336349487,-0.9038565158843994,0.0884128212928772
1769667646781396500,11.060396484375,0.09869991987943649,-1.0088458061218262,0.09477564692497253
1769667646791384300,11.07038427734375,0.02552912011742592,-1.1487387418746948,0.07517675310373306
1769667646801373200,11.080373291015626,-0.011000395752489567,-1.285295844078064,0.12597735226154327
1769667646811361300,11.090361328125,-0.03617474436759949,-1.344873070716858,0.052700236439704895
1769667646821350400,11.100350341796876,-0.14711697399616241,-1.262057900428772,0.0828956812620163
1769667646831339300,11.11033935546875,-0.3028128147125244,-1.2788325548171997,0.15103286504745483
1769667646841327400,11.120327392578124,-0.42914333939552307,-1.4468384981155396,0.12418659031391144
1769667646851316200,11.130316162109375,-0.6149562001228333,-1.6627633571624756,0.1763930767774582
1769667646861305300,11.140305419921875,-0.8071290850639343,-1.9053791761398315,0.2920096814632416
1769667646871293200,11.150293212890626,-0.8976897597312927,-2.0187971591949463,0.36678433418273926
1769667646881282300,11.1602822265625,-1.0034513473510742,-2.0293238162994385,0.4113776385784149
1769667646891271400,11.170271484375,-1.1360763311386108,-2.1216397285461426,0.388705313205719
1769667646901259500,11.180259521484375,-1.2548168897628784,-2.125368356704712,0.25256770849227905
1769667646911248100,11.190248046875,-1.3966898918151855,-2.0277695655822754,0.11260411888360977
1769667646921236200,11.200236328125,-1.41616952419281,-1.8378827571868896,0.039016708731651306
1769667646931225300,11.210225341796875,-1.3103382587432861,-1.7240055799484253,-0.06525318324565887
1769667646941214200,11.220214111328126,-1.2878170013427734,-1.6673681735992432,-0.17417460680007935
1769667646951202300,11.230202392578125,-1.2952685356140137,-1.5536624193191528,-0.2965647578239441
1769667646961191400,11.24019140625,-1.3114806413650513,-1.350196361541748,-0.31991082429885864
1769667646971180500,11.2501806640625,-1.2774709463119507,-1.2316033840179443,-0.4042879641056061
1769667646981168400,11.26016845703125,-1.2008980512619019,-1.099830985069275,-0.496054083108902
1769667646991157200,11.2701572265625,-1.1256235837936401,-0.9674932956695557,-0.5555689930915833
1769667647001146400,11.280146484375,-1.0154216289520264,-0.8701217770576477,-0.560064971446991
1769667647011134500,11.290134521484376,-0.9719451665878296,-0.902493417263031,-0.5745532512664795
1769667647021123300,11.300123291015625,-0.9059531092643738,-0.9396564960479736,-0.558073878288269
1769667647031111200,11.310111083984374,-0.849559485912323,-0.8154714703559875,-0.5291427969932556
1769667647041100300,11.320100341796875,-0.7091677784919739,-0.7139192819595337,-0.5414961576461792
1769667647051089400,11.33008935546875,-0.5766963362693787,-0.7493953704833984,-0.5943176746368408
1769667647061077200,11.3400771484375,-0.48578983545303345,-1.0485115051269531,-0.685379147529602
1769667647071066400,11.35006640625,-0.43882569670677185,-1.78201162815094,-0.8633080124855042
1769667647081055500,11.360055419921874,-0.4892755448818207,-2.0522639751434326,-0.823202908039093
1769667647091042600,11.37004248046875,-0.6219225525856018,-1.496820330619812,-0.5530670285224915
1769667647101031400,11.380031494140624,-0.7918288111686707,-0.836088240146637,-0.1982322782278061
1769667647111020500,11.3900205078125,-0.7827909588813782,-0.47391489148139954,0.08890699595212936
1769667647121008600,11.400008544921874,-0.7883595824241638,-0.48965176939964294,0.25601768493652344
1769667647130997500,11.40999755859375,-0.7451895475387573,-0.5408684611320496,0.2989293038845062
1769667647140986400,11.419986328125,-0.7780808806419373,-0.6870800256729126,0.28510138392448425
1769667647150974500,11.429974365234376,-0.8822245001792908,-0.7872060537338257,0.2677231729030609
1769667647160963600,11.439963623046875,-0.9734175205230713,-0.7328764796257019,0.3045530915260315
1769667647170952400,11.449952392578124,-0.9943708777427673,-0.669940710067749,0.35283195972442627
1769667647180940500,11.4599404296875,-0.9002994894981384,-0.6881122589111328,0.426824688911438
1769667647190929700,11.4699296875,-0.5273841023445129,-0.2522108554840088,0.4734463393688202
1769667647200917500,11.47991748046875,-0.03027849644422531,0.27405402064323425,-0.10748418420553207
1769667647210906600,11.48990673828125,-0.23644649982452393,-0.13121333718299866,-0.17925600707530975
1769667647220895500,11.4998955078125,-0.4061886668205261,-0.21613888442516327,0.1139223501086235
1769667647230883600,11.509883544921875,-0.6222724318504333,-0.4382297694683075,0.2865757346153259
1769667647240872700,11.519872802734374,-0.6999664306640625,-0.5559244155883789,0.26740312576293945
1769667647250861600,11.529861572265625,-0.5998373627662659,-0.4988779127597809,0.19890369474887848
1769667647260849400,11.539849365234375,-0.44340062141418457,-0.492484986782074,0.17072425782680511
1769667647270838500,11.549838623046876,-0.32456082105636597,-0.45616698265075684,0.09292881935834885
1769667647280827600,11.55982763671875,-0.22008474171161652,-0.3589882254600525,0.05226021632552147
1769667647290815500,11.5698154296875,-0.18460732698440552,-0.4221782386302948,-0.01731730066239834
1769667647300804600,11.5798046875,-0.13510581851005554,-0.3762587010860443,-0.02953455224633217
1769667647310792400,11.58979248046875,-0.09547936916351318,-0.2641581892967224,-0.04384491965174675
1769667647320781600,11.599781494140625,-0.007285598665475845,-0.1600341796875,-0.08046764880418777
1769667647330770400,11.6097705078125,0.16839705407619476,-0.0891452506184578,-0.11998368799686432
1769667647340758500,11.619758544921876,0.59473717212677,-0.07722467929124832,-0.4040854275226593
1769667647350747600,11.62974755859375,1.3186992406845093,0.11931151896715164,-1.1987671852111816
1769667647360736500,11.639736572265624,1.5830951929092407,0.6277396082878113,-1.5585857629776
1769667647370724400,11.649724365234375,1.2598484754562378,0.9400607347488403,-1.3027194738388062
1769667647380713500,11.65971337890625,0.7026695609092712,1.1559029817581177,-0.677186906337738
1769667647390702600,11.66970263671875,0.1536903977394104,0.6986445188522339,-0.21139109134674072
1769667647400690400,11.6796904296875,0.1432364284992218,0.17662900686264038,-0.06488233059644699
1769667647410679600,11.689679443359376,0.09317097812891006,-0.040229134261608124,-0.12117546796798706
1769667647420668700,11.699668701171875,0.025251584127545357,0.10507160425186157,-0.20784644782543182
1769667647430656500,11.709656494140624,-0.0006308312295004725,0.18670424818992615,-0.300303190946579
1769667647440645400,11.719645263671875,-0.04145149886608124,0.15647605061531067,-0.3625530004501343
1769667647450633500,11.729633544921874,-0.11557301878929138,0.26731470227241516,-0.3552952706813812
1769667647460622600,11.73962255859375,-0.18314781785011292,0.29372072219848633,-0.3316788971424103
1769667647470611500,11.749611572265625,-0.2284725457429886,0.07635144889354706,-0.37533435225486755
1769667647480599600,11.759599609375,-0.2708682119846344,0.09346599131822586,-0.39855873584747314
1769667647490588400,11.76958837890625,-0.325447678565979,0.3107615113258362,-0.3845681846141815
1769667647500577500,11.77957763671875,-0.3208540081977844,0.6861425638198853,-0.3243469297885895
1769667647510565600,11.789565673828125,-0.237874835729599,0.8044630289077759,-0.3634565770626068
1769667647520554500,11.799554443359375,-0.18215590715408325,0.5764437317848206,-0.5046288967132568
1769667647530543600,11.809543701171876,-0.30921345949172974,0.8816105723381042,-0.29610389471054077
1769667647540531700,11.81953173828125,-0.4729459285736084,1.3860909938812256,0.08851993829011917
1769667647550520300,11.829520263671874,-0.4867424964904785,1.5893125534057617,0.40638333559036255
1769667647560508400,11.83950830078125,-0.40963998436927795,1.3172492980957031,0.5442716479301453
1769667647570497500,11.84949755859375,-0.2897801101207733,0.8754882216453552,0.49065834283828735
1769667647580486700,11.859486572265626,-0.25946375727653503,0.7492930293083191,0.389296293258667
1769667647590474500,11.869474609375,-0.23176077008247375,0.8294342756271362,0.31511539220809937
1769667647600463600,11.879463623046876,-0.30472421646118164,0.8731703162193298,0.29501545429229736
1769667647610452700,11.88945263671875,-0.3013186752796173,0.6803692579269409,0.32175496220588684
1769667647620440600,11.899440673828124,-0.27243244647979736,0.3391541540622711,0.37391403317451477
1769667647630429400,11.909429443359375,-0.32981181144714355,0.3052431643009186,0.3845529854297638
1769667647640418600,11.91941845703125,-0.3771079480648041,0.8354665637016296,0.30421528220176697
1769667647650406700,11.92940673828125,-0.32763412594795227,1.4777597188949585,0.2545073628425598
1769667647660395500,11.9393955078125,-0.03603771701455116,1.4834942817687988,-0.13597463071346283
1769667647670384600,11.949384521484374,0.21391312777996063,0.7961578965187073,-0.6402415037155151
1769667647680372500,11.95937255859375,0.37072616815567017,0.48773691058158875,-0.6740617752075195
1769667647690361600,11.969361572265624,0.32637810707092285,0.6304364800453186,-0.41552016139030457
1769667647700349700,11.979349609375,0.23809514939785004,1.1190223693847656,-0.18855038285255432
1769667647710338600,11.989338623046875,0.22079557180404663,1.5159832239151,0.04441748559474945
1769667647720327700,11.99932763671875,0.30602070689201355,1.404353380203247,0.08296515047550201
1769667647730315500,12.0093154296875,0.4051593244075775,0.9331627488136292,-0.04345545545220375
1769667647740304400,12.019304443359376,0.47104617953300476,0.5300211906433105,-0.11855872720479965
1769667647750293500,12.02929345703125,0.50727379322052,0.4416607916355133,-0.06408055126667023
1769667647760281600,12.039281494140624,0.44414010643959045,0.4990343451499939,-0.008594928309321404
1769667647770270500,12.0492705078125,0.3499852120876312,0.5359340310096741,-0.009883785620331764
1769667647780259600,12.059259521484375,0.2810290455818176,0.5206397771835327,-0.050146251916885376
1769667647790247400,12.069247314453126,0.18293698132038116,0.5440996885299683,-0.09195011854171753
1769667647800236500,12.079236572265625,0.1322956383228302,0.5779846906661987,-0.09253787249326706
1769667647810224600,12.089224609375,0.11612427234649658,0.4865894317626953,-0.0917094349861145
1769667647820213500,12.099213623046875,0.011159501038491726,0.3365016579627991,-0.03451831638813019
1769667647830202600,12.10920263671875,-0.07229685038328171,0.2700311243534088,0.024898484349250793
1769667647840190700,12.119190673828125,-0.059032704681158066,0.23811420798301697,0.041464146226644516
1769667647850179300,12.129179443359375,-0.01647992804646492,0.22910195589065552,0.013725318014621735
1769667647860168400,12.13916845703125,0.03567222133278847,0.2860395610332489,0.01258788164705038
1769667647870156500,12.149156494140625,0.012320251204073429,0.3422646224498749,0.02831123396754265
1769667647880145700,12.159145751953124,0.06917420774698257,0.4209170937538147,0.04595094546675682
1769667647890134500,12.169134521484375,0.14330221712589264,0.43034112453460693,0.052190545946359634
1769667647900122600,12.17912255859375,0.09317486733198166,0.46325647830963135,0.06017017737030983
1769667647910111500,12.189111572265626,-0.02557191625237465,0.5447773337364197,0.11935857683420181
1769667647920100400,12.199100341796875,-0.09077222645282745,0.5362107157707214,0.11364955455064774
1769667647930088400,12.20908837890625,-0.19833697378635406,0.5062188506126404,0.10559562593698502
1769667647940077600,12.21907763671875,-0.3097490072250366,0.5513429045677185,0.22558753192424774
1769667647950065700,12.229065673828124,-0.32982370257377625,0.5404389500617981,0.4215083718299866
1769667647960054500,12.239054443359375,-0.42579150199890137,0.8899093270301819,0.8625869750976562
1769667647970043400,12.24904345703125,-0.5799726247787476,1.0190411806106567,0.776988685131073
1769667647980031500,12.259031494140626,-0.5250350832939148,0.763626217842102,0.30602243542671204
1769667647990020600,12.2690205078125,-0.2870030701160431,0.6314101815223694,0.3131948709487915
1769667648000009500,12.279009521484374,-0.21651560068130493,0.4845101833343506,0.3015832304954529
1769667648009997600,12.28899755859375,-0.2574113607406616,0.2734118103981018,0.18795251846313477
1769667648019986700,12.298986572265624,-0.26636677980422974,0.15658321976661682,0.100778728723526
