time,seconds_elapsed,z,y,x
1769667635783908400,0.062908447265625,0.014614628627896309,-0.021614747121930122,-0.04050694778561592
1769667635793897500,0.0728974609375,0.015548067167401314,-0.02935762144625187,-0.04830281808972359
1769667635803885300,0.08288525390625,0.009308014065027237,-0.0346626378595829,-0.04241110756993294
1769667635813874200,0.092874267578125,0.0015568839153274894,-0.04306810721755028,-0.04457465931773186
1769667635823862300,0.1028623046875,-0.004564658273011446,-0.03951864689588547,-0.05443501099944115
1769667635833851400,0.112851318359375,-0.01158821303397417,-0.011276623234152794,-0.058213505893945694
1769667635843840300,0.12284033203125,-0.006159359123557806,0.008025702089071274,-0.048238370567560196
1769667635853828000,0.132828125,-0.013999971561133862,0.04912067577242851,-0.06113152951002121
1769667635863817200,0.142817138671875,-0.037338051944971085,0.07958324253559113,-0.06415368616580963
1769667635873806300,0.152806396484375,-0.0911533460021019,0.18035006523132324,-0.06027425825595856
1769667635883794400,0.16279443359375,-0.2052418291568756,0.26629480719566345,-0.09956307709217072
1769667635893783300,0.172783203125,-0.26870444416999817,0.3961995244026184,-0.18574216961860657
1769667635903771400,0.182771484375,-0.2239587903022766,0.2714032828807831,-0.21912036836147308
1769667635913760300,0.19276025390625,-0.23683837056159973,0.16932111978530884,-0.31056132912635803
1769667635923749000,0.2027490234375,-0.3445270359516144,-0.06678542494773865,-0.5465624332427979
1769667635933737200,0.2127373046875,-0.4118756949901581,-0.28731831908226013,-0.6300320029258728
1769667635943726300,0.222726318359375,-0.555980384349823,-0.23045530915260315,-0.6213247776031494
1769667635953714400,0.23271435546875,-0.743667483329773,-0.3828991651535034,-0.7236570119857788
1769667635963703300,0.242703369140625,-0.7918187975883484,-0.6239272356033325,-0.8307586908340454
1769667635973692200,0.252692138671875,-0.8033473491668701,-0.879796028137207,-0.9619646668434143
1769667635983680300,0.26268017578125,-0.8019260168075562,-1.0380280017852783,-1.1204038858413696
1769667635993669400,0.27266943359375,-0.7632177472114563,-0.9791463017463684,-1.2275524139404297
1769667636003658200,0.282658203125,-0.8008530139923096,-0.8266302943229675,-1.2780417203903198
1769667636013646300,0.292646240234375,-0.8526387214660645,-0.7371134757995605,-1.3443666696548462
1769667636023635500,0.302635498046875,-0.9227933287620544,-0.8048195242881775,-1.4475466012954712
1769667636033623300,0.312623291015625,-0.8902134895324707,-1.0006593465805054,-1.5832575559616089
1769667636043612200,0.322612060546875,-0.8900113701820374,-1.1824160814285278,-1.633254885673523
1769667636053601300,0.332601318359375,-0.9450128674507141,-1.2967631816864014,-1.561880350112915
1769667636063589400,0.34258935546875,-0.8642676472663879,-1.2412141561508179,-1.487557291984558
1769667636073578200,0.352578125,-0.812258243560791,-0.9675692915916443,-1.4586732387542725
1769667636083567400,0.3625673828125,-0.7260450720787048,-0.5911152362823486,-1.3902089595794678
1769667636093555500,0.372555419921875,-0.6378563642501831,-0.08128499984741211,-1.4039466381072998
1769667636103544600,0.382544677734375,-0.6258324384689331,0.1494257003068924,-1.4376132488250732
1769667636113532400,0.392532470703125,-0.52354496717453,0.38259851932525635,-1.580576777458191
1769667636123521300,0.402521240234375,-0.5422856211662292,0.6376659274101257,-1.7982443571090698
1769667636133510400,0.412510498046875,-0.4483168125152588,0.602968156337738,-1.7645817995071411
1769667636143498500,0.42249853515625,-0.3753219544887543,0.7140824198722839,-1.5919005870819092
1769667636153487400,0.4324873046875,-0.270664244890213,0.9827953577041626,-1.4783194065093994
1769667636163476500,0.4424765625,-0.12890711426734924,1.3090983629226685,-1.46731436252594
1769667636173464300,0.45246435546875,-0.07566067576408386,1.4423304796218872,-1.4652485847473145
1769667636183453400,0.462453369140625,-0.10878533869981766,1.7487425804138184,-1.6217724084854126
1769667636193441300,0.472441162109375,-0.2656383216381073,2.2428295612335205,-2.0143473148345947
1769667636203430400,0.482430419921875,-0.3461134731769562,2.027527093887329,-2.197338342666626
1769667636213419500,0.49241943359375,-0.49298545718193054,1.7769875526428223,-2.4294910430908203
1769667636223407600,0.50240771484375,-0.37331604957580566,0.9798249006271362,-2.1849782466888428
1769667636233396200,0.512396240234375,-0.28090623021125793,0.6023327112197876,-1.6646215915679932
1769667636243385300,0.52238525390625,-0.3009057641029358,0.3072262704372406,-1.2166550159454346
1769667636253373400,0.53237353515625,-0.30645978450775146,0.008738364093005657,-0.8993702530860901
1769667636263362300,0.5423623046875,-0.30245867371559143,-0.22978205978870392,-0.7413848638534546
1769667636273350400,0.552350341796875,-0.3257964849472046,-0.3254028558731079,-0.6563597321510315
1769667636283339500,0.562339599609375,-0.5682101845741272,-0.21222704648971558,-0.4865536689758301
1769667636293328600,0.57232861328125,-0.7397582530975342,-0.6368406414985657,-0.20645010471343994
1769667636303316500,0.58231640625,-0.6352464556694031,-0.5210253596305847,-0.3028586804866791
1769667636313305300,0.592305419921875,-0.1993248164653778,0.880244791507721,-0.2580280900001526
1769667636323293400,0.60229345703125,-0.6861927509307861,1.496963620185852,-0.2090402990579605
1769667636333282600,0.612282470703125,-0.6327231526374817,0.02304539829492569,-0.3751395344734192
1769667636343271400,0.622271484375,-0.2732056975364685,-0.6220433115959167,-0.5347020030021667
1769667636353259300,0.63225927734375,-0.1486360728740692,0.004320978652685881,-0.4816494584083557
1769667636363248400,0.642248291015625,-0.0897274911403656,0.18409739434719086,-0.296180784702301
1769667636373237200,0.6522373046875,-0.009362875483930111,-0.029289711266756058,-0.2606121599674225
1769667636383225300,0.662225341796875,0.10029624402523041,-0.06298775225877762,-0.34169021248817444
1769667636393214500,0.67221435546875,0.18089841306209564,0.11823902279138565,-0.303424596786499
1769667636403202300,0.682202392578125,0.2273162454366684,0.41572290658950806,-0.1494254469871521
1769667636413191400,0.69219140625,0.3831881284713745,0.5587338805198669,-0.12281007319688797
1769667636423180300,0.70218017578125,0.48052453994750977,0.6796286106109619,-0.09970555454492569
1769667636433168400,0.71216845703125,0.5518884658813477,0.7185323238372803,-0.05276867374777794
1769667636443157500,0.722157470703125,0.5951610803604126,0.7814271450042725,0.01866289973258972
1769667636453146400,0.732146484375,0.4832923710346222,0.5031382441520691,0.0961502343416214
1769667636463134500,0.742134521484375,0.45940592885017395,0.5723468661308289,0.12073706835508347
1769667636473123300,0.752123291015625,0.5697973966598511,0.6109294295310974,0.20072564482688904
1769667636483111400,0.762111328125,0.6141848564147949,0.8319046497344971,0.20199304819107056
1769667636493100300,0.772100341796875,0.6385690569877625,0.5802119970321655,0.26883918046951294
1769667636503089400,0.78208935546875,0.625240683555603,0.3676866590976715,0.44291937351226807
1769667636513077500,0.792077392578125,0.46402573585510254,0.4399656653404236,0.3505662679672241
1769667636523066600,0.802066650390625,0.4027908742427826,0.050035469233989716,0.3750753402709961
1769667636533055200,0.81205517578125,0.409679651260376,0.13626569509506226,0.3729000687599182
1769667636543043300,0.822043212890625,0.4327346384525299,0.3064110577106476,0.2541998028755188
1769667636553032400,0.832032470703125,0.6166282892227173,0.36551007628440857,0.21144354343414307
1769667636563020500,0.8420205078125,0.6949236392974854,0.5747160315513611,0.25291162729263306
1769667636573009400,0.852009521484375,0.545429527759552,0.35933980345726013,0.5221326947212219
1769667636582998500,0.86199853515625,0.5017943978309631,0.30321741104125977,0.5671169757843018
1769667636592986400,0.871986328125,0.5275250673294067,0.31932634115219116,0.5317922234535217
1769667636602975500,0.8819755859375,0.5740206837654114,0.35184618830680847,0.4459167718887329
1769667636612964400,0.89196435546875,0.5774316191673279,0.3633044362068176,0.39120185375213623
1769667636622952400,0.901952392578125,0.5137791633605957,0.2514980137348175,0.3561288118362427
1769667636632941600,0.911941650390625,0.48792439699172974,0.08254467695951462,0.32053062319755554
1769667636642929400,0.921929443359375,0.5271181464195251,-0.07725883275270462,0.22791865468025208
1769667636652918300,0.931918212890625,0.6334784030914307,-0.17037945985794067,0.07972279191017151
1769667636662907400,0.941907470703125,0.6355338096618652,-0.3051154315471649,-0.07960854470729828
1769667636672895500,0.9518955078125,0.4560181200504303,-0.47881025075912476,-0.18471018970012665
1769667636682884400,0.96188427734375,0.31975242495536804,-0.37267449498176575,-0.26409342885017395
1769667636692873500,0.97187353515625,0.29647135734558105,-0.1279933899641037,-0.32581833004951477
1769667636702861300,0.981861328125,0.2508434057235718,-0.0885557010769844,-0.342688649892807
1769667636712850400,0.991850341796875,0.19858074188232422,-0.08252950012683868,-0.33296915888786316
1769667636722838500,1.001838623046875,0.13143418729305267,-0.1734793782234192,-0.2142060399055481
1769667636732827400,1.011827392578125,0.05470772087574005,-0.35376179218292236,-0.12080764770507812
1769667636742816500,1.02181640625,-0.046655651181936264,-0.4807024300098419,-0.14331881701946259
1769667636752804600,1.0318046875,-0.11837217956781387,-0.5110297203063965,-0.20426231622695923
1769667636762793200,1.041793212890625,-0.17476089298725128,-0.4851224720478058,-0.23343858122825623
1769667636772782300,1.0517822265625,-0.2250264585018158,-0.45607325434684753,-0.25103142857551575
1769667636782770400,1.0617705078125,-0.2573583126068115,-0.39828959107398987,-0.2794089913368225
1769667636792759300,1.07175927734375,-0.2682857811450958,-0.156402125954628,-0.349154531955719
1769667636802747400,1.081747314453125,-0.2351432740688324,-0.08129112422466278,-0.4050803780555725
1769667636812736500,1.091736572265625,-0.2197083979845047,-0.27539482712745667,-0.32189175486564636
1769667636822725400,1.101725341796875,-0.12379305064678192,-0.23808233439922333,-0.41938316822052
1769667636832713500,1.11171337890625,-0.10729795694351196,-0.410275399684906,-0.3178248405456543
1769667636842702300,1.121702392578125,0.03363386169075966,-0.525793194770813,-0.31334805488586426
1769667636852690400,1.1316904296875,0.19378171861171722,-0.49862658977508545,-0.3724196255207062
1769667636862679600,1.141679443359375,0.34406763315200806,-0.35122302174568176,-0.38688620924949646
1769667636872668400,1.15166845703125,0.4728351831436157,-0.18425080180168152,-0.3543333113193512
1769667636882656300,1.16165625,0.5937288403511047,-0.05054386705160141,-0.3300362229347229
1769667636892645400,1.171645263671875,0.49428242444992065,-0.10823805630207062,-0.15008936822414398
1769667636902634500,1.181634521484375,0.3314274549484253,-0.33493512868881226,-0.008823319338262081
1769667636912622300,1.191622314453125,0.07330137491226196,-0.60580974817276,0.07563856989145279
1769667636922611500,1.201611572265625,-0.34008219838142395,-0.9357913732528687,0.06655266135931015
1769667636932599300,1.211599365234375,-0.5384629368782043,-1.2064296007156372,0.1035199984908104
1769667636942588400,1.22158837890625,-0.8463033437728882,-1.3118358850479126,0.1425536870956421
1769667636952577300,1.231577392578125,-0.9425441026687622,-1.4746226072311401,0.03963103145360947
1769667636962565400,1.2415654296875,-0.8740670680999756,-1.1680011749267578,-0.2147194892168045
1769667636972554500,1.251554443359375,-0.9293806552886963,-1.0418955087661743,-0.46377697587013245
1769667636982543400,1.26154345703125,-0.8505960702896118,-0.8030368089675903,-0.7035589218139648
1769667636992531200,1.27153125,-0.6786357760429382,-0.6139542460441589,-0.5798020958900452
1769667637002520300,1.281520263671875,-0.543414294719696,-0.6311691999435425,-0.41444164514541626
1769667637012508400,1.29150830078125,-0.38218438625335693,-0.5072703957557678,-0.4942203760147095
1769667637022497500,1.30149755859375,-0.2589823007583618,-0.3574220538139343,-0.474419504404068
1769667637032486400,1.311486328125,-0.04091281071305275,-0.020602479577064514,-0.3773113191127777
1769667637042474500,1.321474609375,0.1931699961423874,0.011393269523978233,-0.2653810679912567
1769667637052463400,1.33146337890625,0.2745106518268585,-0.1297694444656372,-0.1055474653840065
1769667637062452200,1.3414521484375,0.23439200222492218,-0.01438320055603981,-0.019150258973240852
1769667637072441000,1.351441162109375,0.09495101124048233,-0.03489593043923378,-0.08800122886896133
1769667637082430200,1.36143017578125,-0.0005358280031941831,-0.1636592298746109,-0.12395523488521576
1769667637092418300,1.371418212890625,-0.028417792171239853,-0.23868554830551147,-0.14315609633922577
1769667637102407000,1.381406982421875,-0.025475531816482544,-0.19294121861457825,-0.13289280235767365
1769667637112396000,1.39139599609375,0.011796738021075726,-0.09975215792655945,-0.10614241659641266
1769667637122384100,1.401384033203125,0.05928569287061691,-0.030717432498931885,-0.06643734872341156
1769667637132373000,1.411373046875,0.09597206860780716,0.0009552759001962841,-0.023299463093280792
1769667637142362000,1.421362060546875,0.11798043549060822,0.000287088769255206,0.045996785163879395
1769667637152350200,1.43135009765625,0.08466321974992752,0.04080921411514282,0.0752396285533905
1769667637162339000,1.441339111328125,0.055086687207221985,0.09868689626455307,0.05720283463597298
1769667637172327200,1.4513271484375,0.025950107723474503,0.14570073783397675,-0.04730226844549179
1769667637182316000,1.46131591796875,0.006321811582893133,-0.005501025356352329,-0.16167038679122925
1769667637192305200,1.47130517578125,-0.03391695395112038,-0.15035861730575562,-0.2166537493467331
1769667637202293200,1.481293212890625,-0.2082591950893402,-0.022368155419826508,0.09346044063568115
1769667637212282000,1.4912822265625,-0.28525543212890625,-0.15767590701580048,0.27783748507499695
1769667637222271000,1.50127099609375,-0.21482974290847778,-0.16039979457855225,-0.03809572011232376
1769667637232259000,1.511259033203125,-0.16815118491649628,-0.08354070037603378,-0.31877613067626953
1769667637242248000,1.521248046875,-0.07005471736192703,-0.03730715811252594,-0.4458799958229065
1769667637252236000,1.531236083984375,-0.11454149335622787,-0.14859320223331451,-0.37921229004859924
1769667637262225200,1.54122509765625,-0.15146276354789734,-0.3771486282348633,-0.20929570496082306
1769667637272214300,1.55121435546875,-0.16246427595615387,-0.322965532541275,-0.23247238993644714
1769667637282202000,1.5612021484375,-0.1772237867116928,-0.4574333429336548,-0.2548653185367584
1769667637292191000,1.57119091796875,-0.19076383113861084,-0.4761771857738495,-0.21759144961833954
1769667637302180000,1.58118017578125,-0.2228410691022873,-0.48006248474121094,-0.23540106415748596
1769667637312168200,1.591168212890625,-0.2646830677986145,-0.5388850569725037,-0.2909375727176666
1769667637322157000,1.601156982421875,-0.3608330190181732,-0.6470770239830017,-0.3339073956012726
1769667637332145000,1.611144775390625,-0.46426060795783997,-0.7993462085723877,-0.34329718351364136
1769667637342134000,1.621134033203125,-0.5126252174377441,-0.9407448768615723,-0.3866204023361206
1769667637352123100,1.631123046875,-0.5314114093780518,-0.9900772571563721,-0.5097061395645142
1769667637362111000,1.641111083984375,-0.5174303650856018,-1.1657202243804932,-0.6900553703308105
1769667637372100000,1.65110009765625,-0.4963727295398712,-1.4131971597671509,-0.8870941400527954
1769667637382088200,1.661088134765625,-0.49866998195648193,-1.5195873975753784,-1.098192572593689
1769667637392077000,1.6710771484375,-0.45396456122398376,-1.4100950956344604,-1.2573028802871704
1769667637402066000,1.68106591796875,-0.4282485544681549,-1.1872901916503906,-1.4345178604125977
1769667637412054000,1.691053955078125,-0.48344549536705017,-0.8856051564216614,-1.5946416854858398
1769667637422043100,1.701043212890625,-0.48162415623664856,-0.5431562066078186,-1.6679247617721558
1769667637432032000,1.711031982421875,-0.3542291820049286,-0.30899620056152344,-1.6903693675994873
1769667637442020000,1.72102001953125,-0.28228095173835754,-0.2350766956806183,-1.6678775548934937
1769667637452009000,1.731009033203125,-0.2483498901128769,-0.127375528216362,-1.5879950523376465
1769667637461997000,1.7409970703125,-0.1771976798772812,-0.025113875046372414,-1.4695909023284912
1769667637471986200,1.750986083984375,-0.20585383474826813,-0.11446346342563629,-1.330784559249878
1769667637481975000,1.76097509765625,-0.19637377560138702,-0.3099471926689148,-1.2665456533432007
1769667637491963100,1.770963134765625,-0.2271660417318344,-0.33146581053733826,-1.1674180030822754
1769667637501952300,1.7809521484375,-0.26310858130455017,-0.14379791915416718,-1.1214501857757568
1769667637511941000,1.790941162109375,-0.25640782713890076,0.4703483283519745,-1.3113255500793457
1769667637521929000,1.800928955078125,-0.16941192746162415,0.5235143303871155,-1.5928502082824707
1769667637531918000,1.81091796875,-0.17408470809459686,0.44910404086112976,-1.5856729745864868
1769667637541907200,1.8209072265625,-0.28860703110694885,0.3760415315628052,-1.1310133934020996
1769667637551895000,1.83089501953125,-0.24912381172180176,0.315573126077652,-0.7222580909729004
1769667637561884200,1.84088427734375,-0.11007829755544662,0.4763295352458954,-0.595729410648346
1769667637571872000,1.8508720703125,0.018759839236736298,0.8670752048492432,-0.5012303590774536
1769667637581861000,1.860861083984375,0.06299228221178055,0.9939838647842407,-0.34309664368629456
1769667637591850000,1.87085009765625,-0.00842943787574768,0.9933351278305054,-0.2288433015346527
1769667637601838000,1.880838134765625,-0.0766870528459549,0.6547141671180725,-0.2391982078552246
1769667637611827200,1.8908271484375,-0.04021160304546356,0.36847788095474243,-0.19717511534690857
1769667637621816000,1.900816162109375,-0.03783659636974335,0.5702307224273682,-0.11691596359014511
1769667637631804000,1.910803955078125,-0.055751677602529526,0.7046422958374023,-0.09531586617231369
1769667637641793000,1.92079296875,-0.03766881674528122,0.5844834446907043,-0.19359156489372253
1769667637651781000,1.930781005859375,-0.031213313341140747,0.36413320899009705,-0.1734737902879715
1769667637661770000,1.94077001953125,-0.05115532875061035,0.5122385025024414,-0.039453133940696716
1769667637671759000,1.950759033203125,-0.03346634656190872,0.7575463056564331,-0.030406374484300613
1769667637681747000,1.960746826171875,0.06338988989591599,0.03835058584809303,-0.41456443071365356
1769667637691736000,1.970736083984375,0.1642584502696991,0.10939093679189682,-0.7301263809204102
1769667637701724200,1.98072412109375,0.15843971073627472,0.26668283343315125,-0.6866254806518555
1769667637711713000,1.990713134765625,0.1137113869190216,0.8163344860076904,-0.28407353162765503
1769667637721702100,2.0007021484375,-0.011602593585848808,0.5798436403274536,0.40003448724746704
1769667637731690200,2.010690185546875,0.008843026123940945,-0.16236308217048645,0.6251147389411926
1769667637741679000,2.02067919921875,0.07780877500772476,-0.07463615387678146,0.38095879554748535
1769667637751668000,2.03066796875,0.07482390850782394,0.1762586534023285,0.0884917825460434
1769667637761656000,2.040656005859375,0.04458983987569809,0.12824133038520813,0.026015620678663254
1769667637771645200,2.050645263671875,0.023558055981993675,0.020736970007419586,0.11325119435787201
1769667637781634000,2.060634033203125,0.02496527135372162,-0.020294087007641792,0.13793575763702393
1769667637791622100,2.0706220703125,0.03193556144833565,-0.017525197938084602,0.08339528739452362
1769667637801611300,2.080611328125,0.0380813404917717,-0.0007454187725670636,0.028626319020986557
1769667637811599000,2.09059912109375,0.03743472322821617,0.0013723268639296293,0.029820213094353676
1769667637821588000,2.100587890625,0.03183995559811592,-0.0026642263401299715,0.06430841237306595
1769667637831577000,2.1105771484375,0.02894003875553608,-0.01588016375899315,0.07742901146411896
1769667637841565200,2.120565185546875,0.0316585935652256,-0.0173246618360281,0.06411240994930267
1769667637851554000,2.130553955078125,0.02720285952091217,0.00028762139845639467,0.04977501183748245
1769667637861542000,2.1405419921875,0.026271285489201546,0.007215568795800209,0.049557432532310486
1769667637871531000,2.150531005859375,0.024028370156884193,0.03211958706378937,0.0640610083937645
1769667637881520000,2.16052001953125,0.013596235774457455,0.05727420747280121,0.08416733890771866
1769667637891508200,2.17050830078125,0.0054360441863536835,0.09133657068014145,0.09566260874271393
1769667637901497000,2.1804970703125,0.00014514227223116904,0.09887252002954483,0.09347669035196304
1769667637911486200,2.190486328125,-0.0027182884514331818,0.10722711682319641,0.09226148575544357
1769667637921474000,2.20047412109375,-0.005886651109904051,0.10369736701250076,0.0945691168308258
1769667637931463000,2.210462890625,-0.0062704128213226795,0.10546331107616425,0.08624514192342758
1769667637941451000,2.220450927734375,-0.009428389370441437,0.10284329205751419,0.08270073682069778
1769667637951440100,2.230440185546875,-0.013836986385285854,0.1072111427783966,0.08478013426065445
1769667637961429000,2.240428955078125,-0.014639928936958313,0.10790862143039703,0.07992146164178848
1769667637971417000,2.2504169921875,-0.012646553106606007,0.10169946402311325,0.07321908324956894
1769667637981406000,2.260406005859375,-0.013744307681918144,0.0911344364285469,0.07108110189437866
1769667637991395000,2.27039501953125,-0.014178403653204441,0.07958803325891495,0.061639927327632904
1769667638001383200,2.280383056640625,-0.010294449515640736,0.06803178042173386,0.04926155507564545
1769667638011372000,2.2903720703125,-0.01221325621008873,0.06083938106894493,0.038176149129867554
1769667638021361200,2.300361083984375,-0.013083311729133129,0.05584116280078888,0.04063344746828079
1769667638031349200,2.310349365234375,-0.013746971264481544,0.045224469155073166,0.0363934263586998
1769667638041337900,2.320337890625,-0.008832640014588833,0.03123941272497177,0.02798582799732685
1769667638051326000,2.330325927734375,-0.008658736012876034,0.015201856382191181,0.027287812903523445
1769667638061315000,2.340315185546875,-0.0088187912479043,0.019528161734342575,0.019163575023412704
1769667638071304200,2.35030419921875,-0.006102100946009159,0.00863130483776331,0.02478097938001156
1769667638081292000,2.3602919921875,-0.010180998593568802,0.0020849888678640127,0.01986398547887802
1769667638091281000,2.370281005859375,-0.007794007193297148,-0.0065319351851940155,0.02274099923670292
1769667638101269000,2.38026904296875,-0.009068329818546772,-0.009535448625683784,0.027536286041140556
1769667638111257900,2.3902578125,-0.0107668936252594,-0.006599845830351114,0.021147096529603004
1769667638121246700,2.400246826171875,-0.007333546411246061,-0.017079384997487068,0.019136942923069
1769667638131234800,2.41023486328125,-0.007573497481644154,-0.026155171915888786,0.0023374564480036497
1769667638141224000,2.420223876953125,-0.0091130705550313,-0.03775270655751228,0.00013555490295402706
1769667638151213000,2.430213134765625,-0.0035401401109993458,-0.048891108483076096,-0.0023126890882849693
1769667638161201000,2.440200927734375,-0.002674079965800047,-0.06684747338294983,-0.0016160061350092292
1769667638171190000,2.45018994140625,-0.0001478054327890277,-0.07881944626569748,-0.00443842401728034
1769667638181179000,2.460178955078125,0.0016200009267777205,-0.09522505104541779,-0.004364122170954943
1769667638191167000,2.4701669921875,0.00011691277177305892,-0.10205366462469101,-0.004479703027755022
1769667638201155800,2.48015576171875,0.001401089015416801,-0.11385226994752884,-0.0037292244378477335
1769667638211144000,2.49014404296875,0.0008748483960516751,-0.12352965772151947,0.0023640880826860666
1769667638221133000,2.500133056640625,-0.004037884995341301,-0.12739816308021545,0.00809174869209528
1769667638231122000,2.510121826171875,-0.0021901836153119802,-0.134566068649292,0.006400641519576311
1769667638241109800,2.52010986328125,-0.0006271744496189058,-0.14845684170722961,0.007515440694987774
1769667638251099000,2.530098876953125,-0.0065681543201208115,-0.16090579330921173,0.010696319863200188
1769667638261088000,2.540087890625,-0.00749014038592577,-0.18060998618602753,-0.010066748596727848
1769667638271075800,2.550075927734375,-0.003171292133629322,-0.16678845882415771,-0.03111770562827587
1769667638281065000,2.56006494140625,-0.005636313930153847,-0.16048768162727356,-0.0313134491443634
1769667638291052800,2.570052734375,-0.010151437483727932,-0.14576199650764465,-0.03640194982290268
1769667638301042000,2.5800419921875,-0.013007677160203457,-0.16115453839302063,-0.04884610325098038
1769667638311030800,2.59003076171875,-0.009938384406268597,-0.17496222257614136,-0.06521549075841904
1769667638321019000,2.600018798828125,-0.012614594772458076,-0.18322788178920746,-0.06470043212175369
1769667638331008000,2.610008056640625,-0.013544037938117981,-0.196583092212677,-0.04897499829530716
1769667638340996900,2.619996826171875,-0.009089634753763676,-0.2230948656797409,-0.05249037221074104
1769667638350984700,2.629984619140625,-0.020383302122354507,-0.2175600230693817,-0.11626402288675308
1769667638360973800,2.639973876953125,-0.020444555208086967,-0.1972062736749649,-0.11960096657276154
1769667638370962000,2.6499619140625,-0.029104888439178467,-0.20323114097118378,-0.09911593049764633
1769667638380951000,2.659950927734375,-0.008238488808274269,-0.21213702857494354,-0.10858692973852158
1769667638390940000,2.66993994140625,-0.03544321283698082,-0.17575691640377045,-0.11078830063343048
1769667638400928000,2.679927978515625,-0.03971172496676445,-0.17434810101985931,-0.12402074784040451
1769667638410916900,2.689916748046875,-0.030279608443379402,-0.1675514429807663,-0.14170999825000763
1769667638420905700,2.69990576171875,-0.03375343605875969,-0.17303302884101868,-0.1546708047389984
1769667638430893800,2.709893798828125,-0.04609479010105133,-0.16099421679973602,-0.17915616929531097
1769667638440883000,2.719883056640625,-0.03873381391167641,-0.1928890347480774,-0.2045544683933258
1769667638450871000,2.72987109375,-0.03768372908234596,-0.16745956242084503,-0.19386401772499084
1769667638460860000,2.73985986328125,-0.06996310502290726,-0.17740701138973236,-0.1951790750026703
1769667638470848800,2.749848876953125,-0.09227799624204636,-0.17092514038085938,-0.2160273641347885
1769667638480836900,2.7598369140625,-0.1046353355050087,-0.18523749709129333,-0.2253846526145935
1769667638490826000,2.769825927734375,-0.13160410523414612,-0.15941256284713745,-0.19966091215610504
1769667638500814800,2.77981494140625,-0.1355687528848648,-0.17780941724777222,-0.23218956589698792
1769667638510803000,2.789802978515625,-0.17612390220165253,-0.1437065750360489,-0.2232498675584793
1769667638520792000,2.7997919921875,-0.2010236531496048,-0.1414862871170044,-0.22390073537826538
1769667638530780000,2.80977978515625,-0.2325163334608078,-0.14821210503578186,-0.20919449627399445
1769667638540768800,2.819768798828125,-0.25733405351638794,-0.10284595191478729,-0.18502125144004822
1769667638550758000,2.8297578125,-0.2704511880874634,-0.11894183605909348,-0.2172846496105194
1769667638560746000,2.83974609375,-0.29665350914001465,-0.09217173606157303,-0.2292478382587433
1769667638570735000,2.849735107421875,-0.2901900112628937,-0.09235576540231705,-0.2201014757156372
1769667638580724000,2.859723876953125,-0.250679075717926,-0.09790579229593277,-0.19949792325496674
1769667638590711800,2.8697119140625,-0.24190184473991394,-0.1088377982378006,-0.2014622688293457
1769667638600701000,2.879700927734375,-0.2613900601863861,-0.1090599074959755,-0.2179645597934723
1769667638610689000,2.88968896484375,-0.2922779321670532,-0.07763540744781494,-0.2288305163383484
1769667638620678000,2.899677978515625,-0.28184208273887634,-0.0838453620672226,-0.22509357333183289
1769667638630667000,2.9096669921875,-0.3009513020515442,-0.08671758323907852,-0.23121137917041779
1769667638640654800,2.91965478515625,-0.2537025809288025,-0.10250027477741241,-0.2389790266752243
1769667638650643700,2.929643798828125,-0.21503721177577972,-0.07748493552207947,-0.2542988657951355
1769667638660632800,2.9396328125,-0.18947884440422058,-0.06922141462564468,-0.2579817473888397
1769667638670621000,2.949620849609375,-0.16539987921714783,-0.062178418040275574,-0.26066115498542786
1769667638680610000,2.959610107421875,-0.14598996937274933,-0.04945436865091324,-0.2784518599510193
1769667638690599000,2.969598876953125,-0.14294277131557465,-0.04074902832508087,-0.2990301251411438
1769667638700586800,2.979586669921875,-0.1413739025592804,-0.06511881202459335,-0.3298189043998718
1769667638710575900,2.989575927734375,-0.11167886108160019,-0.032582975924015045,-0.32539886236190796
1769667638720564000,2.99956396484375,-0.08928247541189194,-0.00697907991707325,-0.32080012559890747
1769667638730552800,3.009552734375,-0.08274361491203308,-0.0001627191377338022,-0.31122446060180664
1769667638740542000,3.0195419921875,-0.0675010159611702,-0.01817713864147663,-0.2985270321369171
1769667638750530000,3.029530029296875,-0.05211353302001953,-0.038959648460149765,-0.27273300290107727
1769667638760519000,3.039518798828125,-0.03543282672762871,-0.04453151673078537,-0.23790337145328522
1769667638770507800,3.0495078125,-0.02466806210577488,-0.041505366563797,-0.19071029126644135
1769667638780496000,3.059495849609375,-0.01392593514174223,-0.04556135833263397,-0.15297064185142517
1769667638790485000,3.069485107421875,-0.008050203323364258,-0.05782175436615944,-0.12917689979076385
1769667638800473000,3.07947314453125,-0.003469299990683794,-0.06720806658267975,-0.10895311832427979
1769667638810462000,3.0894619140625,0.0029023129027336836,-0.07206114381551743,-0.08469144999980927
1769667638820451000,3.099451171875,0.0070616379380226135,-0.07586093991994858,-0.06185378134250641
1769667638830439000,3.10943896484375,0.008312524296343327,-0.08097021281719208,-0.056766342371702194
1769667638840427800,3.119427734375,0.00555269094184041,-0.0775509849190712,-0.055321577936410904
1769667638850417000,3.1294169921875,0.003469033632427454,-0.07724019140005112,-0.05277985706925392
1769667638860405000,3.139405029296875,0.0026879284996539354,-0.06089131534099579,-0.0469917431473732
1769667638870394000,3.14939404296875,0.0031491878908127546,-0.043728306889534,-0.04909084737300873
1769667638880381700,3.159381591796875,0.009710151702165604,-0.02610643580555916,-0.05764758214354515
1769667638890370800,3.169370849609375,0.009379653260111809,-0.024145016446709633,-0.0569426454603672
1769667638900360000,3.17935986328125,0.009995375759899616,-0.022224346175789833,-0.05091484636068344
1769667638910348000,3.18934814453125,0.009897638112306595,-0.018792862072587013,-0.05073694512248039
1769667638920337000,3.1993369140625,0.008680040948092937,-0.022397717460989952,-0.06018344685435295
1769667638930326000,3.209325927734375,0.008736765943467617,-0.026284068822860718,-0.07366915792226791
1769667638940313900,3.21931396484375,0.009921872988343239,-0.020418189465999603,-0.09370012581348419
1769667638950302700,3.229302734375,0.009140235371887684,-0.018496451899409294,-0.09995242953300476
1769667638960291800,3.239291748046875,0.010192716494202614,-0.020807543769478798,-0.11368422210216522
1769667638970280000,3.249280029296875,0.007873369380831718,-0.025297632440924644,-0.12760935723781586
1769667638980269000,3.25926904296875,0.007604124024510384,-0.026628946885466576,-0.12068939954042435
1769667638990257200,3.269257080078125,0.00700970645993948,-0.012569054961204529,-0.10359696298837662
1769667639000245800,3.279245849609375,0.005489840172231197,-0.00908590666949749,-0.08020109683275223
1769667639010235000,3.28923486328125,0.005898102652281523,-0.015844743698835373,-0.06025028973817825
1769667639020223000,3.299222900390625,0.00942066591233015,-0.028388231992721558,-0.04400074854493141
1769667639030211800,3.3092119140625,0.009763947688043118,-0.03448766842484474,-0.02689233422279358
1769667639040200000,3.319199951171875,0.008987636305391788,-0.02996482327580452,0.0041156490333378315
1769667639050189000,3.32918896484375,0.009091232903301716,-0.03128015995025635,0.02906733751296997
1769667639060178000,3.339177978515625,0.009407083503901958,-0.038300782442092896,0.0508357509970665
1769667639070165800,3.349165771484375,0.011345066130161285,-0.04663541167974472,0.07087017595767975
1769667639080155100,3.359155029296875,0.0073441993445158005,-0.0510818250477314,0.09443090111017227
1769667639090144300,3.369144287109375,0.01679682359099388,-0.04929431155323982,0.1157417818903923
1769667639100132000,3.379132080078125,0.02034708298742771,-0.05275722220540047,0.1315726786851883
1769667639110121000,3.389120849609375,0.02737836167216301,-0.05726808309555054,0.14757667481899261
1769667639120110000,3.399110107421875,0.03452815115451813,-0.06921342760324478,0.16824360191822052
1769667639130098200,3.40909814453125,0.040406543761491776,-0.059063054621219635,0.1884700506925583
1769667639140087000,3.419087158203125,0.04273334890604019,-0.08507201820611954,0.20510175824165344
1769667639150075000,3.429074951171875,0.04115675762295723,-0.06345061212778091,0.21579806506633759
1769667639160064000,3.43906396484375,0.041857700794935226,-0.06849437206983566,0.21656985580921173
1769667639170053000,3.44905322265625,0.043775442987680435,-0.07591021060943604,0.22787897288799286
1769667639180041000,3.459041015625,0.049433860927820206,-0.06986217200756073,0.25120851397514343
1769667639190030000,3.469030029296875,0.05059579759836197,-0.047676973044872284,0.260280579328537
1769667639200019200,3.479019287109375,0.06257309764623642,-0.06714121997356415,0.2636162042617798
1769667639210007300,3.48900732421875,0.07911292463541031,-0.0647297278046608,0.28019729256629944
1769667639219996000,3.498995849609375,0.09291183203458786,-0.07895500212907791,0.2766190767288208
1769667639229984000,3.50898388671875,0.11138457804918289,-0.07928470522165298,0.2782031297683716
1769667639239973000,3.51897314453125,0.11609065532684326,-0.07250749319791794,0.25809386372566223
1769667639249962000,3.5289619140625,0.1448754221200943,-0.10588914901018143,0.24492798745632172
1769667639259950000,3.5389501953125,0.16424699127674103,-0.11724193394184113,0.25001782178878784
1769667639269939200,3.548939208984375,0.17942355573177338,-0.04764102026820183,0.23818913102149963
1769667639279928000,3.558927978515625,0.18367768824100494,-0.049556899815797806,0.2448805868625641
1769667639289916200,3.568916259765625,0.2034497857093811,-0.07316555827856064,0.27096039056777954
1769667639299905000,3.578905029296875,0.2788252532482147,-0.00806058943271637,0.30058085918426514
1769667639309894100,3.58889404296875,0.28477102518081665,-0.030962176620960236,0.27842390537261963
1769667639319882200,3.59888232421875,0.3184003531932831,-0.004029628820717335,0.28218507766723633
1769667639329871000,3.60887109375,0.3875919282436371,0.06428711116313934,0.30220115184783936
1769667639339859000,3.61885888671875,0.3752915859222412,0.04361964762210846,0.30317798256874084
1769667639349848000,3.62884814453125,0.4070758819580078,0.0651281401515007,0.3221689760684967
1769667639359837000,3.6388369140625,0.4751012623310089,0.07940880209207535,0.3648597300052643
1769667639369825000,3.648824951171875,0.510236382484436,0.08893173933029175,0.37421727180480957
1769667639379814100,3.658814208984375,0.49087145924568176,0.09342209249734879,0.3601427376270294
1769667639389803300,3.66880322265625,0.5156415104866028,0.07275675982236862,0.3033265769481659
1769667639399791000,3.678791015625,0.4900123178958893,0.026344256475567818,0.26425933837890625
1769667639409780000,3.688780029296875,0.504044771194458,0.0182248093187809,0.23850205540657043
1769667639419768000,3.69876806640625,0.5069289803504944,0.02821432799100876,0.22281363606452942
1769667639429757200,3.708757080078125,0.5005179643630981,0.09372223168611526,0.21908360719680786
1769667639439746000,3.71874609375,0.48659148812294006,0.14310602843761444,0.20581521093845367
1769667639449734000,3.72873388671875,0.4925369918346405,0.14081650972366333,0.18915288150310516
1769667639459723000,3.738722900390625,0.5152646899223328,0.13102219998836517,0.16101790964603424
1769667639469712100,3.748712158203125,0.5225569605827332,0.15013277530670166,0.1557251513004303
1769667639479700000,3.758699951171875,0.5145642757415771,0.253405898809433,0.14825791120529175
1769667639489689000,3.768689208984375,0.5374501347541809,0.2820114493370056,0.14421017467975616
1769667639499678200,3.77867822265625,0.5246339440345764,0.28248894214630127,0.14679397642612457
1769667639509666000,3.788666015625,0.5470660328865051,0.22321949899196625,0.1484760195016861
1769667639519655000,3.798655029296875,0.5452302694320679,0.18885406851768494,0.1377629190683365
1769667639529643000,3.80864306640625,0.5329208970069885,0.20549030601978302,0.1271454393863678
1769667639539632000,3.818632080078125,0.5194908380508423,0.2084948867559433,0.10286539793014526
1769667639549621000,3.82862109375,0.4932062327861786,0.19603662192821503,0.11375533044338226
1769667639559609000,3.838609130859375,0.48022574186325073,0.1653261035680771,0.13466539978981018
1769667639569598000,3.848597900390625,0.49068954586982727,0.1626001000404358,0.1414913535118103
1769667639579587000,3.858587158203125,0.5022050738334656,0.12801681458950043,0.1186898946762085
1769667639589575200,3.8685751953125,0.48595553636550903,0.17604799568653107,0.08182216435670853
1769667639599564000,3.87856396484375,0.5268600583076477,0.17444956302642822,0.05692267045378685
1769667639609552100,3.88855224609375,0.5065510869026184,0.22061413526535034,0.0646146759390831
1769667639619541200,3.898541259765625,0.5263658165931702,0.23390144109725952,0.09001298248767853
1769667639629530000,3.908530029296875,0.5486971735954285,0.24512585997581482,0.09692468494176865
1769667639639518000,3.91851806640625,0.581889271736145,0.25734952092170715,0.08571996539831161
1769667639649507000,3.928507080078125,0.5989329218864441,0.26592275500297546,0.07256421446800232
1769667639659496200,3.93849609375,0.6246289610862732,0.24370160698890686,0.035297270864248276
1769667639669484000,3.948484130859375,0.6293348073959351,0.16699378192424774,0.0295480377972126
1769667639679473200,3.95847314453125,0.6204438209533691,0.14898814260959625,0.07164143025875092
1769667639689462300,3.968462158203125,0.5907604694366455,0.12837713956832886,0.10482468456029892
1769667639699450000,3.9784501953125,0.570462167263031,0.09104815125465393,0.07220335304737091
1769667639709439000,3.98843896484375,0.5604952573776245,0.03929813578724861,0.025828134268522263
1769667639719427000,3.998427001953125,0.5686916708946228,0.0554020069539547,0.022175343707203865
1769667639729416200,4.008416259765625,0.5576550364494324,0.03490578755736351,0.03301973640918732
1769667639739405000,4.018405029296875,0.5769988894462585,0.015518239699304104,0.03995513916015625
1769667639749393000,4.028392822265625,0.5904451608657837,0.052077315747737885,0.03894127532839775
1769667639759382000,4.038382080078125,0.6331409811973572,0.058765310794115067,0.01824185438454151
1769667639769371100,4.04837109375,0.6424750685691833,0.053278934210538864,0.0023094932548701763
1769667639779359000,4.05835888671875,0.7087912559509277,0.06917188316583633,0.01498321071267128
1769667639789348000,4.06834814453125,0.7842154502868652,0.07555095106363297,0.015440208837389946
1769667639799337200,4.078337158203125,0.8488394618034363,0.149788960814476,0.011129350401461124
1769667639809325000,4.088324951171875,0.8925115466117859,0.13785693049430847,-0.051955342292785645
1769667639819314000,4.09831396484375,0.9221181869506836,0.024505876004695892,-0.15474270284175873
1769667639829302000,4.108302001953125,0.9067195057868958,-0.05951712280511856,-0.15883411467075348
1769667639839291100,4.118291015625,0.8306609988212585,-0.0597488172352314,-0.10779863595962524
1769667639849280000,4.128280029296875,0.761961817741394,-0.02412264607846737,-0.11900974065065384
1769667639859268000,4.13826806640625,0.7317386865615845,-0.012548016384243965,-0.04789428785443306
1769667639869257000,4.148257080078125,0.7516953349113464,-0.034989140927791595,-0.06971383094787598
1769667639879246000,4.15824609375,0.7973608374595642,-0.07460552453994751,-0.13719433546066284
1769667639889234200,4.168234130859375,0.8784575462341309,-0.1751853972673416,-0.15137088298797607
1769667639899223000,4.17822314453125,0.8975324034690857,-0.26939257979393005,-0.20657368004322052
1769667639909212200,4.188212158203125,0.9091981053352356,-0.36218804121017456,-0.16885906457901
1769667639919200300,4.1982001953125,0.9482797384262085,-0.35860955715179443,-0.1376449465751648
1769667639929188900,4.20818896484375,0.8975667953491211,-0.2702956795692444,-0.1570436805486679
1769667639939177000,4.218177001953125,0.7340119481086731,-0.1150703951716423,-0.02064269408583641
1769667639949166000,4.228166015625,0.49518337845802307,-0.27607500553131104,0.15655659139156342
1769667639959155200,4.2381552734375,0.35946789383888245,-0.4998939633369446,0.3688579201698303
1769667639969143000,4.24814306640625,0.31574171781539917,-0.5282220244407654,0.533113420009613
1769667639979132200,4.258132080078125,0.3371404707431793,-0.490707129240036,0.5442792773246765
1769667639989121000,4.26812109375,0.33010226488113403,-0.3368704319000244,0.44500863552093506
1769667639999109000,4.278109130859375,0.269133985042572,-0.3666214048862457,0.44266876578330994
1769667640009098000,4.288097900390625,0.27318811416625977,-0.33397266268730164,0.47672927379608154
1769667640019086000,4.298086181640625,0.29668334126472473,-0.37861600518226624,0.4475783109664917
1769667640029075200,4.3080751953125,0.3183329701423645,-0.27940741181373596,0.49610215425491333
1769667640039064000,4.31806396484375,0.35022884607315063,-0.16894720494747162,0.48569026589393616
1769667640049052000,4.328052001953125,0.3686470091342926,-0.10525238513946533,0.5087031722068787
1769667640059041000,4.338041015625,0.3691261112689972,-0.08105463534593582,0.5241228938102722
1769667640069030100,4.348030029296875,0.3226803243160248,-0.005654423497617245,0.4712090790271759
1769667640079018200,4.358018310546875,0.2835337221622467,0.027344806119799614,0.41753917932510376
1769667640089007400,4.36800732421875,0.2869609296321869,0.032280176877975464,0.3663729429244995
1769667640098996500,4.37799658203125,0.28861182928085327,0.028664400801062584,0.29556533694267273
1769667640108984300,4.387984375,0.3467656672000885,0.0593823678791523,0.25271135568618774
1769667640118973200,4.39797314453125,0.34347933530807495,0.07092397660017014,0.2474428117275238
1769667640128961300,4.407961181640625,0.32707932591438293,0.09627300500869751,0.27892005443573
1769667640138950400,4.417950439453125,0.3428835868835449,0.141496941447258,0.27484968304634094
1769667640148939300,4.427939208984375,0.3206895887851715,0.15076100826263428,0.23261407017707825
1769667640158927000,4.437927001953125,0.28601017594337463,0.16225548088550568,0.15609532594680786
1769667640168916200,4.447916259765625,0.29065847396850586,0.25561845302581787,0.06027612462639809
1769667640178905300,4.4579052734375,0.2888248860836029,0.3599725663661957,0.01950525864958763
1769667640188893400,4.4678935546875,0.26616963744163513,0.408405601978302,-0.0261855311691761
1769667640198882300,4.47788232421875,0.2967880070209503,0.4215347170829773,-0.04193653166294098
1769667640208871400,4.487871337890625,0.31653720140457153,0.4381970465183258,-0.02840820513665676
1769667640218859300,4.497859375,0.3350203335285187,0.39506450295448303,-0.0075572519563138485
1769667640228848000,4.50784814453125,0.32058441638946533,0.36716070771217346,-0.010758105665445328
1769667640238837200,4.517837158203125,0.32102516293525696,0.3675636351108551,0.008111190050840378
1769667640248825300,4.527825439453125,0.23645354807376862,0.35066482424736023,-0.02990090660750866
1769667640258814200,4.537814208984375,0.1673583686351776,0.40589582920074463,-0.08500809967517853
1769667640268802000,4.547802001953125,0.11780013889074326,0.5844325423240662,-0.12027794122695923
1769667640278791200,4.557791259765625,0.10026268661022186,0.7642343044281006,-0.18962691724300385
1769667640288780300,4.5677802734375,0.10224674642086029,0.8982743620872498,-0.2571979761123657
1769667640298768400,4.577768310546875,0.10502788424491882,0.9482110142707825,-0.2761000394821167
1769667640308757200,4.58775732421875,0.10004111379384995,0.9018163681030273,-0.25270310044288635
1769667640318746400,4.597746337890625,0.09864801168441772,0.7807634472846985,-0.23681360483169556
1769667640328734500,4.607734375,0.06436700373888016,0.6675125360488892,-0.2375214695930481
1769667640338723000,4.61772314453125,0.03966378793120384,0.6645599007606506,-0.29777228832244873
1769667640348712200,4.627712158203125,0.06339601427316666,0.7343618869781494,-0.3781081438064575
1769667640358700300,4.6377001953125,0.08978554606437683,0.7255563735961914,-0.3928338289260864
1769667640368689400,4.647689453125,0.0768260732293129,0.7232993841171265,-0.3968341648578644
1769667640378677200,4.65767724609375,0.08001227676868439,0.7207326292991638,-0.42904749512672424
1769667640388666400,4.667666259765625,0.0851718857884407,0.651989758014679,-0.4258088171482086
1769667640398655200,4.6776552734375,0.14692020416259766,0.4573177397251129,-0.29882290959358215
1769667640408643300,4.687643310546875,0.19513726234436035,0.3009665012359619,-0.2184327393770218
1769667640418632200,4.697632080078125,0.23337946832180023,0.26901841163635254,-0.20628951489925385
1769667640428621300,4.707621337890625,0.2589271664619446,0.24891448020935059,-0.2271663099527359
1769667640438609400,4.717609375,0.28570178151130676,0.20177440345287323,-0.24050182104110718
1769667640448598300,4.727598388671875,0.28377020359039307,0.1605484038591385,-0.2435053288936615
1769667640458586000,4.737586181640625,0.310565322637558,0.12870045006275177,-0.24028797447681427
1769667640468575200,4.7475751953125,0.3575893044471741,0.13597221672534943,-0.1956416666507721
1769667640478564400,4.757564453125,0.3977212607860565,0.14942437410354614,-0.21228723227977753
1769667640488552400,4.767552490234375,0.4568048417568207,0.12125106155872345,-0.2415069043636322
1769667640498541300,4.777541259765625,0.521678626537323,0.03057628497481346,-0.2214793860912323
1769667640508530400,4.787530517578125,0.5728467702865601,0.004338555503636599,-0.19244134426116943
1769667640518518300,4.797518310546875,0.6340182423591614,0.1961604505777359,-0.22777430713176727
1769667640528507100,4.807507080078125,0.6450698375701904,0.3435419201850891,-0.2515994906425476
1769667640538496300,4.817496337890625,0.6030752062797546,0.3790415823459625,-0.25554680824279785
1769667640548484400,4.827484375,0.6267461776733398,0.44523340463638306,-0.2908257246017456
1769667640558473500,4.837473388671875,0.6264665722846985,0.5424062609672546,-0.3100167214870453
1769667640568462300,4.84746240234375,0.6193005442619324,0.6151795387268066,-0.28376513719558716
1769667640578450200,4.8574501953125,0.6059412956237793,0.4561915099620819,-0.24955497682094574
1769667640588439300,4.867439208984375,0.5453434586524963,0.39147934317588806,-0.2289503663778305
1769667640598427400,4.877427490234375,0.5675899386405945,0.37336239218711853,-0.2143879234790802
1769667640608416300,4.887416259765625,0.5592260360717773,0.4109281599521637,-0.1605505347251892
1769667640618405400,4.8974052734375,0.5346927046775818,0.4243965446949005,-0.14590340852737427
1769667640628393200,4.907393310546875,0.5372461676597595,0.3636764883995056,-0.09558271616697311
1769667640638382000,4.917382080078125,0.5300971269607544,0.2592802941799164,-0.06997641921043396
1769667640648371200,4.92737109375,0.5301767587661743,0.20074748992919922,-0.05199635401368141
1769667640658359300,4.937359375,0.45619335770606995,0.20166175067424774,-0.030165093019604683
1769667640668348400,4.947348388671875,0.34930819272994995,0.09164655953645706,-0.026491528376936913
1769667640678337300,4.957337158203125,0.1956203728914261,-0.05331941321492195,-0.06550204753875732
1769667640688325000,4.9673251953125,0.07759146392345428,-0.19505977630615234,-0.08408717811107635
1769667640698314200,4.977314208984375,0.01005343347787857,-0.23600506782531738,-0.04568120092153549
1769667640708302300,4.98730224609375,-0.045033253729343414,-0.20550788938999176,-0.016443954780697823
1769667640718291200,4.997291259765625,-0.15082253515720367,-0.20878304541110992,-0.01715049147605896
1769667640728280300,5.0072802734375,-0.2096187323331833,-0.25078243017196655,-0.03027295134961605
1769667640738268400,5.017268310546875,-0.28232383728027344,-0.2825142443180084,0.0070706927217543125
1769667640748257300,5.02725732421875,-0.3486216366291046,-0.3285890817642212,-0.01251312904059887
1769667640758246100,5.03724609375,-0.41718924045562744,-0.3493497371673584,0.00004660531703848392
1769667640768234200,5.047234130859375,-0.4728375971317291,-0.4876679480075836,-0.014115552417933941
1769667640778223400,5.057223388671875,-0.43567025661468506,-0.6123304963111877,-0.06173287332057953
1769667640788212200,5.067212158203125,-0.375008225440979,-0.6218752861022949,-0.09763441234827042
1769667640798200300,5.077200439453125,-0.30732211470603943,-0.5338948369026184,-0.07158230990171432
1769667640808189400,5.087189453125,-0.23128728568553925,-0.4794957637786865,-0.10498473793268204
1769667640818178300,5.09717822265625,-0.18454667925834656,-0.5587794184684753,-0.1745917797088623
1769667640828166100,5.107166259765625,-0.14647945761680603,-0.7371163964271545,-0.3078840672969818
1769667640838155300,5.1171552734375,-0.08891788870096207,-0.6258944869041443,-0.35436394810676575
1769667640848143400,5.127143310546875,-0.044144026935100555,-0.37002360820770264,-0.2587287724018097
1769667640858132500,5.137132568359375,-0.03352520242333412,-0.22877831757068634,-0.15365932881832123
1769667640868121300,5.147121337890625,-0.04289393872022629,-0.18917764723300934,-0.06403384357690811
1769667640878109200,5.157109130859375,-0.06276298314332962,-0.17158827185630798,0.005005944054573774
1769667640888098300,5.167098388671875,-0.07611048221588135,0.011862518265843391,0.03849945589900017
1769667640898087200,5.177087158203125,-0.06485942006111145,0.04886581003665924,0.008498413488268852
1769667640908075300,5.1870751953125,-0.06884165108203888,0.0652618259191513,-0.011938418261706829
1769667640918064400,5.197064453125,-0.07017828524112701,0.1401914656162262,-0.01540372334420681
1769667640928053500,5.207053466796875,-0.06728662550449371,0.052995309233665466,-0.011828696355223656
1769667640938041000,5.217041015625,-0.06334807723760605,0.10199987143278122,0.015446866862475872
1769667640948030200,5.2270302734375,-0.05164481699466705,0.17797106504440308,0.020169449970126152
1769667640958018300,5.237018310546875,-0.05945587158203125,0.19028659164905548,0.012985839508473873
1769667640968007400,5.24700732421875,-0.046547528356313705,0.14814525842666626,0.0229354090988636
1769667640977996300,5.256996337890625,-0.04740666225552559,0.13279825448989868,0.022374814376235008
1769667640987984100,5.266984130859375,-0.03762220963835716,0.1435188204050064,0.008049137890338898
1769667640997973200,5.27697314453125,-0.03389618173241615,0.1801399439573288,-0.0008146609761752188
1769667641007962000,5.286962158203125,-0.025669677183032036,0.19872933626174927,0.011711517348885536
1769667641017950200,5.2969501953125,-0.023935958743095398,0.1679229587316513,0.028774656355381012
1769667641027939300,5.306939208984375,-0.02509283646941185,0.17280133068561554,0.028241757303476334
1769667641037928400,5.316928466796875,-0.019216038286685944,0.16443714499473572,0.01804664544761181
1769667641047916300,5.326916259765625,-0.00746084563434124,0.15816806256771088,0.006671218667179346
1769667641057905200,5.3369052734375,0.0008274441352114081,0.14476197957992554,-0.0013920343481004238
1769667641067893200,5.346893310546875,0.004098604898899794,0.14179494976997375,-0.005071457475423813
1769667641077881900,5.3568818359375,0.008730906993150711,0.1495351642370224,-0.024443291127681732
1769667641087870700,5.36687060546875,0.005627259146422148,0.16684384644031525,-0.034213095903396606
1769667641097858600,5.376858642578125,0.006991596892476082,0.1763302981853485,-0.03224022686481476
1769667641107847700,5.38684765625,0.0003755057114176452,0.1651468724012375,-0.031184017658233643
1769667641117836800,5.3968369140625,-0.005085572600364685,0.15082572400569916,-0.03221040219068527
1769667641127825000,5.406824951171875,-0.004357464145869017,0.14093981683254242,-0.03472229465842247
1769667641137813800,5.416813720703125,-0.00708720413967967,0.09367669373750687,-0.021335115656256676
1769667641147802600,5.426802734375,-0.012998889200389385,0.05124481022357941,-0.002588059986010194
1769667641157790700,5.436790771484375,-0.03880465403199196,0.04814089834690094,0.0013432984706014395
1769667641167779600,5.446779541015625,-0.03796203061938286,0.013247095979750156,0.00449914438650012
1769667641177767700,5.456767578125,-0.034204840660095215,-0.07171360403299332,-0.04199565201997757
1769667641187756800,5.4667568359375,-0.06319042295217514,-0.0078531289473176,-0.06536675244569778
1769667641197746000,5.476745849609375,-0.026751985773444176,0.05686381459236145,-0.0462319441139698
1769667641207733500,5.4867333984375,-0.02839888446033001,-0.01107741892337799,-0.03675162419676781
1769667641217722600,5.49672265625,-0.031001592054963112,-0.047091078013181686,-0.03321707621216774
1769667641227711700,5.506711669921875,-0.06330519914627075,-0.09151526540517807,-0.04730839282274246
1769667641237699800,5.516699951171875,-0.06522853672504425,-0.03183915466070175,-0.05594635754823685
1769667641247688700,5.526688720703125,-0.046789608895778656,-0.004175570327788591,-0.0543186329305172
1769667641257677800,5.536677734375,-0.07902424782514572,-0.07312081754207611,-0.049555569887161255
1769667641267665700,5.546665771484375,-0.1158435121178627,-0.08608721196651459,-0.032403212040662766
1769667641277654500,5.556654541015625,-0.11887738853693008,-0.035047467797994614,-0.03816229850053787
1769667641287643600,5.5666435546875,-0.11121067404747009,-0.05102536827325821,-0.030239395797252655
1769667641297631700,5.5766318359375,-0.07806151360273361,-0.03286633640527725,-0.03574441373348236
1769667641307620900,5.586620849609375,-0.06039196997880936,-0.050868771970272064,-0.04376798868179321
1769667641317608700,5.596608642578125,-0.05445711687207222,-0.029774140566587448,-0.05819406360387802
1769667641327597600,5.60659765625,-0.04643381014466286,0.015238607302308083,-0.0514911524951458
1769667641337586700,5.616586669921875,-0.025107750669121742,-0.03134620562195778,-0.029760025441646576
1769667641347574800,5.62657470703125,-0.03117789328098297,0.018433868885040283,-0.02961408533155918
1769667641357563600,5.636563720703125,-0.08087301254272461,-0.036427248269319534,-0.023076023906469345
1769667641367552800,5.646552734375,-0.10092554986476898,-0.10633523017168045,-0.0372895821928978
1769667641377540600,5.65654052734375,-0.10449498146772385,-0.07054447382688522,-0.048835184425115585
1769667641387529700,5.66652978515625,-0.10798345506191254,-0.056769806891679764,-0.0588955394923687
1769667641397518600,5.6765185546875,-0.08527442067861557,-0.014606107026338577,-0.06469564139842987
1769667641407506700,5.686506591796875,-0.07936246693134308,0.03585919737815857,-0.06527194380760193
1769667641417495800,5.696495849609375,-0.06346259266138077,0.06553666293621063,-0.06290253251791
1769667641427484000,5.70648388671875,-0.0716339722275734,0.10444305092096329,-0.06259600073099136
1769667641437472800,5.71647265625,-0.11103996634483337,0.08170125633478165,-0.06848638504743576
1769667641447461600,5.726461669921875,-0.13767211139202118,0.07523563504219055,-0.08309169113636017
1769667641457449700,5.73644970703125,-0.14808374643325806,0.09744612872600555,-0.06097600236535072
1769667641467438600,5.7464384765625,-0.24419695138931274,0.06531509011983871,-0.047157660126686096
1769667641477427700,5.756427734375,-0.3001486361026764,-0.051783569157123566,-0.010471017099916935
1769667641487415800,5.766415771484375,-0.34076452255249023,-0.1815119981765747,-0.005139101762324572
1769667641497405000,5.776405029296875,-0.37480902671813965,-0.1470315307378769,-0.004929244983941317
1769667641507393500,5.7863935546875,-0.3545450270175934,-0.0068051754496991634,0.00794660672545433
1769667641517381600,5.796381591796875,-0.30127647519111633,0.11219604313373566,0.011915515176951885
1769667641527370800,5.806370849609375,-0.33288103342056274,0.2201656550168991,0.00862970668822527
1769667641537358800,5.81635888671875,-0.3764311671257019,0.22917699813842773,-0.03977484256029129
1769667641547347700,5.82634765625,-0.5096776485443115,0.2291644811630249,-0.11948831379413605
1769667641557336800,5.8363369140625,-0.6376259922981262,0.2553127110004425,-0.2484891712665558
1769667641567324700,5.84632470703125,-0.7118054032325745,0.29951027035713196,-0.35320228338241577
1769667641577313500,5.8563134765625,-0.8335153460502625,0.4296688139438629,-0.4898293614387512
1769667641587302700,5.866302734375,-0.875163197517395,0.9091973304748535,-0.43285423517227173
1769667641597290800,5.876290771484375,-0.7177416086196899,1.3391047716140747,-0.06217282637953758
1769667641607279900,5.88627978515625,-0.610969603061676,1.083556056022644,0.3922934830188751
1769667641617268700,5.896268798828125,-0.6256425976753235,0.6443214416503906,0.619926929473877
1769667641627256600,5.906256591796875,-0.7699856162071228,0.7030561566352844,0.675967812538147
1769667641637245700,5.91624560546875,-0.8370996713638306,0.9856979846954346,0.6247317790985107
1769667641647234600,5.926234619140625,-0.8244864344596863,1.1938104629516602,0.5011951923370361
1769667641657222700,5.93622265625,-0.8725019097328186,1.2073129415512085,0.4744112491607666
1769667641667211800,5.946211669921875,-0.858884334564209,1.031014323234558,0.6005635857582092
1769667641677199600,5.95619970703125,-0.7492955327033997,1.0116832256317139,0.6668334007263184
1769667641687188700,5.966188720703125,-0.6069546341896057,0.9055445194244385,0.6462879180908203
1769667641697177600,5.976177490234375,-0.5160604119300842,0.7164829969406128,0.6332560181617737
1769667641707165700,5.986165771484375,-0.5832179188728333,0.5484790802001953,0.7328790426254272
1769667641717154800,5.99615478515625,-0.6613633036613464,0.23186439275741577,0.796421229839325
1769667641727143700,6.006143798828125,-0.6493865251541138,0.08730827271938324,0.7481743693351746
1769667641737131500,6.016131591796875,-0.627846360206604,0.2563026249408722,0.6258487105369568
1769667641747120600,6.02612060546875,-0.6379932761192322,0.5769165754318237,0.621723473072052
1769667641757109800,6.03610986328125,-0.6687466502189636,0.5503169298171997,0.6042848229408264
1769667641767097600,6.04609765625,-0.6077560186386108,0.4404658079147339,0.5948135852813721
1769667641777086700,6.056086669921875,-0.4274804890155792,0.9220505356788635,0.6877248883247375
1769667641787074800,6.06607470703125,-0.20188865065574646,1.5211163759231567,0.6804560422897339
1769667641797063700,6.076063720703125,-0.3882734477519989,1.535603404045105,0.5504703521728516
1769667641807052500,6.086052490234375,-0.6375868320465088,0.8548885583877563,0.6542499661445618
1769667641817040600,6.09604052734375,-0.7692543268203735,0.22869282960891724,0.7726802229881287
1769667641827029800,6.10602978515625,-0.9575507640838623,-0.1410420686006546,0.7856721878051758
1769667641837018600,6.1160185546875,-1.1631499528884888,-0.22714899480342865,0.8131959438323975
1769667641847006700,6.1260068359375,-1.1769577264785767,-0.22454042732715607,0.743508517742157
1769667641856995600,6.13599560546875,-1.0864925384521484,-0.22511141002178192,0.5508005619049072
1769667641866984700,6.145984619140625,-0.9599308371543884,-0.3787534236907959,0.3094204366207123
1769667641876972800,6.155972900390625,-1.026179313659668,-0.6812486052513123,0.14587464928627014
1769667641886961700,6.165961669921875,-1.078845739364624,-1.1117507219314575,0.09307641535997391
1769667641896949800,6.17594970703125,-1.0758113861083984,-1.3592678308486938,0.11251296103000641
1769667641906939000,6.18593896484375,-1.2436141967773438,-1.231859564781189,0.1349535584449768
1769667641916927700,6.195927734375,-1.2095683813095093,-0.4492949843406677,0.2278462052345276
1769667641926915600,6.20591552734375,-1.250844120979309,-0.14787627756595612,0.2100464403629303
1769667641936904700,6.21590478515625,-1.3588778972625732,-0.24718661606311798,0.3044315278530121
1769667641946893600,6.2258935546875,-1.358665943145752,-0.0670570656657219,0.6436391472816467
1769667641956881700,6.235881591796875,-1.3686442375183105,-0.11135981231927872,0.9117733836174011
1769667641966870800,6.245870849609375,-1.408277988433838,-0.0853670984506607,1.055388331413269
1769667641976860000,6.25585986328125,-1.4406236410140991,-0.14649516344070435,1.1496621370315552
1769667641986847700,6.26584765625,-1.4272948503494263,-0.12988795340061188,1.1242263317108154
1769667641996836600,6.275836669921875,-1.488302230834961,-0.1907837986946106,1.048819661140442
1769667642006824700,6.28582470703125,-1.6105631589889526,-0.4036518633365631,0.9976683259010315
1769667642016813800,6.295813720703125,-1.7258734703063965,-0.6162269711494446,0.9568015933036804
1769667642026802700,6.305802734375,-1.7653464078903198,-0.7847859263420105,0.9167319536209106
1769667642036790500,6.31579052734375,-1.6350983381271362,-0.7165064215660095,0.8101066946983337
1769667642046779600,6.325779541015625,-1.4460957050323486,-0.6379551887512207,0.7444304823875427
1769667642056768800,6.335768798828125,-1.2686151266098022,-0.4073861539363861,0.6475241780281067
1769667642066756600,6.345756591796875,-1.1552222967147827,-0.2106885313987732,0.7000009417533875
1769667642076745700,6.355745849609375,-1.07323157787323,-0.08183600753545761,0.7339648008346558
1769667642086734000,6.365734130859375,-0.9794784188270569,0.1271182745695114,0.9431856274604797
1769667642096722200,6.37572216796875,-0.8994610905647278,0.2623448073863983,1.250390648841858
1769667642106711000,6.3857109375,-0.7646486759185791,0.42282769083976746,1.249711275100708
1769667642116699100,6.39569921875,-0.6497561931610107,0.5296252369880676,1.0226863622665405
1769667642126688300,6.405688232421875,-0.6801005005836487,0.5555537939071655,0.5800122618675232
1769667642136677400,6.415677490234375,-0.7125511169433594,0.5715236663818359,0.31896600127220154
1769667642146665200,6.425665283203125,-0.7808417677879333,0.3827577531337738,0.2673315703868866
1769667642156654000,6.435654052734375,-0.9037543535232544,-0.004209125880151987,0.28721314668655396
1769667642166643200,6.445643310546875,-1.361509919166565,-1.5547683238983154,0.05608457326889038
1769667642176631300,6.45563134765625,-1.5757911205291748,-3.516768217086792,-0.4841909110546112
1769667642186620200,6.4656201171875,-1.8672550916671753,-3.817580223083496,-0.9540790319442749
1769667642196609300,6.475609375,-2.1325910091400146,-3.249520778656006,-1.0682474374771118
1769667642206597000,6.48559716796875,-2.1406190395355225,-3.2990334033966064,-1.006307601928711
1769667642216586200,6.495586181640625,-2.232600450515747,-3.450465202331543,-0.6496238112449646
1769667642226574000,6.505573974609375,-2.1055033206939697,-3.4892187118530273,-0.06127161160111427
1769667642236563200,6.515563232421875,-1.82279634475708,-3.8678557872772217,-0.5095511078834534
1769667642246552300,6.52555224609375,-1.3649272918701172,-3.029794454574585,-1.0601913928985596
1769667642256540200,6.5355400390625,-0.9966824650764465,-1.3147674798965454,-0.9996300339698792
1769667642266529000,6.545529052734375,-0.6999093294143677,0.6362680792808533,-0.5693222880363464
1769667642276518100,6.55551806640625,-0.21390563249588013,1.0876935720443726,-0.3377503454685211
1769667642286506200,6.56550634765625,0.1807311624288559,0.9607164263725281,-0.1491423398256302
1769667642296495000,6.5754951171875,0.440497487783432,0.656014084815979,-0.07792755216360092
1769667642306484200,6.585484130859375,0.471503883600235,0.6283848285675049,-0.1501367688179016
1769667642316472000,6.59547216796875,0.44535377621650696,0.8869513869285583,-0.2827049195766449
1769667642326461200,6.605461181640625,0.38484621047973633,1.1080944538116455,-0.3489907383918762
1769667642336450000,6.615449951171875,0.32250481843948364,1.1690387725830078,-0.3549165427684784
1769667642346438100,6.625438232421875,0.2709745168685913,1.215566635131836,-0.3156769871711731
1769667642356427300,6.63542724609375,0.2640409767627716,1.2345492839813232,-0.26433098316192627
1769667642366415400,6.645415283203125,0.2591221034526825,1.161121129989624,-0.19791202247142792
1769667642376404000,6.655404052734375,0.25457796454429626,1.2544529438018799,-0.2108674943447113
1769667642386393000,6.66539306640625,0.22946222126483917,1.4395325183868408,-0.3377159833908081
1769667642396381200,6.675381103515625,0.18650463223457336,1.5013834238052368,-0.5061750411987305
1769667642406370000,6.6853701171875,0.12700481712818146,1.4683187007904053,-0.5306915640830994
1769667642416359200,6.695359130859375,0.07824047654867172,1.3208264112472534,-0.48840564489364624
1769667642426347300,6.70534716796875,0.0311102494597435,0.9081677794456482,-0.3667692244052887
1769667642436336000,6.715336181640625,0.002787530655041337,0.5895695090293884,-0.09630869328975677
1769667642446325000,6.725324951171875,-0.00743155088275671,0.36819106340408325,0.15235784649848938
1769667642456313000,6.73531298828125,-0.028961077332496643,0.20392197370529175,0.3079807162284851
1769667642466302200,6.74530224609375,-0.02851872704923153,0.0959789901971817,0.32397568225860596
1769667642476290300,6.755290283203125,-0.009343966841697693,0.02207574062049389,0.14170201122760773
1769667642486279200,6.765279052734375,0.01967543363571167,0.04173732548952103,0.01407533884048462
1769667642496268300,6.775268310546875,0.05399452522397041,0.07245529443025589,0.041368212550878525
1769667642506256100,6.785256103515625,0.08772718906402588,-0.05296121910214424,0.09948131442070007
1769667642516245200,6.795245361328125,0.11811146140098572,-0.08321419358253479,0.09965628385543823
1769667642526234000,6.805234130859375,0.1136954054236412,-0.1914282888174057,0.15926554799079895
1769667642536222200,6.81522216796875,0.08778444677591324,-0.2612238824367523,0.2758505046367645
1769667642546211300,6.82521142578125,0.06227216124534607,-0.3722689151763916,0.32510992884635925
1769667642556200200,6.8352001953125,0.06379628926515579,-0.4165956377983093,0.21353279054164886
1769667642566188000,6.84518798828125,0.11555109918117523,-0.15406173467636108,0.13245178759098053
1769667642576177200,6.85517724609375,0.1286056488752365,-0.2683137357234955,0.16897836327552795
1769667642586165200,6.865165283203125,0.1401461809873581,-0.31104177236557007,0.1817231923341751
1769667642596154000,6.875154052734375,0.1427433043718338,-0.39886775612831116,0.14746321737766266
1769667642606143200,6.885143310546875,0.15549957752227783,-0.47146525979042053,0.09155654907226562
1769667642616131000,6.895131103515625,0.1524486541748047,-0.4833104610443115,0.08934266120195389
1769667642626120200,6.9051201171875,0.14968882501125336,-0.4477894902229309,0.1157311275601387
1769667642636109000,6.915109130859375,0.1430937796831131,-0.43745508790016174,0.09446791559457779
1769667642646097200,6.92509716796875,0.17138347029685974,-0.4193991422653198,0.05844892933964729
1769667642656086300,6.935086181640625,0.24112260341644287,-0.3637901842594147,-0.0011507519520819187
1769667642666075100,6.9450751953125,0.31366151571273804,-0.3308165371417999,-0.0893317461013794
1769667642676063000,6.95506298828125,0.37555578351020813,-0.2513675093650818,-0.16212019324302673
1769667642686052000,6.965052001953125,0.4154432713985443,-0.2466537207365036,-0.1973562091588974
1769667642696041200,6.975041259765625,0.44266822934150696,-0.2738291621208191,-0.17651565372943878
1769667642706029000,6.985029052734375,0.4834819734096527,-0.3106271028518677,-0.14813832938671112
1769667642716018200,6.99501806640625,0.49378201365470886,-0.3582625389099121,-0.11600596457719803
1769667642726006300,7.00500634765625,0.424806147813797,-0.3930117189884186,-0.05167225003242493
1769667642735995100,7.0149951171875,0.34883496165275574,-0.43668225407600403,0.0033127060160040855
1769667642745984000,7.02498388671875,0.2478068768978119,-0.43945086002349854,0.048765409737825394
1769667642755972000,7.03497216796875,0.1755630373954773,-0.44879111647605896,0.06809942424297333
1769667642765961200,7.044961181640625,0.11687708646059036,-0.39696812629699707,0.061527278274297714
1769667642775950000,7.0549501953125,0.08813624829053879,-0.3577924966812134,0.0682339146733284
1769667642785938200,7.064938232421875,0.06535343825817108,-0.34493422508239746,0.09597499668598175
1769667642795927000,7.074927001953125,0.07802342623472214,-0.374186635017395,0.08041813969612122
1769667642805916200,7.084916259765625,0.06476195156574249,-0.2827017307281494,0.07173703610897064
1769667642815904300,7.094904296875,0.09016744047403336,-0.3268737196922302,0.03429245948791504
1769667642825893000,7.10489306640625,0.08575139194726944,-0.22053822875022888,0.009533850476145744
1769667642835881200,7.114881103515625,0.11066100001335144,-0.26599574089050293,-0.011393535882234573
1769667642845870300,7.124870361328125,0.07615841925144196,-0.25236326456069946,-0.017906827852129936
1769667642855859000,7.13485888671875,0.0890238806605339,-0.25375503301620483,-0.009712016209959984
1769667642865847000,7.144846923828125,0.08577216416597366,-0.22659586369991302,-0.012250008061528206
1769667642875836200,7.154836181640625,0.06845788657665253,-0.21327099204063416,-0.029832197353243828
1769667642885825300,7.1648251953125,0.04881094768643379,-0.1671711504459381,-0.04500076547265053
1769667642895813000,7.174813232421875,0.061470285058021545,-0.16355536878108978,-0.06568659842014313
1769667642905802200,7.18480224609375,0.07429313659667969,-0.1780666708946228,-0.09064415097236633
1769667642915791400,7.194791259765625,0.04283161833882332,-0.010906975716352463,-0.07202758640050888
1769667642925779200,7.204779296875,0.020978251472115517,0.004354001954197884,-0.07659251242876053
1769667642935768000,7.21476806640625,0.009814547374844551,0.046422358602285385,-0.09831671416759491
1769667642945757200,7.224757080078125,0.010466755367815495,0.04811985790729523,-0.11939883232116699
1769667642955745300,7.234745361328125,0.012383964844048023,0.0550515353679657,-0.12550732493400574
1769667642965734100,7.244734130859375,0.01350488979369402,0.062439143657684326,-0.13468751311302185
1769667642975722000,7.254721923828125,0.014740330167114735,0.07843728363513947,-0.13515356183052063
1769667642985711000,7.264711181640625,0.0130907678976655,0.0758976936340332,-0.12231605499982834
1769667642995700200,7.2747001953125,0.01642797514796257,0.06591882556676865,-0.10874885320663452
1769667643005688000,7.28468798828125,0.016390424221754074,0.07376503199338913,-0.10495784133672714
1769667643015677200,7.29467724609375,0.008771919645369053,0.0995636060833931,-0.1119782030582428
1769667643025666300,7.304666259765625,0.009604424238204956,0.09681575745344162,-0.10943727940320969
1769667643035654100,7.314654052734375,0.01338451448827982,0.10670354217290878,-0.11631089448928833
1769667643045643000,7.32464306640625,0.01011095754802227,0.1039370521903038,-0.13618633151054382
1769667643055632100,7.334632080078125,0.016519587486982346,0.10221691429615021,-0.15796007215976715
1769667643065620200,7.3446201171875,0.017975006252527237,0.0989241823554039,-0.16590560972690582
1769667643075609000,7.354609130859375,0.023526631295681,0.08833039551973343,-0.15825621783733368
1769667643085598200,7.36459814453125,0.02605903148651123,0.07734671980142593,-0.14062263071537018
1769667643095587300,7.37458740234375,0.03219282254576683,0.059550411999225616,-0.12607324123382568
1769667643105576200,7.384576171875,0.03440111503005028,0.042823631316423416,-0.10323397815227509
1769667643115564300,7.394564208984375,0.03809358924627304,0.030167756602168083,-0.08703289926052094
1769667643125553400,7.404553466796875,0.0432681106030941,0.021768944337964058,-0.07724685221910477
1769667643135542300,7.414542236328125,0.05459373816847801,-0.002499909373000264,-0.06575983762741089
1769667643145530000,7.424530029296875,0.07468089461326599,-0.04373709484934807,-0.04174771159887314
1769667643155519200,7.434519287109375,0.0988307073712349,-0.07414906471967697,-0.02593253180384636
1769667643165508400,7.44450830078125,0.1368902027606964,-0.07432456314563751,-0.025362614542245865
1769667643175496400,7.454496337890625,0.15470808744430542,-0.10755335539579391,-0.03887682408094406
1769667643185485300,7.4644853515625,0.1684824824333191,-0.11039654910564423,-0.031736359000205994
1769667643195474400,7.474474365234375,0.17393051087856293,-0.18087470531463623,-0.025532525032758713
1769667643205462300,7.484462158203125,0.19156703352928162,-0.1849786341190338,-0.04131974279880524
1769667643215451100,7.494451171875,0.24242143332958221,-0.16180939972400665,-0.10798745602369308
1769667643225439200,7.504439208984375,0.3386811316013336,-0.3446870744228363,-0.2933541238307953
1769667643235428400,7.514428466796875,0.24291996657848358,-0.31177759170532227,-0.2524748742580414
1769667643245417500,7.52441748046875,0.21518553793430328,-0.26481354236602783,-0.12607963383197784
1769667643255405300,7.5344052734375,0.2215057611465454,-0.32580259442329407,-0.21154554188251495
1769667643265394200,7.544394287109375,0.27375298738479614,-0.3136487305164337,-0.27577245235443115
1769667643275383300,7.55438330078125,0.16701269149780273,-0.29663485288619995,-0.18286675214767456
1769667643285371400,7.564371337890625,0.17250439524650574,-0.27339959144592285,-0.13763083517551422
1769667643295360300,7.5743603515625,0.18208138644695282,-0.2650657594203949,-0.12627458572387695
1769667643305349400,7.584349365234375,0.13910089433193207,-0.2473227083683014,-0.10552669316530228
1769667643315337200,7.594337158203125,0.1448109745979309,-0.18973930180072784,-0.10244674980640411
1769667643325326000,7.604326171875,0.1620381772518158,-0.19536364078521729,-0.09748128056526184
1769667643335314200,7.614314208984375,0.14974021911621094,-0.17480936646461487,-0.09322261810302734
1769667643345303300,7.62430322265625,0.1227906346321106,-0.19088207185268402,-0.07706815004348755
1769667643355292400,7.63429248046875,0.12717659771442413,-0.15431366860866547,-0.07063768059015274
1769667643365280500,7.644280517578125,0.1323135644197464,-0.12552224099636078,-0.05317587032914162
1769667643375269000,7.65426904296875,0.12782055139541626,-0.11978232860565186,-0.05453141778707504
1769667643385258200,7.66425830078125,0.10943674296140671,-0.14484374225139618,-0.05764145776629448
1769667643395246300,7.674246337890625,0.1080487072467804,-0.12624076008796692,-0.048898033797740936
1769667643405235200,7.684235107421875,0.09519549459218979,-0.10714562982320786,-0.0501883365213871
1769667643415224300,7.694224365234375,0.08130470663309097,-0.11169058084487915,-0.06012964993715286
1769667643425212400,7.70421240234375,0.05387122184038162,-0.09459467977285385,-0.05289383977651596
1769667643435201300,7.714201171875,0.04133731871843338,-0.07358554005622864,-0.061711035668849945
1769667643445190100,7.724190185546875,0.03895192593336105,-0.061095044016838074,-0.0674394965171814
1769667643455178200,7.73417822265625,0.04013969749212265,-0.06471694260835648,-0.06543972343206406
1769667643465167400,7.74416748046875,0.03494653105735779,-0.055563926696777344,-0.06119837611913681
1769667643475155500,7.754155517578125,0.03669729456305504,-0.020445620641112328,-0.05666327849030495
1769667643485144300,7.764144287109375,0.03497316315770149,-0.03169374540448189,-0.056952230632305145
1769667643495133400,7.774133544921875,0.03171185776591301,-0.015862053260207176,-0.06291158497333527
1769667643505121300,7.784121337890625,0.03458807244896889,-0.011565576307475567,-0.05620415136218071
1769667643515110100,7.794110107421875,0.0344405323266983,-0.011865980923175812,-0.047620780766010284
1769667643525099300,7.804099365234375,0.04024462401866913,-0.004761998075991869,-0.04091227799654007
1769667643535087400,7.81408740234375,0.05110419541597366,-0.0009302421822212636,-0.04267023131251335
1769667643545076500,7.824076416015625,0.061403438448905945,0.02257108874619007,-0.024993233382701874
1769667643555065300,7.8340654296875,0.08085809648036957,0.039145536720752716,-0.014081197790801525
1769667643565053200,7.84405322265625,0.1029634028673172,0.03217817470431328,-0.023193735629320145
1769667643575042300,7.854042236328125,0.09799260646104813,0.03334064781665802,-0.013863883912563324
1769667643585030400,7.864030517578125,0.1372143179178238,0.0049066077917814255,-0.009130381047725677
1769667643595019300,7.874019287109375,0.16053028404712677,-0.03711168095469475,-0.004821919370442629
1769667643605008400,7.88400830078125,0.17725227773189545,-0.01278503704816103,-0.00475507415831089
1769667643614996200,7.893996337890625,0.16829180717468262,-0.04430914297699928,-0.01053226925432682
1769667643624985300,7.9039853515625,0.20831725001335144,-0.008154066279530525,0.017222397029399872
1769667643634974200,7.91397412109375,0.2105468511581421,-0.005545500200241804,0.03187830373644829
1769667643644962300,7.92396240234375,0.24963593482971191,0.011619904078543186,0.04929937422275543
1769667643654951400,7.933951416015625,0.2543622553348541,-0.03212997317314148,0.04921388626098633
1769667643664940300,7.943940185546875,0.27646514773368835,0.019046928733587265,0.0699058473110199
1769667643674928000,7.95392822265625,0.27816611528396606,0.04502153769135475,0.07021664083003998
1769667643684917200,7.963917236328125,0.26535895466804504,0.016395485028624535,0.05167411267757416
1769667643694906000,7.973906005859375,0.2717561423778534,-0.00010626012954162434,0.05194788798689842
1769667643704894200,7.983894287109375,0.2572275400161743,-0.03223703056573868,0.02924097515642643
1769667643714883300,7.99388330078125,0.2470119148492813,-0.052798233926296234,0.0441589392721653
1769667643724871400,8.003871337890626,0.2767642140388489,-0.05505313351750374,0.06036427244544029
1769667643734860300,8.0138603515625,0.29385265707969666,-0.04763862490653992,0.0636783093214035
1769667643744849200,8.02384912109375,0.31261035799980164,-0.04665139317512512,0.08363284170627594
1769667643754837200,8.033837158203125,0.31671881675720215,-0.056179117411375046,0.09168197959661484
1769667643764826400,8.043826416015625,0.3359135687351227,-0.0031353395897895098,0.10363185405731201
1769667643774815200,8.053815185546876,0.315270334482193,-0.051421113312244415,0.10283583402633667
1769667643784803300,8.06380322265625,0.34765276312828064,0.00788295641541481,0.1168680265545845
1769667643794792200,8.073792236328124,0.3358437716960907,0.015198926441371441,0.13904497027397156
1769667643804780300,8.0837802734375,0.3535580635070801,-0.00216594897210598,0.11508983373641968
1769667643814769200,8.09376904296875,0.37672942876815796,-0.016168849542737007,0.0919717326760292
1769667643824758300,8.10375830078125,0.33071187138557434,-0.030764037743210793,0.08902015537023544
1769667643834746400,8.113746337890625,0.3968283236026764,-0.05228344351053238,0.09133337438106537
1769667643844735500,8.123735595703126,0.4165940284729004,-0.03092196397483349,0.09050247073173523
1769667643854724000,8.13372412109375,0.46446406841278076,-0.08151216804981232,0.0660993903875351
1769667643864712200,8.143712158203124,0.5103293061256409,-0.03640700876712799,0.03748159483075142
1769667643874701300,8.153701416015625,0.551646888256073,0.08957649022340775,0.014850851148366928
1769667643884690200,8.163690185546875,0.5947152972221375,0.17583760619163513,-0.04616323485970497
1769667643894678300,8.17367822265625,0.5842922329902649,0.22435933351516724,-0.08104851096868515
1769667643904667400,8.18366748046875,0.5754926204681396,0.1675620973110199,-0.10475357621908188
1769667643914656500,8.193656494140624,0.5671159029006958,0.06151555851101875,-0.12043293565511703
1769667643924644400,8.203644287109375,0.589524507522583,0.024504544213414192,-0.13785827159881592
1769667643934633200,8.21363330078125,0.627989649772644,0.004817125853151083,-0.11453643441200256
1769667643944621300,8.223621337890625,0.6726990342140198,0.029322203248739243,-0.05747554451227188
1769667643954610400,8.2336103515625,0.6847498416900635,0.03612231835722923,-0.011183678172528744
1769667643964599300,8.243599365234376,0.7013520002365112,-0.0711711123585701,-0.05279130861163139
1769667643974587100,8.253587158203125,0.7100605368614197,-0.07897497713565826,-0.12493261694908142
1769667643984576300,8.263576171875,0.751358687877655,-0.024649953469634056,-0.1542963683605194
1769667643994565400,8.2735654296875,0.778322160243988,0.0009382316493429244,-0.1558966487646103
1769667644004553200,8.28355322265625,0.7980276942253113,-0.020551348105072975,-0.06582961231470108
1769667644014542300,8.293542236328125,0.7647700905799866,-0.1590636819601059,0.0104752779006958
1769667644024531500,8.303531494140625,0.7363203763961792,-0.2691236138343811,0.017001353204250336
1769667644034519300,8.313519287109376,0.7239118814468384,-0.24138785898685455,-0.020604077726602554
1769667644044508200,8.323508056640625,0.771156907081604,-0.1803111881017685,-0.05904574319720268
1769667644054497300,8.333497314453124,0.8198629021644592,-0.11799774318933487,-0.12276506423950195
1769667644064485400,8.3434853515625,0.8723631501197815,-0.1470554918050766,-0.1815767139196396
1769667644074474200,8.35347412109375,0.8981723785400391,-0.18657547235488892,-0.21386408805847168
1769667644084461600,8.363461669921875,0.8713114857673645,-0.13974379003047943,-0.22229991853237152
1769667644094450400,8.373450439453125,0.8225052952766418,-0.049545448273420334,-0.17849624156951904
1769667644104439600,8.383439453125,0.7752848267555237,-0.10498740524053574,-0.10872967541217804
1769667644114427400,8.393427490234375,0.7755916118621826,-0.20306603610515594,-0.04784475266933441
1769667644124416300,8.403416259765624,0.7563643455505371,-0.21493308246135712,0.031807199120521545
1769667644134405400,8.4134052734375,0.7391342520713806,-0.1718955934047699,0.07432136684656143
1769667644144393500,8.4233935546875,0.7628182768821716,-0.16538789868354797,0.061476677656173706
1769667644154382600,8.433382568359375,0.7717974185943604,0.03127430006861687,0.019778497517108917
1769667644164371500,8.443371337890625,0.7985458970069885,0.29669877886772156,-0.031076958402991295
1769667644174359300,8.453359375,0.7946428060531616,0.4392905533313751,0.003656520042568445
1769667644184348400,8.463348388671875,0.7900730967521667,0.37033119797706604,0.08046208322048187
1769667644194336500,8.47333642578125,0.7675619125366211,0.2501333951950073,0.10777493566274643
1769667644204325400,8.483325439453125,0.7232482433319092,0.13289733231067657,0.0816570445895195
1769667644214314500,8.493314453125,0.7236948609352112,-0.17196936905384064,-0.022370819002389908
1769667644224302300,8.50330224609375,0.7482907176017761,-0.5049009919166565,-0.19495616853237152
1769667644234291200,8.513291259765625,0.8012985587120056,-0.14234542846679688,-0.24202674627304077
1769667644244280300,8.5232802734375,0.8087852597236633,0.5360679626464844,-0.10419910401105881
1769667644254268400,8.533268310546875,0.8176565170288086,0.7627447843551636,0.0908484160900116
1769667644264257500,8.543257568359374,0.9110085368156433,0.7741639018058777,0.18605774641036987
1769667644274246400,8.553246337890625,0.969612181186676,0.6788144707679749,0.26890069246292114
1769667644284234500,8.563234375,0.958407461643219,0.6304064393043518,0.31376057863235474
1769667644294223400,8.573223388671876,0.9511697888374329,0.6883198022842407,0.23440851271152496
1769667644304212200,8.583212158203125,0.8672983646392822,0.7099121809005737,0.11884809285402298
1769667644314200300,8.593200439453126,0.8036602735519409,0.6802648305892944,0.05498948320746422
1769667644324189400,8.603189453125,0.7429566979408264,0.7395678162574768,0.061165619641542435
1769667644334177500,8.613177490234374,0.7046290040016174,0.6109192967414856,0.14163382351398468
1769667644344166400,8.62316650390625,0.6119012236595154,0.4080204963684082,0.29359620809555054
1769667644354155300,8.6331552734375,0.5258275866508484,0.5810737609863281,0.3382438123226166
1769667644364143400,8.643143310546876,0.4691661596298218,0.7743393778800964,0.2423418015241623
1769667644374132500,8.653132568359375,0.4394998848438263,0.8285272717475891,0.15570251643657684
1769667644384121300,8.663121337890624,0.3815478980541229,0.8554531335830688,0.06554412096738815
1769667644394109400,8.673109375,0.3227732479572296,0.7266687750816345,0.1082545667886734
1769667644404098600,8.6830986328125,0.25567251443862915,0.5017685890197754,0.16358919441699982
1769667644414087200,8.693087158203125,0.18412749469280243,0.43311840295791626,0.1843099147081375
1769667644424075300,8.7030751953125,0.14767281711101532,0.4394005239009857,0.16003307700157166
1769667644434064400,8.713064453125,0.18862876296043396,0.49051806330680847,0.14683152735233307
1769667644444052500,8.723052490234375,0.24314634501934052,0.5696104764938354,0.0747956782579422
1769667644454041600,8.73304150390625,0.2487184703350067,0.5765578746795654,-0.0655534416437149
1769667644464030500,8.743030517578125,0.313213050365448,0.5304497480392456,-0.13883937895298004
1769667644474018300,8.753018310546874,0.3020615875720978,0.5453269481658936,-0.18540607392787933
1769667644484007400,8.76300732421875,0.2919461131095886,0.4661429226398468,-0.2950928807258606
1769667644493996300,8.772996337890625,0.28546449542045593,0.5130574703216553,-0.36361655592918396
1769667644503984400,8.782984375,0.2627309560775757,0.7583478689193726,-0.4369525611400604
1769667644513973500,8.792973388671875,0.19274814426898956,0.636073112487793,-0.46059557795524597
1769667644523962600,8.802962646484374,0.12923601269721985,0.4469223618507385,-0.40082037448883057
1769667644533950200,8.8129501953125,0.12236133217811584,0.2652609646320343,-0.38030633330345154
1769667644543939300,8.822939208984375,0.14034779369831085,0.04352058097720146,-0.4021383821964264
1769667644553928400,8.832928466796876,0.2102336585521698,-0.16362221539020538,-0.492948442697525
1769667644563916500,8.84291650390625,0.5999388098716736,-0.26129844784736633,-0.54006427526474
1769667644573905400,8.852905517578124,0.8167747259140015,-0.20329692959785461,-0.48974332213401794
1769667644583893200,8.862893310546875,0.9598818421363831,-0.03879266977310181,-0.424243688583374
1769667644593882400,8.87288232421875,0.9434309601783752,0.012191684916615486,-0.4668841063976288
1769667644603871200,8.882871337890625,0.8129962086677551,0.2838146686553955,-0.574880063533783
1769667644613859300,8.892859375,0.7701667547225952,0.5721503496170044,-0.7315424084663391
1769667644623848400,8.902848388671876,0.805000901222229,0.40996700525283813,-0.8969326615333557
1769667644633837600,8.912837646484375,0.8687958717346191,0.4238058626651764,-1.1070337295532227
1769667644643825400,8.922825439453124,0.9801985621452332,1.0324686765670776,-1.332943320274353
1769667644653814300,8.932814208984375,1.0414570569992065,1.6044310331344604,-1.2939289808273315
1769667644663803400,8.942803466796875,1.0602004528045654,1.4999101161956787,-1.1124553680419922
1769667644673791500,8.95279150390625,1.0858850479125977,1.0842410326004028,-0.7550551891326904
1769667644683780400,8.9627802734375,1.020116925239563,0.6711549162864685,-0.3267994225025177
1769667644693768400,8.9727685546875,0.8711823225021362,0.02480068802833557,-0.07770758122205734
1769667644703757600,8.982757568359375,0.8487355709075928,-0.1466195285320282,0.035293277353048325
1769667644713746400,8.992746337890624,0.8238914608955383,0.10016574710607529,-0.10217909514904022
1769667644723734300,9.002734375,0.8441946506500244,0.20597660541534424,-0.33425280451774597
1769667644733723400,9.012723388671875,0.8580055236816406,0.38438576459884644,-0.40305984020233154
1769667644743712500,9.02271240234375,0.77048659324646,0.48331019282341003,-0.30774930119514465
1769667644753700600,9.03270068359375,0.6216222643852234,0.45788368582725525,-0.2005022019147873
1769667644763689500,9.042689453125,0.41820603609085083,0.3634740710258484,-0.08303629606962204
1769667644773678300,9.05267822265625,0.21853527426719666,0.32134127616882324,-0.017602961510419846
1769667644783666400,9.06266650390625,0.04137859866023064,-0.0976400077342987,0.008714928291738033
1769667644793655300,9.0726552734375,-0.023732759058475494,-0.2490047663450241,-0.06776093691587448
1769667644803644400,9.08264453125,-0.13228453695774078,-0.0521276481449604,-0.10740289092063904
1769667644813632500,9.092632568359376,-0.12075012177228928,0.1819295883178711,-0.0799076184630394
1769667644823621600,9.10262158203125,-0.07189203053712845,0.2852679491043091,-0.07659970223903656
1769667644833609200,9.112609130859376,0.025486717000603676,0.3366855978965759,-0.13886919617652893
1769667644843598300,9.122598388671875,0.097150519490242,0.37395602464675903,-0.14999429881572723
1769667644853587500,9.13258740234375,0.062423694878816605,0.19499371945858002,-0.08513087034225464
1769667644863575600,9.142575439453125,0.06526901572942734,0.09726210683584213,-0.024408137425780296
1769667644873564400,9.152564453125,0.0028418591246008873,0.13501454889774323,-0.008293616585433483
1769667644883553500,9.162553466796876,-0.007737814448773861,0.16416683793067932,-0.0032629049383103848
1769667644893541400,9.172541259765625,-0.010277404449880123,0.1189679354429245,0.032081238925457
1769667644903530200,9.1825302734375,-0.018143849447369576,0.06358803063631058,0.09705384820699692
1769667644913519400,9.192519287109375,-0.055508799850940704,-0.028192223981022835,0.14850105345249176
1769667644923507500,9.202507568359374,-0.09996414929628372,-0.10728597640991211,0.16305522620677948
1769667644933496600,9.21249658203125,-0.1278993785381317,-0.136076882481575,0.17639926075935364
1769667644943484400,9.222484375,-0.10331813246011734,-0.20984138548374176,0.2116137146949768
1769667644953473300,9.232473388671876,-0.07185608148574829,-0.29015564918518066,0.2504042387008667
1769667644963462400,9.24246240234375,-0.01823040284216404,-0.3122958540916443,0.24834243953227997
1769667644973450500,9.252450439453124,0.005745237227529287,-0.41932031512260437,0.2553233802318573
1769667644983439400,9.262439453125,0.0008277104352600873,-0.4686470925807953,0.2654132843017578
1769667644993428500,9.272428466796875,0.016082031652331352,-0.4474741816520691,0.2732278108596802
1769667645003416300,9.282416259765625,0.03658410906791687,-0.38914188742637634,0.2727004885673523
1769667645013405400,9.292405517578125,0.0379875972867012,-0.3279251456260681,0.26139432191848755
1769667645023394300,9.302394287109376,0.03281493857502937,-0.2857784926891327,0.21768519282341003
1769667645033382400,9.31238232421875,0.02604864537715912,-0.24944818019866943,0.1920144408941269
1769667645043371500,9.32237158203125,0.009411611594259739,-0.2948864996433258,0.20653480291366577
1769667645053359600,9.332359619140625,-0.013538711704313755,-0.3658083379268646,0.2108624428510666
1769667645063348200,9.34234814453125,-0.08196677267551422,-0.58855140209198,0.22909177839756012
1769667645073337300,9.35233740234375,-0.08615459501743317,-0.446888267993927,0.2025427222251892
1769667645083325700,9.36232568359375,-0.07291388511657715,-0.31780779361724854,0.10459937900304794
1769667645093314600,9.372314453125,-0.14866910874843597,-0.32279935479164124,0.11490315198898315
1769667645103303700,9.3823037109375,-0.16306082904338837,-0.405265212059021,0.18796856701374054
1769667645113291800,9.392291748046874,-0.11682435125112534,-0.3563064634799957,0.15445801615715027
1769667645123280600,9.40228076171875,-0.07121798396110535,-0.2447519600391388,0.06688129901885986
1769667645133269800,9.412269775390625,-0.051047470420598984,-0.12090405076742172,0.004233360756188631
1769667645143257600,9.422257568359376,-0.04259566217660904,-0.03518941253423691,-0.003614442190155387
1769667645153246700,9.432246826171875,-0.033913757652044296,-0.027760790660977364,0.015320898965001106
1769667645163235600,9.442235595703124,-0.030252443626523018,-0.025645708665251732,0.009165801107883453
1769667645173223700,9.4522236328125,-0.03003539703786373,-0.044972002506256104,0.010131996124982834
1769667645183212800,9.462212890625,-0.03002048283815384,-0.07227765768766403,0.0003382214636076242
1769667645193200600,9.47220068359375,-0.02743135765194893,-0.08594686537981033,-0.0038219024427235126
1769667645203189500,9.482189453125,-0.030122216790914536,-0.10510511696338654,0.0007504787645302713
1769667645213178600,9.4921787109375,-0.04171469062566757,-0.11364933103322983,0.012427907437086105
1769667645223166700,9.502166748046875,-0.07193570584058762,-0.09235522896051407,0.03003752790391445
1769667645233155800,9.51215576171875,-0.11355132609605789,-0.1742333173751831,0.07814619690179825
1769667645243144700,9.522144775390625,-0.09613585472106934,-0.14285649359226227,0.0318138562142849
1769667645253132800,9.5321328125,-0.09707781672477722,-0.1422724574804306,-0.016761669889092445
1769667645263121700,9.54212158203125,-0.09894309192895889,-0.12753905355930328,-0.04524470865726471
1769667645273110500,9.552110595703125,-0.06556782126426697,-0.03708957880735397,-0.06350147724151611
1769667645283098600,9.5620986328125,-0.05361475795507431,-0.014931545592844486,-0.06521522253751755
1769667645293087700,9.572087646484375,-0.04477040097117424,-0.03513268753886223,-0.05770750343799591
1769667645303075800,9.582075927734374,-0.04075781628489494,-0.04418344050645828,-0.05572770908474922
1769667645313064700,9.592064697265625,-0.06459470838308334,-0.02034868113696575,-0.027694744989275932
1769667645323053600,9.602053466796875,-0.1309468299150467,-0.0022828616201877594,-0.00461765518411994
1769667645333041700,9.612041748046876,-0.23251047730445862,-0.0566377118229866,0.019026421010494232
1769667645343030800,9.62203076171875,-0.2449389100074768,-0.033076461404561996,0.04295199364423752
1769667645353019600,9.63201953125,-0.2383129745721817,0.0660189613699913,0.07499168813228607
1769667645363007700,9.6420078125,-0.289154052734375,-0.020136160776019096,0.0920305922627449
1769667645372996900,9.651996826171874,-0.32206058502197266,-0.05974002927541733,0.11647281795740128
1769667645382985500,9.6619853515625,-0.26157861948013306,0.04549291729927063,0.1477886587381363
1769667645392973600,9.6719736328125,-0.2968609631061554,-0.07832755893468857,0.14913807809352875
1769667645402962700,9.681962646484376,-0.3526880145072937,-0.18115593492984772,0.1749901920557022
1769667645412951800,9.691951904296875,-0.40817975997924805,-0.15492939949035645,0.18376344442367554
1769667645422940000,9.70193994140625,-0.41777753829956055,-0.1967301070690155,0.14046363532543182
1769667645432928800,9.7119287109375,-0.4332132041454315,-0.11086579412221909,0.10683909803628922
1769667645442917600,9.721917724609375,-0.4567696750164032,-0.23159834742546082,0.11350739002227783
1769667645452905700,9.73190576171875,-0.5052930116653442,-0.24028371274471283,0.11833516508340836
1769667645462894600,9.74189453125,-0.5858299136161804,-0.21075217425823212,0.11053849756717682
1769667645472882700,9.751882568359376,-0.6013984680175781,-0.1926506757736206,0.15052159130573273
1769667645482871800,9.761871826171875,-0.6353527307510376,-0.16896745562553406,0.19883719086647034
1769667645492860700,9.771860595703124,-0.6238031387329102,-0.19333617389202118,0.22776898741722107
1769667645502848500,9.7818486328125,-0.700846791267395,-0.1657615303993225,0.20049741864204407
1769667645512837600,9.791837646484375,-0.7153168320655823,-0.19177502393722534,0.23903708159923553
1769667645522826800,9.80182666015625,-0.7499397397041321,-0.21098972856998444,0.1982763409614563
1769667645532814800,9.81181494140625,-0.8274587988853455,-0.15408703684806824,0.17700940370559692
1769667645542803700,9.8218037109375,-0.9046553373336792,-0.0805470421910286,0.14498116075992584
1769667645552792800,9.831792724609375,-0.9425736665725708,-0.03375636413693428,0.14708398282527924
1769667645562780700,9.84178076171875,-0.9652153253555298,-0.15183080732822418,0.1732863038778305
1769667645572769500,9.85176953125,-0.9939095377922058,-0.2764284014701843,0.22415266931056976
1769667645582757600,9.861757568359375,-1.0384645462036133,-0.41722333431243896,0.2726981043815613
1769667645592746800,9.871746826171876,-1.022809624671936,-0.3579600155353546,0.2534988522529602
1769667645602735900,9.88173583984375,-1.016369104385376,-0.15087473392486572,0.21572670340538025
1769667645612723700,9.8917236328125,-1.030960202217102,-0.05937730520963669,0.23025371134281158
1769667645622712600,9.901712646484375,-1.0513163805007935,-0.07878722250461578,0.2180391252040863
1769667645632701700,9.91170166015625,-1.0693542957305908,-0.14718332886695862,0.17050382494926453
1769667645642689800,9.921689697265625,-1.1379817724227905,-0.20675504207611084,0.16732826828956604
1769667645652678700,9.9316787109375,-1.1949950456619263,-0.16965320706367493,0.1756727546453476
1769667645662667800,9.941667724609376,-1.2048600912094116,-0.21572670340538025,0.1211400032043457
1769667645672655600,9.951655517578125,-1.2235963344573975,-0.29517093300819397,0.06329668313264847
1769667645682644500,9.96164453125,-1.158111572265625,-0.28323009610176086,0.013806626200675964
1769667645692633600,9.971633544921875,-1.0847846269607544,-0.22714713215827942,0.03189987689256668
1769667645702621700,9.98162158203125,-1.0640792846679688,-0.1494845598936081,0.011973039247095585
1769667645712610800,9.99161083984375,-0.9972864389419556,-0.101532481610775,-0.03357979655265808
1769667645722599000,10.001598876953125,-1.0323294401168823,-0.0075548551976680756,0.01896144077181816
1769667645732587800,10.011587890625,-1.074967384338379,-0.021935924887657166,0.08451568335294724
1769667645742576600,10.02157666015625,-1.0692429542541504,0.004632302559912205,0.16540707647800446
1769667645752564700,10.031564697265624,-1.0383234024047852,-0.022062158212065697,0.2175656110048294
1769667645762553600,10.0415537109375,-1.0108451843261719,-0.07944795489311218,0.20909994840621948
1769667645772542700,10.051542724609375,-0.9683152437210083,0.05119261518120766,0.14277419447898865
1769667645782530800,10.06153076171875,-0.8863090872764587,0.21251413226127625,0.033659424632787704
1769667645792519700,10.071519775390625,-0.7528157234191895,0.21302731335163116,0.004193147178739309
1769667645802508500,10.081508544921874,-0.6916279792785645,0.14625334739685059,0.0631781667470932
1769667645812496600,10.09149658203125,-0.6439800262451172,0.1445918083190918,0.06198401004076004
1769667645822485800,10.10148583984375,-0.5698314905166626,0.16635249555110931,0.03467382490634918
1769667645832474600,10.111474609375,-0.5039790272712708,0.11719240248203278,0.060387976467609406
1769667645842462700,10.121462646484375,-0.4800238609313965,0.11823663115501404,0.07553177326917648
1769667645852451800,10.131451904296876,-0.4462270140647888,0.07351869344711304,0.07058388739824295
1769667645862439700,10.141439697265625,-0.39605626463890076,0.039384424686431885,0.08630692213773727
1769667645872428500,10.151428466796874,-0.3587014377117157,0.0890132263302803,0.07916219532489777
1769667645882417700,10.161417724609375,-0.30396175384521484,0.10588648170232773,0.07952705025672913
1769667645892405800,10.17140576171875,-0.27806755900382996,0.10315647721290588,0.0668189749121666
1769667645902395000,10.181394775390626,-0.20345032215118408,0.17557981610298157,0.0387982614338398
1769667645912383700,10.1913837890625,-0.15026406943798065,0.12948475778102875,0.029500367119908333
1769667645922371600,10.20137158203125,-0.08505763858556747,0.16768886148929596,0.002094309777021408
1769667645932360700,10.211360595703125,-0.006222475785762072,0.16039952635765076,-0.023869380354881287
1769667645942349600,10.221349609375,0.009753028862178326,0.06010248512029648,0.0046783750876784325
1769667645952337700,10.231337646484375,0.013377058319747448,-0.01549214031547308,0.04446147382259369
1769667645962326800,10.241326904296875,0.018816297873854637,-0.0335792638361454,0.06235259026288986
1769667645972316000,10.25131591796875,0.013866281136870384,-0.08536283671855927,0.0671718493103981
1769667645982303700,10.2613037109375,0.014753379859030247,-0.05505552887916565,0.0656471848487854
1769667645992292600,10.271292724609374,0.00806218758225441,-0.05294257774949074,0.07467317581176758
1769667646002280700,10.28128076171875,0.00914183259010315,-0.07842236757278442,0.05922017991542816
1769667646012269800,10.291269775390624,0.006515157409012318,-0.053888533264398575,0.05163123458623886
1769667646022258700,10.3012587890625,-0.0038693067617714405,-0.006671750918030739,0.05020511522889137
1769667646032246500,10.31124658203125,0.014620487578213215,-0.07947751134634018,0.0433216392993927
1769667646042235600,10.321235595703126,0.019844811409711838,-0.08481235802173615,0.028194885700941086
1769667646052224500,10.331224609375,0.0021931130904704332,-0.029640182852745056,0.03116031549870968
1769667646062212600,10.341212646484376,0.00029880666988901794,-0.048956889659166336,0.03609435632824898
1769667646072201700,10.35120166015625,0.009984456934034824,-0.04718136042356491,0.04398529976606369
1769667646082191000,10.361191162109375,-0.0030011162161827087,0.019109511747956276,0.031923312693834305
1769667646092179200,10.37117919921875,0.005537510849535465,0.0001512675517005846,0.03648530691862106
1769667646102168300,10.381168212890625,0.02136281318962574,0.009876066818833351,0.04705725610256195
1769667646112156400,10.391156494140626,0.024278707802295685,0.07152558118104935,0.04597281664609909
1769667646122145500,10.4011455078125,0.02660071849822998,0.09487724304199219,0.042091794312000275
1769667646132134400,10.411134521484374,0.02364753931760788,0.08745580911636353,0.051954012364149094
1769667646142122200,10.421122314453125,0.025189509615302086,0.12708976864814758,0.0453573614358902
1769667646152111400,10.431111328125,0.03881876915693283,0.15582288801670074,0.042157307267189026
1769667646162100200,10.441100341796876,0.051412589848041534,0.1292533278465271,0.035416580736637115
1769667646172088300,10.45108837890625,0.055806808173656464,0.15379701554775238,0.017716679722070694
1769667646182077400,10.461077392578124,0.04970363900065422,0.19535085558891296,0.011741611175239086
1769667646192066300,10.47106640625,0.04038497433066368,0.1947990506887436,0.029760824516415596
1769667646202054100,10.48105419921875,0.05107570067048073,0.003418167121708393,-0.006056294776499271
1769667646212043300,10.491043212890625,0.05806010589003563,0.08967608958482742,-0.0739341452717781
1769667646222032400,10.501032470703125,0.06652576476335526,0.29682475328445435,-0.04108085855841637
1769667646232020500,10.5110205078125,0.12379917502403259,0.2789812982082367,0.011871573515236378
1769667646242009300,10.52100927734375,0.20782136917114258,0.24694879353046417,0.010862767696380615
1769667646251997200,10.5309970703125,0.2946755886077881,0.2859928607940674,-0.03182557225227356
1769667646261986300,10.540986328125,0.3238641023635864,0.2342654913663864,-0.051595814526081085
1769667646271975200,10.55097509765625,0.37211549282073975,0.38838422298431396,-0.04366651922464371
1769667646281963300,10.56096337890625,0.3563336133956909,0.38424167037010193,-0.026647057384252548
1769667646291952400,10.570952392578125,0.4482329189777374,0.3967819809913635,-0.043954942375421524
1769667646301941500,10.58094140625,0.5546722412109375,0.2575463056564331,-0.0693063735961914
1769667646311929300,10.590929443359375,0.5363470315933228,0.44833463430404663,-0.05843561142683029
1769667646321918200,10.600918212890624,0.6201455593109131,0.47773435711860657,-0.047804009169340134
1769667646331907300,10.6109072265625,0.7185093760490417,0.4999040961265564,-0.045404233038425446
1769667646341895400,10.6208955078125,0.8110758066177368,0.6332908868789673,-0.07368993014097214
1769667646351884300,10.63088427734375,0.8608438968658447,0.44644540548324585,-0.13611656427383423
1769667646361873400,10.640873291015625,0.8381615281105042,0.6211021542549133,-0.11313986778259277
1769667646371861200,10.650861328125,0.8451893329620361,0.622843325138092,-0.08894798159599304
1769667646381850400,10.660850341796875,0.835121214389801,0.626800537109375,-0.08318064361810684
1769667646391838200,10.670838134765624,0.7985725402832031,0.4615556299686432,-0.06736918538808823
1769667646401827300,10.680827392578125,0.7503687739372253,0.3675242066383362,-0.05748539790511131
1769667646411816400,10.69081640625,0.6866058111190796,0.34715157747268677,-0.07579649239778519
1769667646421804500,10.700804443359376,0.6265062689781189,0.3293083906173706,-0.08146502822637558
1769667646431793200,10.710793212890625,0.5785980820655823,0.3229202628135681,-0.0746164470911026
1769667646441782300,10.7207822265625,0.557094931602478,0.30829763412475586,-0.08620040118694305
1769667646451770400,10.730770263671875,0.5228182077407837,0.20234112441539764,-0.09536992758512497
1769667646461759200,10.74075927734375,0.41836583614349365,0.06245645508170128,-0.10020916163921356
1769667646471748400,10.750748291015626,0.3355838656425476,-0.06284341216087341,-0.0475776381790638
1769667646481736400,10.760736328125,0.23754625022411346,-0.20628313720226288,0.011668373830616474
1769667646491725600,10.7707255859375,0.23243483901023865,-0.2265218198299408,0.030904386192560196
1769667646501714200,10.780714111328125,0.1897403746843338,-0.14994582533836365,0.047081757336854935
1769667646511702300,10.790702392578124,0.11663713306188583,-0.19177769124507904,0.01853640004992485
1769667646521691400,10.80069140625,0.09804321080446243,-0.1877581775188446,0.022419022396206856
1769667646531679500,10.810679443359374,0.09710657596588135,-0.216867595911026,0.011537346057593822
1769667646541668400,10.82066845703125,0.11580862104892731,-0.23762667179107666,0.008243282325565815
1769667646551657500,10.830657470703125,0.13528938591480255,-0.21308910846710205,0.03136777505278587
1769667646561645300,10.840645263671876,0.16434472799301147,-0.20534010231494904,0.011349859647452831
1769667646571634200,10.85063427734375,0.1960001289844513,-0.1807338297367096,-0.0023545008152723312
1769667646581623300,10.860623291015624,0.22112306952476501,-0.18049654364585876,-0.010359962470829487
1769667646591611400,10.870611328125,0.22649678587913513,-0.14667652547359467,-0.028975458815693855
1769667646601600500,10.8806005859375,0.2191254198551178,-0.15434829890727997,-0.04337170720100403
1769667646611589400,10.89058935546875,0.18865060806274414,-0.17966963350772858,-0.025977538898587227
1769667646621577200,10.9005771484375,0.15093785524368286,-0.164510115981102,-0.01967676542699337
1769667646631566300,10.91056640625,0.11738015711307526,-0.1757529228925705,-0.009091765619814396
1769667646641554400,10.920554443359375,0.10737332701683044,-0.2048090696334839,0.01780323125422001
1769667646651543300,10.930543212890624,0.10458046942949295,-0.23361808061599731,0.0026399914640933275
1769667646661532400,10.940532470703126,0.11833729594945908,-0.23867276310920715,0.0015667376574128866
1769667646671520300,10.950520263671875,0.12034638226032257,-0.25000423192977905,0.005607019178569317
1769667646681509400,10.96050927734375,0.1307913064956665,-0.3357774615287781,0.020189158618450165
1769667646691498200,10.970498291015625,0.11857165396213531,-0.3444351553916931,0.04784421995282173
1769667646701486300,10.980486328125,0.11004767566919327,-0.3357090353965759,0.06094910576939583
1769667646711475500,10.990475341796875,0.11085834354162216,-0.3860859274864197,0.09125800430774689
1769667646721464300,11.00046435546875,0.10906630009412766,-0.472398966550827,0.12096024304628372
1769667646731452200,11.0104521484375,0.11600596457719803,-0.5546714663505554,0.1311577558517456
1769667646741441300,11.020441162109375,0.10761620849370956,-0.6353657841682434,0.1243768110871315
1769667646751430400,11.030430419921874,0.13877493143081665,-0.7370412945747375,0.08432313799858093
1769667646761418200,11.040418212890625,0.15707138180732727,-0.8761919736862183,0.06920862942934036
1769667646771407400,11.050407470703124,0.14437821507453918,-0.9060502648353577,0.08537295460700989
1769667646781396500,11.060396484375,0.1002027690410614,-1.0110394954681396,0.09173578023910522
1769667646791384300,11.07038427734375,0.027032149955630302,-1.1509326696395874,0.07213731110095978
1769667646801373200,11.080373291015626,-0.009497364982962608,-1.2874897718429565,0.12293791025876999
1769667646811361300,11.090361328125,-0.03467195853590965,-1.3470667600631714,0.04966023191809654
1769667646821350400,11.100350341796876,-0.14561419188976288,-1.2642515897750854,0.07985568046569824
1769667646831339300,11.11033935546875,-0.30131056904792786,-1.2810255289077759,0.1479915976524353
1769667646841327400,11.120327392578124,-0.4276410937309265,-1.4490314722061157,0.1211453303694725
1769667646851316200,11.130316162109375,-0.6134541034698486,-1.6649560928344727,0.17335154116153717
1769667646861305300,11.140305419921875,-0.8056269884109497,-1.9075719118118286,0.28896814584732056
1769667646871293200,11.150293212890626,-0.8961875438690186,-2.0209901332855225,0.3637430667877197
1769667646881282300,11.1602822265625,-1.0019490718841553,-2.0315167903900146,0.4083363711833954
1769667646891271400,11.170271484375,-1.1345736980438232,-2.123833179473877,0.3856648802757263
1769667646901259500,11.180259521484375,-1.2533142566680908,-2.1275618076324463,0.24952727556228638
1769667646911248100,11.190248046875,-1.395186424255371,-2.0299642086029053,0.10956564545631409
1769667646921236200,11.200236328125,-1.4146660566329956,-1.84007728099823,0.03597823902964592
1769667646931225300,11.210225341796875,-1.308836579322815,-1.7261978387832642,-0.06829570233821869
1769667646941214200,11.220214111328126,-1.2863153219223022,-1.669560432434082,-0.17721712589263916
1769667646951202300,11.230202392578125,-1.2937651872634888,-1.5558568239212036,-0.29960349202156067
1769667646961191400,11.24019140625,-1.3099772930145264,-1.3523907661437988,-0.3229495584964752
1769667646971180500,11.2501806640625,-1.2759681940078735,-1.2337969541549683,-0.4073280990123749
1769667646981168400,11.26016845703125,-1.1993952989578247,-1.1020245552062988,-0.4990942180156708
1769667646991157200,11.2701572265625,-1.1241205930709839,-0.969687283039093,-0.5586084127426147
1769667647001146400,11.280146484375,-1.0139186382293701,-0.8723157644271851,-0.5631043910980225
1769667647011134500,11.290134521484376,-0.9704425930976868,-0.9046867489814758,-0.5775938034057617
1769667647021123300,11.300123291015625,-0.904450535774231,-0.9418498277664185,-0.5611144304275513
1769667647031111200,11.310111083984374,-0.8480567336082458,-0.8176650404930115,-0.5321829319000244
1769667647041100300,11.320100341796875,-0.7076650261878967,-0.7161128520965576,-0.544536292552948
1769667647051089400,11.33008935546875,-0.5751935243606567,-0.7515890598297119,-0.5973576903343201
1769667647061077200,11.3400771484375,-0.4842870533466339,-1.0507051944732666,-0.6884191632270813
1769667647071066400,11.35006640625,-0.437322735786438,-1.7842055559158325,-0.86634761095047
1769667647081055500,11.360055419921874,-0.4877725839614868,-2.054457902908325,-0.8262425065040588
1769667647091042600,11.37004248046875,-0.6204195618629456,-1.4990142583847046,-0.5561066269874573
1769667647101031400,11.380031494140624,-0.7903258204460144,-0.8382821679115295,-0.20127186179161072
1769667647111020500,11.3900205078125,-0.7812883853912354,-0.47610822319984436,0.08586643636226654
1769667647121008600,11.400008544921874,-0.786857008934021,-0.49184510111808777,0.2529771327972412
1769667647130997500,11.40999755859375,-0.7436866760253906,-0.5430622100830078,0.2958894371986389
1769667647140986400,11.419986328125,-0.7765780091285706,-0.6892737746238708,0.28206151723861694
1769667647150974500,11.429974365234376,-0.8807228207588196,-0.7893982529640198,0.2646806538105011
1769667647160963600,11.439963623046875,-0.9719158411026001,-0.735068678855896,0.3015105724334717
1769667647170952400,11.449952392578124,-0.9928680062294006,-0.6721344590187073,0.34979209303855896
1769667647180940500,11.4599404296875,-0.8987966179847717,-0.6903060078620911,0.4237848222255707
1769667647190929700,11.4699296875,-0.5258818864822388,-0.2544037997722626,0.47040507197380066
1769667647200917500,11.47991748046875,-0.028776254504919052,0.27186107635498047,-0.11052544414997101
1769667647210906600,11.48990673828125,-0.23494407534599304,-0.13340651988983154,-0.18229684233665466
1769667647220895500,11.4998955078125,-0.40468624234199524,-0.21833206713199615,0.110881507396698
1769667647230883600,11.509883544921875,-0.6207697987556458,-0.4404231905937195,0.28353530168533325
1769667647240872700,11.519872802734374,-0.6984637975692749,-0.5581178665161133,0.2643626928329468
1769667647250861600,11.529861572265625,-0.5983337163925171,-0.5010727047920227,0.19586564600467682
1769667647260849400,11.539849365234375,-0.4418969750404358,-0.4946797788143158,0.16768620908260345
1769667647270838500,11.549838623046876,-0.3230574131011963,-0.4583614468574524,0.08989021182060242
1769667647280827600,11.55982763671875,-0.21858134865760803,-0.36118268966674805,0.04922160878777504
1769667647290815500,11.5698154296875,-0.18310484290122986,-0.42437151074409485,-0.020358001813292503
1769667647300804600,11.5798046875,-0.13360333442687988,-0.37845197319984436,-0.032575253397226334
1769667647310792400,11.58979248046875,-0.09397682547569275,-0.26635152101516724,-0.04688548296689987
1769667647320781600,11.599781494140625,-0.005783054046332836,-0.16222752630710602,-0.0835082083940506
1769667647330770400,11.6097705078125,0.1699000895023346,-0.09133923053741455,-0.1230231299996376
1769667647340758500,11.619758544921876,0.596240222454071,-0.07941865921020508,-0.4071248769760132
1769667647350747600,11.62974755859375,1.3202018737792969,0.11711809784173965,-1.2018076181411743
1769667647360736500,11.639736572265624,1.5845978260040283,0.6255461573600769,-1.5616261959075928
1769667647370724400,11.649724365234375,1.2613517045974731,0.9378665089607239,-1.3057584762573242
1769667647380713500,11.65971337890625,0.7041727900505066,1.153708815574646,-0.6802259087562561
1769667647390702600,11.66970263671875,0.15519331395626068,0.6964507102966309,-0.2144308090209961
1769667647400690400,11.6796904296875,0.14473934471607208,0.17443518340587616,-0.06792205572128296
1769667647410679600,11.689679443359376,0.09467297792434692,-0.04242175817489624,-0.12421728670597076
1769667647420668700,11.699668701171875,0.026753583922982216,0.10287898033857346,-0.21088826656341553
1769667647430656500,11.709656494140624,0.000871652620844543,0.1845109909772873,-0.30334389209747314
1769667647440645400,11.719645263671875,-0.03994901478290558,0.15428277850151062,-0.36559370160102844
1769667647450633500,11.729633544921874,-0.1140701100230217,0.26512089371681213,-0.3583349883556366
1769667647460622600,11.73962255859375,-0.18164490163326263,0.2915269136428833,-0.33471861481666565
1769667647470611500,11.749611572265625,-0.2269681692123413,0.07415571808815002,-0.3783707320690155
1769667647480599600,11.759599609375,-0.2693638205528259,0.09127026051282883,-0.4015951156616211
1769667647490588400,11.76958837890625,-0.3239447772502899,0.30856770277023315,-0.3876079022884369
1769667647500577500,11.77957763671875,-0.31935110688209534,0.6839487552642822,-0.32738664746284485
1769667647510565600,11.789565673828125,-0.23637259006500244,0.8022700548171997,-0.36649784445762634
1769667647520554500,11.799554443359375,-0.1806536614894867,0.5742507576942444,-0.5076701641082764
1769667647530543600,11.809543701171876,-0.3077112138271332,0.8794175982475281,-0.2991451621055603
1769667647540531700,11.81953173828125,-0.47144368290901184,1.3838980197906494,0.08547867834568024
1769667647550520300,11.829520263671874,-0.4852396547794342,1.5871188640594482,0.40334346890449524
1769667647560508400,11.83950830078125,-0.40813714265823364,1.3150556087493896,0.5412318110466003
1769667647570497500,11.84949755859375,-0.28827786445617676,0.873295247554779,0.4876170754432678
1769667647580486700,11.859486572265626,-0.2579615116119385,0.7471000552177429,0.38625502586364746
1769667647590474500,11.869474609375,-0.23025743663311005,0.8272398710250854,0.3120766580104828
1769667647600463600,11.879463623046876,-0.30322086811065674,0.870975911617279,0.2919767200946808
1769667647610452700,11.88945263671875,-0.29981547594070435,0.6781750321388245,0.3187159299850464
1769667647620440600,11.899440673828124,-0.2709292471408844,0.33695992827415466,0.3708750009536743
1769667647630429400,11.909429443359375,-0.32830891013145447,0.30304935574531555,0.3815132677555084
1769667647640418600,11.91941845703125,-0.375605046749115,0.8332727551460266,0.3011755645275116
1769667647650406700,11.92940673828125,-0.3261312246322632,1.4755659103393555,0.25146764516830444
1769667647660395500,11.9393955078125,-0.03453480824828148,1.4813004732131958,-0.1390143483877182
1769667647670384600,11.949384521484374,0.21541590988636017,0.7939642071723938,-0.6432815194129944
1769667647680372500,11.95937255859375,0.3722289502620697,0.48554325103759766,-0.6771017909049988
1769667647690361600,11.969361572265624,0.32788145542144775,0.6282420754432678,-0.41855889558792114
1769667647700349700,11.979349609375,0.23959848284721375,1.1168279647827148,-0.1915891319513321
1769667647710338600,11.989338623046875,0.22229884564876556,1.5137889385223389,0.04137859866023064
1769667647720327700,11.99932763671875,0.3075239956378937,1.4021590948104858,0.0799262598156929
1769667647730315500,12.0093154296875,0.4066620469093323,0.9309691786766052,-0.046495597809553146
1769667647740304400,12.019304443359376,0.4725489020347595,0.5278276205062866,-0.12159886956214905
1769667647750293500,12.02929345703125,0.5087764263153076,0.4394673705101013,-0.0671209767460823
1769667647760281600,12.039281494140624,0.44564270973205566,0.4968409240245819,-0.011635350994765759
1769667647770270500,12.0492705078125,0.35148799419403076,0.5337403416633606,-0.012923788279294968
1769667647780259600,12.059259521484375,0.28253182768821716,0.5184460878372192,-0.05318625643849373
1769667647790247400,12.069247314453126,0.18444068729877472,0.5419048070907593,-0.09498803317546844
1769667647800236500,12.079236572265625,0.13379934430122375,0.5757898092269897,-0.09557578712701797
1769667647810224600,12.089224609375,0.11762730032205582,0.48439544439315796,-0.09474887698888779
1769667647820213500,12.099213623046875,0.012662531808018684,0.3343076705932617,-0.03755776211619377
1769667647830202600,12.10920263671875,-0.07079454511404037,0.26783809065818787,0.021857362240552902
1769667647840190700,12.119190673828125,-0.05753040313720703,0.23592118918895721,0.038423024117946625
1769667647850179300,12.129179443359375,-0.014976286329329014,0.2269071787595749,0.010687265545129776
1769667647860168400,12.13916845703125,0.03717586398124695,0.2838447690010071,0.009549829177558422
1769667647870156500,12.149156494140625,0.013823403976857662,0.3400704860687256,0.02527206763625145
1769667647880145700,12.159145751953124,0.07067736238241196,0.4187229573726654,0.04291177913546562
1769667647890134500,12.169134521484375,0.1448059231042862,0.42814627289772034,0.04915263131260872
1769667647900122600,12.17912255859375,0.09467857331037521,0.46106162667274475,0.057132262736558914
1769667647910111500,12.189111572265626,-0.02406991645693779,0.5425847172737122,0.11631675809621811
1769667647920100400,12.199100341796875,-0.0892702266573906,0.5340180993080139,0.11060773581266403
1769667647930088400,12.20908837890625,-0.19683369994163513,0.5040245652198792,0.1025567352771759
1769667647940077600,12.21907763671875,-0.3082457184791565,0.5491486191749573,0.22254864871501923
1769667647950065700,12.229065673828124,-0.3283211588859558,0.5382456183433533,0.41846781969070435
1769667647960054500,12.239054443359375,-0.42428895831108093,0.8877159953117371,0.859546422958374
1769667647970043400,12.24904345703125,-0.5784705281257629,1.0168484449386597,0.7739471197128296
1769667647980031500,12.259031494140626,-0.5235329866409302,0.7614334225654602,0.302980899810791
1769667647990020600,12.2690205078125,-0.2854999303817749,0.6292160153388977,0.3101557195186615
1769667648000009500,12.279009521484374,-0.21501244604587555,0.4823160469532013,0.2985440790653229
1769667648009997600,12.28899755859375,-0.2559089958667755,0.2712187170982361,0.18491153419017792
