time,seconds_elapsed,z,y,x
1769661758483265800,0.061265869140625,-0.0975189208984375,0.9199066162109375,0.360748291015625
1769661758493253600,0.071253662109375,-0.0932769775390625,0.924072265625,0.35931396484375
1769661758503241700,0.08124169921875,-0.0963897705078125,0.9214019775390625,0.3595428466796875
1769661758513229800,0.091229736328125,-0.096649169921875,0.920867919921875,0.357330322265625
1769661758523217700,0.1012177734375,-0.0986175537109375,0.9208526611328125,0.356231689453125
1769661758533205800,0.111205810546875,-0.1013031005859375,0.920166015625,0.3568115234375
1769661758543193900,0.12119384765625,-0.099517822265625,0.9202117919921875,0.3618621826171875
1769661758553181700,0.131181640625,-0.098114013671875,0.921295166015625,0.364227294921875
1769661758563169800,0.141169677734375,-0.097564697265625,0.920501708984375,0.3646240234375
1769661758573158000,0.151157958984375,-0.0964813232421875,0.9227142333984375,0.364593505859375
1769661758583146000,0.16114599609375,-0.09698486328125,0.92303466796875,0.3616180419921875
1769661758593133600,0.171133544921875,-0.0948486328125,0.9224700927734375,0.360015869140625
1769661758603121700,0.18112158203125,-0.0966644287109375,0.924163818359375,0.362213134765625
1769661758613109800,0.19110986328125,-0.0985870361328125,0.9227142333984375,0.3638916015625
1769661758623097600,0.20109765625,-0.0928497314453125,0.9208526611328125,0.36712646484375
1769661758633085700,0.211085693359375,-0.0889129638671875,0.9199676513671875,0.372833251953125
1769661758643073800,0.22107373046875,-0.083740234375,0.9207611083984375,0.3768310546875
1769661758653062000,0.231061767578125,-0.0805511474609375,0.921966552734375,0.3720855712890625
1769661758663049700,0.2410498046875,-0.080230712890625,0.923583984375,0.3706207275390625
1769661758673037800,0.251037841796875,-0.0862274169921875,0.922393798828125,0.368865966796875
1769661758683026000,0.26102587890625,-0.0930023193359375,0.92364501953125,0.3662872314453125
1769661758693013800,0.271013671875,-0.0913238525390625,0.9225311279296875,0.3659515380859375
1769661758703001900,0.281001953125,-0.0880584716796875,0.9169921875,0.3694305419921875
1769661758712990700,0.29099072265625,-0.081695556640625,0.9174041748046875,0.3808746337890625
1769661758722978800,0.300978759765625,-0.0695343017578125,0.923126220703125,0.3831634521484375
1769661758732966700,0.310966552734375,-0.0726165771484375,0.9231719970703125,0.3651275634765625
1769661758742954800,0.320954833984375,-0.09637451171875,0.9216766357421875,0.3560028076171875
1769661758752942800,0.33094287109375,-0.1105194091796875,0.9264984130859375,0.3629150390625
1769661758762931000,0.340930908203125,-0.0999755859375,0.9281768798828125,0.3707122802734375
1769661758772918800,0.350918701171875,-0.0869293212890625,0.921600341796875,0.3681182861328125
1769661758782907000,0.360906982421875,-0.08306884765625,0.919036865234375,0.3645172119140625
1769661758792894700,0.370894775390625,-0.0901031494140625,0.916473388671875,0.3633575439453125
1769661758802882600,0.380882568359375,-0.0916900634765625,0.916839599609375,0.3660888671875
1769661758812870700,0.39087060546875,-0.0885009765625,0.920379638671875,0.3660888671875
1769661758822858800,0.400858642578125,-0.087005615234375,0.9240570068359375,0.369140625
1769661758832846800,0.410846923828125,-0.08746337890625,0.9213409423828125,0.3721771240234375
1769661758842834700,0.420834716796875,-0.083770751953125,0.9197235107421875,0.372802734375
1769661758852822800,0.43082275390625,-0.0783843994140625,0.9193572998046875,0.36968994140625
1769661758862811000,0.440810791015625,-0.076904296875,0.9153900146484375,0.3674774169921875
1769661758872798700,0.450798828125,-0.080230712890625,0.9190673828125,0.3655548095703125
1769661758882786800,0.460786865234375,-0.086090087890625,0.9229278564453125,0.364532470703125
1769661758892775000,0.47077490234375,-0.0801849365234375,0.9169921875,0.362701416015625
1769661758902762800,0.4807626953125,-0.0935821533203125,0.9252777099609375,0.3636627197265625
1769661758912750800,0.490750732421875,-0.092742919921875,0.928680419921875,0.36383056640625
1769661758922738700,0.50073876953125,-0.0917816162109375,0.9294586181640625,0.360595703125
1769661758932726800,0.510726806640625,-0.0931243896484375,0.9311981201171875,0.3597412109375
1769661758942714600,0.520714599609375,-0.0794525146484375,0.9121551513671875,0.3651580810546875
1769661758952702700,0.53070263671875,-0.0785980224609375,0.90606689453125,0.371429443359375
1769661758962690800,0.54069091796875,-0.0770416259765625,0.914276123046875,0.37567138671875
1769661758972678700,0.5506787109375,-0.0745849609375,0.920928955078125,0.3765716552734375
1769661758982666800,0.560666748046875,-0.0756378173828125,0.923675537109375,0.375579833984375
1769661758992656000,0.57065576171875,-0.0805816650390625,0.9244384765625,0.3730926513671875
1769661759002643700,0.580643798828125,-0.081085205078125,0.922882080078125,0.37152099609375
1769661759012631600,0.590631591796875,-0.078826904296875,0.921630859375,0.369293212890625
1769661759022619600,0.60061962890625,-0.07476806640625,0.918609619140625,0.3674774169921875
1769661759032607700,0.610607666015625,-0.0720062255859375,0.9166717529296875,0.3663177490234375
1769661759042595800,0.620595947265625,-0.070098876953125,0.9174652099609375,0.3673095703125
1769661759052583700,0.630583740234375,-0.07733154296875,0.923126220703125,0.3664398193359375
1769661759062571800,0.64057177734375,-0.081207275390625,0.9275054931640625,0.3620758056640625
1769661759072559900,0.650559814453125,-0.0795745849609375,0.9244232177734375,0.3597259521484375
1769661759082547000,0.660546875,-0.074127197265625,0.9161376953125,0.365203857421875
1769661759092535000,0.67053515625,-0.0663909912109375,0.9211578369140625,0.3755950927734375
1769661759102523000,0.68052294921875,-0.0712432861328125,0.9181060791015625,0.377655029296875
1769661759112511000,0.690510986328125,-0.0645904541015625,0.93060302734375,0.350128173828125
1769661759122499000,0.7004990234375,-0.0770111083984375,0.9313507080078125,0.3648681640625
1769661759132487000,0.71048681640625,-0.0824737548828125,0.9278564453125,0.3683624267578125
1769661759142475000,0.72047509765625,-0.0680694580078125,0.9244537353515625,0.3672027587890625
1769661759152462800,0.730462890625,-0.051849365234375,0.919464111328125,0.3726959228515625
1769661759162451000,0.740450927734375,-0.0456390380859375,0.91864013671875,0.3689117431640625
1769661759172438800,0.750438720703125,-0.0501708984375,0.91741943359375,0.37200927734375
1769661759182427000,0.760427001953125,-0.0524444580078125,0.9184722900390625,0.375396728515625
1769661759192415000,0.7704150390625,-0.0529632568359375,0.9170989990234375,0.373077392578125
1769661759202402800,0.78040283203125,-0.0503692626953125,0.9229278564453125,0.370330810546875
1769661759212391000,0.790390869140625,-0.0418701171875,0.92962646484375,0.3742523193359375
1769661759222379000,0.80037890625,-0.0333404541015625,0.92987060546875,0.374053955078125
1769661759232367000,0.8103671875,-0.02716064453125,0.92608642578125,0.37493896484375
1769661759242355000,0.82035498046875,-0.022613525390625,0.9232025146484375,0.37994384765625
1769661759252343000,0.830343017578125,-0.0182037353515625,0.922454833984375,0.3802490234375
1769661759262331100,0.8403310546875,-0.015716552734375,0.924591064453125,0.378753662109375
1769661759272318700,0.850318603515625,-0.01751708984375,0.9256744384765625,0.383697509765625
1769661759282307800,0.860307861328125,-0.019317626953125,0.9257354736328125,0.377685546875
1769661759292296000,0.8702958984375,-0.02227783203125,0.92431640625,0.374542236328125
1769661759302284000,0.880283935546875,-0.0256500244140625,0.925262451171875,0.3754425048828125
1769661759312272000,0.89027197265625,-0.02764892578125,0.925140380859375,0.37457275390625
1769661759322260000,0.900260009765625,-0.0312042236328125,0.9248046875,0.3693389892578125
1769661759332248000,0.910248046875,-0.035614013671875,0.9253387451171875,0.367523193359375
1769661759342236200,0.920236083984375,-0.0378875732421875,0.9238433837890625,0.365570068359375
1769661759352224000,0.93022412109375,-0.03924560546875,0.9223785400390625,0.363525390625
1769661759362211800,0.9402119140625,-0.043609619140625,0.9182281494140625,0.3587188720703125
1769661759372200000,0.950199951171875,-0.045379638671875,0.9157562255859375,0.358978271484375
1769661759382187800,0.960187744140625,-0.04254150390625,0.9141387939453125,0.3599395751953125
1769661759392175900,0.97017578125,-0.0357818603515625,0.915802001953125,0.3623046875
1769661759402164000,0.9801640625,-0.0350189208984375,0.917633056640625,0.365936279296875
1769661759412151800,0.99015185546875,-0.0369720458984375,0.9189910888671875,0.3680267333984375
1769661759422140000,1.000139892578125,-0.03753662109375,0.9223175048828125,0.370452880859375
1769661759432128000,1.0101279296875,-0.0367889404296875,0.9210968017578125,0.37249755859375
1769661759442116000,1.0201162109375,-0.0316619873046875,0.92059326171875,0.3771209716796875
1769661759452104000,1.03010400390625,-0.0240020751953125,0.921844482421875,0.3780059814453125
1769661759462092000,1.040092041015625,-0.016815185546875,0.92138671875,0.3812103271484375
1769661759472080000,1.050079833984375,-0.0124969482421875,0.921630859375,0.3857879638671875
1769661759482067700,1.060067626953125,-0.010345458984375,0.9207916259765625,0.383209228515625
1769661759492055800,1.070055908203125,-0.0074920654296875,0.9205780029296875,0.3842926025390625
1769661759502044000,1.0800439453125,-0.004852294921875,0.9201507568359375,0.3815460205078125
1769661759512032000,1.090031982421875,-0.0019683837890625,0.921112060546875,0.3811798095703125
1769661759522019800,1.100019775390625,0.00115966796875,0.9194183349609375,0.377716064453125
1769661759532008000,1.110008056640625,-0.00079345703125,0.9162445068359375,0.3736724853515625
1769661759541996000,1.11999609375,-0.0026092529296875,0.91693115234375,0.3755340576171875
1769661759551983900,1.12998388671875,-0.0050201416015625,0.9169464111328125,0.3780364990234375
1769661759561972700,1.13997265625,-0.0102996826171875,0.919281005859375,0.3766021728515625
1769661759571960800,1.1499609375,-0.0127105712890625,0.922760009765625,0.37347412109375
1769661759581949000,1.159948974609375,-0.014251708984375,0.927032470703125,0.3731689453125
1769661759591936800,1.169936767578125,-0.014129638671875,0.930633544921875,0.373626708984375
1769661759601924900,1.1799248046875,-0.0141448974609375,0.9310760498046875,0.369140625
1769661759611913000,1.189912841796875,-0.015350341796875,0.9334259033203125,0.3655853271484375
1769661759621901000,1.199901123046875,-0.0155029296875,0.9308013916015625,0.3683624267578125
1769661759631889000,1.209888916015625,-0.0128173828125,0.9261322021484375,0.3716278076171875
1769661759641877000,1.219876953125,-0.0091705322265625,0.9232635498046875,0.3732452392578125
1769661759651865000,1.229864990234375,-0.003936767578125,0.9194488525390625,0.3678131103515625
1769661759661853000,1.23985302734375,-0.0030517578125,0.91729736328125,0.371246337890625
1769661759671841000,1.249841064453125,0.0018310546875,0.9192657470703125,0.37158203125
1769661759681828900,1.259828857421875,0.0060882568359375,0.923858642578125,0.3712310791015625
1769661759691817000,1.26981689453125,0.0016021728515625,0.9232940673828125,0.3743133544921875
1769661759701804800,1.2798046875,0.0079498291015625,0.92755126953125,0.3736572265625
1769661759711793000,1.28979296875,0.0106201171875,0.928680419921875,0.3740081787109375
1769661759721781000,1.299781005859375,0.0105133056640625,0.9284820556640625,0.37628173828125
1769661759731768800,1.309768798828125,0.011016845703125,0.9296417236328125,0.3770599365234375
1769661759741757000,1.3197568359375,0.009246826171875,0.9310302734375,0.376129150390625
1769661759751745000,1.3297451171875,0.0157318115234375,0.9331512451171875,0.37841796875
1769661759761732900,1.33973291015625,0.01611328125,0.9270172119140625,0.384429931640625
1769661759771721000,1.349720947265625,0.0015869140625,0.9088134765625,0.3774871826171875
1769661759781709000,1.359708984375,0.005279541015625,0.9147491455078125,0.3813629150390625
1769661759791697200,1.369697265625,0.01837158203125,0.920745849609375,0.381072998046875
1769661759801684700,1.379684814453125,0.02874755859375,0.922210693359375,0.37384033203125
1769661759811672800,1.3896728515625,0.028076171875,0.9259185791015625,0.3718719482421875
1769661759821661000,1.399660888671875,0.0234375,0.928863525390625,0.37103271484375
1769661759831648800,1.409648681640625,0.0220947265625,0.9285888671875,0.3677825927734375
1769661759841636900,1.419636962890625,0.0269927978515625,0.9293060302734375,0.3659515380859375
1769661759851625000,1.429625,0.0290985107421875,0.9280853271484375,0.3660430908203125
1769661759861614000,1.439614013671875,0.026275634765625,0.9251861572265625,0.3690185546875
1769661759871602000,1.449601806640625,0.023193359375,0.9264373779296875,0.37103271484375
1769661759881590000,1.459590087890625,0.0211639404296875,0.9286651611328125,0.3707122802734375
1769661759891577900,1.469577880859375,0.0200958251953125,0.9289703369140625,0.372222900390625
1769661759901566000,1.47956591796875,0.0163421630859375,0.9268646240234375,0.36517333984375
1769661759911553800,1.4895537109375,0.014434814453125,0.926422119140625,0.3620452880859375
1769661759921542000,1.4995419921875,0.014312744140625,0.92584228515625,0.3603668212890625
1769661759931530000,1.509530029296875,0.0139007568359375,0.922607421875,0.3567352294921875
1769661759941517800,1.519517822265625,0.013427734375,0.9203948974609375,0.3551483154296875
1769661759951506000,1.529505859375,0.0130157470703125,0.922698974609375,0.3526153564453125
1769661759961494000,1.539493896484375,0.0137481689453125,0.9321136474609375,0.353607177734375
1769661759971482000,1.549482177734375,0.0156707763671875,0.9428558349609375,0.3498687744140625
1769661759981470000,1.559469970703125,0.020538330078125,0.9559173583984375,0.3478851318359375
1769661759991458000,1.5694580078125,0.02923583984375,0.9697265625,0.3494415283203125
1769661760001446000,1.57944580078125,0.0140228271484375,0.94879150390625,0.345703125
1769661760011433700,1.589433837890625,0.000732421875,0.929107666015625,0.34271240234375
1769661760021421800,1.599421875,0.00006103515625,0.912078857421875,0.347442626953125
1769661760031410000,1.609409912109375,0.001007080078125,0.9009246826171875,0.3499755859375
1769661760041398000,1.61939794921875,-0.0001678466796875,0.8983306884765625,0.3553924560546875
1769661760051385900,1.6293857421875,0.001800537109375,0.9048309326171875,0.35986328125
1769661760061374000,1.6393740234375,0.0079498291015625,0.9123382568359375,0.3607177734375
1769661760071362000,1.649362060546875,0.009674072265625,0.9213104248046875,0.359283447265625
1769661760081350700,1.6593505859375,0.0084381103515625,0.932525634765625,0.3629913330078125
1769661760091338800,1.6693388671875,0.011474609375,0.93475341796875,0.3621978759765625
1769661760101326600,1.67932666015625,0.0241241455078125,0.9380645751953125,0.3620758056640625
1769661760111314700,1.689314697265625,0.022857666015625,0.93157958984375,0.3731689453125
1769661760121302500,1.699302490234375,0.0105743408203125,0.907867431640625,0.379547119140625
1769661760131290600,1.70929052734375,0.017425537109375,0.9051055908203125,0.3797760009765625
1769661760141278700,1.71927880859375,0.0306854248046875,0.9145050048828125,0.3697662353515625
1769661760151266600,1.7292666015625,0.0321807861328125,0.918670654296875,0.3721160888671875
1769661760161254700,1.739254638671875,0.0325469970703125,0.923980712890625,0.3704376220703125
1769661760171243800,1.749243896484375,0.0365447998046875,0.925994873046875,0.360076904296875
1769661760181231600,1.759231689453125,0.0466461181640625,0.9256744384765625,0.3588104248046875
1769661760191219500,1.769219482421875,0.0505828857421875,0.924407958984375,0.3615570068359375
1769661760201207600,1.77920751953125,0.0488128662109375,0.92279052734375,0.3607635498046875
1769661760211195600,1.789195556640625,0.0502471923828125,0.9261016845703125,0.360107421875
1769661760221183700,1.799183837890625,0.0459442138671875,0.929840087890625,0.3632049560546875
1769661760231171600,1.809171630859375,0.0408935546875,0.930084228515625,0.3636016845703125
1769661760241159700,1.81915966796875,0.0380706787109375,0.9295196533203125,0.3654937744140625
1769661760251147800,1.829147705078125,0.0420379638671875,0.9232330322265625,0.36981201171875
1769661760261135600,1.839135498046875,0.048004150390625,0.917938232421875,0.3704071044921875
1769661760271123700,1.849123779296875,0.0526123046875,0.9226226806640625,0.371734619140625
1769661760281111800,1.85911181640625,0.052337646484375,0.9302520751953125,0.3712310791015625
1769661760291100000,1.869099853515625,0.046112060546875,0.9372100830078125,0.3733062744140625
1769661760301087700,1.879087646484375,0.043426513671875,0.934326171875,0.3713531494140625
1769661760311075600,1.88907568359375,0.048858642578125,0.926300048828125,0.3662261962890625
1769661760321063700,1.899063720703125,0.0521392822265625,0.9190673828125,0.3630523681640625
1769661760331051500,1.909051513671875,0.05169677734375,0.9169158935546875,0.358734130859375
1769661760341039600,1.91903955078125,0.0469512939453125,0.9200286865234375,0.354888916015625
1769661760351027700,1.92902783203125,0.043853759765625,0.9224090576171875,0.3524017333984375
1769661760361015800,1.939015869140625,0.0436248779296875,0.9295196533203125,0.3571624755859375
1769661760371003600,1.949003662109375,0.0487060546875,0.931488037109375,0.356048583984375
1769661760380991700,1.95899169921875,0.0540313720703125,0.9349365234375,0.3564453125
1769661760390979800,1.968979736328125,0.051544189453125,0.935211181640625,0.354034423828125
1769661760400967700,1.9789677734375,0.048492431640625,0.9317626953125,0.36236572265625
1769661760410955800,1.988955810546875,0.04327392578125,0.9251861572265625,0.3661651611328125
1769661760420943600,1.998943603515625,0.0364990234375,0.9161224365234375,0.3706817626953125
1769661760430931500,2.008931396484375,0.03448486328125,0.9090118408203125,0.371368408203125
1769661760440919600,2.01891943359375,0.042633056640625,0.91461181640625,0.3722381591796875
1769661760450907600,2.02890771484375,0.0490570068359375,0.9224700927734375,0.36627197265625
1769661760460896800,2.038896728515625,0.049591064453125,0.9278106689453125,0.3668975830078125
1769661760470884600,2.048884521484375,0.0530548095703125,0.9352874755859375,0.3658905029296875
1769661760480872700,2.058872802734375,0.0602874755859375,0.934478759765625,0.364471435546875
1769661760490860800,2.06886083984375,0.069732666015625,0.938385009765625,0.364166259765625
1769661760500849000,2.078848876953125,0.07659912109375,0.93975830078125,0.3564910888671875
1769661760510836500,2.08883642578125,0.0772705078125,0.93487548828125,0.351409912109375
1769661760520824600,2.098824462890625,0.0769805908203125,0.93402099609375,0.3477630615234375
1769661760530812700,2.108812744140625,0.084197998046875,0.9478607177734375,0.3419036865234375
1769661760540800500,2.118800537109375,0.0680084228515625,0.93365478515625,0.33935546875
1769661760550788600,2.12878857421875,0.048675537109375,0.917144775390625,0.3391876220703125
1769661760560776700,2.138776611328125,0.0557403564453125,0.9257659912109375,0.340057373046875
1769661760570764800,2.148764892578125,0.0668182373046875,0.9399871826171875,0.3356475830078125
1769661760580752600,2.158752685546875,0.0670318603515625,0.94525146484375,0.3367767333984375
1769661760590740700,2.16874072265625,0.062957763671875,0.94873046875,0.335968017578125
1769661760600728800,2.178728759765625,0.0602569580078125,0.9483489990234375,0.333892822265625
1769661760610716700,2.188716552734375,0.064453125,0.94744873046875,0.3335113525390625
1769661760620704800,2.198704833984375,0.0658721923828125,0.9444427490234375,0.331573486328125
1769661760630692600,2.208692626953125,0.0674896240234375,0.9480133056640625,0.3336639404296875
1769661760640680700,2.2186806640625,0.060150146484375,0.940582275390625,0.3392333984375
1769661760650668500,2.22866845703125,0.0592498779296875,0.93621826171875,0.337738037109375
1769661760660656600,2.23865673828125,0.0524444580078125,0.9338226318359375,0.3408966064453125
1769661760670644700,2.248644775390625,0.0519866943359375,0.926422119140625,0.3480224609375
1769661760680632600,2.258632568359375,0.062408447265625,0.9234771728515625,0.34130859375
1769661760690620700,2.26862060546875,0.069976806640625,0.9245758056640625,0.3458404541015625
1769661760700608800,2.27860888671875,0.0779571533203125,0.9299468994140625,0.341217041015625
1769661760710596600,2.2885966796875,0.0814361572265625,0.93292236328125,0.3394927978515625
1769661760720584700,2.298584716796875,0.083160400390625,0.941986083984375,0.34259033203125
1769661760730572800,2.30857275390625,0.0835418701171875,0.9474639892578125,0.3458709716796875
1769661760740561000,2.318560791015625,0.076904296875,0.9449310302734375,0.3504638671875
1769661760750548500,2.328548583984375,0.073638916015625,0.9399261474609375,0.3521728515625
1769661760760537600,2.33853759765625,0.07781982421875,0.9417877197265625,0.352447509765625
1769661760770525700,2.348525634765625,0.0826416015625,0.9377593994140625,0.3506317138671875
1769661760780513800,2.358513671875,0.0798492431640625,0.931427001953125,0.3443603515625
1769661760790501600,2.368501708984375,0.07916259765625,0.92047119140625,0.3394317626953125
1769661760800489700,2.37848974609375,0.083984375,0.92218017578125,0.3367156982421875
1769661760810477800,2.388477783203125,0.0819091796875,0.915069580078125,0.3380889892578125
1769661760820465700,2.398465576171875,0.0777740478515625,0.917999267578125,0.3459014892578125
1769661760830453800,2.408453857421875,0.0656280517578125,0.9135284423828125,0.35205078125
1769661760840441600,2.418441650390625,0.063385009765625,0.9132843017578125,0.3397064208984375
1769661760850429700,2.4284296875,0.0657501220703125,0.9199066162109375,0.331878662109375
1769661760860417500,2.43841748046875,0.0723114013671875,0.9307098388671875,0.335723876953125
1769661760870405600,2.448405517578125,0.0741119384765625,0.9378509521484375,0.33563232421875
1769661760880393700,2.458393798828125,0.075531005859375,0.94219970703125,0.3376922607421875
1769661760890381600,2.468381591796875,0.0763702392578125,0.9428558349609375,0.335357666015625
1769661760900369700,2.47836962890625,0.06884765625,0.9363555908203125,0.3367767333984375
1769661760910357800,2.488357666015625,0.069580078125,0.9330902099609375,0.339752197265625
1769661760920345900,2.498345947265625,0.0756378173828125,0.9298095703125,0.3400726318359375
1769661760930333700,2.508333740234375,0.086212158203125,0.9300079345703125,0.3377227783203125
1769661760940321800,2.51832177734375,0.0897369384765625,0.933624267578125,0.3347625732421875
1769661760950309600,2.5283095703125,0.0858001708984375,0.93511962890625,0.3331298828125
1769661760960297500,2.53829736328125,0.0867462158203125,0.9342803955078125,0.33258056640625
1769661760970285600,2.54828564453125,0.0921173095703125,0.93145751953125,0.33026123046875
1769661760980273700,2.558273681640625,0.093109130859375,0.928802490234375,0.3309326171875
1769661760990261800,2.56826171875,0.091278076171875,0.9308319091796875,0.33306884765625
1769661761000249600,2.57824951171875,0.088531494140625,0.932586669921875,0.3352813720703125
1769661761010237700,2.58823779296875,0.0832061767578125,0.9362640380859375,0.3397369384765625
1769661761020225800,2.598225830078125,0.081878662109375,0.9401092529296875,0.340789794921875
1769661761030213600,2.608213623046875,0.078216552734375,0.9425506591796875,0.3394622802734375
1769661761040201700,2.61820166015625,0.0754852294921875,0.9418182373046875,0.33740234375
1769661761050190600,2.628190673828125,0.0782318115234375,0.943145751953125,0.3360595703125
1769661761060178700,2.6381787109375,0.080047607421875,0.940643310546875,0.335479736328125
1769661761070166500,2.64816650390625,0.0828704833984375,0.9404144287109375,0.331787109375
1769661761080153600,2.658153564453125,0.0871734619140625,0.9449920654296875,0.33221435546875
1769661761090141700,2.6681416015625,0.0910491943359375,0.943634033203125,0.3332061767578125
1769661761100129800,2.6781298828125,0.0831451416015625,0.9355621337890625,0.3267364501953125
1769661761110117600,2.68811767578125,0.079345703125,0.939697265625,0.335784912109375
1769661761120105700,2.698105712890625,0.0748443603515625,0.932586669921875,0.3377685546875
1769661761130093800,2.70809375,0.0699005126953125,0.925384521484375,0.33331298828125
1769661761140082000,2.71808203125,0.0795440673828125,0.929840087890625,0.3328094482421875
1769661761150069800,2.72806982421875,0.0804595947265625,0.931396484375,0.3344879150390625
1769661761160057900,2.738057861328125,0.0746917724609375,0.930877685546875,0.3347320556640625
1769661761170046000,2.7480458984375,0.0722503662109375,0.9359893798828125,0.3361358642578125
1769661761180033800,2.75803369140625,0.0736236572265625,0.9329376220703125,0.3346710205078125
1769661761190021600,2.768021728515625,0.076934814453125,0.930450439453125,0.3319854736328125
1769661761200009700,2.778009765625,0.0800323486328125,0.92987060546875,0.3355560302734375
1769661761209997600,2.78799755859375,0.0843353271484375,0.930419921875,0.3365020751953125
1769661761219985700,2.797985595703125,0.0879669189453125,0.9350433349609375,0.3403472900390625
1769661761229973800,2.807973876953125,0.0900726318359375,0.9375457763671875,0.3407135009765625
1769661761239961900,2.8179619140625,0.0869140625,0.94122314453125,0.3421630859375
1769661761249949700,2.82794970703125,0.0842742919921875,0.9410858154296875,0.3420257568359375
1769661761259937800,2.837937744140625,0.0846710205078125,0.93841552734375,0.3422393798828125
1769661761269926000,2.84792578125,0.086822509765625,0.9355621337890625,0.3413238525390625
1769661761279913700,2.857913818359375,0.085235595703125,0.93280029296875,0.3378753662109375
1769661761289901800,2.86790185546875,0.082275390625,0.9305877685546875,0.3349456787109375
1769661761299890000,2.877889892578125,0.0829010009765625,0.9332427978515625,0.333099365234375
1769661761309877800,2.887877685546875,0.078857421875,0.9348297119140625,0.33282470703125
1769661761319866600,2.89786669921875,0.0762176513671875,0.934112548828125,0.331756591796875
1769661761329854700,2.907854736328125,0.079193115234375,0.9333343505859375,0.3308868408203125
1769661761339842800,2.9178427734375,0.081329345703125,0.930267333984375,0.3311309814453125
1769661761349831000,2.927830810546875,0.072418212890625,0.9210205078125,0.32501220703125
1769661761359818800,2.93781884765625,0.07537841796875,0.9290618896484375,0.329071044921875
1769661761369806800,2.947806884765625,0.0822296142578125,0.933258056640625,0.3292999267578125
1769661761379795000,2.957794921875,0.0847930908203125,0.933258056640625,0.32659912109375
1769661761389782800,2.96778271484375,0.0836639404296875,0.9355621337890625,0.3269500732421875
1769661761399770600,2.9777705078125,0.0839996337890625,0.9383087158203125,0.3244781494140625
1769661761409758700,2.9877587890625,0.0843963623046875,0.9400482177734375,0.32623291015625
1769661761419746800,2.997746826171875,0.0834197998046875,0.9432373046875,0.3289337158203125
1769661761429734700,3.007734619140625,0.080047607421875,0.943817138671875,0.328765869140625
1769661761439722800,3.01772265625,0.077056884765625,0.940399169921875,0.3308258056640625
1769661761449710800,3.0277109375,0.0830230712890625,0.9402923583984375,0.33465576171875
1769661761459698700,3.03769873046875,0.0847625732421875,0.9354705810546875,0.336090087890625
1769661761469686800,3.047686767578125,0.0833740234375,0.9322052001953125,0.3387298583984375
1769661761479675000,3.0576748046875,0.08380126953125,0.930389404296875,0.3387908935546875
1769661761489662700,3.067662841796875,0.084503173828125,0.9296417236328125,0.3401336669921875
1769661761499650800,3.07765087890625,0.0881500244140625,0.9312896728515625,0.3399658203125
1769661761509639000,3.087638916015625,0.0868988037109375,0.9320831298828125,0.3401947021484375
1769661761519626800,3.097626708984375,0.0850372314453125,0.9345703125,0.3397979736328125
1769661761529614600,3.107614501953125,0.0829315185546875,0.93768310546875,0.336669921875
1769661761539602700,3.117602783203125,0.0813446044921875,0.9396209716796875,0.3350982666015625
1769661761549590800,3.1275908203125,0.0832366943359375,0.9384918212890625,0.3330535888671875
1769661761559578600,3.13757861328125,0.0879669189453125,0.9389190673828125,0.33380126953125
1769661761569566700,3.147566650390625,0.0911865234375,0.93951416015625,0.3317413330078125
1769661761579555800,3.157555908203125,0.091644287109375,0.9392242431640625,0.3292083740234375
1769661761589544000,3.1675439453125,0.0888671875,0.937255859375,0.3276214599609375
1769661761599531800,3.17753173828125,0.087188720703125,0.9363555908203125,0.327545166015625
1769661761609519600,3.18751953125,0.0886993408203125,0.938629150390625,0.32598876953125
1769661761619507700,3.1975078125,0.088104248046875,0.9368133544921875,0.3262481689453125
1769661761629495800,3.207495849609375,0.08782958984375,0.9380035400390625,0.3276214599609375
1769661761639483600,3.217483642578125,0.0860443115234375,0.938995361328125,0.3285064697265625
1769661761649471700,3.2274716796875,0.0846710205078125,0.940216064453125,0.3313140869140625
1769661761659459800,3.2374599609375,0.0799102783203125,0.9415435791015625,0.3323974609375
1769661761669447700,3.24744775390625,0.08135986328125,0.9393768310546875,0.332489013671875
1769661761679435800,3.257435791015625,0.0847625732421875,0.936370849609375,0.3315277099609375
1769661761689424000,3.267423828125,0.086395263671875,0.9355316162109375,0.331146240234375
1769661761699412000,3.277411865234375,0.08575439453125,0.9337158203125,0.334228515625
1769661761709399800,3.28739990234375,0.0805511474609375,0.934051513671875,0.336639404296875
1769661761719387600,3.2973876953125,0.079742431640625,0.9352264404296875,0.3373565673828125
1769661761729375700,3.307375732421875,0.0816192626953125,0.9400787353515625,0.33575439453125
1769661761739363600,3.317363525390625,0.08380126953125,0.940673828125,0.335113525390625
1769661761749351700,3.3273515625,0.089324951171875,0.9435882568359375,0.332977294921875
1769661761759339800,3.33733984375,0.0965728759765625,0.9462127685546875,0.334503173828125
1769661761769327900,3.347327880859375,0.0938568115234375,0.93853759765625,0.332794189453125
1769661761779315700,3.357315673828125,0.0804290771484375,0.932342529296875,0.3276214599609375
1769661761789303800,3.3673037109375,0.083099365234375,0.936920166015625,0.3283538818359375
1769661761799292000,3.3772919921875,0.0890045166015625,0.9385833740234375,0.3295745849609375
1769661761809279700,3.38727978515625,0.0951385498046875,0.935882568359375,0.3282928466796875
1769661761819268600,3.3972685546875,0.0959014892578125,0.9344635009765625,0.3264617919921875
1769661761829256700,3.407256591796875,0.0919342041015625,0.9368743896484375,0.329132080078125
1769661761839244800,3.417244873046875,0.0885009765625,0.9382476806640625,0.330078125
1769661761849232600,3.427232666015625,0.0886077880859375,0.939727783203125,0.327301025390625
1769661761859220700,3.437220703125,0.0889739990234375,0.94036865234375,0.3290252685546875
1769661761869208800,3.447208740234375,0.0858612060546875,0.9365997314453125,0.32745361328125
1769661761879197000,3.457197021484375,0.0820770263671875,0.93365478515625,0.3284759521484375
1769661761889184800,3.467184814453125,0.084136962890625,0.9384918212890625,0.3274688720703125
1769661761899172900,3.4771728515625,0.0876007080078125,0.9436187744140625,0.3300628662109375
1769661761909161000,3.487160888671875,0.0894775390625,0.939117431640625,0.3294830322265625
1769661761919148800,3.497148681640625,0.0899200439453125,0.93829345703125,0.3289642333984375
1769661761929136600,3.50713671875,0.0868377685546875,0.938568115234375,0.3327484130859375
1769661761939124700,3.517124755859375,0.0865936279296875,0.934417724609375,0.325286865234375
1769661761949112600,3.527112548828125,0.085205078125,0.9389801025390625,0.3260955810546875
1769661761959100700,3.5371005859375,0.0852203369140625,0.942962646484375,0.3268280029296875
1769661761969088800,3.5470888671875,0.0824737548828125,0.936614990234375,0.32781982421875
1769661761979076900,3.557076904296875,0.0816650390625,0.934326171875,0.328277587890625
1769661761989064700,3.567064697265625,0.0812530517578125,0.9194793701171875,0.3327789306640625
1769661761999052800,3.577052734375,0.0870361328125,0.920745849609375,0.3280792236328125
1769661762009041000,3.587041015625,0.0976104736328125,0.9304046630859375,0.33026123046875
1769661762019028700,3.59702880859375,0.09783935546875,0.9329833984375,0.3305206298828125
1769661762029016800,3.607016845703125,0.0945892333984375,0.9359893798828125,0.3309783935546875
1769661762039005000,3.6170048828125,0.092315673828125,0.939666748046875,0.327880859375
1769661762048992800,3.62699267578125,0.095062255859375,0.9444427490234375,0.331390380859375
1769661762058980600,3.636980712890625,0.0965118408203125,0.945770263671875,0.3328704833984375
1769661762068969700,3.6469697265625,0.0899200439453125,0.937225341796875,0.3327178955078125
1769661762078958300,3.656958251953125,0.0841217041015625,0.9331512451171875,0.3283538818359375
1769661762088946400,3.666946533203125,0.085845947265625,0.9354248046875,0.327056884765625
1769661762098934500,3.6769345703125,0.0866241455078125,0.9356842041015625,0.324798583984375
1769661762108922400,3.68692236328125,0.08856201171875,0.9391021728515625,0.3221435546875
1769661762118910200,3.69691015625,0.0908050537109375,0.94049072265625,0.31927490234375
1769661762128898300,3.706898193359375,0.0863189697265625,0.92974853515625,0.31915283203125
1769661762138886400,3.716886474609375,0.083221435546875,0.9298858642578125,0.321014404296875
1769661762148874200,3.726874267578125,0.0872039794921875,0.935333251953125,0.324462890625
1769661762158862300,3.7368623046875,0.0930938720703125,0.933685302734375,0.3237457275390625
1769661762168850400,3.746850341796875,0.09722900390625,0.93511962890625,0.3246307373046875
1769661762178838500,3.756838623046875,0.0956878662109375,0.9388275146484375,0.3280181884765625
1769661762188826400,3.766826416015625,0.094696044921875,0.938507080078125,0.3279876708984375
1769661762198814500,3.776814453125,0.0926971435546875,0.9393463134765625,0.3284149169921875
1769661762208802600,3.786802490234375,0.0918121337890625,0.9401702880859375,0.3293304443359375
1769661762218790400,3.796790283203125,0.0914764404296875,0.9390716552734375,0.328369140625
1769661762228778200,3.8067783203125,0.0947418212890625,0.9388427734375,0.3269500732421875
1769661762238766300,3.816766357421875,0.092926025390625,0.9376220703125,0.3247222900390625
1769661762248754400,3.82675439453125,0.093231201171875,0.9353790283203125,0.3237762451171875
1769661762258742300,3.8367421875,0.0916595458984375,0.9351348876953125,0.326812744140625
1769661762268730400,3.84673046875,0.0877838134765625,0.9321136474609375,0.3250274658203125
1769661762278718500,3.856718505859375,0.0851898193359375,0.9319610595703125,0.3246917724609375
1769661762288707600,3.86670751953125,0.0843353271484375,0.93316650390625,0.3249969482421875
1769661762298695400,3.8766953125,0.085296630859375,0.9324188232421875,0.3239288330078125
1769661762308683500,3.88668359375,0.0841064453125,0.9349212646484375,0.3250732421875
1769661762318671400,3.89667138671875,0.0833892822265625,0.935821533203125,0.3247528076171875
1769661762328659200,3.9066591796875,0.0853424072265625,0.9417877197265625,0.324432373046875
1769661762338647300,3.916647216796875,0.0894927978515625,0.9427337646484375,0.3259124755859375
1769661762348635400,3.926635498046875,0.0904083251953125,0.9415130615234375,0.3257598876953125
1769661762358623500,3.93662353515625,0.09320068359375,0.9425201416015625,0.327056884765625
1769661762368611300,3.946611328125,0.09405517578125,0.9407196044921875,0.3310394287109375
1769661762378599400,3.956599365234375,0.0954132080078125,0.9380340576171875,0.3309173583984375
1769661762388587500,3.96658740234375,0.0965423583984375,0.9338836669921875,0.3315887451171875
1769661762398575400,3.976575439453125,0.0966796875,0.933197021484375,0.3337860107421875
1769661762408563500,3.9865634765625,0.0989532470703125,0.931488037109375,0.330963134765625
1769661762418551600,3.996551513671875,0.1009368896484375,0.933013916015625,0.3302764892578125
1769661762428539400,4.006539306640625,0.0970916748046875,0.9319610595703125,0.3295440673828125
1769661762438527200,4.01652734375,0.09368896484375,0.9344329833984375,0.3281097412109375
1769661762448515300,4.026515380859375,0.089111328125,0.9361114501953125,0.327117919921875
1769661762458503400,4.03650341796875,0.088165283203125,0.9360504150390625,0.327362060546875
1769661762468491300,4.0464912109375,0.088104248046875,0.93621826171875,0.3264312744140625
1769661762478479400,4.056479248046875,0.088592529296875,0.9363555908203125,0.327545166015625
1769661762488467500,4.066467529296875,0.0906219482421875,0.9350738525390625,0.3287200927734375
1769661762498455300,4.076455322265625,0.0927276611328125,0.934234619140625,0.3286285400390625
1769661762508443400,4.086443359375,0.093505859375,0.933349609375,0.33087158203125
1769661762518432300,4.096432373046875,0.09228515625,0.93475341796875,0.3298187255859375
1769661762528420400,4.10642041015625,0.0927886962890625,0.935272216796875,0.3300323486328125
1769661762538408200,4.116408203125,0.0920867919921875,0.936553955078125,0.3296661376953125
1769661762548396300,4.126396240234375,0.093841552734375,0.937042236328125,0.3274993896484375
1769661762558384400,4.13638427734375,0.0966796875,0.936248779296875,0.326568603515625
1769661762568372500,4.14637255859375,0.0955352783203125,0.934417724609375,0.3271484375
1769661762578360300,4.1563603515625,0.0946807861328125,0.93206787109375,0.3260650634765625
1769661762588348400,4.166348388671875,0.0943450927734375,0.9324188232421875,0.32501220703125
1769661762598336500,4.17633642578125,0.0941162109375,0.9316253662109375,0.326385498046875
1769661762608324400,4.186324462890625,0.092620849609375,0.934906005859375,0.327056884765625
1769661762618312400,4.1963125,0.092254638671875,0.93682861328125,0.330780029296875
1769661762628300500,4.206300537109375,0.0916748046875,0.9381103515625,0.33111572265625
1769661762638288400,4.216288330078125,0.0927276611328125,0.937347412109375,0.3304290771484375
1769661762648276200,4.226276123046875,0.0950164794921875,0.935150146484375,0.3301239013671875
1769661762658264300,4.236264404296875,0.09814453125,0.9357147216796875,0.33056640625
1769661762668252400,4.24625244140625,0.10052490234375,0.9330596923828125,0.330474853515625
1769661762678240300,4.256240234375,0.099700927734375,0.930908203125,0.33172607421875
1769661762688228400,4.266228271484375,0.0985107421875,0.93121337890625,0.33111572265625
1769661762698216400,4.276216552734375,0.0976715087890625,0.9319915771484375,0.3295135498046875
1769661762708204300,4.286204345703125,0.0938568115234375,0.93328857421875,0.3288421630859375
1769661762718192400,4.2961923828125,0.09075927734375,0.932830810546875,0.32781982421875
1769661762728181200,4.30618115234375,0.093017578125,0.9337310791015625,0.326019287109375
1769661762738169300,4.31616943359375,0.0918426513671875,0.9336700439453125,0.32440185546875
1769661762748157400,4.326157470703125,0.09185791015625,0.934814453125,0.3229827880859375
1769661762758145300,4.336145263671875,0.0949554443359375,0.9357757568359375,0.3251495361328125
1769661762768133400,4.34613330078125,0.0924072265625,0.936309814453125,0.3264617919921875
1769661762778121500,4.35612158203125,0.09075927734375,0.938232421875,0.32708740234375
1769661762788109300,4.366109375,0.09100341796875,0.937591552734375,0.3285980224609375
1769661762798097400,4.376097412109375,0.0909423828125,0.937713623046875,0.3306427001953125
1769661762808085500,4.38608544921875,0.0936431884765625,0.9371185302734375,0.3308563232421875
1769661762818073300,4.3960732421875,0.096038818359375,0.936859130859375,0.3298797607421875
1769661762828061400,4.4060615234375,0.0916748046875,0.935455322265625,0.334259033203125
1769661762838049500,4.416049560546875,0.0952606201171875,0.9365386962890625,0.3336181640625
1769661762848037400,4.426037353515625,0.10137939453125,0.9354400634765625,0.3333892822265625
1769661762858025200,4.436025146484375,0.10321044921875,0.9344329833984375,0.3322296142578125
1769661762868013300,4.446013427734375,0.1034393310546875,0.9354705810546875,0.3330841064453125
1769661762878001400,4.45600146484375,0.1000823974609375,0.9351348876953125,0.3331146240234375
1769661762887989200,4.4659892578125,0.09521484375,0.933013916015625,0.332763671875
1769661762897977300,4.475977294921875,0.0941619873046875,0.9311370849609375,0.333038330078125
1769661762907965400,4.48596533203125,0.0948333740234375,0.9287567138671875,0.33062744140625
1769661762917953500,4.49595361328125,0.0937957763671875,0.926849365234375,0.3310699462890625
1769661762927941400,4.50594140625,0.092742919921875,0.9305572509765625,0.3301239013671875
1769661762937930200,4.51593017578125,0.0946807861328125,0.93572998046875,0.3297119140625
1769661762947918300,4.52591845703125,0.0905914306640625,0.9398193359375,0.3277740478515625
1769661762957906400,4.535906494140625,0.0901336669921875,0.9415740966796875,0.326385498046875
1769661762967894300,4.545894287109375,0.0944976806640625,0.9438018798828125,0.3294677734375
1769661762977882400,4.55588232421875,0.0995941162109375,0.9449310302734375,0.3323516845703125
1769661762987870500,4.565870361328125,0.09820556640625,0.9411468505859375,0.33001708984375
1769661762997858300,4.5758583984375,0.1002197265625,0.9362335205078125,0.331756591796875
1769661763007846400,4.585846435546875,0.10699462890625,0.934600830078125,0.3328399658203125
1769661763017834500,4.59583447265625,0.1085052490234375,0.9330291748046875,0.33331298828125
1769661763027822600,4.605822509765625,0.1046905517578125,0.932342529296875,0.33197021484375
1769661763037810400,4.615810546875,0.100006103515625,0.9312286376953125,0.3316650390625
1769661763047798300,4.62579833984375,0.094268798828125,0.9314117431640625,0.33001708984375
1769661763057786400,4.635786376953125,0.089752197265625,0.931182861328125,0.329376220703125
1769661763067774200,4.645774169921875,0.0867156982421875,0.9318389892578125,0.3309326171875
1769661763077762000,4.655761962890625,0.08624267578125,0.9319305419921875,0.330413818359375
1769661763087750100,4.665750244140625,0.0885009765625,0.9353485107421875,0.3300628662109375
1769661763097738000,4.675738037109375,0.09027099609375,0.9353179931640625,0.330108642578125
1769661763107726000,4.68572607421875,0.0927581787109375,0.9359893798828125,0.33258056640625
1769661763117714200,4.695714111328125,0.0948028564453125,0.9380340576171875,0.33538818359375
1769661763127702300,4.705702392578125,0.0997467041015625,0.937042236328125,0.337127685546875
1769661763137690000,4.715690185546875,0.1058349609375,0.936309814453125,0.3374176025390625
1769661763147678200,4.72567822265625,0.1047515869140625,0.9330902099609375,0.3387298583984375
1769661763157667000,4.7356669921875,0.106719970703125,0.9298858642578125,0.338134765625
1769661763167655200,4.7456552734375,0.1084136962890625,0.9303131103515625,0.3350677490234375
1769661763177643000,4.75564306640625,0.1062774658203125,0.9286041259765625,0.3347930908203125
1769661763187631000,4.765631103515625,0.1013946533203125,0.93084716796875,0.3352203369140625
1769661763197619200,4.775619140625,0.0938262939453125,0.93408203125,0.3364410400390625
1769661763207607000,4.78560693359375,0.087799072265625,0.9337921142578125,0.3330841064453125
1769661763217595100,4.79559521484375,0.084869384765625,0.9347381591796875,0.3320159912109375
1769661763227583200,4.805583251953125,0.0857391357421875,0.935394287109375,0.3306427001953125
1769661763237571300,4.8155712890625,0.08642578125,0.935455322265625,0.3326416015625
1769661763247559200,4.82555908203125,0.0864410400390625,0.936309814453125,0.3359832763671875
1769661763257547300,4.83554736328125,0.088592529296875,0.936859130859375,0.3379364013671875
1769661763267535000,4.84553515625,0.0918426513671875,0.9362945556640625,0.3388214111328125
1769661763277523000,4.85552294921875,0.09698486328125,0.9342498779296875,0.339080810546875
1769661763287511000,4.865510986328125,0.1011962890625,0.9329833984375,0.3383331298828125
1769661763297499100,4.8754990234375,0.1074066162109375,0.9325103759765625,0.337799072265625
1769661763307487200,4.8854873046875,0.109161376953125,0.9298095703125,0.335296630859375
1769661763317475000,4.89547509765625,0.11102294921875,0.9297943115234375,0.3337554931640625
1769661763327463200,4.905463134765625,0.1090240478515625,0.9326934814453125,0.33367919921875
1769661763337451300,4.915451171875,0.104736328125,0.9349517822265625,0.3336181640625
1769661763347439000,4.925439208984375,0.101898193359375,0.9359283447265625,0.3336944580078125
1769661763357428000,4.935427978515625,0.1000823974609375,0.935638427734375,0.33563232421875
1769661763367416000,4.945416015625,0.098846435546875,0.9356689453125,0.3348236083984375
1769661763377404200,4.955404052734375,0.0964508056640625,0.9339141845703125,0.334716796875
1769661763387392000,4.96539208984375,0.0950927734375,0.9329833984375,0.3353271484375
1769661763397380000,4.975380126953125,0.094635009765625,0.9322967529296875,0.33453369140625
1769661763407368200,4.9853681640625,0.093017578125,0.931396484375,0.334564208984375
1769661763417356300,4.995356201171875,0.0923614501953125,0.9329071044921875,0.33380126953125
1769661763427344100,5.00534423828125,0.0931854248046875,0.9334564208984375,0.3331146240234375
1769661763437332200,5.015332275390625,0.0973663330078125,0.93402099609375,0.3325653076171875
1769661763447320300,5.0253203125,0.1006011962890625,0.9355316162109375,0.337158203125
1769661763457308200,5.03530810546875,0.0998077392578125,0.9333648681640625,0.3377838134765625
1769661763467296000,5.0452958984375,0.1003570556640625,0.9312744140625,0.3372650146484375
1769661763477284000,5.0552841796875,0.100799560546875,0.9274444580078125,0.33697509765625
1769661763487272000,5.06527197265625,0.0996856689453125,0.926483154296875,0.3377685546875
1769661763497260000,5.075260009765625,0.0996551513671875,0.928619384765625,0.33843994140625
1769661763507248000,5.085248046875,0.099700927734375,0.92822265625,0.3360748291015625
1769661763517236200,5.095236328125,0.101104736328125,0.92974853515625,0.3355712890625
1769661763527224000,5.10522412109375,0.101470947265625,0.931488037109375,0.335479736328125
1769661763537212200,5.115212158203125,0.1002655029296875,0.931121826171875,0.33575439453125
1769661763547200300,5.1252001953125,0.09796142578125,0.931610107421875,0.3349761962890625
1769661763557188000,5.13518798828125,0.09613037109375,0.931396484375,0.334808349609375
1769661763567177000,5.145177001953125,0.0949249267578125,0.9317779541015625,0.33551025390625
1769661763577165000,5.1551650390625,0.0956268310546875,0.9320220947265625,0.33544921875
1769661763587153200,5.165153076171875,0.09832763671875,0.93096923828125,0.3350677490234375
1769661763597141000,5.17514111328125,0.098358154296875,0.931304931640625,0.3339691162109375
1769661763607129000,5.185129150390625,0.097564697265625,0.9326019287109375,0.3338775634765625
1769661763617117200,5.1951171875,0.0998077392578125,0.93255615234375,0.333404541015625
1769661763627105300,5.205105224609375,0.10321044921875,0.9356842041015625,0.33355712890625
1769661763637093000,5.215093017578125,0.103729248046875,0.9349822998046875,0.3326263427734375
1769661763647081200,5.225081298828125,0.10052490234375,0.9319610595703125,0.3346405029296875
1769661763657069300,5.2350693359375,0.099334716796875,0.9290008544921875,0.334991455078125
1769661763667057200,5.24505712890625,0.1002044677734375,0.93121337890625,0.335968017578125
1769661763677045000,5.255044921875,0.102874755859375,0.9287109375,0.33673095703125
1769661763687033000,5.265033203125,0.102691650390625,0.92742919921875,0.3371429443359375
1769661763697021200,5.275021240234375,0.1014862060546875,0.931671142578125,0.3376312255859375
1769661763707009000,5.285009033203125,0.102691650390625,0.935699462890625,0.334381103515625
1769661763716997000,5.2949970703125,0.102691650390625,0.937896728515625,0.332122802734375
1769661763726985200,5.304985107421875,0.1018524169921875,0.9391632080078125,0.3304443359375
1769661763736973000,5.31497314453125,0.10400390625,0.9389495849609375,0.3311004638671875
1769661763746961200,5.324961181640625,0.1053009033203125,0.936553955078125,0.3307647705078125
1769661763756949200,5.33494921875,0.1060943603515625,0.93487548828125,0.33233642578125
1769661763766938000,5.344938232421875,0.10552978515625,0.9352874755859375,0.3347930908203125
1769661763776926000,5.354926025390625,0.1020355224609375,0.9350738525390625,0.336883544921875
1769661763786914000,5.3649140625,0.1001434326171875,0.93621826171875,0.338592529296875
1769661763796902100,5.374902099609375,0.0976409912109375,0.93359375,0.335479736328125
1769661763806890200,5.38489013671875,0.0984954833984375,0.931610107421875,0.333038330078125
1769661763816878000,5.394878173828125,0.0995941162109375,0.9293060302734375,0.33233642578125
1769661763826866200,5.4048662109375,0.1002960205078125,0.927398681640625,0.3320465087890625
1769661763836854300,5.414854248046875,0.1013031005859375,0.9296722412109375,0.33050537109375
1769661763846842000,5.424842041015625,0.1003570556640625,0.930999755859375,0.3304901123046875
1769661763856830200,5.434830322265625,0.1014862060546875,0.9333648681640625,0.330322265625
1769661763866818300,5.444818359375,0.103057861328125,0.9351806640625,0.3285980224609375
1769661763876806100,5.45480615234375,0.101348876953125,0.933502197265625,0.3307037353515625
1769661763886794000,5.4647939453125,0.1049957275390625,0.933349609375,0.3328857421875
1769661763896782000,5.474781982421875,0.1153106689453125,0.941375732421875,0.32965087890625
1769661763906770200,5.484770263671875,0.1060638427734375,0.9422454833984375,0.3337249755859375
1769661763916758000,5.494758056640625,0.099029541015625,0.938873291015625,0.33319091796875
1769661763926746000,5.50474609375,0.10382080078125,0.9373626708984375,0.33123779296875
1769661763936734200,5.514734130859375,0.110565185546875,0.933135986328125,0.3281097412109375
1769661763946722000,5.52472216796875,0.111724853515625,0.9318084716796875,0.3278045654296875
1769661763956711200,5.534711181640625,0.10540771484375,0.9339599609375,0.3278350830078125
1769661763966699000,5.544698974609375,0.1027374267578125,0.93743896484375,0.329315185546875
1769661763976687000,5.55468701171875,0.0994873046875,0.940155029296875,0.329559326171875
1769661763986675000,5.564675048828125,0.096710205078125,0.9405670166015625,0.329437255859375
1769661763996663000,5.5746630859375,0.0989837646484375,0.939453125,0.32952880859375
1769661764006651100,5.584651123046875,0.100250244140625,0.9388885498046875,0.3308563232421875
1769661764016639200,5.59463916015625,0.100067138671875,0.9390716552734375,0.330474853515625
1769661764026627000,5.604626953125,0.0981292724609375,0.9376678466796875,0.3303375244140625
1769661764036615200,5.614615234375,0.096923828125,0.934814453125,0.3296051025390625
1769661764046603300,5.624603271484375,0.09783935546875,0.9333038330078125,0.32977294921875
1769661764056591000,5.634591064453125,0.0986175537109375,0.9315338134765625,0.3287353515625
1769661764066579200,5.6445791015625,0.0999755859375,0.9311065673828125,0.32794189453125
1769661764076567300,5.6545673828125,0.1009521484375,0.931396484375,0.3271026611328125
1769661764086555600,5.6645556640625,0.1019287109375,0.933074951171875,0.3278961181640625
1769661764096543500,5.67454345703125,0.1014862060546875,0.93524169921875,0.3299407958984375
1769661764106531600,5.684531494140625,0.10357666015625,0.9373626708984375,0.3318939208984375
1769661764116519700,5.694519775390625,0.1024932861328125,0.93743896484375,0.333221435546875
1769661764126507500,5.704507568359375,0.1038055419921875,0.9371185302734375,0.3339691162109375
1769661764136495600,5.71449560546875,0.1029205322265625,0.935943603515625,0.3342742919921875
1769661764146483700,5.724483642578125,0.1039886474609375,0.9355316162109375,0.334014892578125
1769661764156472600,5.73447265625,0.1044158935546875,0.9354705810546875,0.33111572265625
1769661764166460700,5.744460693359375,0.102874755859375,0.9335174560546875,0.327545166015625
1769661764176448500,5.754448486328125,0.1039581298828125,0.9322509765625,0.325897216796875
1769661764186436600,5.7644365234375,0.10333251953125,0.9310760498046875,0.325531005859375
1769661764196424700,5.7744248046875,0.1022186279296875,0.930908203125,0.3255615234375
1769661764206412500,5.78441259765625,0.1021728515625,0.9339599609375,0.326751708984375
1769661764216400600,5.794400634765625,0.1020050048828125,0.935333251953125,0.3275604248046875
1769661764226388700,5.804388671875,0.099761962890625,0.9359588623046875,0.3298187255859375
1769661764236376600,5.81437646484375,0.09796142578125,0.9352874755859375,0.3300628662109375
1769661764246364700,5.82436474609375,0.0976104736328125,0.934417724609375,0.3312225341796875
1769661764256352800,5.834352783203125,0.099273681640625,0.932952880859375,0.3292999267578125
1769661764266340600,5.844340576171875,0.100311279296875,0.9327850341796875,0.32940673828125
1769661764276328400,5.854328369140625,0.0998992919921875,0.9333648681640625,0.3290863037109375
1769661764286316500,5.864316650390625,0.1004486083984375,0.9349517822265625,0.327728271484375
1769661764296304600,5.8743046875,0.099578857421875,0.934326171875,0.3289031982421875
1769661764306292500,5.88429248046875,0.1005859375,0.9345550537109375,0.3291473388671875
1769661764316280600,5.894280517578125,0.10101318359375,0.9347076416015625,0.328460693359375
1769661764326268700,5.9042685546875,0.0997314453125,0.937408447265625,0.3299407958984375
1769661764336256800,5.9142568359375,0.0988006591796875,0.9372406005859375,0.330322265625
1769661764346244600,5.92424462890625,0.097137451171875,0.935943603515625,0.330322265625
1769661764356233500,5.9342333984375,0.09832763671875,0.936126708984375,0.330322265625
1769661764366221600,5.9442216796875,0.098297119140625,0.9353179931640625,0.330169677734375
1769661764376209700,5.954209716796875,0.1006011962890625,0.9355010986328125,0.328277587890625
1769661764386197500,5.964197509765625,0.1010589599609375,0.9334564208984375,0.3275146484375
1769661764396185600,5.974185546875,0.1018218994140625,0.934112548828125,0.3274383544921875
1769661764406173700,5.984173583984375,0.1023406982421875,0.932708740234375,0.3275146484375
1769661764416161500,5.99416162109375,0.1058349609375,0.934173583984375,0.329559326171875
1769661764426149600,6.004149658203125,0.1069183349609375,0.9349822998046875,0.3327484130859375
1769661764436137700,6.0141376953125,0.104095458984375,0.9348907470703125,0.33331298828125
1769661764446125800,6.024125732421875,0.0999603271484375,0.935577392578125,0.3329010009765625
1769661764456113700,6.03411376953125,0.10089111328125,0.938201904296875,0.3317108154296875
1769661764466101800,6.044101806640625,0.099365234375,0.935150146484375,0.329437255859375
1769661764476089600,6.054089599609375,0.0997161865234375,0.9354095458984375,0.3289947509765625
1769661764486077400,6.064077392578125,0.102020263671875,0.9359893798828125,0.32745361328125
1769661764496065500,6.0740654296875,0.1003875732421875,0.9354705810546875,0.3268280029296875
1769661764506053600,6.0840537109375,0.10064697265625,0.938507080078125,0.326751708984375
1769661764516041700,6.094041748046875,0.1025543212890625,0.94110107421875,0.3306121826171875
1769661764526029600,6.104029541015625,0.1002349853515625,0.940826416015625,0.333892822265625
1769661764536017700,6.114017578125,0.1031494140625,0.9358673095703125,0.334625244140625
1769661764546006800,6.1240068359375,0.1091156005859375,0.9327545166015625,0.3345947265625
1769661764555994600,6.13399462890625,0.1112518310546875,0.9290313720703125,0.3359527587890625
1769661764565982500,6.143982421875,0.1103668212890625,0.9299163818359375,0.3363037109375
1769661764575970600,6.153970458984375,0.106201171875,0.931640625,0.3363800048828125
1769661764585958700,6.163958740234375,0.1048736572265625,0.9359130859375,0.3327789306640625
1769661764595946500,6.173946533203125,0.1004180908203125,0.9377593994140625,0.330718994140625
1769661764605934600,6.1839345703125,0.0992584228515625,0.93701171875,0.3291778564453125
1769661764615922700,6.193922607421875,0.0977783203125,0.9369659423828125,0.3267974853515625
1769661764625910500,6.20391064453125,0.09686279296875,0.9352874755859375,0.3265838623046875
1769661764635898600,6.213898681640625,0.097900390625,0.9368438720703125,0.32666015625
1769661764645886700,6.22388671875,0.0955657958984375,0.935333251953125,0.326629638671875
1769661764655874800,6.233874755859375,0.0960540771484375,0.935211181640625,0.328521728515625
1769661764665862700,6.243862548828125,0.0989532470703125,0.9370269775390625,0.3297271728515625
1769661764675850800,6.253850830078125,0.1020355224609375,0.9342041015625,0.3324737548828125
1769661764685838600,6.263838623046875,0.103546142578125,0.9359283447265625,0.33538818359375
1769661764695826400,6.273826416015625,0.1049652099609375,0.936065673828125,0.3361968994140625
1769661764705814500,6.283814453125,0.1071014404296875,0.93402099609375,0.3344879150390625
1769661764715802600,6.293802734375,0.1072540283203125,0.9323272705078125,0.3341827392578125
1769661764725790700,6.303790771484375,0.1093292236328125,0.9322967529296875,0.3335723876953125
1769661764735779600,6.313779541015625,0.110748291015625,0.931610107421875,0.3331451416015625
1769661764745767700,6.323767578125,0.1101531982421875,0.9313812255859375,0.3334197998046875
1769661764755755800,6.333755859375,0.1060028076171875,0.933502197265625,0.3327484130859375
1769661764765743600,6.34374365234375,0.103057861328125,0.9344635009765625,0.33251953125
1769661764775731500,6.3537314453125,0.10107421875,0.9352264404296875,0.33282470703125
1769661764785719600,6.363719482421875,0.1002044677734375,0.9349365234375,0.332061767578125
1769661764795707600,6.373707763671875,0.0992279052734375,0.9359283447265625,0.3317108154296875
1769661764805695500,6.383695556640625,0.1004486083984375,0.9340362548828125,0.3302764892578125
1769661764815683600,6.39368359375,0.1011199951171875,0.93414306640625,0.3301849365234375
1769661764825671700,6.403671630859375,0.1009368896484375,0.9332122802734375,0.3291015625
1769661764835659800,6.41365966796875,0.1008758544921875,0.932861328125,0.3291473388671875
1769661764845647600,6.423647705078125,0.1020965576171875,0.9326171875,0.327728271484375
1769661764855635700,6.4336357421875,0.10198974609375,0.93505859375,0.326446533203125
1769661764865623800,6.443623779296875,0.1036376953125,0.936798095703125,0.32861328125
1769661764875611600,6.453611572265625,0.1016845703125,0.9379119873046875,0.329925537109375
1769661764885599500,6.463599609375,0.1023712158203125,0.9391937255859375,0.328948974609375
1769661764895587600,6.473587646484375,0.1021270751953125,0.939056396484375,0.327484130859375
1769661764905575700,6.48357568359375,0.1000213623046875,0.937042236328125,0.329345703125
1769661764915563500,6.4935634765625,0.100311279296875,0.9353485107421875,0.3277740478515625
1769661764925552600,6.503552734375,0.1008758544921875,0.9332122802734375,0.3253631591796875
1769661764935540700,6.513540771484375,0.0997772216796875,0.93438720703125,0.3257904052734375
1769661764945528800,6.52352880859375,0.0987396240234375,0.9349822998046875,0.326995849609375
1769661764955516700,6.5335166015625,0.098663330078125,0.934478759765625,0.32574462890625
1769661764965504800,6.5435048828125,0.0973968505859375,0.9376678466796875,0.326202392578125
1769661764975492600,6.55349267578125,0.101837158203125,0.9413909912109375,0.326171875
1769661764985480400,6.56348046875,0.1062774658203125,0.9427032470703125,0.3293609619140625
1769661764995468500,6.573468505859375,0.0955657958984375,0.9334869384765625,0.3267822265625
1769661765005456600,6.58345654296875,0.094512939453125,0.9327239990234375,0.330108642578125
1769661765015444700,6.59344482421875,0.098236083984375,0.9320068359375,0.326446533203125
1769661765025432600,6.6034326171875,0.1011962890625,0.9324798583984375,0.328765869140625
1769661765035420700,6.613420654296875,0.1023712158203125,0.9302215576171875,0.3289947509765625
1769661765045408800,6.62340869140625,0.0999298095703125,0.9290313720703125,0.3284149169921875
1769661765055396600,6.633396728515625,0.102203369140625,0.9306640625,0.3293609619140625
1769661765065384700,6.643384765625,0.1031494140625,0.9298858642578125,0.329315185546875
1769661765075372800,6.653372802734375,0.10186767578125,0.9325408935546875,0.3307342529296875
1769661765085360400,6.6633603515625,0.1002960205078125,0.9342498779296875,0.329498291015625
1769661765095348500,6.673348388671875,0.09857177734375,0.9369659423828125,0.327362060546875
1769661765105336300,6.68333642578125,0.0991668701171875,0.936614990234375,0.328369140625
1769661765115325400,6.693325439453125,0.09857177734375,0.9372406005859375,0.3286590576171875
1769661765125313300,6.703313232421875,0.0998077392578125,0.93548583984375,0.3284454345703125
1769661765135301400,6.71330126953125,0.10076904296875,0.93548583984375,0.32867431640625
1769661765145289500,6.72328955078125,0.101715087890625,0.9339141845703125,0.3275299072265625
1769661765155277600,6.733277587890625,0.1009368896484375,0.932342529296875,0.3266143798828125
1769661765165265400,6.743265380859375,0.1019134521484375,0.9331207275390625,0.3273162841796875
1769661765175253500,6.75325341796875,0.10052490234375,0.9348907470703125,0.3286895751953125
1769661765185241300,6.763241455078125,0.0987396240234375,0.93524169921875,0.329132080078125
1769661765195229200,6.773229248046875,0.1006927490234375,0.9382476806640625,0.3320770263671875
1769661765205217300,6.78321728515625,0.098175048828125,0.9360504150390625,0.3329925537109375
1769661765215205400,6.793205322265625,0.096343994140625,0.93048095703125,0.333465576171875
1769661765225193500,6.803193359375,0.0999908447265625,0.930999755859375,0.3325347900390625
1769661765235181300,6.813181396484375,0.1051025390625,0.929046630859375,0.3307342529296875
1769661765245169400,6.82316943359375,0.102081298828125,0.927703857421875,0.3319854736328125
1769661765255157500,6.833157470703125,0.0998382568359375,0.9314422607421875,0.32904052734375
1769661765265145300,6.843145263671875,0.1019439697265625,0.9358673095703125,0.3298492431640625
1769661765275133400,6.853133544921875,0.1032562255859375,0.9402313232421875,0.3282928466796875
1769661765285121500,6.86312158203125,0.1029815673828125,0.9421844482421875,0.330169677734375
1769661765295109400,6.873109375,0.101531982421875,0.9427947998046875,0.33349609375
1769661765305098200,6.88309814453125,0.1013031005859375,0.9403076171875,0.3347320556640625
1769661765315086300,6.89308642578125,0.101470947265625,0.93731689453125,0.334259033203125
1769661765325074400,6.903074462890625,0.104949951171875,0.9343414306640625,0.3328857421875
1769661765335062500,6.9130625,0.10595703125,0.9300079345703125,0.33001708984375
1769661765345050400,6.92305029296875,0.1063690185546875,0.9286651611328125,0.327606201171875
1769661765355038500,6.93303857421875,0.104461669921875,0.9315948486328125,0.3263092041015625
1769661765365026600,6.943026611328125,0.10235595703125,0.934417724609375,0.3247833251953125
1769661765375014400,6.953014404296875,0.094146728515625,0.9281005859375,0.324371337890625
1769661765385002500,6.96300244140625,0.0923004150390625,0.9315032958984375,0.3265838623046875
1769661765394990300,6.972990234375,0.098724365234375,0.936614990234375,0.3292694091796875
1769661765404978200,6.982978271484375,0.103485107421875,0.9346160888671875,0.329345703125
1769661765414966300,6.99296630859375,0.103485107421875,0.934051513671875,0.3295745849609375
1769661765424954400,7.002954345703125,0.1046905517578125,0.9328460693359375,0.3288116455078125
1769661765434942500,7.0129423828125,0.1078948974609375,0.9352569580078125,0.328125
1769661765444930300,7.022930419921875,0.107757568359375,0.93804931640625,0.33026123046875
1769661765454918400,7.03291845703125,0.1087646484375,0.9369354248046875,0.327789306640625
1769661765464906500,7.042906494140625,0.1093292236328125,0.93365478515625,0.3271026611328125
1769661765474894300,7.052894287109375,0.1082916259765625,0.9319915771484375,0.32763671875
1769661765484883200,7.06288330078125,0.1086883544921875,0.9322357177734375,0.3278961181640625
1769661765494871300,7.072871337890625,0.108184814453125,0.9316253662109375,0.327606201171875
1769661765504859400,7.082859375,0.1036376953125,0.9337615966796875,0.326416015625
1769661765514847200,7.09284716796875,0.09881591796875,0.935821533203125,0.3285064697265625
1769661765524835300,7.10283544921875,0.096435546875,0.9368896484375,0.3311309814453125
1769661765534823400,7.112823486328125,0.0968017578125,0.9365692138671875,0.3289031982421875
1769661765544811500,7.1228115234375,0.098480224609375,0.934814453125,0.3278656005859375
1769661765554799400,7.13279931640625,0.1026458740234375,0.933624267578125,0.32635498046875
1769661765564787500,7.142787353515625,0.1062164306640625,0.9332275390625,0.3279571533203125
1769661765574775600,7.152775634765625,0.106109619140625,0.932373046875,0.3276214599609375
1769661765584763400,7.162763427734375,0.1074371337890625,0.9325408935546875,0.3273773193359375
1769661765594751200,7.172751220703125,0.1075897216796875,0.93231201171875,0.3267669677734375
1769661765604739300,7.1827392578125,0.10589599609375,0.93133544921875,0.3258056640625
1769661765614727400,7.1927275390625,0.1041107177734375,0.9315338134765625,0.32464599609375
1769661765624715300,7.20271533203125,0.1043548583984375,0.9338836669921875,0.327301025390625
1769661765634703400,7.212703369140625,0.1042938232421875,0.9351348876953125,0.3247833251953125
1769661765644691500,7.22269140625,0.10308837890625,0.9371185302734375,0.3232269287109375
1769661765654679300,7.23267919921875,0.1023712158203125,0.9379119873046875,0.3242645263671875
1769661765664668400,7.24266845703125,0.1058807373046875,0.936859130859375,0.3254241943359375
1769661765674656500,7.252656494140625,0.1051025390625,0.9354095458984375,0.3267364501953125
1769661765684644400,7.262644287109375,0.110015869140625,0.935546875,0.32635498046875
1769661765694632200,7.272632080078125,0.1096649169921875,0.9355926513671875,0.3265380859375
1769661765704620300,7.282620361328125,0.109039306640625,0.9350128173828125,0.3267669677734375
1769661765714608400,7.2926083984375,0.109039306640625,0.9357147216796875,0.32708740234375
1769661765724596500,7.302596435546875,0.1112518310546875,0.9367218017578125,0.326568603515625
1769661765734584300,7.312584228515625,0.1100921630859375,0.93609619140625,0.32733154296875
1769661765744572400,7.322572509765625,0.10906982421875,0.93609619140625,0.326904296875
1769661765754560500,7.332560546875,0.107879638671875,0.9372100830078125,0.3277435302734375
1769661765764548400,7.34254833984375,0.10614013671875,0.9358062744140625,0.3278045654296875
1769661765774536400,7.352536376953125,0.1016082763671875,0.9370269775390625,0.3281097412109375
1769661765784524500,7.362524658203125,0.100982666015625,0.9369354248046875,0.3274688720703125
1769661765794512400,7.372512451171875,0.1009063720703125,0.9368438720703125,0.326324462890625
1769661765804500200,7.382500244140625,0.102325439453125,0.935699462890625,0.3243560791015625
1769661765814488300,7.39248828125,0.10333251953125,0.936279296875,0.3245391845703125
1769661765824476400,7.402476318359375,0.1032562255859375,0.936065673828125,0.3256072998046875
1769661765834465500,7.412465576171875,0.1040191650390625,0.9353790283203125,0.3253173828125
1769661765844453400,7.422453369140625,0.10479736328125,0.9357452392578125,0.3260345458984375
1769661765854441500,7.43244140625,0.10498046875,0.9345855712890625,0.326507568359375
1769661765864429600,7.4424296875,0.109100341796875,0.93389892578125,0.32806396484375
1769661765874417400,7.45241748046875,0.1091461181640625,0.9338836669921875,0.329071044921875
1769661765884405200,7.4624052734375,0.107757568359375,0.934722900390625,0.3284149169921875
1769661765894393300,7.472393310546875,0.1077117919921875,0.9359893798828125,0.3298797607421875
1769661765904381200,7.482381103515625,0.1075286865234375,0.9369964599609375,0.32861328125
1769661765914369300,7.492369384765625,0.1100921630859375,0.9364166259765625,0.3290557861328125
1769661765924357400,7.502357421875,0.110687255859375,0.9364471435546875,0.3281402587890625
1769661765934345500,7.512345458984375,0.111114501953125,0.93634033203125,0.3276214599609375
1769661765944333300,7.522333251953125,0.1094818115234375,0.9357147216796875,0.326873779296875
1769661765954321400,7.5323212890625,0.10565185546875,0.9325103759765625,0.3260345458984375
1769661765964309500,7.5423095703125,0.1038818359375,0.9324798583984375,0.3282928466796875
1769661765974297300,7.55229736328125,0.1084442138671875,0.9346923828125,0.327728271484375
1769661765984285400,7.562285400390625,0.1112518310546875,0.9322509765625,0.3240203857421875
1769661765994273500,7.5722734375,0.108367919921875,0.9298858642578125,0.325897216796875
1769661766004261400,7.582261474609375,0.11053466796875,0.9317779541015625,0.3275299072265625
1769661766014249200,7.592249267578125,0.11187744140625,0.9351043701171875,0.3257293701171875
1769661766024238300,7.60223828125,0.1094207763671875,0.9373626708984375,0.3273468017578125
1769661766034226400,7.612226318359375,0.1073455810546875,0.94036865234375,0.32989501953125
1769661766044214500,7.622214599609375,0.10614013671875,0.9433135986328125,0.3324127197265625
1769661766054202400,7.632202392578125,0.1072235107421875,0.942138671875,0.3342132568359375
1769661766064190500,7.6421904296875,0.1098175048828125,0.9384765625,0.3318023681640625
1769661766074178600,7.652178466796875,0.1143951416015625,0.9368743896484375,0.3308868408203125
1769661766084166400,7.66216650390625,0.11651611328125,0.933441162109375,0.329254150390625
1769661766094154200,7.672154296875,0.1137542724609375,0.931549072265625,0.3272857666015625
1769661766104142300,7.682142333984375,0.111846923828125,0.93115234375,0.3253936767578125
1769661766114130400,7.69213037109375,0.109954833984375,0.932037353515625,0.3229217529296875
1769661766124118300,7.7021181640625,0.108612060546875,0.9335479736328125,0.323333740234375
1769661766134106400,7.7121064453125,0.1067047119140625,0.93511962890625,0.326446533203125
1769661766144094500,7.722094482421875,0.1059722900390625,0.9370269775390625,0.327484130859375
1769661766154082600,7.73208251953125,0.1068572998046875,0.9393463134765625,0.3263092041015625
1769661766164070400,7.7420703125,0.1064910888671875,0.940582275390625,0.3251190185546875
1769661766174058500,7.75205859375,0.10699462890625,0.9383544921875,0.325897216796875
1769661766184046600,7.762046630859375,0.10858154296875,0.9381103515625,0.32659912109375
1769661766194034400,7.772034423828125,0.109466552734375,0.93658447265625,0.3271636962890625
1769661766204023300,7.782023193359375,0.1094512939453125,0.93450927734375,0.3278961181640625
1769661766214011400,7.792011474609375,0.1067352294921875,0.9323272705078125,0.32867431640625
1769661766223999500,7.80199951171875,0.1092376708984375,0.93341064453125,0.328887939453125
1769661766233987300,7.8119873046875,0.112640380859375,0.9338836669921875,0.3270721435546875
1769661766243975400,7.821975341796875,0.1137847900390625,0.932861328125,0.3278961181640625
1769661766253963500,7.831963623046875,0.1129150390625,0.9333648681640625,0.328582763671875
1769661766263951600,7.84195166015625,0.110382080078125,0.9326629638671875,0.32818603515625
1769661766273939500,7.851939453125,0.1090545654296875,0.9306640625,0.3288421630859375
1769661766283927600,7.861927490234375,0.1065826416015625,0.93133544921875,0.3291473388671875
1769661766293915400,7.871915283203125,0.104034423828125,0.9323577880859375,0.3272857666015625
1769661766303903200,7.8819033203125,0.1020050048828125,0.9339599609375,0.327728271484375
1769661766313891300,7.891891357421875,0.10272216796875,0.9346923828125,0.32861328125
1769661766323879400,7.90187939453125,0.1021270751953125,0.93487548828125,0.327484130859375
1769661766333867300,7.9118671875,0.1023101806640625,0.9335479736328125,0.3287200927734375
1769661766343855400,7.92185546875,0.10418701171875,0.9344024658203125,0.3278350830078125
1769661766353843500,7.931843505859375,0.1073150634765625,0.933258056640625,0.327667236328125
1769661766363831600,7.94183154296875,0.10980224609375,0.9324188232421875,0.328399658203125
1769661766373820400,7.9518203125,0.1103973388671875,0.934051513671875,0.327667236328125
1769661766383808300,7.961808349609375,0.111297607421875,0.9347991943359375,0.326934814453125
1769661766393796400,7.97179638671875,0.1111907958984375,0.9340362548828125,0.3271942138671875
1769661766403784400,7.981784423828125,0.113525390625,0.93524169921875,0.3286590576171875
1769661766413772300,7.991772216796875,0.113861083984375,0.936370849609375,0.329833984375
1769661766423760400,8.001760498046876,0.11053466796875,0.9348602294921875,0.3303070068359375
1769661766433748500,8.01174853515625,0.108306884765625,0.931396484375,0.3301544189453125
1769661766443736300,8.021736328125,0.1125030517578125,0.9318695068359375,0.3247222900390625
1769661766453724400,8.031724365234375,0.1123046875,0.936676025390625,0.3275604248046875
1769661766463712500,8.04171240234375,0.107574462890625,0.9374542236328125,0.329193115234375
1769661766473700600,8.05170068359375,0.1049041748046875,0.9399871826171875,0.327972412109375
1769661766483688400,8.0616884765625,0.10772705078125,0.9402923583984375,0.3271636962890625
1769661766493676500,8.071676513671875,0.1079864501953125,0.93890380859375,0.328704833984375
1769661766503664400,8.081664306640626,0.1075592041015625,0.9379730224609375,0.3269195556640625
1769661766513652200,8.09165234375,0.1073150634765625,0.937103271484375,0.328155517578125
1769661766523640300,8.101640380859376,0.105224609375,0.9366912841796875,0.3277740478515625
1769661766533628400,8.11162841796875,0.106048583984375,0.9374237060546875,0.3283538818359375
1769661766543617500,8.121617431640624,0.1067657470703125,0.93585205078125,0.327789306640625
1769661766553605400,8.13160546875,0.1066131591796875,0.9357147216796875,0.3267364501953125
1769661766563593500,8.141593505859374,0.1064910888671875,0.9350433349609375,0.3277740478515625
1769661766573581600,8.15158154296875,0.108062744140625,0.9359588623046875,0.3267822265625
1769661766583569400,8.1615693359375,0.10980224609375,0.935272216796875,0.32843017578125
1769661766593557200,8.17155712890625,0.108612060546875,0.934295654296875,0.3293609619140625
1769661766603545300,8.18154541015625,0.1093597412109375,0.93536376953125,0.330078125
1769661766613533400,8.191533447265625,0.1092376708984375,0.934783935546875,0.3295440673828125
1769661766623521300,8.201521240234374,0.1087188720703125,0.934051513671875,0.3311920166015625
1769661766633509400,8.21150927734375,0.1067047119140625,0.933197021484375,0.3305511474609375
1769661766643497500,8.22149755859375,0.1049652099609375,0.934722900390625,0.3290557861328125
1769661766653485600,8.231485595703125,0.1061553955078125,0.933685302734375,0.3290557861328125
1769661766663473400,8.241473388671874,0.1065216064453125,0.932861328125,0.3282928466796875
1769661766673461500,8.25146142578125,0.105926513671875,0.933502197265625,0.3298797607421875
1769661766683449600,8.26144970703125,0.105987548828125,0.93377685546875,0.3298187255859375
1769661766693437400,8.2714375,0.1059417724609375,0.934356689453125,0.329345703125
1769661766703425300,8.28142529296875,0.1065216064453125,0.9365692138671875,0.3302154541015625
1769661766713414400,8.291414306640625,0.1071014404296875,0.9335174560546875,0.329833984375
1769661766723402500,8.301402587890625,0.106536865234375,0.9296112060546875,0.33123779296875
1769661766733390300,8.311390380859375,0.107818603515625,0.9294891357421875,0.3307037353515625
1769661766743378400,8.32137841796875,0.110931396484375,0.9306182861328125,0.32867431640625
1769661766753366500,8.331366455078125,0.1081695556640625,0.930450439453125,0.327789306640625
1769661766763354600,8.341354736328125,0.1037139892578125,0.932403564453125,0.330322265625
1769661766773342500,8.351342529296875,0.10272216796875,0.934326171875,0.3300628662109375
1769661766783330600,8.36133056640625,0.105255126953125,0.9385833740234375,0.3309783935546875
1769661766793318400,8.371318359375,0.104949951171875,0.9377593994140625,0.327972412109375
1769661766803306200,8.38130615234375,0.1026611328125,0.9375,0.33148193359375
1769661766813294300,8.39129443359375,0.1030426025390625,0.9397430419921875,0.331573486328125
1769661766823282400,8.401282470703125,0.1038970947265625,0.9359130859375,0.331451416015625
1769661766833270300,8.411270263671875,0.1063995361328125,0.933502197265625,0.33087158203125
1769661766843258400,8.42125830078125,0.1070556640625,0.9312744140625,0.327972412109375
1769661766853246500,8.43124658203125,0.106231689453125,0.931640625,0.328643798828125
1769661766863234600,8.441234619140625,0.10693359375,0.9318389892578125,0.328369140625
1769661766873223400,8.451223388671876,0.1068267822265625,0.9329986572265625,0.3279571533203125
1769661766883211300,8.461211181640625,0.1082916259765625,0.9340057373046875,0.3284149169921875
1769661766893199400,8.471199462890626,0.108123779296875,0.93426513671875,0.32861328125
1769661766903187500,8.4811875,0.1043701171875,0.934783935546875,0.3293304443359375
1769661766913175300,8.49117529296875,0.1029510498046875,0.934173583984375,0.33013916015625
1769661766923163400,8.501163330078125,0.10504150390625,0.936492919921875,0.330047607421875
1769661766933151500,8.5111513671875,0.1036529541015625,0.938323974609375,0.3284149169921875
1769661766943139300,8.521139404296875,0.1020660400390625,0.9385986328125,0.3300933837890625
1769661766953127400,8.53112744140625,0.103759765625,0.9378662109375,0.3308563232421875
1769661766963115500,8.541115478515625,0.1071319580078125,0.9371185302734375,0.332489013671875
1769661766973103600,8.551103515625,0.1082305908203125,0.934600830078125,0.330810546875
1769661766983091500,8.561091552734375,0.1058807373046875,0.930419921875,0.3305206298828125
1769661766993079300,8.571079345703126,0.104888916015625,0.9281158447265625,0.3291168212890625
1769661767003067400,8.5810673828125,0.1074981689453125,0.93072509765625,0.3287811279296875
1769661767013055200,8.59105517578125,0.1056060791015625,0.9314727783203125,0.328948974609375
1769661767023043300,8.601043212890625,0.101715087890625,0.9341278076171875,0.331756591796875
1769661767033031400,8.611031494140626,0.1008148193359375,0.93743896484375,0.3315887451171875
1769661767043020500,8.6210205078125,0.0989227294921875,0.9368438720703125,0.331756591796875
1769661767053008400,8.63100830078125,0.1002960205078125,0.93463134765625,0.330718994140625
1769661767062996500,8.64099658203125,0.103851318359375,0.9363861083984375,0.329681396484375
1769661767072984600,8.650984619140624,0.1029052734375,0.9369659423828125,0.33013916015625
1769661767082972400,8.660972412109375,0.10162353515625,0.9394683837890625,0.3288421630859375
1769661767092960000,8.6709599609375,0.1005706787109375,0.93927001953125,0.327484130859375
1769661767102948000,8.680947998046875,0.0998382568359375,0.9371185302734375,0.3269805908203125
1769661767112936200,8.690936279296874,0.1000213623046875,0.9361419677734375,0.32763671875
1769661767122924000,8.700924072265625,0.0993499755859375,0.9344940185546875,0.3299560546875
1769661767132912000,8.710912109375,0.0979766845703125,0.9337921142578125,0.331390380859375
1769661767142900200,8.720900146484375,0.0996551513671875,0.9341278076171875,0.3309783935546875
1769661767152888300,8.730888427734374,0.1001739501953125,0.93572998046875,0.3292388916015625
1769661767162876200,8.740876220703125,0.10089111328125,0.9349212646484375,0.3312530517578125
1769661767172864300,8.7508642578125,0.1018524169921875,0.9353179931640625,0.33135986328125
1769661767182852400,8.760852294921875,0.1007843017578125,0.9360809326171875,0.331207275390625
1769661767192841200,8.77084130859375,0.103271484375,0.9368896484375,0.330902099609375
1769661767202829000,8.7808291015625,0.1024932861328125,0.939727783203125,0.3304901123046875
1769661767212817200,8.790817138671875,0.1013641357421875,0.9383392333984375,0.3302154541015625
1769661767222805200,8.80080517578125,0.0989532470703125,0.938446044921875,0.330413818359375
1769661767232793000,8.81079296875,0.099029541015625,0.938262939453125,0.3297576904296875
1769661767242781200,8.82078125,0.10015869140625,0.936248779296875,0.3302001953125
1769661767252769300,8.830769287109375,0.100616455078125,0.9337921142578125,0.330291748046875
1769661767262757000,8.840757080078125,0.1015167236328125,0.9338836669921875,0.329681396484375
1769661767272745200,8.8507451171875,0.102569580078125,0.933074951171875,0.3270111083984375
1769661767282733300,8.8607333984375,0.1013946533203125,0.9337005615234375,0.3286285400390625
1769661767292721200,8.87072119140625,0.1006622314453125,0.932098388671875,0.3292083740234375
1769661767302709000,8.880708984375,0.1002349853515625,0.930633544921875,0.3303375244140625
1769661767312697000,8.890697021484375,0.09991455078125,0.9300537109375,0.3328399658203125
1769661767322685200,8.900685302734376,0.0991363525390625,0.9306793212890625,0.3328094482421875
1769661767332673000,8.910673095703125,0.0983428955078125,0.9321746826171875,0.332489013671875
1769661767342661000,8.9206611328125,0.09716796875,0.9309844970703125,0.3311767578125
1769661767352649200,8.930649169921875,0.09771728515625,0.93231201171875,0.33056640625
1769661767362638300,8.940638427734376,0.0969390869140625,0.935638427734375,0.3291473388671875
1769661767372626200,8.950626220703125,0.0976715087890625,0.9375,0.3285980224609375
1769661767382614000,8.960614013671876,0.0972137451171875,0.9384613037109375,0.3287200927734375
1769661767392602000,8.97060205078125,0.0971527099609375,0.9387969970703125,0.32879638671875
1769661767402590200,8.980590087890626,0.098907470703125,0.9373626708984375,0.3278350830078125
1769661767412578000,8.990578125,0.0986785888671875,0.933319091796875,0.3285369873046875
1769661767422566100,9.000566162109376,0.10162353515625,0.9311370849609375,0.3297576904296875
1769661767432554200,9.01055419921875,0.1024017333984375,0.9299468994140625,0.3305206298828125
1769661767442542000,9.0205419921875,0.10040283203125,0.9305419921875,0.329833984375
1769661767452530200,9.0305302734375,0.0980072021484375,0.9303741455078125,0.32843017578125
1769661767462518300,9.040518310546876,0.098236083984375,0.932586669921875,0.327362060546875
1769661767472506400,9.05050634765625,0.099090576171875,0.9346466064453125,0.32855224609375
1769661767482494200,9.060494140625,0.1002044677734375,0.9378814697265625,0.328765869140625
1769661767492482300,9.070482421875,0.100921630859375,0.9379730224609375,0.3294219970703125
1769661767502470100,9.08047021484375,0.0984954833984375,0.9346466064453125,0.329681396484375
1769661767512459300,9.090459228515625,0.097625732421875,0.9350128173828125,0.3296966552734375
1769661767522447000,9.100447021484374,0.0990753173828125,0.93438720703125,0.327728271484375
1769661767532435200,9.110435302734375,0.09954833984375,0.93353271484375,0.3285980224609375
1769661767542423300,9.12042333984375,0.0988616943359375,0.9355621337890625,0.328155517578125
1769661767552411100,9.1304111328125,0.1022491455078125,0.9388580322265625,0.3268890380859375
1769661767562399200,9.140399169921874,0.1033172607421875,0.942596435546875,0.328399658203125
1769661767572387300,9.15038720703125,0.101104736328125,0.943695068359375,0.33062744140625
1769661767582375200,9.160375244140624,0.098968505859375,0.947052001953125,0.3335723876953125
1769661767592363000,9.170363037109375,0.0985260009765625,0.9419403076171875,0.33465576171875
1769661767602351000,9.18035107421875,0.1023712158203125,0.934844970703125,0.3348236083984375
1769661767612339200,9.190339111328125,0.1085662841796875,0.9288482666015625,0.33319091796875
1769661767622327000,9.2003271484375,0.1104888916015625,0.9239349365234375,0.3310089111328125
1769661767632315100,9.210315185546875,0.10723876953125,0.9255218505859375,0.3292388916015625
1769661767642303200,9.22030322265625,0.10504150390625,0.9288482666015625,0.3252410888671875
1769661767652291300,9.230291259765625,0.100830078125,0.9307708740234375,0.326385498046875
1769661767662279200,9.240279052734374,0.096435546875,0.932037353515625,0.32489013671875
1769661767672268000,9.25026806640625,0.0967864990234375,0.93426513671875,0.3270721435546875
1769661767682256100,9.260256103515625,0.096923828125,0.9365234375,0.328887939453125
1769661767692244200,9.270244140625,0.0960693359375,0.93829345703125,0.3290252685546875
1769661767702232000,9.280232177734375,0.0947723388671875,0.94036865234375,0.32916259765625
1769661767712220200,9.29022021484375,0.0947265625,0.940155029296875,0.3299407958984375
1769661767722208300,9.300208251953125,0.0958099365234375,0.938873291015625,0.3307952880859375
1769661767732196000,9.310196044921875,0.1000518798828125,0.9382171630859375,0.3299407958984375
1769661767742184200,9.32018408203125,0.1021881103515625,0.9388275146484375,0.3323211669921875
1769661767752172300,9.33017236328125,0.101104736328125,0.93646240234375,0.3314361572265625
1769661767762160000,9.34016015625,0.10076904296875,0.9334716796875,0.331390380859375
1769661767772148200,9.350148193359376,0.1006317138671875,0.93017578125,0.3330535888671875
1769661767782136300,9.36013623046875,0.1005859375,0.9275054931640625,0.3297119140625
1769661767792124200,9.370124267578126,0.103240966796875,0.9279632568359375,0.329681396484375
1769661767802112000,9.380112060546875,0.1036376953125,0.92987060546875,0.3314361572265625
1769661767812100000,9.39010009765625,0.1008758544921875,0.9317474365234375,0.3298187255859375
1769661767822088200,9.400088134765625,0.0956573486328125,0.934417724609375,0.3302001953125
1769661767832077300,9.410077392578126,0.095672607421875,0.938201904296875,0.328887939453125
1769661767842065200,9.420065185546875,0.0979461669921875,0.94183349609375,0.3299407958984375
1769661767852053200,9.43005322265625,0.09979248046875,0.9416351318359375,0.3295745849609375
1769661767862041300,9.440041259765625,0.1000213623046875,0.9408111572265625,0.3299560546875
1769661767872029200,9.450029296875,0.1009368896484375,0.9385528564453125,0.33221435546875
1769661767882017000,9.46001708984375,0.1025848388671875,0.9345245361328125,0.3303985595703125
1769661767892005000,9.470005126953126,0.1088409423828125,0.939117431640625,0.3311309814453125
1769661767901993200,9.4799931640625,0.097320556640625,0.92950439453125,0.3321533203125
1769661767911981000,9.48998095703125,0.087860107421875,0.9265594482421875,0.327972412109375
1769661767921969200,9.49996923828125,0.09490966796875,0.934539794921875,0.328765869140625
1769661767931957200,9.509957275390626,0.10174560546875,0.936492919921875,0.327117919921875
1769661767941945000,9.519945068359375,0.1029205322265625,0.9345703125,0.328277587890625
1769661767951933200,9.52993310546875,0.10223388671875,0.93212890625,0.32769775390625
1769661767961921300,9.53992138671875,0.1033477783203125,0.9327239990234375,0.3281707763671875
1769661767971909400,9.549909423828124,0.1034698486328125,0.9332275390625,0.3301849365234375
1769661767981898000,9.55989794921875,0.1052093505859375,0.9342803955078125,0.3298187255859375
1769661767991886000,9.569885986328124,0.1043701171875,0.9336395263671875,0.3287506103515625
1769661768001874200,9.579874267578125,0.1003265380859375,0.9369659423828125,0.32855224609375
1769661768011862300,9.5898623046875,0.1022186279296875,0.93994140625,0.3266448974609375
1769661768021850000,9.59985009765625,0.10040283203125,0.9412994384765625,0.329345703125
1769661768031838200,9.609838134765624,0.0982208251953125,0.936798095703125,0.3298492431640625
1769661768041826300,9.619826416015625,0.09942626953125,0.9320068359375,0.326690673828125
1769661768051814100,9.629814208984374,0.10150146484375,0.9346466064453125,0.3250579833984375
1769661768061802200,9.63980224609375,0.1010589599609375,0.9359130859375,0.3272705078125
1769661768071790300,9.649790283203124,0.0998687744140625,0.9356231689453125,0.3289947509765625
1769661768081778200,9.659778076171875,0.0970001220703125,0.936248779296875,0.328704833984375
1769661768091766300,9.669766357421874,0.0980987548828125,0.9370269775390625,0.3271331787109375
1769661768101754000,9.679754150390625,0.1038055419921875,0.936614990234375,0.3283843994140625
1769661768111742200,9.6897421875,0.10675048828125,0.93292236328125,0.326751708984375
1769661768121730300,9.699730224609375,0.10723876953125,0.93255615234375,0.3276824951171875
1769661768131719400,9.709719482421875,0.1084136962890625,0.931488037109375,0.3278961181640625
1769661768141707300,9.719707275390626,0.1082000732421875,0.9309539794921875,0.3257904052734375
1769661768151695400,9.7296953125,0.108154296875,0.9306182861328125,0.3252410888671875
1769661768161683200,9.73968310546875,0.10601806640625,0.9308013916015625,0.3251953125
1769661768171671000,9.749671142578125,0.10711669921875,0.93231201171875,0.3263397216796875
1769661768181659100,9.7596591796875,0.10638427734375,0.9331207275390625,0.3264617919921875
1769661768191647200,9.769647216796875,0.104217529296875,0.93341064453125,0.3276519775390625
1769661768201635300,9.77963525390625,0.1023406982421875,0.934814453125,0.32659912109375
1769661768211623200,9.789623046875,0.1027374267578125,0.9349365234375,0.326873779296875
1769661768221611300,9.799611328125,0.105926513671875,0.936309814453125,0.3246612548828125
1769661768231599400,9.809599365234375,0.1070404052734375,0.936614990234375,0.32501220703125
1769661768241587200,9.819587158203126,0.110565185546875,0.9373779296875,0.3247222900390625
1769661768251575300,9.8295751953125,0.1100616455078125,0.936279296875,0.32470703125
1769661768261563400,9.8395634765625,0.1061859130859375,0.9325714111328125,0.3233795166015625
1769661768271551500,9.849551513671875,0.1059417724609375,0.9302520751953125,0.3250274658203125
1769661768281540000,9.8595400390625,0.111358642578125,0.930877685546875,0.3266143798828125
1769661768291528200,9.869528076171875,0.1109771728515625,0.9304962158203125,0.32745361328125
1769661768301516300,9.879516357421876,0.107269287109375,0.9314727783203125,0.3294830322265625
1769661768311504400,9.88950439453125,0.107513427734375,0.9367523193359375,0.326324462890625
1769661768321492200,9.8994921875,0.109619140625,0.94091796875,0.323883056640625
1769661768331480300,9.909480224609375,0.1097869873046875,0.9435882568359375,0.3257293701171875
1769661768341468400,9.919468505859374,0.1085357666015625,0.943695068359375,0.3273162841796875
1769661768351456300,9.929456298828125,0.1087646484375,0.941864013671875,0.32696533203125
1769661768361444400,9.9394443359375,0.109588623046875,0.93798828125,0.327301025390625
1769661768371432200,9.94943212890625,0.109954833984375,0.9347686767578125,0.32647705078125
1769661768381420300,9.959420166015626,0.111053466796875,0.931671142578125,0.32464599609375
1769661768391408000,9.969408203125,0.1075897216796875,0.9306793212890625,0.322174072265625
1769661768401396200,9.979396240234376,0.1051025390625,0.9307098388671875,0.3199615478515625
1769661768411384300,9.98938427734375,0.1029815673828125,0.9317474365234375,0.3192291259765625
1769661768421372200,9.9993720703125,0.1031036376953125,0.9328155517578125,0.3199615478515625
1769661768431361300,10.009361328125,0.1033172607421875,0.9349212646484375,0.3234405517578125
1769661768441349400,10.019349365234374,0.104827880859375,0.9378204345703125,0.325408935546875
1769661768451337200,10.029337158203125,0.1042327880859375,0.9377899169921875,0.3256072998046875
1769661768461325000,10.039324951171874,0.103179931640625,0.939910888671875,0.3272705078125
1769661768471313200,10.049313232421875,0.1049346923828125,0.9398193359375,0.32635498046875
1769661768481301200,10.05930126953125,0.1051025390625,0.9385528564453125,0.3273162841796875
1769661768491289300,10.069289306640625,0.108154296875,0.936798095703125,0.3284454345703125
1769661768501277200,10.079277099609374,0.10943603515625,0.9381256103515625,0.3289337158203125
1769661768511265300,10.089265380859375,0.110504150390625,0.9353179931640625,0.3263702392578125
1769661768521253400,10.09925341796875,0.1082916259765625,0.930816650390625,0.32470703125
1769661768531241200,10.1092412109375,0.1084442138671875,0.9315338134765625,0.325164794921875
1769661768541229300,10.119229248046874,0.109588623046875,0.93341064453125,0.3244476318359375
1769661768551217400,10.129217529296875,0.10540771484375,0.9341583251953125,0.3255767822265625
1769661768561205200,10.139205322265624,0.1030426025390625,0.936065673828125,0.3270263671875
1769661768571193300,10.149193359375,0.1023712158203125,0.9378814697265625,0.331085205078125
1769661768581182200,10.15918212890625,0.1018218994140625,0.9361572265625,0.33209228515625
1769661768591170300,10.16917041015625,0.1016082763671875,0.9331207275390625,0.3292694091796875
1769661768601158400,10.179158447265625,0.1049041748046875,0.932464599609375,0.32891845703125
1769661768611146200,10.189146240234376,0.1078643798828125,0.9351348876953125,0.3279571533203125
1769661768621134300,10.19913427734375,0.108978271484375,0.934783935546875,0.32708740234375
1769661768631122400,10.209122314453126,0.10858154296875,0.93572998046875,0.328125
1769661768641110300,10.2191103515625,0.1063079833984375,0.934173583984375,0.3280029296875
1769661768651098400,10.229098388671876,0.1069183349609375,0.932708740234375,0.326263427734375
1769661768661086200,10.239086181640625,0.1067657470703125,0.93170166015625,0.326507568359375
1769661768671074000,10.249073974609376,0.10552978515625,0.9332733154296875,0.3276824951171875
1769661768681062100,10.259062255859375,0.10296630859375,0.9341888427734375,0.3286590576171875
1769661768691050200,10.26905029296875,0.1002044677734375,0.936004638671875,0.3301544189453125
1769661768701038300,10.279038330078125,0.0960235595703125,0.9381256103515625,0.3315277099609375
1769661768711026200,10.289026123046876,0.0986328125,0.9395599365234375,0.332489013671875
1769661768721014300,10.29901416015625,0.101806640625,0.9373931884765625,0.3316192626953125
1769661768731003400,10.30900341796875,0.1041412353515625,0.9354400634765625,0.331756591796875
1769661768740991200,10.3189912109375,0.10845947265625,0.9351348876953125,0.33148193359375
1769661768750979000,10.32897900390625,0.1103363037109375,0.9344635009765625,0.3306427001953125
1769661768760967200,10.33896728515625,0.1115875244140625,0.933868408203125,0.3292388916015625
1769661768770955300,10.348955322265626,0.10968017578125,0.9349517822265625,0.3299407958984375
1769661768780943000,10.358943115234375,0.109222412109375,0.9376220703125,0.327728271484375
1769661768790931200,10.36893115234375,0.109039306640625,0.9375152587890625,0.3274383544921875
1769661768800919300,10.378919189453125,0.1075592041015625,0.937774658203125,0.3282318115234375
1769661768810907400,10.388907470703124,0.1069488525390625,0.9386749267578125,0.3278961181640625
1769661768820895200,10.398895263671875,0.1050262451171875,0.9360198974609375,0.3281097412109375
1769661768830883300,10.40888330078125,0.1051177978515625,0.9349365234375,0.330230712890625
1769661768840871400,10.418871337890625,0.1054534912109375,0.9349212646484375,0.3292083740234375
1769661768850859300,10.428859375,0.107330322265625,0.9350433349609375,0.3301544189453125
1769661768860847400,10.438847412109375,0.1082916259765625,0.9349517822265625,0.328857421875
1769661768870836200,10.448836181640624,0.1086578369140625,0.9341888427734375,0.327728271484375
1769661768880824300,10.45882421875,0.1106719970703125,0.9331512451171875,0.3288421630859375
1769661768890812200,10.468812255859374,0.1100311279296875,0.9322662353515625,0.3281707763671875
1769661768900800300,10.47880029296875,0.10992431640625,0.9338836669921875,0.33038330078125
1769661768910788400,10.488788330078124,0.1104736328125,0.9344482421875,0.3293304443359375
1769661768920776400,10.4987763671875,0.1062774658203125,0.93414306640625,0.328948974609375
1769661768930764300,10.508764404296874,0.1058197021484375,0.9340972900390625,0.3271942138671875
1769661768940752400,10.51875244140625,0.104766845703125,0.9340972900390625,0.3275604248046875
1769661768950740200,10.528740234375,0.102020263671875,0.935577392578125,0.326385498046875
1769661768960728000,10.53872802734375,0.09912109375,0.934814453125,0.327056884765625
1769661768970716200,10.548716064453124,0.10028076171875,0.9355010986328125,0.326324462890625
1769661768980704300,10.558704345703125,0.1005859375,0.9354095458984375,0.3248291015625
1769661768990692400,10.5686923828125,0.104888916015625,0.934112548828125,0.3227691650390625
1769661769000680200,10.57868017578125,0.106414794921875,0.9357147216796875,0.323760986328125
1769661769010669300,10.58866943359375,0.1077728271484375,0.934967041015625,0.324005126953125
1769661769020657400,10.598657470703126,0.10455322265625,0.9346923828125,0.3249969482421875
1769661769030645200,10.608645263671875,0.1034088134765625,0.9326019287109375,0.32427978515625
1769661769040633000,10.618633056640626,0.1072540283203125,0.9324951171875,0.326507568359375
1769661769050621200,10.62862109375,0.1089935302734375,0.935821533203125,0.32379150390625
1769661769060609300,10.638609375,0.104339599609375,0.9355010986328125,0.321319580078125
1769661769070597000,10.64859716796875,0.09979248046875,0.9348297119140625,0.3194732666015625
1769661769080585200,10.658585205078126,0.1006317138671875,0.93817138671875,0.318450927734375
1769661769090573300,10.6685732421875,0.101898193359375,0.94219970703125,0.3202667236328125
1769661769100561400,10.6785615234375,0.09735107421875,0.9419097900390625,0.3230133056640625
1769661769110549200,10.68854931640625,0.096405029296875,0.9422760009765625,0.323638916015625
1769661769120537300,10.698537353515626,0.0994873046875,0.9395294189453125,0.32452392578125
1769661769130525400,10.708525390625,0.1062164306640625,0.938385009765625,0.3248291015625
1769661769140513300,10.71851318359375,0.1080474853515625,0.9351959228515625,0.3239898681640625
1769661769150502100,10.728502197265625,0.1068878173828125,0.9348907470703125,0.32598876953125
1769661769160490200,10.738490234375,0.109222412109375,0.934539794921875,0.327606201171875
1769661769170478300,10.748478271484375,0.110809326171875,0.936431884765625,0.3328094482421875
1769661769180466200,10.758466064453126,0.102813720703125,0.92633056640625,0.3355865478515625
1769661769190454300,10.768454345703125,0.1064453125,0.9075775146484375,0.355499267578125
1769661769200442400,10.7784423828125,0.1409454345703125,0.9188079833984375,0.3483123779296875
1769661769210430200,10.78843017578125,0.1471099853515625,0.933074951171875,0.3346405029296875
1769661769220418300,10.798418212890626,0.1214447021484375,0.939117431640625,0.329193115234375
1769661769230406400,10.808406494140625,0.0921478271484375,0.9384918212890625,0.33453369140625
1769661769240394200,10.818394287109374,0.089324951171875,0.9415740966796875,0.3262176513671875
1769661769250382000,10.828382080078125,0.0877227783203125,0.94580078125,0.313262939453125
1769661769260370200,10.8383701171875,0.07696533203125,0.946624755859375,0.314239501953125
1769661769270358300,10.848358154296875,0.075714111328125,0.943115234375,0.321624755859375
1769661769280346000,10.85834619140625,0.081451416015625,0.9366302490234375,0.3359222412109375
1769661769290335200,10.868335205078125,0.0910491943359375,0.92718505859375,0.3411712646484375
1769661769300323300,10.8783232421875,0.1034088134765625,0.9243621826171875,0.34051513671875
1769661769310311400,10.8883115234375,0.1126861572265625,0.9257659912109375,0.3341217041015625
1769661769320299300,10.89829931640625,0.1160888671875,0.930419921875,0.3310546875
1769661769330287000,10.908287109375,0.11328125,0.934783935546875,0.329315185546875
1769661769340275200,10.918275146484374,0.1128997802734375,0.9348907470703125,0.330169677734375
1769661769350263300,10.92826318359375,0.11346435546875,0.9338836669921875,0.32818603515625
1769661769360251100,10.938251220703124,0.109527587890625,0.9329681396484375,0.32940673828125
1769661769370239200,10.9482392578125,0.1050872802734375,0.932373046875,0.33233642578125
1769661769380227300,10.958227294921874,0.1031494140625,0.9334259033203125,0.3325347900390625
1769661769390215200,10.968215087890625,0.0967254638671875,0.933807373046875,0.328643798828125
1769661769400203300,10.978203369140624,0.0891876220703125,0.934906005859375,0.326446533203125
1769661769410191400,10.98819140625,0.0912322998046875,0.9374237060546875,0.3221435546875
1769661769420179500,10.998179443359374,0.0929107666015625,0.936920166015625,0.3217620849609375
1769661769430168000,11.00816796875,0.0936737060546875,0.938018798828125,0.32537841796875
1769661769440156200,11.01815625,0.0946197509765625,0.9378509521484375,0.3238525390625
1769661769450144300,11.028144287109376,0.09954833984375,0.93511962890625,0.3234100341796875
1769661769460132400,11.03813232421875,0.10369873046875,0.93572998046875,0.322601318359375
1769661769470120200,11.0481201171875,0.1041717529296875,0.9368896484375,0.32379150390625
1769661769480108300,11.0581083984375,0.10284423828125,0.9355316162109375,0.32659912109375
1769661769490096400,11.068096435546876,0.103912353515625,0.9353179931640625,0.3284149169921875
1769661769500084200,11.078084228515625,0.10784912109375,0.9357452392578125,0.3302764892578125
1769661769510072300,11.088072265625,0.10943603515625,0.936798095703125,0.3288421630859375
1769661769520060400,11.098060302734375,0.1095428466796875,0.9380035400390625,0.3272552490234375
1769661769530048300,11.10804833984375,0.105621337890625,0.9388580322265625,0.3276519775390625
1769661769540036000,11.1180361328125,0.107696533203125,0.9393157958984375,0.328582763671875
1769661769550024200,11.128024169921876,0.1088409423828125,0.9399566650390625,0.3287506103515625
1769661769560013300,11.138013427734375,0.1087188720703125,0.936614990234375,0.32867431640625
1769661769570001400,11.14800146484375,0.1083831787109375,0.9340667724609375,0.328216552734375
1769661769579989200,11.1579892578125,0.107208251953125,0.93328857421875,0.3270111083984375
1769661769589977300,11.167977294921876,0.108795166015625,0.934722900390625,0.326385498046875
1769661769599965400,11.17796533203125,0.1070556640625,0.93353271484375,0.3245391845703125
1769661769609953300,11.187953369140626,0.1050262451171875,0.9312744140625,0.323455810546875
1769661769619941000,11.197941162109375,0.10369873046875,0.932464599609375,0.323944091796875
1769661769629929200,11.20792919921875,0.1030426025390625,0.9371795654296875,0.3260955810546875
1769661769639917300,11.217917236328125,0.102508544921875,0.9383392333984375,0.329345703125
1769661769649905200,11.2279052734375,0.0997467041015625,0.937408447265625,0.3271484375
1769661769659893200,11.237893310546875,0.100067138671875,0.9443206787109375,0.3309326171875
1769661769669881300,11.24788134765625,0.09954833984375,0.942474365234375,0.3294677734375
1769661769679869200,11.257869140625,0.1016845703125,0.9408721923828125,0.3263092041015625
1769661769689857300,11.267857177734374,0.1070404052734375,0.9376220703125,0.3288116455078125
1769661769699846100,11.27784619140625,0.1083526611328125,0.93603515625,0.327972412109375
1769661769709834200,11.287834228515624,0.1094818115234375,0.9350433349609375,0.327301025390625
1769661769719822000,11.297822021484375,0.1103515625,0.9371185302734375,0.3276214599609375
1769661769729810200,11.30781005859375,0.1100616455078125,0.937530517578125,0.329193115234375
1769661769739798300,11.31779833984375,0.112060546875,0.9372711181640625,0.32891845703125
1769661769749786400,11.327786376953124,0.11431884765625,0.9359588623046875,0.3284912109375
1769661769759774200,11.337774169921875,0.1166229248046875,0.9362945556640625,0.3273773193359375
1769661769769762300,11.34776220703125,0.1128082275390625,0.9339141845703125,0.3256378173828125
1769661769779750400,11.35775048828125,0.1061553955078125,0.9326934814453125,0.3239288330078125
1769661769789738200,11.36773828125,0.100860595703125,0.931671142578125,0.321563720703125
1769661769799726300,11.377726318359375,0.09930419921875,0.9339447021484375,0.321624755859375
1769661769809714400,11.38771435546875,0.0928802490234375,0.9379119873046875,0.3206024169921875
1769661769819702300,11.397702392578125,0.08642578125,0.94427490234375,0.320953369140625
1769661769829690000,11.407690185546874,0.08331298828125,0.9488677978515625,0.3206787109375
1769661769839679200,11.41767919921875,0.080902099609375,0.948211669921875,0.323089599609375
1769661769849667300,11.427667236328125,0.085418701171875,0.94659423828125,0.324554443359375
1769661769859655400,11.437655517578126,0.09161376953125,0.941558837890625,0.328765869140625
1769661769869643300,11.447643310546875,0.0998687744140625,0.936859130859375,0.33709716796875
1769661769879631400,11.45763134765625,0.1079254150390625,0.9308013916015625,0.340545654296875
1769661769889619500,11.467619384765625,0.110504150390625,0.9263763427734375,0.3414306640625
1769661769899607300,11.477607177734376,0.1114349365234375,0.921142578125,0.3416748046875
1769661769909595100,11.48759521484375,0.110382080078125,0.920440673828125,0.3430938720703125
1769661769919583200,11.497583251953126,0.10540771484375,0.9227752685546875,0.342742919921875
1769661769929571000,11.507571044921875,0.1027069091796875,0.9240875244140625,0.339202880859375
1769661769939559200,11.51755908203125,0.0988922119140625,0.924560546875,0.3363494873046875
1769661769949547300,11.52754736328125,0.09259033203125,0.928558349609375,0.3354034423828125
1769661769959535400,11.537535400390626,0.0873260498046875,0.92999267578125,0.3344573974609375
1769661769969523200,11.547523193359375,0.0839996337890625,0.9324188232421875,0.33575439453125
1769661769979512300,11.55751220703125,0.08331298828125,0.9337615966796875,0.3387298583984375
1769661769989500200,11.567500244140625,0.0836639404296875,0.9343719482421875,0.3390960693359375
1769661769999488300,11.57748828125,0.084320068359375,0.9357147216796875,0.337615966796875
1769661770009476000,11.58747607421875,0.0883941650390625,0.935882568359375,0.3360595703125
1769661770019464200,11.597464111328126,0.0909881591796875,0.9341278076171875,0.335784912109375
1769661770029452300,11.607452392578125,0.0929718017578125,0.9303436279296875,0.3337249755859375
1769661770039440100,11.617440185546876,0.0937957763671875,0.9246368408203125,0.333770751953125
1769661770049428200,11.62742822265625,0.0959625244140625,0.9250640869140625,0.3320465087890625
1769661770059416300,11.637416259765626,0.099456787109375,0.929046630859375,0.3321075439453125
1769661770069404400,11.647404296875,0.09613037109375,0.9308929443359375,0.334075927734375
1769661770079392300,11.657392333984374,0.0927734375,0.933990478515625,0.3376312255859375
1769661770089380900,11.667380859375,0.0919342041015625,0.9356689453125,0.3390960693359375
1769661770099368700,11.67736865234375,0.0960235595703125,0.934722900390625,0.3394622802734375
1769661770109357800,11.68735791015625,0.0997314453125,0.9339447021484375,0.3383941650390625
1769661770119345700,11.697345703125,0.097991943359375,0.933868408203125,0.337371826171875
1769661770129333800,11.707333740234375,0.094696044921875,0.9334716796875,0.33526611328125
1769661770139321900,11.71732177734375,0.090850830078125,0.93280029296875,0.3316497802734375
1769661770149310000,11.72731005859375,0.0861968994140625,0.9312744140625,0.3316802978515625
1769661770159297800,11.7372978515625,0.0868988037109375,0.9316558837890625,0.3297119140625
1769661770169286000,11.747285888671875,0.0898590087890625,0.9342803955078125,0.329376220703125
1769661770179273700,11.757273681640624,0.0933074951171875,0.9363555908203125,0.3319244384765625
1769661770189261600,11.767261474609375,0.0920562744140625,0.936614990234375,0.333984375
1769661770199249700,11.777249755859375,0.0937347412109375,0.9359130859375,0.3343505859375
1769661770209237800,11.78723779296875,0.0973663330078125,0.934234619140625,0.334869384765625
1769661770219225600,11.7972255859375,0.0966339111328125,0.9326019287109375,0.3341827392578125
1769661770229214700,11.807214599609376,0.0938568115234375,0.9311676025390625,0.336090087890625
1769661770239202800,11.817202880859375,0.0920257568359375,0.93280029296875,0.3353271484375
1769661770249191000,11.82719091796875,0.0909423828125,0.934600830078125,0.33477783203125
1769661770259178800,11.8371787109375,0.089599609375,0.9368438720703125,0.3354339599609375
1769661770269166600,11.84716650390625,0.0908203125,0.9385223388671875,0.3367156982421875
1769661770279154700,11.85715478515625,0.092529296875,0.9365997314453125,0.336273193359375
1769661770289142800,11.867142822265626,0.0944061279296875,0.935028076171875,0.336334228515625
1769661770299130600,11.877130615234375,0.0932159423828125,0.9320068359375,0.336334228515625
1769661770309118700,11.88711865234375,0.0935516357421875,0.92901611328125,0.336944580078125
1769661770319106800,11.89710693359375,0.0918426513671875,0.9287567138671875,0.337493896484375
1769661770329094700,11.9070947265625,0.0912628173828125,0.9332275390625,0.338592529296875
1769661770339082800,11.917082763671875,0.0880889892578125,0.93243408203125,0.338104248046875
1769661770349070800,11.92707080078125,0.085418701171875,0.93170166015625,0.3409881591796875
1769661770359059000,11.937058837890625,0.0907745361328125,0.9322662353515625,0.3400421142578125
1769661770369047800,11.9470478515625,0.090545654296875,0.92889404296875,0.339569091796875
1769661770379035600,11.95703564453125,0.0908203125,0.926849365234375,0.3426666259765625
1769661770389023700,11.967023681640624,0.0955810546875,0.928314208984375,0.3427886962890625
1769661770399011800,11.97701171875,0.0957489013671875,0.929595947265625,0.3458404541015625
1769661770408999700,11.986999755859374,0.0945587158203125,0.927825927734375,0.346954345703125
1769661770418987800,11.99698779296875,0.0942535400390625,0.92877197265625,0.3500213623046875
1769661770428975900,12.006975830078124,0.0965423583984375,0.929473876953125,0.348419189453125
1769661770438963700,12.016963623046875,0.0966033935546875,0.93133544921875,0.353179931640625
1769661770448951800,12.026951904296874,0.0931396484375,0.9319000244140625,0.347625732421875
1769661770458940000,12.03693994140625,0.093963623046875,0.9294891357421875,0.3414459228515625
1769661770468927700,12.046927734375,0.097564697265625,0.93267822265625,0.339324951171875
1769661770478915600,12.05691552734375,0.1038360595703125,0.9340972900390625,0.3354339599609375
1769661770488903700,12.066903564453124,0.1040496826171875,0.9377593994140625,0.33184814453125
1769661770498892800,12.076892822265625,0.102569580078125,0.941650390625,0.3298492431640625
1769661770508881000,12.086880859375,0.0980987548828125,0.944580078125,0.32684326171875
1769661770518868700,12.09686865234375,0.088470458984375,0.94427490234375,0.323577880859375
1769661770528856800,12.10685693359375,0.0822906494140625,0.9437408447265625,0.3222503662109375
1769661770538845000,12.116844970703125,0.0782318115234375,0.9413604736328125,0.320281982421875
1769661770548832800,12.126832763671874,0.0760040283203125,0.94085693359375,0.3186187744140625
1769661770558820600,12.136820556640625,0.076904296875,0.941314697265625,0.316986083984375
1769661770568808700,12.14680859375,0.0755615234375,0.9402008056640625,0.3152313232421875
1769661770578796800,12.156796875,0.07977294921875,0.93682861328125,0.3170318603515625
1769661770588784600,12.16678466796875,0.085845947265625,0.9334259033203125,0.3202667236328125
1769661770598772700,12.176772705078125,0.0918121337890625,0.928192138671875,0.3220977783203125
1769661770608760800,12.1867607421875,0.09503173828125,0.92962646484375,0.3262939453125
1769661770618748700,12.196748779296875,0.0975494384765625,0.9323883056640625,0.333740234375
1769661770628737800,12.20673779296875,0.0948486328125,0.9345245361328125,0.33709716796875
1769661770638725600,12.2167255859375,0.094635009765625,0.93487548828125,0.33953857421875
1769661770648713700,12.226713623046875,0.0947418212890625,0.935150146484375,0.340087890625
1769661770658701600,12.23670166015625,0.0982818603515625,0.933074951171875,0.338653564453125
1769661770668689700,12.246689697265625,0.09881591796875,0.930877685546875,0.33880615234375
1769661770678677800,12.256677734375,0.0960235595703125,0.9307403564453125,0.337249755859375
1769661770688665900,12.266665771484375,0.0937042236328125,0.93157958984375,0.3365631103515625
1769661770698653700,12.27665380859375,0.0943450927734375,0.935394287109375,0.333770751953125
1769661770708641800,12.286641845703125,0.094696044921875,0.9387359619140625,0.3341522216796875
1769661770718630000,12.2966298828125,0.0928955078125,0.9384765625,0.3363494873046875
1769661770728617700,12.30661767578125,0.0941925048828125,0.937652587890625,0.3377685546875
1769661770738605800,12.316605712890626,0.09814453125,0.934967041015625,0.3377838134765625
1769661770748594700,12.3265947265625,0.097991943359375,0.9324798583984375,0.3387298583984375
1769661770758582800,12.336582763671874,0.094940185546875,0.9297943115234375,0.3399658203125
1769661770768570600,12.346570556640625,0.0954132080078125,0.92803955078125,0.340667724609375
1769661770778558700,12.356558837890624,0.101409912109375,0.9264984130859375,0.3388671875
1769661770788546800,12.366546875,0.106658935546875,0.9264068603515625,0.3362884521484375
1769661770798535000,12.376534912109374,0.106781005859375,0.9277496337890625,0.334136962890625
1769661770808522800,12.386522705078125,0.1002044677734375,0.929412841796875,0.3336944580078125
1769661770818510800,12.3965107421875,0.09637451171875,0.9292755126953125,0.331634521484375
1769661770828499000,12.4064990234375,0.0938262939453125,0.9315032958984375,0.3311309814453125
1769661770838486800,12.41648681640625,0.0938262939453125,0.9324493408203125,0.32861328125
1769661770848474600,12.426474609375,0.0933074951171875,0.9345855712890625,0.3275299072265625
1769661770858462700,12.436462646484374,0.09185791015625,0.93701171875,0.3303375244140625
1769661770868450800,12.446450927734375,0.0927581787109375,0.9388580322265625,0.3322601318359375
1769661770878439700,12.456439697265624,0.093414306640625,0.9392547607421875,0.3354034423828125
1769661770888427800,12.466427734375,0.091033935546875,0.93572998046875,0.336334228515625
1769661770898415900,12.476415771484374,0.0911865234375,0.9315032958984375,0.337860107421875
1769661770908404000,12.486404052734375,0.09576416015625,0.930023193359375,0.336456298828125
1769661770918391800,12.496391845703124,0.1013031005859375,0.9289703369140625,0.334686279296875
1769661770928379600,12.506379638671875,0.1052398681640625,0.931640625,0.336639404296875
1769661770938367700,12.51636767578125,0.1073150634765625,0.93310546875,0.3364410400390625
1769661770948355600,12.52635546875,0.1071929931640625,0.9343414306640625,0.336334228515625
1769661770958343700,12.53634375,0.105987548828125,0.9354248046875,0.33319091796875
1769661770968331800,12.546331787109375,0.1052703857421875,0.9371337890625,0.3312835693359375
1769661770978319600,12.556319580078124,0.1041717529296875,0.9370269775390625,0.32861328125
1769661770988307700,12.5663076171875,0.097625732421875,0.9389801025390625,0.3274383544921875
1769661770998296800,12.576296875,0.0926361083984375,0.9398956298828125,0.3267974853515625
1769661771008285000,12.586284912109376,0.090606689453125,0.9406585693359375,0.325408935546875
1769661771018272800,12.596272705078125,0.0916290283203125,0.9411163330078125,0.323394775390625
1769661771028260600,12.606260498046876,0.096099853515625,0.9413604736328125,0.32220458984375
1769661771038248700,12.616248779296875,0.100616455078125,0.93798828125,0.320892333984375
1769661771048236800,12.62623681640625,0.10345458984375,0.9368133544921875,0.32147216796875
1769661771058224600,12.636224609375,0.1046295166015625,0.935333251953125,0.3205108642578125
1769661771068212700,12.646212646484376,0.1043243408203125,0.9322662353515625,0.32366943359375
1769661771078200800,12.656200927734375,0.1039276123046875,0.9322967529296875,0.3256378173828125
1769661771088188000,12.66618798828125,0.10357666015625,0.9321136474609375,0.3269500732421875
1769661771098176000,12.676176025390625,0.1051788330078125,0.9323272705078125,0.3268585205078125
1769661771108163800,12.686163818359375,0.1033935546875,0.935760498046875,0.32757568359375
1769661771118152000,12.69615185546875,0.1021881103515625,0.9364013671875,0.327056884765625
1769661771128140800,12.706140869140626,0.1019287109375,0.9362945556640625,0.327545166015625
1769661771138129000,12.71612890625,0.1028289794921875,0.93634033203125,0.326385498046875
1769661771148116700,12.72611669921875,0.099395751953125,0.934967041015625,0.325927734375
1769661771158104800,12.736104736328125,0.097015380859375,0.9359893798828125,0.3289337158203125
1769661771168093000,12.746093017578126,0.0977020263671875,0.9366302490234375,0.3298492431640625
1769661771178081000,12.7560810546875,0.098876953125,0.93939208984375,0.3299560546875
1769661771188068900,12.76606884765625,0.1007843017578125,0.9376220703125,0.33026123046875
1769661771198057000,12.776056884765625,0.1038970947265625,0.936767578125,0.3298187255859375
1769661771208045000,12.786045166015626,0.107208251953125,0.9335784912109375,0.3291015625
1769661771218033000,12.796032958984375,0.1057586669921875,0.9324188232421875,0.32843017578125
1769661771228021000,12.80602099609375,0.1060028076171875,0.9308624267578125,0.328582763671875
1769661771238009000,12.816009033203125,0.1050262451171875,0.9320068359375,0.3292236328125
1769661771247998000,12.825998046875,0.10406494140625,0.9326934814453125,0.328887939453125
1769661771257985800,12.83598583984375,0.1045684814453125,0.935638427734375,0.329986572265625
1769661771267974000,12.845973876953124,0.1079864501953125,0.936920166015625,0.3286895751953125
1769661771277962000,12.8559619140625,0.1055908203125,0.9371795654296875,0.3283843994140625
1769661771287950000,12.8659501953125,0.1071014404296875,0.93817138671875,0.3284149169921875
1769661771297938000,12.87593798828125,0.1067657470703125,0.9395599365234375,0.3284454345703125
1769661771307926000,12.885926025390624,0.1053619384765625,0.9380950927734375,0.3274688720703125
1769661771317914000,12.8959140625,0.10406494140625,0.93798828125,0.3273468017578125
1769661771327902000,12.90590185546875,0.1050567626953125,0.9371795654296875,0.3261871337890625
1769661771337889800,12.915889892578125,0.10430908203125,0.9367218017578125,0.326507568359375
1769661771347878000,12.9258779296875,0.1033172607421875,0.937347412109375,0.32763671875
1769661771357866000,12.935865966796875,0.1029815673828125,0.9369049072265625,0.3276824951171875
1769661771367854800,12.945854736328124,0.10430908203125,0.934295654296875,0.32769775390625
1769661771377843000,12.955843017578125,0.10479736328125,0.9344329833984375,0.3285064697265625
1769661771387831000,12.9658310546875,0.106842041015625,0.934051513671875,0.3303680419921875
1769661771397819100,12.975819091796875,0.107513427734375,0.9333648681640625,0.3310394287109375
1769661771407807000,12.985806884765625,0.10601806640625,0.933990478515625,0.331878662109375
1769661771417794800,12.995794921875,0.108367919921875,0.9367218017578125,0.33245849609375
1769661771427783000,13.005782958984375,0.10809326171875,0.9383544921875,0.3325347900390625
1769661771437770800,13.015770751953125,0.109100341796875,0.936553955078125,0.3317718505859375
1769661771447758800,13.0257587890625,0.106964111328125,0.9327850341796875,0.33111572265625
1769661771457747000,13.035746826171875,0.105499267578125,0.9309539794921875,0.3330230712890625
1769661771467734800,13.04573486328125,0.1064910888671875,0.930633544921875,0.333709716796875
1769661771477723000,13.055722900390625,0.1070098876953125,0.927734375,0.3322296142578125
1769661771487711000,13.0657109375,0.1067962646484375,0.928955078125,0.3312530517578125
1769661771497700000,13.0757001953125,0.105133056640625,0.9322662353515625,0.33111572265625
1769661771507688000,13.08568798828125,0.10479736328125,0.9370574951171875,0.3303070068359375
1769661771517675800,13.09567578125,0.104766845703125,0.94061279296875,0.331268310546875
1769661771527663900,13.105663818359375,0.1022796630859375,0.9407196044921875,0.334747314453125
1769661771537652000,13.11565185546875,0.1024322509765625,0.9401397705078125,0.3365020751953125
1769661771547639800,13.125639892578125,0.1054840087890625,0.93682861328125,0.335784912109375
1769661771557628000,13.1356279296875,0.1085052490234375,0.9344482421875,0.3349151611328125
1769661771567616000,13.145615966796875,0.1055450439453125,0.931549072265625,0.33148193359375
1769661771577603800,13.155603759765626,0.1009674072265625,0.9281005859375,0.33209228515625
