time,seconds_elapsed,z,y,x
1769661758493253600,0.071253662109375,0.01862462097108364,-0.026375965750217435,-0.03999444899708032
1769661758503241700,0.08124169921875,-0.01379530111849308,-0.052534489357471466,-0.03831862473934888
1769661758513229800,0.091229736328125,-0.018406155914813278,-0.05770692355930805,-0.06071984163969755
1769661758523217700,0.1012177734375,-0.04022504288256168,-0.057657823720574375,-0.0726557786270976
1769661758533205800,0.111205810546875,-0.06918342634141444,-0.06410626920759678,-0.06837795517742633
1769661758543193900,0.12119384765625,-0.054690790608525275,-0.06330722778439521,-0.02051701058894396
1769661758553181700,0.131181640625,-0.04453654940612614,-0.05237900653481483,0.0009732289463281631
1769661758563169800,0.141169677734375,-0.043781274059414864,-0.059984220841526985,0.003228606657683849
1769661758573158000,0.151157958984375,-0.03818213887810707,-0.03819967453479767,0.001426233410835266
1769661758583146000,0.16114599609375,-0.048033743872120976,-0.03486263906657695,-0.029491175161302088
1769661758593133600,0.171133544921875,-0.031883404060080646,-0.0401677597373724,-0.04699906706213951
1769661758603121700,0.18112158203125,-0.05451601856350898,-0.023225977286696432,-0.027504092997312546
1769661758613109800,0.19110986328125,-0.07785831570625305,-0.03709434364140034,-0.013042436924576758
1769661758623097600,0.20109765625,-0.02552687464021146,-0.05492109223306179,0.016621756716072557
1769661758633085700,0.211085693359375,0.00904781433045864,-0.06323591611385346,0.07066752741932869
1769661758643073800,0.22107373046875,0.05519983610920608,-0.055202831783890724,0.10811492228209972
1769661758653062000,0.231061767578125,0.08189443935453891,-0.04329728993475437,0.06024784021377563
1769661758663049700,0.2410498046875,0.08072071940004825,-0.02743278132677078,0.04482873728573322
1769661758673037800,0.251037841796875,0.018087956811115146,-0.039086394241452216,0.026655367213487623
1769661758683026000,0.26102587890625,-0.05131335006467998,-0.0267173265337944,0.00040302784293889997
1769661758693013800,0.271013671875,-0.03659399290382862,-0.037624504995346066,-0.0033458032965660092
1769661758703001900,0.281001953125,-0.0050433279294520615,-0.09238485370874404,0.03177753253281116
1769661758712990700,0.29099072265625,0.05829838664643466,-0.08919453323483467,0.14638123231232164
1769661758722978800,0.300978759765625,0.17855916233956812,-0.03369359528720379,0.17061843246817587
1769661758732966700,0.310966552734375,0.1480956350147724,-0.03359539560973644,-0.005420856004953384
1769661758742954800,0.320954833984375,-0.08557400465011596,-0.04841594812273979,-0.0946744259506464
1769661758752942800,0.33094287109375,-0.22371932353675364,-0.0012017770051956176,-0.02657002701759338
1769661758762931000,0.340930908203125,-0.11899112108349799,0.015303367593884468,0.050098202121257776
1769661758772918800,0.350918701171875,0.009176993668079376,-0.049096331602334974,0.024476854130625725
1769661758782907000,0.360906982421875,0.04588854853697121,-0.07403788063526154,-0.011612988643348216
1769661758792894700,0.370894775390625,-0.0248263982206583,-0.09884031345844269,-0.024252689985930918
1769661758802882600,0.380882568359375,-0.04255611617863178,-0.09483750755786895,0.0009703063368797302
1769661758812870700,0.39087060546875,-0.01402443369925022,-0.05984101297855377,-0.000391045144200325
1769661758822858800,0.400858642578125,-0.0022064970683306454,-0.023566753548383713,0.02832388494759798
1769661758832846800,0.410846923828125,-0.00924655177295208,-0.05010813899338245,0.05726181014031172
1769661758842834700,0.420834716796875,0.024384499672055242,-0.06609130554497242,0.06309504633843899
1769661758852822800,0.43082275390625,0.07478139247894287,-0.07008417457342148,0.033013211807608606
1769661758862811000,0.440810791015625,0.08694529300332068,-0.10953823308348655,0.012151917825639248
1769661758872798700,0.450798828125,0.051829044501855964,-0.07394727974236011,-0.00609247165620327
1769661758882786800,0.460786865234375,-0.00867839649617672,-0.036382980501651764,-0.016083704316616057
1769661758892775000,0.47077490234375,0.044420083419606085,-0.09485796582400799,-0.03448299209922552
1769661758902762800,0.4807626953125,-0.09354980583488941,-0.013690087178349495,-0.026359599137306212
1769661758912750800,0.490750732421875,-0.09327624959051609,0.019798340925574302,-0.026829554736614226
1769661758922738700,0.50073876953125,-0.09191424052231013,0.027820903861522674,-0.06136193893551826
1769661758932726800,0.510726806640625,-0.11152568057365715,0.04566226550042629,-0.07315875971317291
1769661758942714600,0.520714599609375,0.017731982980296015,-0.14023440012037752,-0.023252573032677172
1769661758952702700,0.53070263671875,0.02220657111108303,-0.19938801535665987,0.03599485796689987
1769661758962690800,0.54069091796875,0.03382511271238327,-0.11860767472386359,0.07610153516680002
1769661758972678700,0.5506787109375,0.05381451923064887,-0.05337503183484077,0.08405980069488286
1769661758982666800,0.560666748046875,0.039382746839523315,-0.026623803031444546,0.07390314833968878
1769661758992656000,0.57065576171875,-0.014074702581763267,-0.01945113492310047,0.0492173276335001
1769661759002643700,0.580643798828125,-0.025147300738096234,-0.03510346208512783,0.03347118470817804
1769661759012631600,0.590631591796875,-0.00966565396785736,-0.04786532850265503,0.011445815382897854
1769661759022619600,0.60061962890625,0.023159341791272162,-0.07795768442749977,-0.0066606269329786295
1769661759032607700,0.610607666015625,0.04265490037798881,-0.09744447518587111,-0.01840074908733368
1769661759042595800,0.620595947265625,0.049828153008222575,-0.09061959760189056,-0.008640110312402248
1769661759052583700,0.630583740234375,-0.03548055176921189,-0.03617547523081303,-0.017379881606996057
1769661759062571800,0.64057177734375,-0.0878290170352906,0.005868015250563621,-0.06074731416851282
1769661759072558800,0.650558837890625,-0.08584756089448928,-0.025144378128647803,-0.08453852412253618
1769661759082547000,0.660546875,-0.0473615436989814,-0.10703121869862078,-0.03206482504159212
1769661759092535000,0.67053515625,0.011301146215200423,-0.05765080945789813,0.06626929246038198
1769661759102523000,0.68052294921875,-0.055905427095293996,-0.08666063084304332,0.08062748815864323
1769661759112511000,0.690510986328125,-0.012322817413136362,0.03632335926890373,-0.19417349557876587
1769661759122499000,0.7004990234375,-0.1565343044709414,0.043936172360181804,-0.054090194366872305
1769661759132487000,0.71048681640625,-0.2326700341682881,0.01009352399110794,-0.02453063014447689
1769661759142475000,0.72047509765625,-0.11479600748121738,-0.022857143974304196,-0.04057750958204269
1769661759152462800,0.730462890625,0.01910454997513443,-0.07129998010396957,0.008344049975275993
1769661759162451000,0.740450927734375,0.053704044593498104,-0.07887479927241801,-0.03373129694908857
1769661759172438800,0.750438720703125,-0.017070961788296698,-0.09035773179531097,-0.008089198431372641
1769661759182427000,0.760427001953125,-0.06467559352815151,-0.0794856246471405,0.0205740014731884
1769661759192415000,0.7704150390625,-0.0933020050862804,-0.09279577259719371,-0.005372925209999084
1769661759202402800,0.78040283203125,-0.08819441628158092,-0.0354009837269783,-0.035194355238974094
1769661759212391000,0.790390869140625,-0.021608641750551758,0.0306605112016201,0.0005301613539457321
1769661759222379000,0.80037890625,0.04797054244279861,0.033444588962197305,-0.0038452772513031955
1769661759232367000,0.8103671875,0.09696111211571842,-0.0033721067816019057,0.002942190931737423
1769661759242355000,0.82035498046875,0.13234222209844737,-0.03140753017663955,0.05051438170671463
1769661759252343000,0.830343017578125,0.16851473818719387,-0.03867489083111286,0.05267097521871328
1769661759262331100,0.8403310546875,0.18866207521352915,-0.017840192595124243,0.037892508281767365
1769661759272318700,0.850318603515625,0.1692745801111683,-0.007360299634933471,0.08657295255959034
1769661759282307800,0.860307861328125,0.15211886264886706,-0.007208908465504646,0.02876695253998041
1769661759292296000,0.8702958984375,0.12482296904213726,-0.02174947499334812,-0.00035480478703975673
1769661759302284000,0.880283935546875,0.09405191013813018,-0.013148819908499717,0.010364157626032829
1769661759312272000,0.89027197265625,0.07646540004312992,-0.01492635097503662,0.0034627076745033262
1769661759322260000,0.900260009765625,0.042619244542717934,-0.018754969352483747,-0.04643792604804039
1769661759332248000,0.910248046875,-0.0010708806345239282,-0.014008067086338996,-0.06307049641907214
1769661759342236200,0.920236083984375,-0.02567154380790889,-0.02906242835521698,-0.08147679846435785
1769661759352224000,0.93022412109375,-0.043584326715208586,-0.04368307438194752,-0.10132365470677614
1769661759362211800,0.9402119140625,-0.09323591758012771,-0.084714172950387,-0.1482759600177407
1769661759372200000,0.950199951171875,-0.11938267768435179,-0.10917524498999118,-0.14597820446938276
1769661759382187800,0.960187744140625,-0.10254852032661438,-0.12510755813717842,-0.13733721737414598
1769661759392175900,0.97017578125,-0.04943013013396412,-0.10870002869367598,-0.11548691235482691
1769661759402164000,0.9801640625,-0.05651391438245773,-0.09059154055118561,-0.08141863853633403
1769661759412151800,0.99015185546875,-0.09083294809162616,-0.07705985880494118,-0.0626017098635435
1769661759422140000,1.000139892578125,-0.11172434495091438,-0.0441980381667614,-0.040510289564728734
1769661759432128000,1.0101279296875,-0.11955814384911209,-0.055960372152924535,-0.022001988449692724
1769661759442116000,1.0201162109375,-0.08351882568597793,-0.06069441493749618,0.021928338691592216
1769661759452104000,1.03010400390625,-0.021473562395107,-0.04821545711457729,0.029306173983216284
1769661759462092000,1.040092041015625,0.03665187883721664,-0.052470776471495624,0.05945522853136062
1769661759472080000,1.050079833984375,0.06690673184739425,-0.0498445196211338,0.10313099638968705
1769661759482067700,1.060067626953125,0.0764817849223502,-0.05789981578290462,0.07683423335552216
1769661759492055800,1.070055908203125,0.09317923722313716,-0.059979544666409486,0.0868947318598628
1769661759502044000,1.0800439453125,0.10828735623955726,-0.0642705198585987,0.059737844865024085
1769661759512032000,1.090031982421875,0.1264583882242441,-0.05496785398423672,0.056038405825197694
1769661759522019800,1.100019775390625,0.14757309071170166,-0.07182078910768032,0.022304770788550376
1769661759532008000,1.110008056640625,0.11948562660217285,-0.103418288898468,-0.016502221989631652
1769661759541996000,1.11999609375,0.09281098843263462,-0.09721241999566554,0.0027615736678242683
1769661759551983900,1.12998388671875,0.05978139174580574,-0.09769523507654666,0.028574644838273523
1769661759561972700,1.13997265625,-0.0019715923339128495,-0.07555062328577042,0.016079028141498565
1769661759571960800,1.1499609375,-0.03580429469770752,-0.0422504112303257,-0.012834347131848334
1769661759581949000,1.159948974609375,-0.0609983663201332,-0.001183072304725647,-0.014001929606497286
1769661759591936800,1.169936767578125,-0.06962473123497329,0.03339548912346363,-0.007888122901320457
1769661759601924900,1.1799248046875,-0.07937280278927646,0.03703589145243168,-0.050316521047055716
1769661759611913000,1.189912841796875,-0.1004869116216898,0.05931377423405647,-0.08342325635701417
1769661759621901000,1.199901123046875,-0.11120236690342426,0.032788170880079265,-0.05434767625927925
1769661759631889000,1.209888916015625,-0.09412672894001006,-0.013592472022771834,-0.020949264526367185
1769661759641877000,1.219876953125,-0.06818681651949882,-0.04227729923725128,-0.003787409584224224
1769661759651865000,1.229864990234375,-0.026627310162782667,-0.08024725666940212,-0.05571048904508352
1769661759661853000,1.23985302734375,-0.027265608066320418,-0.10181260726749897,-0.020902210514247416
1769661759671841000,1.249841064453125,0.01156184297800064,-0.08305179269611836,-0.016258476361632346
1769661759681828900,1.259828857421875,0.04493102861642837,-0.03869184196591377,-0.01798281593620777
1769661759691817000,1.26981689453125,-0.006164367848634719,-0.044914662003517146,0.013987901081144808
1769661759701804800,1.2798046875,0.04944119951725006,-0.0037140520870685575,0.008964519961178303
1769661759711793000,1.28979296875,0.06936871978044509,0.006814940711855888,0.013814298079907894
1769661759721781000,1.299781005859375,0.0628629911482334,0.004398527219891548,0.03733838153034449
1769661759731768800,1.309768798828125,0.06305354528427123,0.015262451061606406,0.046293256880342956
1769661759741757000,1.3197568359375,0.04191372205528896,0.028372108003497123,0.03847995278090238
1769661759751745000,1.3297451171875,0.10166472322940825,0.04860474869310855,0.062391866505146026
1769661759761732900,1.33973291015625,0.10127426260709763,-0.012151041042804718,0.12291121713668107
1769661759771721000,1.349720947265625,-0.044427170747518535,-0.19161036709249019,0.057231707262992856
1769661759781709000,1.359708984375,-0.011447285820776596,-0.1345540163964033,0.09817454302608966
1769661759791697200,1.369697265625,0.11347673244304023,-0.07692074259519577,0.09833031810969113
1769661759801684700,1.379684814453125,0.2112391966700554,-0.06368658249080181,0.03030979806780815
1769661759811672800,1.3896728515625,0.20012392841577528,-0.02836567826271057,0.013707038313150404
1769661759821661000,1.399660888671875,0.15049333467311224,-0.0005026888251304626,0.008114332872629165
1769661759831648800,1.409648681640625,0.1334837659495417,-0.004268763360381126,-0.020977613838016985
1769661759841636900,1.419636962890625,0.17776830422282217,0.001681084954738617,-0.03612666765302419
1769661759851625000,1.429625,0.19546295086741447,-0.011453121906518935,-0.03223199830204248
1769661759861614000,1.439614013671875,0.1652373239517212,-0.04119242660999298,0.00030307459980249404
1769661759871602000,1.449601806640625,0.1326584119081497,-0.030380525216460227,0.023792963519692418
1769661759881590000,1.459590087890625,0.11063011997342109,-0.010216273587942123,0.024955577558279037
1769661759891577900,1.469577880859375,0.0987047043800354,-0.0089057755112648,0.04405921421796083
1769661759901566000,1.47956591796875,0.06151039836234413,-0.03131283763051033,-0.02061784061491489
1769661759911553800,1.4895537109375,0.0431739558160305,-0.03750760061740875,-0.04660129991620779
1769661759921542000,1.4995419921875,0.04238953657322563,-0.045105800661444664,-0.05822042603939771
1769661759931530000,1.509530029296875,0.03846738556027412,-0.07868249157071112,-0.0891252673909068
1769661759941517800,1.519517822265625,0.03336218050890602,-0.10205401480793952,-0.10041180055886506
1769661759951506000,1.529505859375,0.027960010938113553,-0.08092121040821075,-0.12148790633529424
1769661759961494000,1.539493896484375,0.03292962517738342,0.01011398225724697,-0.10840309157371521
1769661759971482000,1.549482177734375,0.04924830729365349,0.11437807433009146,-0.14223200367838143
1769661759981470000,1.559469970703125,0.09404839387363753,0.24143092131614682,-0.15894640711396932
1769661759991458000,1.5694580078125,0.17549217598438263,0.3758259477585554,-0.14093582638800142
1769661760001446000,1.57944580078125,0.02280102073973976,0.16934651283621788,-0.17447335433065891
1769661760011433700,1.589433837890625,-0.11084288594126701,-0.02517711135447025,-0.19986936913281678
1769661760021421800,1.599421875,-0.12085459513412788,-0.19378712660968303,-0.14922259321808815
1769661760031410000,1.609409912109375,-0.11521978585124015,-0.3047977703332901,-0.12007570144981144
1769661760041398000,1.61939794921875,-0.13152909735096618,-0.3316770094305277,-0.06307254224568605
1769661760051385900,1.6293857421875,-0.11868367170267738,-0.26902035450935363,-0.016179273645579813
1769661760061374000,1.6393740234375,-0.06655832026852294,-0.19606793102324008,-0.005748188263177871
1769661760071362000,1.649362060546875,-0.05952535289181396,-0.1083686047822237,-0.018655308370292185
1769661760081350700,1.6593505859375,-0.08188333343863487,0.0014238953232765196,0.01865852324068546
1769661760091338800,1.6693388671875,-0.06228314543366432,0.022910919988155365,0.012295710210502147
1769661760101326600,1.67932666015625,0.05005376019133254,0.05456511840224266,0.013808452861011027
1769661760111314700,1.689314697265625,0.023784177425038067,-0.01012450365126133,0.12618337067514657
1769661760121302500,1.699302490234375,-0.11101707346439361,-0.2433668578147888,0.19139993921220302
1769661760131290600,1.70929052734375,-0.05826161656631156,-0.2706634455412626,0.1951046389490366
1769661760141278700,1.71927880859375,0.05607439045403152,-0.17878128065764903,0.09876023395955562
1769661760151266600,1.7292666015625,0.05411036037206649,-0.1382575470894575,0.1238464521601796
1769661760161254700,1.739254638671875,0.041043994582630694,-0.08632979145348071,0.10904138947725295
1769661760171243800,1.749243896484375,0.06436988857984542,-0.0667015463978052,0.009047229808568953
1769661760181231600,1.759231689453125,0.147868840521574,-0.06991407870352268,-0.0018555647388100623
1769661760191219500,1.769219482421875,0.17088614349365233,-0.08219196099638938,0.026113807682693002
1769661760201207600,1.77920751953125,0.1372995157122612,-0.09768588272631168,0.01891425156742334
1769661760211195600,1.789195556640625,0.13448796542286873,-0.06465221265256405,0.012696984487771987
1769661760221183700,1.799183837890625,0.07643325133919715,-0.027382512444257736,0.04314063806831837
1769661760231171600,1.809171630859375,0.013563245928287506,-0.0243254629611969,0.046752983346581456
1769661760241159700,1.81915966796875,-0.024554705139808355,-0.0294318461894989,0.06535305439829826
1769661760251147800,1.829147705078125,0.006781622964143753,-0.09099953683018684,0.10834990008175373
1769661760261135600,1.839135498046875,0.059428303991816936,-0.1430897895514965,0.11529752726256846
1769661760271123700,1.849123779296875,0.09919924643132835,-0.0974625953644514,0.12976415177136658
1769661760281111800,1.85911181640625,0.09089786655399948,-0.023147066831588743,0.12680647100955247
1769661760291100000,1.869099853515625,0.024782559078931808,0.04443535405397415,0.1494666311070323
1769661760301087700,1.879087646484375,-0.005445442456938326,0.015374094742536544,0.13282207803726195
1769661760311075600,1.88907568359375,0.043980559491179884,-0.06421615932285785,0.08531593823581933
1769661760321063700,1.899063720703125,0.07103464369866996,-0.1359358261436224,0.056896191698312754
1769661760331051500,1.909051513671875,0.06015665479898452,-0.15763737034201622,0.016949673496186732
1769661760341039600,1.91903955078125,0.006098901396989822,-0.12756255007386208,-0.018611176967620848
1769661760351027700,1.92902783203125,-0.03237432938218117,-0.10461012903153896,-0.040917701321840284
1769661760361015800,1.939015869140625,-0.042343861667439336,-0.035270050823688504,0.007825579059123993
1769661760371003600,1.949003662109375,0.0006453852314502,-0.016354337951540947,-0.0011553075149655341
1769661760380991700,1.95899169921875,0.04599478539042175,0.01691197183430195,0.005125964711606502
1769661760390979800,1.968979736328125,0.014068272840976715,0.018596563920378683,-0.014817629903554915
1769661760400967700,1.9789677734375,-0.02378061549477279,-0.016385902133584023,0.0710699707403779
1769661760410955800,1.988955810546875,-0.08275660914182663,-0.0820300484329462,0.11248305436372756
1769661760420943600,1.998943603515625,-0.15655483580231666,-0.171912563931942,0.1604848687276244
1769661760430931500,2.008931396484375,-0.18349077352285384,-0.2423310850262642,0.17010259190052746
1769661760440919600,2.01891943359375,-0.11106734234690666,-0.18765958364009855,0.18041092768609523
1769661760450907600,2.02890771484375,-0.056389922676607966,-0.11072364347577095,0.12351999668478965
1769661760460896800,2.038896728515625,-0.05950199028253555,-0.05839549034535885,0.1310758188918233
1769661760470884600,2.048884521484375,-0.0328477921128273,0.014858546435832976,0.12254063025861978
1769661760480872700,2.058872802734375,0.03200140441656112,0.006754150435328483,0.11005991887003183
1769661760490860800,2.06886083984375,0.11902502335309982,0.044812955194711686,0.10863251641541719
1769661760500849000,2.078848876953125,0.18050503571033477,0.0579050764799118,0.03531944292336702
1769661760510836500,2.08883642578125,0.18187281693220136,0.009267594560980797,-0.011650690305233
1769661760520824600,2.098824462890625,0.17403788552284238,-0.0002519289344549179,-0.04355915574133396
1769661760530812700,2.108812744140625,0.23885201073884962,0.1339917063385248,-0.09608926118463278
1769661760540800500,2.118800537109375,0.07499408538155257,-0.007056932774186134,-0.11559241855591534
1769661760550788600,2.12878857421875,-0.11829546696953475,-0.17088146731853485,-0.11149404332637786
1769661760560776700,2.138776611328125,-0.05217201272062957,-0.08816986636221408,-0.09752250885814427
1769661760570764800,2.148764892578125,0.053180970567464826,0.04957388598620891,-0.13559972605705262
1769661760580752600,2.158752685546875,0.05164952321648597,0.09965046079754829,-0.11974077040702104
1769661760590740700,2.16874072265625,0.008364471708796917,0.13233517130315303,-0.1232388416558504
1769661760600728800,2.178728759765625,-0.020973850978352127,0.12706921359896658,-0.1389852768421173
1769661760610716700,2.188716552734375,0.01721416965126991,0.11657821472287178,-0.13772387860417365
1769661760620704800,2.198704833984375,0.02773907079696655,0.0852104320347309,-0.15102321289926768
1769661760630692600,2.208692626953125,0.03902626155205071,0.11826222228705882,-0.12438450455963611
1769661760640680700,2.2186806640625,-0.038710619731619954,0.043587212792038914,-0.06383358974605799
1769661760650668500,2.22866845703125,-0.054229602837562556,-0.0009650456398725509,-0.07249152797609568
1769661760660656600,2.23865673828125,-0.12731463972739873,-0.026037527576088904,-0.03602876023650169
1769661760670644700,2.248644775390625,-0.13718962559700013,-0.09970482133328915,0.03785129948854446
1769661760680632600,2.258632568359375,-0.03966090619377791,-0.12921557797789573,-0.025370880360901356
1769661760690620700,2.26862060546875,0.029678514426946637,-0.11861001281142235,0.02047463275194168
1769661760700608800,2.27860888671875,0.10287351449728012,-0.06577741729021072,-0.024310849913954734
1769661760710596600,2.2885966796875,0.1325895113904029,-0.03643032677471637,-0.04080810346752405
1769661760720584700,2.298584716796875,0.14623809751458466,0.0526549008667469,-0.010332593443989754
1769661760730572800,2.30857275390625,0.1473907746810466,0.10636953991949558,0.022368483674526214
1769661760740561000,2.318560791015625,0.08034713684730231,0.08128770563304424,0.06845832693725824
1769661760750548500,2.328548583984375,0.04617847139425575,0.03174947548210621,0.0868947318598628
1769661760760537600,2.33853759765625,0.0838392167467624,0.04916413614153862,0.09255816444903611
1769661760770525700,2.348525634765625,0.12675013771243393,0.008360416588187217,0.07919014883190394
1769661760780513800,2.358513671875,0.09406250459738075,-0.055712534871697424,0.024175240835547444
1769661760790501600,2.368501708984375,0.08142850234322249,-0.16566519397497176,-0.016041618740558622
1769661760800489700,2.37848974609375,0.12187390997819601,-0.15172610047161578,-0.03348462871164083
1769661760810477800,2.388477783203125,0.09399338488392531,-0.2242699431568384,-0.010656418570876122
1769661760820465700,2.398465576171875,0.046045054272934795,-0.1978489692211151,0.07394026547968387
1769661760830453800,2.408453857421875,-0.07888122901320457,-0.24313421810269353,0.13950608584582805
1769661760840441600,2.418441650390625,-0.10536818085722624,-0.24638123719990251,0.02180178970247507
1769661760850429700,2.4284296875,-0.08566058695502579,-0.18202303905785083,-0.05256897614896297
1769661760860417500,2.43841748046875,-0.02464943421855569,-0.07652794388532638,-0.012873802359402178
1769661760870405600,2.448405517578125,-0.010628872976824641,-0.006823708540201187,-0.012052841365337371
1769661760880393700,2.458393798828125,-0.00010061083026230334,0.0355839390784502,0.009572130465507507
1769661760890381600,2.468381591796875,0.00537519023232162,0.04194879793524742,-0.012508476178348063
1769661760900369700,2.47836962890625,-0.0703928751964122,-0.021752397602796552,0.0017345687076449393
1769661760910357800,2.488357666015625,-0.06485635692253708,-0.05373275923132896,0.031167876201868054
1769661760920345900,2.498345947265625,-0.0070996028721332545,-0.08591478091180324,0.034709786592423915
1769661760930333700,2.508333740234375,0.09454531967826187,-0.08395020284056663,0.01208119067698717
1769661760940321800,2.51832177734375,0.12612002311535178,-0.04833177697062492,-0.016695698735117913
1769661760950309600,2.5283095703125,0.08418167350888252,-0.03350011854171753,-0.032410862000286575
1769661760960297500,2.53829736328125,0.09029467649646103,-0.04157470392584801,-0.03750467800796032
1769661760970285600,2.54828564453125,0.13988551361747084,-0.069072367182374,-0.06005436346828937
1769661760980273700,2.558273681640625,0.1468493612807244,-0.09491115731596945,-0.05338321514129638
1769661760990261800,2.56826171875,0.12628588120155035,-0.074814710226655,-0.03237082225084305
1769661761000249600,2.57824951171875,0.09662840956263244,-0.057504094463586806,-0.010323241093754768
1769661761010237700,2.58823779296875,0.04152553102187812,-0.02149403892755508,0.034194238285720345
1769661761020225800,2.598225830078125,0.026215806752443314,0.016167875468730927,0.045187925986945626
1769661761030213600,2.608213623046875,-0.010814824002981185,0.039946810463070866,0.0328869550794363
1769661761040201700,2.61820166015625,-0.037706338059902186,0.03243862679004669,0.013621990378201007
1769661761050190600,2.628190673828125,-0.010180106296017765,0.04509586378931999,0.001322188514471054
1769661761060178700,2.6381787109375,0.008790040177106856,0.020230887123942373,-0.0037307109609246254
1769661761070166500,2.64816650390625,0.03812127553634345,0.01774842265844345,-0.03966653221696615
1769661761080153600,2.658153564453125,0.08200257590413093,0.06259703368842602,-0.03575228138267994
1769661761090141700,2.6681416015625,0.12102752228192984,0.049341246274113654,-0.0264385095924139
1769661761100129800,2.6781298828125,0.044017932359501716,-0.029894787526130673,-0.08978577712625264
1769661761110117600,2.68811767578125,0.00732639736533165,0.010606734210252761,-0.0010433715730905533
1769661761120105700,2.698105712890625,-0.03547463348507881,-0.059112114182114595,0.018061141869425774
1769661761130093800,2.70809375,-0.08213233976364136,-0.12977730351388453,-0.02595627903342247
1769661761140082000,2.71808203125,0.013144728255271911,-0.08594926770329475,-0.03143266461789608
1769661761150069800,2.72806982421875,0.021709142982959746,-0.07040040091574191,-0.015675123515725135
1769661761160057900,2.738057861328125,-0.03563362343907356,-0.07519523397684097,-0.013917466193437575
1769661761170046000,2.7480458984375,-0.06109656599760055,-0.02467266896367073,-0.0008966565787792205
1769661761180033800,2.75803369140625,-0.048989875553175806,-0.05424830753803253,-0.015923545318841933
1769661761190021600,2.768021728515625,-0.017802198672294614,-0.07822831806242465,-0.043106735798716544
1769661761200009700,2.778009765625,0.01127425820827484,-0.08343407001197338,-0.009128478351235389
1769661761209997600,2.78799755859375,0.052180269092321395,-0.07762801408171653,-0.0007172083586454391
1769661761219985700,2.797985595703125,0.08624386673569678,-0.0318891762137413,0.036246494640409944
1769661761229973800,2.807973876953125,0.10585815633125603,-0.006985036581754684,0.0390694431066513
1769661761239961900,2.8179619140625,0.07523622357435523,0.02921148143708706,0.052827627085149285
1769661761249949700,2.82794970703125,0.05138889951892197,0.02771335183382034,0.05142272872328758
1769661761259937800,2.837937744140625,0.05855038864612579,0.0011316343784332275,0.053851709435880184
1769661761269926000,2.84792578125,0.08371047580055892,-0.027464345508813857,0.045638007842004294
1769661761279913700,2.857913818359375,0.07244681205153465,-0.055304538592696184,0.012930793243646621
1769661761289901800,2.86790185546875,0.047338089758157724,-0.07784253361523151,-0.01435907248109579
1769661761299890000,2.877889892578125,0.05661788621358573,-0.05259937128722667,-0.03097381493449211
1769661761309877800,2.887877685546875,0.019285788293555376,-0.037762452161312104,-0.03217325385212898
1769661761319866600,2.89786669921875,-0.005252513700723648,-0.04535948316156864,-0.041382980746030806
1769661761329854700,2.907854736328125,0.023837898639962076,-0.05343932924270629,-0.048637481918931004
1769661761339842800,2.9178427734375,0.043278073777630925,-0.08376666296720504,-0.04519873964190483
1769661761349831000,2.927830810546875,-0.046297713859751816,-0.17478665806353091,-0.10375205089747905
1769661761359818800,2.93781884765625,-0.020151976668834684,-0.09627426236271858,-0.06231383283287286
1769661761369806800,2.947806884765625,0.043749052290245886,-0.055526072388887404,-0.05818301663845777
1769661761379795000,2.957794921875,0.06513195899352431,-0.05596913998126983,-0.08255436456799507
1769661761389782800,2.96778271484375,0.05000701670646667,-0.0337801045268774,-0.0770256642743945
1769661761399770600,2.9777705078125,0.04949731361865997,-0.007277882048487663,-0.09915683206170797
1769661761409758700,2.9877587890625,0.049669236119464034,0.009379238241910934,-0.07994038267731667
1769661761419746800,2.997746826171875,0.036413375639915466,0.04030979855656624,-0.05161678999066353
1769661761429734700,3.007734619140625,0.00047580081820487974,0.045620179924368856,-0.05152180518358945
1769661761439722800,3.01772265625,-0.03134089468121529,0.01172434006333351,-0.029662147814035415
1769661761449710800,3.0277109375,0.02470189505815506,0.010433131209015846,0.009176993668079376
1769661761459698700,3.03769873046875,0.039331381978467105,-0.037059856849908826,0.024415187071263788
1769661761469686800,3.047686767578125,0.02368131983876228,-0.06922317382991314,0.05119096579402685
1769661761479675000,3.0576748046875,0.026044030382111668,-0.08716799584329128,0.05262392120659351
1769661761489662700,3.067662841796875,0.03121704910583794,-0.09456395131349563,0.06638736588209868
1769661761499650800,3.07765087890625,0.06522453264780342,-0.0784527744680643,0.06530979977846145
1769661761509639000,3.087638916015625,0.05130114817023277,-0.07070435229837894,0.06805149970203637
1769661761519626800,3.097626708984375,0.031738369566202164,-0.04633095854222774,0.06453150888234377
1769661761529614600,3.107614501953125,0.010088774750754237,-0.0157855981528759,0.03404518520385027
1769661761539602700,3.117602783203125,-0.0059949295658618205,0.0032487726628780363,0.018676643419265747
1769661761549590800,3.1275908203125,0.012589359394833445,-0.007764788782596587,-0.0015507365733385084
1769661761559578600,3.13757861328125,0.058950128553435205,-0.003488426637649536,0.005543313340842723
1769661761569566700,3.147566650390625,0.08985613894872367,0.002564297530055046,-0.015104337890446184
1769661761579555800,3.157555908203125,0.09315401145033537,0.000014613047242164611,-0.04047755633890628
1769661761589544000,3.1675439453125,0.06469020657539368,-0.019008651852607725,-0.056525312559306616
1769661761599531800,3.17753173828125,0.04730659864135086,-0.0276455472946167,-0.05758417396247387
1769661761609519600,3.18751953125,0.061736032944917675,-0.005283493360877037,-0.07294102530926466
1769661761619507700,3.1975078125,0.05582322870455682,-0.023059388548135756,-0.07046206797510385
1769661761629495800,3.207495849609375,0.05294957296438515,-0.01135141509771347,-0.05705372034758329
1769661761639483600,3.217483642578125,0.034926425017789,-0.0015180033475160597,-0.04854746554791927
1769661761649471700,3.2274716796875,0.020627850552275777,0.010629530563950537,-0.02130669966191053
1769661761659459800,3.2374599609375,-0.02700483823828399,0.023769582644104958,-0.010789397300779819
1769661761669447700,3.24744775390625,-0.013622867161035538,0.0026256723284721374,-0.009980711266398429
1769661761679435800,3.257435791015625,0.018956044882535935,-0.026780454897880553,-0.019416940392553806
1769661761689424000,3.267423828125,0.033979426491260525,-0.03494388760924339,-0.023100012819468975
1769661761699412000,3.277411865234375,0.02673135505914688,-0.05268237339556217,0.007173837152123451
1769661761709399800,3.28739990234375,-0.02500928050689399,-0.0493739794999361,0.030950434058904647
1769661761719387600,3.2973876953125,-0.033122517400979996,-0.03790507550239563,0.03817687818109989
1769661761729375700,3.307375732421875,-0.014561682381108403,0.009527122280001639,0.022855974930524825
1769661761739363600,3.317363525390625,0.007291252986714243,0.015091186147928237,0.017223229740560054
1769661761749351700,3.3273515625,0.0614998861014843,0.043237668702006335,-0.0025128596037626264
1769661761759339800,3.33733984375,0.13160751461572945,0.06876140153706073,0.013297580729424953
1769661761769327900,3.347327880859375,0.10345452925562858,-0.006492284628748893,-0.0031219314128160475
1769661761779315700,3.357315673828125,-0.02955700693912804,-0.06728373019993304,-0.05340834958255291
1769661761789303800,3.3673037109375,-0.0034791473526507616,-0.022618659043312072,-0.04556026643067598
1769661761799292000,3.3772919921875,0.054999856557697055,-0.006624386575818061,-0.032839608806371684
1769661761809279700,3.38727978515625,0.11575286981463431,-0.03340834860503673,-0.04471972395330667
1769661761819268600,3.3972685546875,0.12311660351566969,-0.04764788635969162,-0.06173311033546924
1769661761829256700,3.407256591796875,0.0834544552128762,-0.024379238975048064,-0.03429945222586393
1769661761839244800,3.417244873046875,0.04911737439036369,-0.011310498565435409,-0.02372983515560627
1769661761849232600,3.427232666015625,0.04981646257042884,0.002755436187982559,-0.04960720373392105
1769661761859220700,3.437220703125,0.05346745935864746,0.008572598034143447,-0.031389409998059274
1769661761869208800,3.447208740234375,0.023058219504356384,-0.028938509714603423,-0.0452761887922883
1769661761879197000,3.457197021484375,-0.014053075271844863,-0.05839490582346916,-0.03361789970248937
1769661761889184800,3.467184814453125,0.005792611926794052,-0.011598083335161208,-0.041595746713876725
1769661761899172900,3.4771728515625,0.039164135652780534,0.03806874163150787,-0.014276654894649982
1769661761909161000,3.487160888671875,0.05684950301237404,-0.0065974985688924785,-0.01829524288624525
1769661761919148800,3.497148681640625,0.059879591423273086,-0.015231471401453017,-0.021484394316375253
1769661761929136600,3.50713671875,0.027530981004238127,-0.01306932493150234,0.017674480639398096
1769661761939124700,3.517124755859375,0.022383681243658065,-0.05438333209455013,-0.05305763644874096
1769661761949112600,3.527112548828125,0.005372925209999084,-0.01047170965373516,-0.04189969809651375
1769661761959100700,3.5371005859375,0.0016262129623442888,0.027682372173666953,-0.03114800245761871
1769661761969088800,3.5470888671875,-0.029021438757702706,-0.03531739709675312,-0.01832359219789505
1769661761979076900,3.557076904296875,-0.04068973778486252,-0.058302551364898675,-0.01132569613456726
1769661761989064700,3.567064697265625,-0.04774484392814338,-0.20417349606752394,0.034386838248372076
1769661761999052800,3.577052734375,0.006661284520104527,-0.19192425534725188,-0.01061111812442541
1769661762009041000,3.587041015625,0.10799166122861206,-0.09728373166620731,0.011640168911218643
1769661762019028700,3.59702880859375,0.10808277357816695,-0.07204173838198184,0.014883973138034343
1769661762029016800,3.607016845703125,0.0747323657054454,-0.04259586366713047,0.019858254419267175
1769661762039005000,3.6170048828125,0.051778191097453234,-0.006789806270599365,-0.009610124388337134
1769661762048992800,3.62699267578125,0.07857260145545006,0.039675592306256294,0.025901041714847087
1769661762058980600,3.636980712890625,0.0925648864507675,0.052256841459870335,0.041727264139056204
1769661762068969700,3.6469697265625,0.027824630188569423,-0.031772271835803986,0.040923838801681996
1769661762078958300,3.656958251953125,-0.029035467283055186,-0.0718780722528696,-0.0014385083705186843
1769661762088946400,3.666946533203125,-0.012087839613482355,-0.0496615642696619,-0.013939970286190508
1769661762098934500,3.6769345703125,-0.004310264414548874,-0.0472130020737648,-0.0358539881914854
1769661762108922400,3.68692236328125,0.014588497322797775,-0.0137421096265316,-0.06172317346334457
1769661762118910200,3.69691015625,0.03599485796689987,-0.00011105915904045104,-0.08973989215791225
1769661762128898300,3.706898193359375,-0.008571428990364074,-0.10537293009757995,-0.09102233318388461
1769661762138886400,3.716886474609375,-0.03959090969748795,-0.1040507415831089,-0.07252513798475264
1769661762148874200,3.726874267578125,-0.0011667787570506334,-0.05062836347520351,-0.03854541923254728
1769661762158862300,3.7368623046875,0.05595277336835861,-0.06672083562016487,-0.04560322878956794
1769661762168850400,3.746850341796875,0.09511223284602165,-0.05254208814203739,-0.03687748602032661
1769661762178838500,3.756838623046875,0.07815751784853636,-0.01609305666685104,-0.003415361401438713
1769661762188826400,3.766826416015625,0.0668668930273503,-0.019289222359657285,-0.003141512896120548
1769661762198814500,3.776814453125,0.04612922542504966,-0.011218728628754615,0.0018099720314145088
1769661762208802600,3.786802490234375,0.03708900987915695,-0.0034071780949831007,0.011654489697515964
1769661762218790400,3.796790283203125,0.03404255485534668,-0.014504326170682907,0.003089490447938442
1769661762228778200,3.8067783203125,0.0664320818066597,-0.017142273458838463,-0.009798048175871371
1769661762238766300,3.816766357421875,0.04871763448305428,-0.029493220987915993,-0.03057897039800882
1769661762248754400,3.82675439453125,0.05127784035988152,-0.05184416900575161,-0.03872545197457075
1769661762258742300,3.8367421875,0.03521985500641167,-0.05448386985957622,-0.008070785991847514
1769661762268730400,3.84673046875,-0.0032020839769393203,-0.08415595454573631,-0.025339900700747965
1769661762278718500,3.856718505859375,-0.029172318470478055,-0.08555179281830787,-0.0287783507168293
1769661762288707600,3.86670751953125,-0.038368089904263616,-0.0735386989414692,-0.026116145770251748
1769661762298695400,3.8766953125,-0.03032492257170379,-0.08052958074212074,-0.037195758189260957
1769661762308683500,3.88668359375,-0.043942017579078674,-0.05550795221030712,-0.02682897021472454
1769661762318671400,3.89667138671875,-0.05335289306826889,-0.04620236372649669,-0.030697336080670354
1769661762328659200,3.9066591796875,-0.036788638693094254,0.012849544700980186,-0.03469721937179565
1769661762338647300,3.916647216796875,0.0012987345736473798,0.022703414717316628,-0.021122575266659258
1769661762348635400,3.926635498046875,0.007774214198067784,0.011284195080399512,-0.02351706918776035
1769661762358623500,3.93662353515625,0.0328862974923104,0.021686346629261968,-0.011685469357669353
1769661762368611300,3.946611328125,0.039276363855600356,0.004538227951526642,0.0264580910757184
1769661762378599400,3.956599365234375,0.05089658595733344,-0.021308160966634748,0.02432458617836237
1769661762388587500,3.96658740234375,0.060866264373064034,-0.06159340960383415,0.030020167471468448
1769661762398575400,3.976575439453125,0.06172668059468269,-0.06804127056896686,0.050883215019106864
1769661762408563500,3.9865634765625,0.08395838614702224,-0.08458148648142814,0.022590309731662272
1769661762418551600,3.996551513671875,0.10357844789624214,-0.06939268517792224,0.01516775851547718
1769661762428539400,4.006539306640625,0.06614325492791831,-0.079490300822258,0.0072600541308522224
1769661762438527200,4.01652734375,0.03291435454301536,-0.0549947419911623,-0.0075695584714412685
1769661762448515300,4.026515380859375,-0.011721928910538554,-0.03821604114770889,-0.018275953663885593
1769661762458503400,4.03650341796875,-0.02057758166976273,-0.03848082956373691,-0.01695288836658001
1769661762468491300,4.0464912109375,-0.020918869388103483,-0.03643441842794418,-0.02729424963891506
1769661762478479400,4.056479248046875,-0.016429741275310515,-0.03459142090976238,-0.017704875777661798
1769661762488467500,4.066467529296875,0.002466682374477386,-0.04662438853085041,-0.007438625568151474
1769661762498455300,4.076455322265625,0.021418051081895827,-0.05429506928920746,-0.009466624264419079
1769661762508443400,4.086443359375,0.026849355415627357,-0.062390112939476966,0.011471242085099219
1769661762518432300,4.096432373046875,0.012729790778830647,-0.048100306302309034,0.0002484218031167984
1769661762528420400,4.10642041015625,0.016080197185277936,-0.04263853376507759,0.0017149872243404387
1769661762538408200,4.116408203125,0.008501213298365473,-0.029773791494965552,-0.002525426824390888
1769661762548396300,4.126396240234375,0.02580656836442649,-0.02483691961467266,-0.024223171630501746
1769661762558384400,4.13638427734375,0.05421564737744629,-0.03253799551129341,-0.033737726689875125
1769661762568372500,4.14637255859375,0.0437714102525264,-0.0504196891605854,-0.028478198726475237
1769661762578360300,4.1563603515625,0.035974911157414316,-0.07337970898747444,-0.03950461965352296
1769661762588348400,4.166348388671875,0.032733152757212516,-0.06980944928526878,-0.050208969019353386
1769661762598336500,4.17633642578125,0.029839842468500136,-0.07740472671985625,-0.03709346685856581
1769661762608324400,4.186324462890625,0.013621625052019953,-0.04500175576508045,-0.030735622264444828
1769661762618312400,4.1963125,0.007882862204313277,-0.02587912214398384,0.005607610748708248
1769661762628300500,4.206300537109375,-0.00016841536946594714,-0.013090367719531058,0.008930909952521323
1769661762638288400,4.216288330078125,0.008051204508543014,-0.020484569624066352,0.0025318565651774403
1769661762648276200,4.226276123046875,0.029014424495026468,-0.0420715475320816,0.00006458966881036758
1769661762658264300,4.236264404296875,0.058625134382769464,-0.03663607847988605,0.004989478850364684
1769661762668252400,4.24625244140625,0.08114442470483481,-0.06284662453532218,0.004815875849127769
1769661762678240300,4.256240234375,0.07232640054225921,-0.08408698096275329,0.0176961079493165
1769661762688228400,4.266228271484375,0.059971799751371145,-0.08120236543715,0.012208616448938846
1769661762698216400,4.276216552734375,0.050805546673014755,-0.07362228557169437,-0.0030921207964420315
1769661762708204300,4.286204345703125,0.012459668600559234,-0.060924716562032695,-0.009356149627268313
1769661762718192400,4.2961923828125,-0.018525836771726607,-0.06541092206537723,-0.019218202950060367
1769661762728181200,4.30618115234375,0.002970540243387222,-0.05656476778686046,-0.0367410001590848
1769661762738169300,4.31616943359375,-0.0096247374355793,-0.057065118524432176,-0.052581543369591234
1769661762748157400,4.326157470703125,-0.010719035478308797,-0.04567804759144783,-0.06661532941907644
1769661762758145300,4.336145263671875,0.0183165048699826,-0.03602876023650169,-0.045621056707203386
1769661762768133400,4.34613330078125,-0.008316650511696935,-0.030490999853610992,-0.033142098884284495
1769661762778121500,4.35612158203125,-0.026798063619807362,-0.011295300996303558,-0.02732347573339939
1769661762788109300,4.366109375,-0.02691146086640656,-0.017155132940411568,-0.013007657872140407
1769661762798097400,4.376097412109375,-0.029891426525264976,-0.01545183615386486,0.006280979965627193
1769661762808085500,4.38608544921875,-0.0060604690827429294,-0.020732406905293464,0.007551146031916141
1769661762818073300,4.3960732421875,0.014743834014981983,-0.022666005316376685,-0.0029918752923607825
1769661762828061400,4.4060615234375,-0.030395138263702392,-0.03582768470644951,0.03890460793375969
1769661762838049500,4.416049560546875,0.0029741935051977634,-0.024695465317368506,0.03169277685880661
1769661762848037400,4.426037353515625,0.06187763337269425,-0.03505319320261478,0.02858165910094976
1769661762858025200,4.436025146484375,0.07915127812623977,-0.04457388574182987,0.016395839005708693
1769661762868013300,4.446013427734375,0.08094239932671189,-0.03402034302353859,0.02383124970346689
1769661762878001400,4.45600146484375,0.048311903226375574,-0.03701134153306484,0.02319090597331524
1769661762887989200,4.4659892578125,0.0013069909453392028,-0.05762216788530349,0.019005144721269608
1769661762897977300,4.475977294921875,-0.008600508954375983,-0.07585749727785587,0.021096271781623363
1769661762907965400,4.48596533203125,-0.0021871347807347775,-0.09893208339512348,-0.003259586317837238
1769661762917953500,4.49595361328125,-0.013710545444488525,-0.1173392622232437,0.000621054507791996
1769661762927941400,4.50594140625,-0.026788711269572375,-0.08050619986653328,-0.009198328717052937
1769661762937930200,4.51593017578125,-0.01166924887523055,-0.029169395861029623,-0.013844693218171595
1769661762947918300,4.52591845703125,-0.05600085029378533,0.011618541601300238,-0.03356353916674852
1769661762957906400,4.535906494140625,-0.06424596993923187,0.029509587600827215,-0.048019642281532285
1769661762967894300,4.545894287109375,-0.02418992694802582,0.05194353772699833,-0.01865560063123703
1769661762977882400,4.55588232421875,0.02378061549477279,0.06357143167853355,0.008643909704685211
1769661762987870500,4.565870361328125,0.009100859691947698,0.02688859144747257,-0.015148761554062366
1769661762997858300,4.5758583984375,0.028630978135392067,-0.020991934624314305,0.0011178981140255928
1769661763007846400,4.585846435546875,0.09567680792622267,-0.036839492097496984,0.011100655207037924
1769661763017834500,4.59583447265625,0.11181187710389494,-0.052121232381463045,0.014982465076446532
1769661763027822600,4.605822509765625,0.07668912579640745,-0.0588069937556982,0.001011222869157791
1769661763037810400,4.615810546875,0.0337186566632241,-0.06972177100181579,-0.0028705870002508163
1769661763047798300,4.62579833984375,-0.019263503396511075,-0.06789630914032459,-0.020069559082388878
1769661763057786400,4.635786376953125,-0.06043488721847534,-0.07006839248239993,-0.027462591943144796
1769661763067774200,4.645774169921875,-0.08767711440920829,-0.06349836644232272,-0.013311901515722273
1769661763077762000,4.655761962890625,-0.09106135002002119,-0.06228899065256118,-0.01964081227630377
1769661763087750100,4.665750244140625,-0.06919204803928733,-0.02831248677074909,-0.024294775561988353
1769661763097738000,4.675738037109375,-0.05355491844639182,-0.027923195192217826,-0.025292554427683352
1769661763107726000,4.68572607421875,-0.031747794981673357,-0.020503274324536323,-0.0026636662513017653
1769661763117714200,4.695714111328125,-0.014933365237712859,0.0004623568147420883,0.023228899896144864
1769661763127702300,4.705702392578125,0.03029576954245567,-0.008353402325510979,0.03866699978560209
1769661763137690000,4.715690185546875,0.08722367155328392,-0.014673837518692015,0.03989040410071611
1769661763147678200,4.72567822265625,0.07477671630382537,-0.045563481301069256,0.051364568795263764
1769661763157667000,4.7356669921875,0.09350143664851784,-0.07655541641414165,0.044482700327038764
1769661763167655200,4.7456552734375,0.11055077112689614,-0.07214870588779448,0.013670797955989836
1769661763177643000,4.75564306640625,0.09092252607122063,-0.08889291993975638,0.010549451065063477
1769661763187631000,4.765631103515625,0.04470423412322998,-0.0669026219278574,0.014273440024256706
1769661763197619200,4.775619140625,-0.027822072905302045,-0.035141456007957456,0.02564472886621952
1769661763207607000,4.78560693359375,-0.08552139768004417,-0.03788286367058754,-0.007967033356428146
1769661763217595100,4.79559521484375,-0.11334113249778748,-0.0284340673238039,-0.019186931028962136
1769661763227583200,4.805583251953125,-0.10428929957933723,-0.02167933236658573,-0.0337038244202733
1769661763237571300,4.8155712890625,-0.09775310274362564,-0.020585107389092444,-0.015433715975284576
1769661763247559200,4.82555908203125,-0.09864515621252358,-0.011524433577060698,0.0157268537029624
1769661763257547300,4.83554736328125,-0.07913724960088729,-0.005396890607476234,0.03326514074206352
1769661763267535000,4.84553515625,-0.0491748036660254,-0.010177695143222809,0.040378479878604406
1769661763277523000,4.85552294921875,-0.0005156213719397783,-0.029517186385393142,0.04144172519594431
1769661763287511000,4.865510986328125,0.03938150473050773,-0.041350832042098044,0.032874680119752885
1769661763297499100,4.8754990234375,0.09935111252479255,-0.045558805125951764,0.026702713486552235
1769661763307487200,4.8854873046875,0.11616203513741492,-0.07174363221824169,0.0014370470657944679
1769661763317475000,4.89547509765625,0.13456161518096924,-0.07176116787493228,-0.014087269802391528
1769661763327463200,4.905463134765625,0.115792617303133,-0.04334463620781898,-0.015038871438801288
1769661763337451300,4.915451171875,0.07535992301926016,-0.021283026525378227,-0.01586743121743202
1769661763347439000,4.925439208984375,0.04971475576162338,-0.011810849303007125,-0.015460311721265316
1769661763357428000,4.935427978515625,0.0341210269190371,-0.014812369206547736,0.003348433645069599
1769661763367416000,4.945416015625,0.023723259284347296,-0.014597265151143074,-0.004841887073218822
1769661763377404200,4.955404052734375,0.0011725509107112884,-0.03185468942224979,-0.006024082595109939
1769661763387392000,4.96539208984375,-0.011965016951411962,-0.04101064030230045,-0.000009060089290142059
1769661763397380000,4.975380126953125,-0.016975684720277787,-0.047750177690386766,-0.0076268416166305536
1769661763407368200,4.9853681640625,-0.03342880687117576,-0.05661795927882194,-0.007047580423951149
1769661763417356300,4.995356201171875,-0.04036240552663803,-0.04188099339604377,-0.014171148693561553
1769661763427344100,5.00534423828125,-0.03233706611171364,-0.036626141607761384,-0.020518471893668174
1769661763437332200,5.015332275390625,0.008999299013614653,-0.031284780579805375,-0.025455636034905908
1769661763447320300,5.0253203125,0.041123599157482385,-0.01662964776158333,0.019916122086346147
1769661763457308200,5.03530810546875,0.03365545523390174,-0.03800970492064953,0.02632686591148376
1769661763467296000,5.0452958984375,0.03910086115822196,-0.05861643961966037,0.021520050151646136
1769661763477284000,5.0552841796875,0.04298683574609458,-0.09626315644681453,0.01905336777716875
1769661763487272000,5.06527197265625,0.0315711963057518,-0.10579612394571304,0.027272622328996656
1769661763497260000,5.075260009765625,0.03092953740134835,-0.08501052554845809,0.034412264950573444
1769661763507248000,5.085248046875,0.03127557436004281,-0.08912439060807227,0.01187426992803812
1769661763517236200,5.095236328125,0.04495674757957458,-0.0744271722137928,0.007703998506069183
1769661763527224000,5.10522412109375,0.048240591555833816,-0.057553778824210165,0.007413491126894951
1769661763537212200,5.115212158203125,0.03610942425727844,-0.06133621997237205,0.010734744504094123
1769661763547200300,5.1252001953125,0.01273088675737381,-0.0566764114677906,0.003688333123922348
1769661763557188000,5.13518798828125,-0.006450929705053568,-0.058875382816791534,0.0026888006925582884
1769661763567177000,5.145177001953125,-0.019794395402818916,-0.055199909174442285,0.010197276626527309
1769661763577165000,5.1551650390625,-0.014761515802145003,-0.05287234300971031,0.010320610745251178
1769661763587153200,5.165153076171875,0.009613046997785568,-0.06323650063574314,0.007303893272578716
1769661763597141000,5.17514111328125,0.007608283046633004,-0.0599661006629467,-0.0027370237484574318
1769661763607129000,5.185129150390625,-0.0025284955643117427,-0.04725041147470474,-0.0029378070175647736
1769661763617117200,5.1951171875,0.017236381483078003,-0.047667175582051274,-0.007012801371514797
1769661763627105300,5.205105224609375,0.048358811108022925,-0.01695113480091095,-0.004969897367060184
1769661763637093000,5.215093017578125,0.05123100554347038,-0.023781273081898688,-0.013593056544661522
1769661763647081200,5.225081298828125,0.01773337121978402,-0.05337269374728203,0.0066685179784893986
1769661763657069300,5.2350693359375,0.00431260250210762,-0.08246493271887302,0.01080284130424261
1769661763667057200,5.24505712890625,0.010926029292494059,-0.060822425231337546,0.021102993783354757
1769661763677045000,5.255044921875,0.03473345972895622,-0.08538228147029876,0.0293447524279356
1769661763687033000,5.265033203125,0.03012969226054847,-0.09802139829099178,0.03441840243041515
1769661763697021200,5.275021240234375,0.015142624074220656,-0.05651332986056804,0.040408875016868115
1769661763707009000,5.285009033203125,0.02367423251084983,-0.01712882945537567,0.00986176106184721
1769661763716997000,5.2949970703125,0.02076689369678497,0.004198620733618736,-0.010789981822669506
1769661763726985200,5.304985107421875,0.010102730210870504,0.016309914287924766,-0.025645897909998893
1769661763736973000,5.31497314453125,0.02945303510800004,0.013853753307461738,-0.017663374723494052
1769661763746961200,5.324961181640625,0.04088146096467971,-0.010103460863232612,-0.019256781394779682
1769661763756949200,5.33494921875,0.04736629293933511,-0.02699965060651302,-0.002218552832305431
1769661763766938000,5.344938232421875,0.04065130547061562,-0.0234539408236742,0.023626374781131745
1769661763776926000,5.354926025390625,0.005702522490546107,-0.026112930899858472,0.04592530035078525
1769661763786914000,5.3649140625,-0.013016206504777073,-0.015548282265663146,0.0645931759417057
1769661763796902100,5.374902099609375,-0.03737549867033958,-0.041968087157607074,0.0359390361264348
1769661763806890200,5.38489013671875,-0.029019027604907748,-0.062085577034950254,0.013883856184780597
1769661763816878000,5.394878173828125,-0.018661226654425263,-0.08525660926401615,0.008759352777898312
1769661763826866200,5.4048662109375,-0.012850129222869872,-0.10440613089203835,0.007501461671292781
1769661763836854300,5.414854248046875,-0.004654036350920796,-0.0824438899308443,-0.006150631584227084
1769661763846842000,5.424842041015625,-0.015920111252740024,-0.06970014369189739,-0.004909691612422466
1769661763856830200,5.434830322265625,-0.006853007699921727,-0.04666472054123878,-0.005489245066046714
1769661763866818300,5.444818359375,0.006625994011014699,-0.02891162170767784,-0.021647768184542653
1769661763876806100,5.45480615234375,-0.011821516827493906,-0.045372342643141744,-0.0004728782087564468
1769661763886794000,5.4647939453125,0.022158055794239042,-0.04670914420485496,0.021027298198640344
1769661763896782000,5.474781982421875,0.12132796653322875,0.03218669785559177,-0.010607318732142448
1769661763906770200,5.484770263671875,0.029288053804636,0.04079027554988861,0.029558979700505732
1769661763916758000,5.494758056640625,-0.039661125389486546,0.007566051340103149,0.024746903243660925
1769661763926746000,5.50474609375,0.008446341305971146,-0.007535656201839446,0.006060322952270507
1769661763936734200,5.514734130859375,0.07625541055426001,-0.04935995097458362,-0.024071195939183235
1769661763946722000,5.52472216796875,0.08917480562105774,-0.06271627615392207,-0.026586101369559762
1769661763956711200,5.534711181640625,0.02828033806681633,-0.04184475303888321,-0.025970015297830103
1769661763966699000,5.544698974609375,0.002695961085706949,-0.007894552642107009,-0.011166121658682823
1769661763976687000,5.55468701171875,-0.02867554792948067,0.018577859219908715,-0.008463000179827212
1769661763986675000,5.564675048828125,-0.05485869452133774,0.022500001099705694,-0.009651040920615195
1769661763996663000,5.5746630859375,-0.031207623690366743,0.01143500172793865,-0.00876987417191267
1769661764006651100,5.584651123046875,-0.017381415976956485,0.005798457145690918,0.004098082968592644
1769661764016639200,5.59463916015625,-0.017915668984130023,0.007487725406885147,0.0002691723302006721
1769661764026627000,5.604626953125,-0.03567351705804467,-0.00637830286026001,-0.001180149695277214
1769661764036615200,5.614615234375,-0.04601823933124542,-0.034518355673551555,-0.008368892155587672
1769661764046603300,5.624603271484375,-0.035575171250104905,-0.049532384932041165,-0.006604220570623875
1769661764056591000,5.634591064453125,-0.026642361601442097,-0.0671200640708208,-0.016528233213722706
1769661764066579200,5.6445791015625,-0.012194295662641524,-0.07150806989669799,-0.024091946466267108
1769661764076567300,5.6545673828125,-0.0019348405200988053,-0.0688105013757944,-0.03211889331638813
1769661764086555600,5.6645556640625,0.008168255016952753,-0.05243570515811443,-0.024254443551599978
1769661764096543500,5.67454345703125,0.0045008185505867005,-0.031304654324054715,-0.004078501485288143
1769661764106531600,5.684531494140625,0.025803280428797006,-0.010627192476391791,0.015180325736105442
1769661764116519700,5.694519775390625,0.016207622957229613,-0.010085340684652328,0.02847059994190931
1769661764126507500,5.704507568359375,0.03023264117836952,-0.013455109378695488,0.03609305764436722
1769661764136495600,5.71449560546875,0.022748349837586283,-0.025243162328004835,0.03947890069037675
1769661764146483700,5.724483642578125,0.03454509755000472,-0.029600773015618323,0.037434535381197925
1769661764156472600,5.73447265625,0.040025720918178555,-0.030505028378963468,0.009479483745992183
1769661764166460700,5.744460693359375,0.026150194170325994,-0.049966684696078296,-0.025035072535276412
1769661764176448500,5.754448486328125,0.038054640040919185,-0.06264554900527,-0.04084668191224337
1769661764186436600,5.7644365234375,0.033074440475553274,-0.0744014532506466,-0.04412438840866088
1769661764196424700,5.7744248046875,0.023301526740938425,-0.0762438662469387,-0.04361293175518512
1769661764206412500,5.78441259765625,0.023649755656719205,-0.04643500343859196,-0.031845921593904494
1769661764216400600,5.794400634765625,0.022640797809883952,-0.033010873720049856,-0.023984978960454463
1769661764226388700,5.804388671875,0.0010625877302139998,-0.026944705548882484,-0.0017684709772467612
1769661764236376600,5.81437646484375,-0.01633154159784317,-0.03361643839776516,0.000796118813753128
1769661764246364700,5.82436474609375,-0.019902824213355777,-0.04225625644922256,0.012521920181810855
1769661764256352800,5.834352783203125,-0.0041559506356716154,-0.05667524242401123,-0.006010054069757461
1769661764266340600,5.844340576171875,0.005056114345788955,-0.058330023893713945,-0.00464636450111866
1769661764276328400,5.854328369140625,-0.00011463935561478137,-0.052635611644387244,-0.007470189750194549
1769661764286316500,5.864316650390625,0.004023848688602448,-0.0370434902369976,-0.020494506496191025
1769661764296304600,5.8743046875,-0.005487564565613865,-0.04317512485980987,-0.008684533976018429
1769661764306292500,5.88429248046875,0.0038825405217707155,-0.04088321453034877,-0.006271043093502521
1769661764316280600,5.894280517578125,0.007762596825510263,-0.03934650648236274,-0.013024316745996474
1769661764326268700,5.9042685546875,-0.004942570968717337,-0.012819149562716483,0.001414250712096691
1769661764336256800,5.9142568359375,-0.014062427622079848,-0.014447627547383308,0.005099953487515449
1769661764346244600,5.92424462890625,-0.030231326004117726,-0.02712649185657501,0.004943301621079445
1769661764356233500,5.9342333984375,-0.018697832337766885,-0.02520283031761646,0.004621814581751823
1769661764366221600,5.9442216796875,-0.01946691701412201,-0.03292962517738342,0.0026861703440546987
1769661764376209700,5.954209716796875,0.0023123685956001282,-0.03085749507844448,-0.016406652660667896
1769661764386197500,5.964197509765625,0.005745996306091547,-0.05064063843488693,-0.024328677831590175
1769661764396185600,5.974185546875,0.012319529477506875,-0.043970074629783626,-0.025474048474431035
1769661764406173700,5.984173583984375,0.016554755894467234,-0.05755845499932766,-0.02497106738835573
1769661764416161500,5.99416162109375,0.04950915018692612,-0.04298281715810299,-0.005117489144206047
1769661764426149600,6.004149658203125,0.058600657528638835,-0.03485562480390072,0.026064415583014488
1769661764436137700,6.0141376953125,0.029285715717077252,-0.03557867838144302,0.031605683097243306
1769661764446125800,6.024125732421875,-0.01258709437251091,-0.02875730792880058,0.027719781574606892
1769661764456113700,6.03411376953125,-0.004785115384683012,-0.002924363014101982,0.016183657559752464
1769661764466101800,6.044101806640625,-0.021254384952783582,-0.032736148431897164,-0.0059761518001556395
1769661764476089600,6.054089599609375,-0.01957096191048622,-0.029997663378715515,-0.01032967083454132
1769661764486077400,6.064077392578125,0.0008475567400455475,-0.0239899473965168,-0.025686814442276953
1769661764496065500,6.0740654296875,-0.017757628878206012,-0.028693595042824743,-0.032109833227097984
1769661764506053600,6.0840537109375,-0.017629253258183597,0.0015747019708156585,-0.03350304115116596
1769661764516041700,6.094041748046875,-0.0002887538135051727,0.027456162202358244,0.0035188217759132383
1769661764526029600,6.104029541015625,-0.02312266304269433,0.025021044009923932,0.03498538866341114
1769661764536017700,6.114017578125,0.005994783435389399,-0.023480828830599782,0.04162994124442339
1769661764546006800,6.1240068359375,0.06532850447893142,-0.05403028087317943,0.04114186546653509
1769661764555994600,6.13399462890625,0.08692907252088189,-0.0906008929014206,0.05442746349722147
1769661764565982500,6.143982421875,0.0787490540008992,-0.08201952703893184,0.05798924763202667
1769661764575970600,6.153970458984375,0.03886252235770225,-0.06522621314823628,0.058768123050034045
1769661764585958700,6.163958740234375,0.02738017435669899,-0.023494272834062576,0.02345014143139124
1769661764595946500,6.173946533203125,-0.014208558094501495,-0.005485153412818908,0.002876139958202839
1769661764605934600,6.1839345703125,-0.023405571637302634,-0.01285071374475956,-0.012812427560985088
1769661764615922700,6.193922607421875,-0.03590951777100563,-0.013277414724230765,-0.036836861748993394
1769661764625910500,6.20391064453125,-0.04341463270410895,-0.029608371800184247,-0.03974807302057743
1769661764635898600,6.213898681640625,-0.032306524842977524,-0.014158873733878134,-0.03981646208167076
1769661764645886700,6.22388671875,-0.05458382310271263,-0.02869242599904537,-0.04110065667331218
1769661764655874800,6.233874755859375,-0.0494819699190557,-0.029579730227589605,-0.023518238231539725
1769661764665862700,6.243862548828125,-0.02123801833987236,-0.011482348001003265,-0.01246463703662157
1769661764675850800,6.253850830078125,0.008737433207035064,-0.038893502017855644,0.013777180939912795
1769661764685838600,6.263838623046875,0.02306055759191513,-0.02170855846107006,0.041727556400001045
1769661764695826400,6.273826416015625,0.03682597502879798,-0.02019873842000961,0.04924129303097725
1769661764705814500,6.283814453125,0.058304743321985,-0.040292847421765324,0.032439795833826064
1769661764715802600,6.293802734375,0.06071063541993498,-0.057041737648844716,0.02956511718034744
1769661764725790700,6.303790771484375,0.08224573701024054,-0.05755611691176891,0.0238265735283494
1769661764735779600,6.313779541015625,0.09722118782401085,-0.06454173801541328,0.020026888984441757
1769661764745767700,6.323767578125,0.09230199773088096,-0.06703706196248531,0.023153204311430454
1769661764755755800,6.333755859375,0.05244812624827027,-0.046482349711656566,0.017006079858541488
1769661764765743600,6.34374365234375,0.024402619850635528,-0.03729249656200409,0.015179448953270912
1769661764775731500,6.3537314453125,0.0058392275474965566,-0.03010463088452816,0.01873568013012409
1769661764785719600,6.363719482421875,-0.001676481844857335,-0.03321194925010204,0.011695113968849181
1769661764795707600,6.373707763671875,-0.010092208816856145,-0.023684242448210716,0.008466215050220488
1769661764805695500,6.383695556640625,0.0030500352203845977,-0.04239186552762985,-0.005523147335648537
1769661764815683600,6.39368359375,0.010453516409918664,-0.04146773642003536,-0.006318681627511978
1769661764825671700,6.403671630859375,0.00899710705652833,-0.050668695485591886,-0.016838029815256596
1769661764835659800,6.41365966796875,0.00858078134059906,-0.05419453152418136,-0.01620645391345024
1769661764845647600,6.423647705078125,0.020639321794360874,-0.05665595320165157,-0.029957039107382295
1769661764855635700,6.4336357421875,0.019765169308334586,-0.03277297331094742,-0.04241057022809982
1769661764865623800,6.443623779296875,0.0362812736928463,-0.015786767196655272,-0.021066461165249347
1769661764875611600,6.453611572265625,0.017749591702222824,-0.0050122752040624614,-0.007963526225090027
1769661764885599500,6.463599609375,0.02518697516135871,0.007328735452890396,-0.017102525970339774
1769661764895587600,6.473587646484375,0.023704700714349745,0.005610241097211838,-0.030687691469490526
1769661764905575700,6.48357568359375,0.004217836890742182,-0.014535305830836296,-0.011666180135309696
1769661764915563500,6.4935634765625,0.008351648759841918,-0.03156418204307556,-0.026277473811805247
1769661764925552600,6.503552734375,0.015164835906028747,-0.05294307015836239,-0.04908259533792734
1769661764935540700,6.513540771484375,0.005372852144762874,-0.04180091389715671,-0.044108898578584195
1769661764945528800,6.52352880859375,-0.0041677141387015575,-0.036301731958985325,-0.03151917385756969
1769661764955516700,6.5335166015625,-0.004317424807697534,-0.041539632612466806,-0.04311784171462059
1769661764965504800,6.5435048828125,-0.016007862601429224,-0.010562895068526267,-0.038002690657973286
1769661764975492600,6.55349267578125,0.027777576176449655,0.025725392886996268,-0.03773819450289011
1769661764985480400,6.56348046875,0.07088263147473335,0.03845394155681133,-0.005932604919373989
1769661764995468500,6.573468505859375,-0.034710078853368756,-0.052178515526652335,-0.030342531293630598
1769661765005456600,6.58345654296875,-0.04530278453826904,-0.059872577160596845,0.0029629414588212967
1769661765015444700,6.59344482421875,-0.008815905270725488,-0.06714987468719483,-0.032246611349284644
1769661765025432600,6.6034326171875,0.02051788737177849,-0.06272153685092925,-0.008993453794717788
1769661765035420700,6.613420654296875,0.03204816616773605,-0.08502104694247245,-0.006316343539953232
1769661765045408800,6.62340869140625,0.008051204508543014,-0.09678338092863559,-0.0117269704118371
1769661765055396600,6.633396728515625,0.029861031387001274,-0.08081365838050841,-0.002184650562703609
1769661765065384700,6.643384765625,0.03811784147024155,-0.08838555493950843,-0.002496200729906559
1769661765075372800,6.653372802734375,0.024546412235498426,-0.06228782160878181,0.011547814452648162
1769661765085360400,6.6633603515625,0.008309709314256905,-0.045423196047544474,-0.000623100334405899
1769661765095348500,6.673348388671875,-0.009198036456108092,-0.01868950290083885,-0.02167144132107496
1769661765105336300,6.68333642578125,-0.003739771050214767,-0.022048165678977966,-0.011919862635433673
1769661765115325400,6.693325439453125,-0.009776713126897811,-0.01585164912641048,-0.00918897636681795
1769661765125313300,6.703313232421875,0.0021077859342098237,-0.03301671893894672,-0.011338555616140365
1769661765135301400,6.71330126953125,0.010859393797069787,-0.03293020969927311,-0.009133154526352882
1769661765145289500,6.72328955078125,0.019119857142120597,-0.048230070161819454,-0.020371464638412
1769661765155277600,6.733277587890625,0.010488806919008492,-0.06356324837207794,-0.029271979452669617
1769661765165265400,6.743265380859375,0.01897255762591958,-0.05586684865057468,-0.022241350163519382
1769661765175253500,6.75325341796875,0.00431260250210762,-0.03840250363051891,-0.00876285990923643
1769661765185241300,6.763241455078125,-0.014330138647556305,-0.03491056986153126,-0.004221709348261356
1769661765195229200,6.773229248046875,0.0036323651529848572,-0.005399813216924667,0.024929858595132828
1769661765205217300,6.78321728515625,-0.02198722927197814,-0.027008418434858322,0.03436374963372946
1769661765215205400,6.793205322265625,-0.04068973778486252,-0.08174655531644821,0.039574470019340516
1769661765225193500,6.803193359375,-0.006035846098139882,-0.07673428011238574,0.031000702941417692
1769661765235181300,6.813181396484375,0.04216258681640029,-0.09586918869316577,0.013879472270607948
1769661765245169400,6.82316943359375,0.010005772642418741,-0.10893617553710937,0.026636077991127965
1769661765255157500,6.833157470703125,-0.01441767080053687,-0.07216331893503665,-0.0018143559455871582
1769661765265145300,6.843145263671875,0.004044891476631164,-0.028671383211016654,0.006511866112053394
1769661765275133400,6.853133544921875,0.015169512081146239,0.014233108013868331,-0.008522913673520087
1769661765285121500,6.86312158203125,0.011602759510278702,0.03343640565574169,0.010013152231276034
1769661765295109400,6.873109375,-0.002870148608833551,0.03934066126346588,0.042945992279052735
1769661765305098200,6.88309814453125,-0.005063128608465194,0.014765022933483123,0.05557751031517982
1769661765315086300,6.89308642578125,-0.0034054245293140407,-0.01487666661441326,0.051824587522447105
1769661765325074400,6.903074462890625,0.03078209175467491,-0.044400282740592954,0.039320787519216534
1769661765335062500,6.9130625,0.0408475586950779,-0.08727905500233173,0.012218261060118675
1769661765345050400,6.92305029296875,0.04456745600104332,-0.10068331097662449,-0.010649988830089569
1769661765355038500,6.93303857421875,0.024977643259614705,-0.07212006431519985,-0.022616320955753326
1769661765365026600,6.943026611328125,0.002873509609699249,-0.044482115805149075,-0.037000527878105635
1769661765375014400,6.953014404296875,-0.07934285517558455,-0.10647066220641135,-0.04039806136190891
1769661765385002500,6.96300244140625,-0.09926467635035514,-0.0731073217868805,-0.018119301797449586
1769661765394990300,6.972990234375,-0.03837751531973481,-0.02293196277618408,0.008742986164987086
1769661765404978200,6.982978271484375,0.005862681488320231,-0.04241758449077606,0.009921966816484927
1769661765414966300,6.99296630859375,0.003237009159848094,-0.04781681318581104,0.012598784810304641
1769661765424954400,7.002954345703125,0.0125613754093647,-0.05950257480442524,0.005514087246358395
1769661765434942500,7.0129423828125,0.041884427462145685,-0.03576397182047367,-0.000832066909968853
1769661765444930300,7.022930419921875,0.039026188486814495,-0.008346388062834739,0.0204977213665843
1769661765454918400,7.03291845703125,0.0481365466594696,-0.019321955585479736,-0.0033519407764077184
1769661765464906500,7.042906494140625,0.05350362665057182,-0.051591655549407,-0.009754209034144878
1769661765474894300,7.052894287109375,0.0433272466816008,-0.06805179196298122,-0.004086100269854068
1769661765484883200,7.06288330078125,0.04715681490711868,-0.06576338876485824,-0.0012213584885001183
1769661765494871300,7.072871337890625,0.042043344350904226,-0.07179448562264441,-0.003878887259960174
1769661765504859400,7.082859375,-0.002918956186622381,-0.050780339166522026,-0.015619009414315222
1769661765514847200,7.09284716796875,-0.05082658946104347,-0.030528993776440617,0.004935118314623833
1769661765524835300,7.10283544921875,-0.07473353474922478,-0.020050854381918906,0.030842005248367783
1769661765534823400,7.112823486328125,-0.07175576104745268,-0.02321837850213051,0.00926350290775299
1769661765544811500,7.1228115234375,-0.056101241928339,-0.040409167277812956,-0.0007096095740795135
1769661765554799400,7.13279931640625,-0.01621098395809531,-0.052044075492024416,-0.015322072294354437
1769661765564787500,7.142787353515625,0.01765606819987297,-0.055851066559553145,0.0005164250895380974
1769661765574775600,7.152775634765625,0.01552373234629631,-0.06417758087813853,-0.0025841712743043897
1769661765584763400,7.162763427734375,0.02763619494438171,-0.06249883401095867,-0.0047828503623604775
1769661765594751200,7.172751220703125,0.02841726231947541,-0.06472703145444393,-0.01058452237844467
1769661765604739300,7.1827392578125,0.011216755867376922,-0.07435118436813354,-0.019688743071258067
1769661765614727400,7.1927275390625,-0.0069591714881360525,-0.07251695467829704,-0.030528701515495776
1769661765624715300,7.20271533203125,-0.005371610035747289,-0.04952478614747524,-0.004086392530798912
1769661765634703400,7.212703369140625,-0.006851911721378564,-0.03729483464956283,-0.02837795322239399
1769661765644691500,7.22269140625,-0.01967836780771613,-0.017880524605512618,-0.0432063967809081
1769661765654679300,7.23267919921875,-0.027688874979689717,-0.010075403812527656,-0.032788170880079265
1769661765664668400,7.24266845703125,0.005572831696271896,-0.020328502279520034,-0.021249416516721246
1769661765674656500,7.252656494140625,-0.0034217911422252654,-0.03447685461938381,-0.008137129226326941
1769661765684644400,7.262644287109375,0.04316124246492982,-0.03302548676729202,-0.0116594581335783
1769661765694632200,7.272632080078125,0.03803849262371659,-0.03247662071287632,-0.009608370822668076
1769661765704620300,7.282620361328125,0.030502836421877143,-0.03807926302552223,-0.007150748537480831
1769661765714608400,7.2926083984375,0.029504473034292458,-0.031191841599345207,-0.0036988545179367062
1769661765724596500,7.302596435546875,0.05064546074047684,-0.021361936980485916,-0.008472060269117355
1769661765734584300,7.312584228515625,0.038944355422258374,-0.02756955944895744,-0.0006765840873122215
1769661765744572400,7.322572509765625,0.028862521868944165,-0.02764496277272701,-0.004631166931986809
1769661765754560500,7.332560546875,0.017569412829726933,-0.01681201859116554,0.0037348026141524313
1769661765764548400,7.34254833984375,0.0011292232256382704,-0.03069792060256004,0.0044768531531095505
1769661765774536400,7.352536376953125,-0.04239193859286606,-0.018902268868684766,0.007672434324026108
1769661765784524500,7.362524658203125,-0.047615153133869166,-0.01994914757311344,0.0015197569131851195
1769661765794512400,7.372512451171875,-0.04799260814413428,-0.02087678381204605,-0.009736965638399124
1769661765804500200,7.382500244140625,-0.03431377301216125,-0.03201894007325172,-0.02919482256323099
1769661765814488300,7.39248828125,-0.025305267778784037,-0.026111177334189415,-0.027754268366098404
1769661765824476400,7.402476318359375,-0.027322891211509704,-0.02788987744450569,-0.017776479709148404
1769661765834465500,7.412465576171875,-0.021257892084121703,-0.03426058152019977,-0.02119827085137367
1769661765844453400,7.422453369140625,-0.014844517910480498,-0.030316227808594703,-0.014784604416787623
1769661765854441500,7.43244140625,-0.014131620400771499,-0.04134557134509086,-0.010776830080151557
1769661765864429600,7.4424296875,0.025212913320213554,-0.04781389057636261,0.004070902700722218
1769661765874417400,7.45241748046875,0.02469831486158073,-0.047723874205350875,0.013573182800412177
1769661765884405200,7.4624052734375,0.010433642665669322,-0.03930968160331249,0.00682137045264244
1769661765894393300,7.472393310546875,0.00966558090262115,-0.026761750197410582,0.02092471460700035
1769661765904381200,7.482381103515625,0.007895648620650172,-0.01680734241604805,0.008271277000010013
1769661765914369300,7.492369384765625,0.033244024888798594,-0.022432781082391738,0.012369944490492344
1769661765924357400,7.502357421875,0.03907631123885512,-0.022048165678977966,0.0031467735931277273
1769661765934345500,7.512345458984375,0.04310863549485802,-0.02296118887066841,-0.0022726211071014404
1769661765944333300,7.522333251953125,0.0267206875346601,-0.02894552397727966,-0.009915537075698375
1769661765954321400,7.5323212890625,-0.011184241837263107,-0.06027122108936309,-0.01831570115238428
1769661765964309500,7.5423095703125,-0.029073972662538288,-0.06053542498350143,0.0039051907449960707
1769661765974297300,7.55229736328125,0.014570961666107177,-0.03869359553158283,-0.0016875146955251693
1769661765984285400,7.562285400390625,0.04030629142522812,-0.06240764859616756,-0.038116087904572486
1769661765994273500,7.5722734375,0.009554521743580699,-0.08529986388385295,-0.019764730916917325
1769661766004261400,7.582261474609375,0.027733225578069686,-0.06632511430084705,-0.003948153103888035
1769661766014249200,7.592249267578125,0.03779401634335518,-0.03321662542521953,-0.021977146269381045
1769661766024238300,7.60223828125,0.011091887378692626,-0.010640051957964896,-0.0064876084536314
1769661766034226400,7.612226318359375,-0.011006547182798384,0.01916705728471279,0.01814063684642315
1769661766044214500,7.622214599609375,-0.023255641772598028,0.048151159706711764,0.04267594316601753
1769661766054202400,7.632202392578125,-0.01220014088153839,0.03650280748903751,0.060549161247909065
1769661766064190500,7.6421904296875,0.01431026490330696,0.0003477905243635177,0.037246319332718845
1769661766074178600,7.652178466796875,0.06074599899426102,-0.01567921516895294,0.028660861817002295
1769661766084166400,7.66216650390625,0.08326507012061775,-0.04964695122241974,0.012938099767267704
1769661766094154200,7.672154296875,0.05790493034943938,-0.06849602859914303,-0.006091302612423896
1769661766104142300,7.682142333984375,0.04097008909620344,-0.07262859835922718,-0.024536183102428912
1769661766114130400,7.69213037109375,0.023966566520929336,-0.06411854416728019,-0.048803193874657154
1769661766124118300,7.7021181640625,0.012106398183479904,-0.04940846629142761,-0.0448927424326539
1769661766134106400,7.7121064453125,-0.005696896467357874,-0.03401800493597984,-0.014599310977756977
1769661766144094500,7.722094482421875,-0.012483049476146698,-0.01535246743261814,-0.004441781839728355
1769661766154082600,7.73208251953125,-0.003683730014041066,0.007428688696026801,-0.01610533162653446
1769661766164070400,7.7420703125,-0.007167407411336898,0.01963935097157955,-0.028070786969363687
1769661766174058500,7.75205859375,-0.0019922697957605122,-0.0021060323685407637,-0.020806933446228502
1769661766184046600,7.762046630859375,0.013946546157449483,-0.004414309310913086,-0.014293606029450892
1769661766194034400,7.772034423828125,0.022963307762518523,-0.019301497319340704,-0.009086977297067641
1769661766204023300,7.782023193359375,0.023320085310935972,-0.039596681851148605,-0.0022255670949816704
1769661766214011400,7.792011474609375,-0.0025672932047396896,-0.06099076753556728,0.005149637848138809
1769661766223999500,7.80199951171875,0.023045286957547068,-0.05042670342326164,0.007065408341586589
1769661766233987300,7.8119873046875,0.057681789118051524,-0.045883799296617504,-0.010878829149901867
1769661766243975400,7.821975341796875,0.0703239746786654,-0.05602233147323131,-0.0029360534518957137
1769661766253963500,7.831963623046875,0.06304536197781563,-0.0510819524616003,0.0033837972193956375
1769661766263951600,7.84195166015625,0.03907894158735871,-0.05793956327140331,-0.0008639233529567718
1769661766273939500,7.851939453125,0.026685689286515116,-0.0775420893639326,0.005367664512991905
1769661766283927600,7.861927490234375,0.002964695024490356,-0.07095978836417198,0.008197919502854346
1769661766293915400,7.871915283203125,-0.021547668810933826,-0.06096504857242107,-0.01012450365126133
1769661766303903200,7.8819033203125,-0.041170068647712464,-0.04525836087465286,-0.005857786117494106
1769661766313891300,7.891891357421875,-0.033981764578819275,-0.03803893101513386,0.002663373990356922
1769661766323879400,7.90187939453125,-0.03994271880984306,-0.03613455869853496,-0.008680734583735465
1769661766333867300,7.9118671875,-0.03836918588280678,-0.04902501993179321,0.0031441432446241376
1769661766343855400,7.92185546875,-0.020273557221889494,-0.040488662254810334,-0.005878828905522823
1769661766353843500,7.931843505859375,0.009927373643964529,-0.05152852718532085,-0.00789542942494154
1769661766363831600,7.94183154296875,0.03368614263311028,-0.05953530803024768,-0.0011447861209511756
1769661766373820400,7.9518203125,0.038920974546670914,-0.04331131846010685,-0.008742693904042243
1769661766383808300,7.961808349609375,0.04739763792566955,-0.03583060731589794,-0.016234510964155197
1769661766393796400,7.97179638671875,0.045939767267555,-0.043188568863272665,-0.013911328713595867
1769661766403784400,7.981784423828125,0.0684054277062416,-0.031278935360908505,0.0003422375664114952
1769661766413772300,7.991772216796875,0.07119337792433798,-0.020108137527108192,0.011746844156086443
1769661766423760400,8.001760498046876,0.03781052908673882,-0.03478489765524864,0.01624298653155565
1769661766433748500,8.01174853515625,0.015174188256263732,-0.06858370688259602,0.0145198160007596
1769661766443736300,8.021736328125,0.05507832862138748,-0.06378770477771759,-0.03879617912322283
1769661766453724400,8.031724365234375,0.05180727106146514,-0.01649228511750698,-0.010986965699493884
1769661766463712500,8.04171240234375,0.004369885647296905,-0.0087619831264019,0.005083879135549068
1769661766473700600,8.05170068359375,-0.02233005136027932,0.01617079807817936,-0.006986205625534057
1769661766483688400,8.0616884765625,0.005166004461050033,0.019258827221393583,-0.015126841983199118
1769661766493676500,8.071676513671875,0.008065233033895492,0.005723638343811035,-0.0003632803544402122
1769661766503664400,8.081664306640626,0.004682166466861963,-0.0033007951110601425,-0.01842676031142473
1769661766513652200,8.09165234375,0.003196092627570033,-0.01170563536286354,-0.006959025357663631
1769661766523640300,8.101640380859376,-0.016303484547138213,-0.015693828216195107,-0.011174012704193591
1769661766533628400,8.11162841796875,-0.006999065107107162,-0.008461538875102996,-0.006026420682668686
1769661766543617500,8.121617431640624,0.0014856354478746652,-0.02382745031118393,-0.012167992177605629
1769661766553605400,8.13160546875,0.0015291092634201048,-0.025142624562978742,-0.023081600379943848
1769661766563593500,8.141593505859374,0.0015304244376718997,-0.03166822693943977,-0.013458616510033607
1769661766573581600,8.15158154296875,0.01795548953786492,-0.02261047573685646,-0.02373801846206188
1769661766583569400,8.1615693359375,0.03604980302453041,-0.029329554858803748,-0.007955927440524101
1769661766593557200,8.17155712890625,0.02548851539120078,-0.03890519245564937,0.000813069948554039
1769661766603545300,8.18154541015625,0.034078722147271034,-0.028467969593405723,0.007547346639633178
1769661766613533400,8.191533447265625,0.034299671421572565,-0.03426467317342758,0.0021688684716820715
1769661766623521300,8.201521240234374,0.030713045106455682,-0.04159048601686954,0.018257541224360466
1769661766633509400,8.21150927734375,0.012606895051524042,-0.05016133048534393,0.01198971300125122
1769661766643497500,8.22149755859375,-0.002859481084346771,-0.03536240528225899,-0.0027168577432632444
1769661766653485600,8.231485595703125,0.010155629441887139,-0.045700259423255916,-0.002680617386102676
1769661766663473400,8.241473388671874,0.014961422288417816,-0.05392389788925647,-0.01014233156889677
1769661766673461500,8.25146142578125,0.010162643704563379,-0.04776245265007019,0.005441314271092414
1769661766683449600,8.26144970703125,0.011602905640751122,-0.045158407631516455,0.0048299043744802475
1769661766693437400,8.2714375,0.01187514671087265,-0.03955401175320148,0.0001955225721001625
1769661766703425300,8.28142529296875,0.018038272450491784,-0.01790565904676914,0.008712006504833697
1769661766713414400,8.291414306640625,0.0241641349196434,-0.04784545475840568,0.0048655602097511285
1769661766723402500,8.301402587890625,0.01902151133418083,-0.08620587281286717,0.01865940002351999
1769661766733390300,8.311390380859375,0.03177687494568526,-0.08751870897710323,0.013692425265908241
1769661766743378400,8.32137841796875,0.06201755330003798,-0.07653788075745105,-0.005856617073714733
1769661766753366500,8.331366455078125,0.03416179732084274,-0.07817571109235286,-0.01431289525181055
1769661766763354600,8.341354736328125,-0.010417202987521886,-0.05905716912448406,0.010910393331944941
1769661766773342500,8.351342529296875,-0.021124767223745584,-0.04022328931689262,0.008735679641366005
1769661766783330600,8.36133056640625,0.002838438296318054,0.0015595044016838073,0.017896014435589313
1769661766793318400,8.371318359375,-0.0006008885025978088,-0.006429740786552429,-0.01170037466585636
1769661766803306200,8.38130615234375,-0.023038345760107038,-0.00890928264260292,0.022530980759859084
1769661766813294300,8.39129443359375,-0.01884381667971611,0.013045359534025192,0.023403379680216312
1769661766823282400,8.401282470703125,-0.009755743404105306,-0.024667992788553236,0.022421675166487694
1769661766833270300,8.411270263671875,0.01542429055981338,-0.048503626406192775,0.017082359965145587
1769661766843258400,8.42125830078125,0.02264773900732398,-0.07058452531099318,-0.010933481946587562
1769661766853246500,8.43124658203125,0.015630042264983057,-0.0672685326308012,-0.0039028526574373243
1769661766863234600,8.441234619140625,0.023755115727335213,-0.06557692628204823,-0.006266951440274715
1769661766873223400,8.451223388671876,0.024007483053207396,-0.05440788201391697,-0.010139993481338023
1769661766883211300,8.461211181640625,0.03929492242559791,-0.044565702435374256,-0.005847849245369434
1769661766893199400,8.471199462890626,0.038014819487184284,-0.04204173691570758,-0.0039598435416817665
1769661766903187500,8.4811875,0.0010685060143470764,-0.03691898707449436,0.003015256167948246
1769661766913175300,8.49117529296875,-0.013342369719222187,-0.04285363782048225,0.010956278300285338
1769661766923163400,8.501163330078125,0.006667056673765182,-0.020080080476403236,0.010131517913937568
1769661766933151500,8.5111513671875,-0.007108809091895818,-0.002155132207274437,-0.005737082347273826
1769661766943139300,8.521139404296875,-0.022328590055555105,0.0005003507375717163,0.010724223110079764
1769661766953127400,8.53112744140625,-0.005052461083978414,-0.006750643303990364,0.01818973668515682
1769661766963115500,8.541115478515625,0.02883329577445984,-0.0140688573628664,0.033900808297097684
1769661766973103600,8.551103515625,0.040519057393074036,-0.038707039535045625,0.017004326292872428
1769661766983091500,8.561091552734375,0.018396072912216184,-0.07970540487766266,0.013863105657696722
1769661766993079300,8.571079345703126,0.009545169393345713,-0.10231471157073974,-0.00013940847069025038
1769661767003067400,8.5810673828125,0.03570953821949661,-0.07674304794073104,-0.003568506136536598
1769661767013055200,8.59105517578125,0.017629180192947385,-0.06940612918138504,-0.0020849895805120466
1769661767023043300,8.601043212890625,-0.020049246946722266,-0.0433832146525383,0.025338147135078905
1769661767033031400,8.611031494140626,-0.0283915433563292,-0.010897826111316681,0.023498072226345538
1769661767043020500,8.6210205078125,-0.04658420265093446,-0.01670797369480133,0.024957915645837783
1769661767053008400,8.63100830078125,-0.03271671307906508,-0.03842413094043731,0.014709493353962898
1769661767062996500,8.64099658203125,0.002558963767811656,-0.02122282077074051,0.004424538443982601
1769661767072984600,8.650984619140624,-0.006163344935327768,-0.015610241585969924,0.008948445609211922
1769661767082972400,8.660972412109375,-0.018026508947461842,0.008880641070008277,-0.0038499534264206884
1769661767092960000,8.6709599609375,-0.027131168031692503,0.00685059654712677,-0.017311200284957886
1769661767102948000,8.680947998046875,-0.03280789849385619,-0.014307342293858527,-0.022552023547887802
1769661767112936200,8.690936279296874,-0.029474954678863286,-0.023877134671807288,-0.016618834106624125
1769661767122924000,8.700924072265625,-0.034564971294254065,-0.04003448874652386,0.005649404063820839
1769661767132912000,8.710912109375,-0.046713674249500035,-0.046852352067828174,0.019117080663144586
1769661767142900200,8.720900146484375,-0.029100860669463872,-0.04344809658229351,0.014395897360146044
1769661767152888300,8.730888427734374,-0.022708529283851385,-0.02762625807225704,-0.0033791210442781446
1769661767162876200,8.740876220703125,-0.014272855502367019,-0.0355272404551506,0.015850187821686266
1769661767172864300,8.7508642578125,-0.0032652123410254713,-0.03166413528621197,0.01648614763766527
1769661767182852400,8.760852294921875,-0.012086743634939194,-0.024269348859786984,0.014725567705929279
1769661767192841200,8.77084130859375,0.013877718704938887,-0.0164478614538908,0.011558920368552206
1769661767202829000,8.7808291015625,0.0077437459945678706,0.01130523786842823,0.007281389179825782
1769661767212817200,8.790817138671875,-0.0016832769118249415,-0.002403554010391235,0.004342997640371322
1769661767222805200,8.80080517578125,-0.023590207489207385,-0.0014905308187007902,0.006136603058874607
1769661767232793000,8.81079296875,-0.021100071173906325,-0.0034703064590692516,-0.0003074585139751434
1769661767242781200,8.82078125,-0.008403086686134337,-0.02339256602525711,0.004015665382146835
1769661767252769300,8.830769287109375,-0.0024937895771116017,-0.04768120410740375,0.005040039993822574
1769661767262757000,8.840757080078125,0.0077495912134647365,-0.04695931957364082,-0.0008759060516953468
1769661767272745200,8.8507451171875,0.019441124985739588,-0.05505494774580001,-0.0270116333052516
1769661767282733300,8.8607333984375,0.00947736485414207,-0.04907996498942375,-0.011167290702462196
1769661767292721200,8.87072119140625,0.00409158016256988,-0.06495207238197326,-0.005573123957216739
1769661767302709000,8.880708984375,0.0017968202888965605,-0.07952829474508762,0.005526069945096969
1769661767312697000,8.890697021484375,0.00044774376749992365,-0.08543138130903244,0.030139117676019667
1769661767322685200,8.900685302734376,-0.0058580783784389495,-0.07946925803422927,0.0299327814489603
1769661767332673000,8.910673095703125,-0.012866568901017308,-0.06493044507205487,0.026913141366839408
1769661767342661000,8.9206611328125,-0.02423778467774391,-0.07668634931743144,0.014238660971820354
1769661767352649200,8.930649169921875,-0.01914323801770806,-0.06374503467977047,0.008560907596349716
1769661767362638300,8.940638427734376,-0.027329978539422154,-0.031124621582031248,-0.005185585944354534
1769661767372626200,8.950626220703125,-0.0208440505862236,-0.01278524729311466,-0.010600304469466209
1769661767382614000,8.960614013671876,-0.025805472385883328,-0.003304302242398262,-0.009411971467733383
1769661767392602000,8.97060205078125,-0.026634397490695117,0.00008475567400455475,-0.008870411936938763
1769661767402590200,8.980590087890626,-0.009336056687310338,-0.013982348123192786,-0.018321546371281146
1769661767412578000,8.990578125,-0.011346885053068398,-0.0536743070423603,-0.01140197624117136
1769661767422566100,9.000566162109376,0.017640724500268698,-0.07511223186850548,0.0006508651241660118
1769661767432554200,9.01055419921875,0.025054873214289546,-0.0868231279283762,0.00830927092283964
1769661767442542000,9.0205419921875,0.004949585231393576,-0.08101941008567809,0.0018199089035391806
1769661767452530200,9.0305302734375,-0.01913958475589752,-0.08268062129616736,-0.011723463280498982
1769661767462518300,9.040518310546876,-0.017501754420995712,-0.06101297936737537,-0.021928630952537057
1769661767472506400,9.05050634765625,-0.009891425547748803,-0.04078852198421955,-0.010090601381659507
1769661767482494200,9.060494140625,0.00001746259145438671,-0.00900514423251152,-0.007858604545891285
1769661767492482300,9.070482421875,0.006042714230343699,-0.007980477359890938,-0.0014779635980725287
1769661767502470100,9.08047021484375,-0.01881707480326295,-0.04044833024442196,0.0009530629411339759
1769661767512459300,9.090459228515625,-0.028599633149057627,-0.036706221106648444,0.0010556465327739716
1769661767522447000,9.100447021484374,-0.015817308465391398,-0.04263035045862198,-0.01841068595945835
1769661767532435200,9.110435302734375,-0.012758797677606343,-0.05082359378635883,-0.009929565601050853
1769661767542423300,9.12042333984375,-0.021420389169454573,-0.03074117522239685,-0.014191899220645426
1769661767552411100,9.1304111328125,0.009998977575451136,0.0017716858476400374,-0.026602467982470988
1769661767562399200,9.140399169921874,0.01915361328125,0.03866261587142944,-0.012038812839984894
1769661767572387300,9.15038720703125,-0.0032218846559524533,0.049638183394074435,0.009443243388831615
1769661767582375200,9.160375244140624,-0.02381342178583145,0.08263736667633056,0.03798720082789659
1769661767592363000,9.170363037109375,-0.027102964850515127,0.03237842103540897,0.048662616360187524
1769661767602351000,9.18035107421875,0.01134783490113914,-0.03742810564041137,0.050719548889994616
1769661767612339200,9.190339111328125,0.07235438452772795,-0.09652385320961475,0.03545183713138103
1769661767622327000,9.2003271484375,0.09110818483643233,-0.14504209266304968,0.015038871438801288
1769661767632315100,9.210315185546875,0.05884601059183478,-0.12984919970631598,-0.001148293252289295
1769661767642303200,9.22030322265625,0.03721643565110862,-0.09764613523781299,-0.039135786341130734
1769661767652291300,9.230291259765625,-0.0034134617052972317,-0.07920154700875282,-0.026951719811558722
1769661767662279200,9.240279052734374,-0.0453004464507103,-0.06715805799365043,-0.04091185610294342
1769661767672268000,9.25026806640625,-0.04090959108062088,-0.04559972165822983,-0.018982056106626986
1769661767682256100,9.260256103515625,-0.03938859205842018,-0.023576105898618697,-0.0008797054439783096
1769661767692244200,9.270244140625,-0.04845204234942794,-0.006229249778389931,0.0007104863569140434
1769661767702232000,9.280232177734375,-0.06234963479861617,0.014177578434348106,0.0022597616255283356
1769661767712220200,9.29022021484375,-0.06375745576992631,0.012140519648790359,0.010019581972062586
1769661767722208300,9.300208251953125,-0.05361337063536047,-0.0004401449829339981,0.01857932052463293
1769661767732196000,9.310196044921875,-0.012228197932243346,-0.006888590469956398,0.010304244132339954
1769661767742184200,9.32018408203125,0.008927987343072891,-0.0009328969359397888,0.03366933762878179
1769661767752172300,9.33017236328125,-0.0012228197932243347,-0.024248890593647956,0.02519406248927116
1769661767762160000,9.34016015625,-0.004020341557264328,-0.05381108516454696,0.02525952894091606
1769661767772148200,9.350148193359376,-0.004710077387094497,-0.08636310920119285,0.0420236167371273
1769661767782136300,9.36013623046875,-0.0043313072025775905,-0.1126952358096838,0.009416355381906032
1769661767792124200,9.370124267578126,0.022012948235124348,-0.1082721586704254,0.009211480459570884
1769661767802112000,9.380112060546875,0.025764701984077692,-0.08953823210597038,0.026379472881555555
1769661767812100000,9.39010009765625,-0.001785129851102829,-0.0710024584621191,0.010287585258483885
1769661767822088200,9.400088134765625,-0.05333396917209029,-0.04471124838590622,0.013843816435337065
1769661767832077300,9.410077392578126,-0.05329904398918152,-0.007578326299786567,0.0009460486784577369
1769661767842065200,9.420065185546875,-0.030834844855219125,0.028016718694567677,0.01127250464260578
1769661767852053200,9.43005322265625,-0.012282120076566934,0.026033435922861097,0.00765139153599739
1769661767862041300,9.440041259765625,-0.009431991342455148,0.017869418689608573,0.011446692165732382
1769661767872029200,9.450029296875,0.00001505143865942955,-0.004234276568889618,0.03332651554048061
1769661767882017000,9.46001708984375,0.01626132590584457,-0.043639819762110704,0.015211889918148517
1769661767892005000,9.470005126953126,0.07661554910354315,0.001644260075688362,0.022005203320086
1769661767901993200,9.4799931640625,-0.03739756437167525,-0.09241875597834587,0.03175590522289276
1769661767911981000,9.48998095703125,-0.13050605617985128,-0.1212304244428873,-0.0093371526658535
1769661767921969200,9.49996923828125,-0.06106617085933685,-0.0429910004645586,-0.001593114410340786
1769661767931957200,9.509957275390626,0.006488339105993509,-0.023841478836536405,-0.017900690610706805
1769661767941945000,9.519945068359375,0.018455621079728007,-0.04266600629389286,-0.00675035104304552
1769661767951933200,9.52993310546875,0.011917159221693873,-0.06658814915120602,-0.012551438537240028
1769661767961921300,9.53992138671875,0.02278459019474685,-0.060709027984738345,-0.008020517109334468
1769661767971909400,9.549909423828124,0.023310659895464776,-0.05573825383484363,0.011844167050719261
1769661767981898000,9.55989794921875,0.03988777375221252,-0.045344285592436785,0.008203764721751213
1769661767991886000,9.569885986328124,0.03179901371225714,-0.051639001822471615,-0.0022857728496193884
1769661768001874200,9.579874267578125,-0.007925020845606923,-0.019136077624559402,-0.003871580736339092
1769661768011862300,9.5898623046875,0.010304098001867532,0.009767360776662825,-0.021688684716820717
1769661768021850000,9.59985009765625,-0.007528495808690786,0.02273556342124939,0.0058019642770290375
1769661768031838200,9.609838134765624,-0.02798559290394187,-0.021792729613184927,0.011551906105875968
1769661768041826300,9.619826416015625,-0.014775544327497482,-0.06912263606488704,-0.01886778207719326
1769661768051814100,9.629814208984374,0.006465981143712997,-0.04341536335647106,-0.03463672135621309
1769661768061802200,9.63980224609375,0.0022841654144227504,-0.03107493722140789,-0.012761281895637511
1769661768071790300,9.649790283203124,-0.010047931283712386,-0.03391454456150531,0.004339490509033203
1769661768081778200,9.659778076171875,-0.03920855931639671,-0.027781156373023985,0.0018164017722010612
1769661768091766300,9.669766357421874,-0.029673838251829145,-0.020179449197649954,-0.013127777120471
1769661768101754000,9.679754150390625,0.02492299046292901,-0.024175825357437133,-0.0005614332750439643
1769661768111742200,9.6897421875,0.0520459751881659,-0.060357730329036706,-0.01611672980338335
1769661768121730300,9.699730224609375,0.05442600219249725,-0.06396247682273387,-0.00620616116374731
1769661768131719400,9.709719482421875,0.06355506506562232,-0.07450783623456954,-0.0031663550764322278
1769661768141707300,9.719707275390626,0.05951251167654991,-0.07981821760237216,-0.023002397663891314
1769661768151695400,9.7296953125,0.057563861826807255,-0.08325520631372928,-0.027506431084871292
1769661768161683200,9.73968310546875,0.03582183948755264,-0.08169687095582484,-0.027028584440052506
1769661768171671000,9.749671142578125,0.045853331093117594,-0.06708382371366024,-0.014997662645578384
1769661768181659100,9.7596591796875,0.03770860308222473,-0.05931728136539459,-0.013030746486783026
1769661768191647200,9.769647216796875,0.01525485227704048,-0.05658873318433761,-0.0006529109507799148
1769661768201635300,9.77963525390625,-0.004371273886784911,-0.04292787210047245,-0.01029226143360138
1769661768211623200,9.789623046875,-0.0017184943556785583,-0.04188157791793346,-0.0067763622671365735
1769661768221611300,9.799611328125,0.02830956416130066,-0.02860650128126144,-0.027533611352741717
1769661768231599400,9.809599365234375,0.03787701845169067,-0.025780337944626808,-0.023185645276308058
1769661768241587200,9.819587158203126,0.07092120991945267,-0.018435820400714873,-0.02515402273982763
1769661768251575300,9.8295751953125,0.06445873590707779,-0.0293055894613266,-0.024547289018332957
1769661768261563400,9.8395634765625,0.025378917536884545,-0.0658218409538269,-0.03678250121325254
1769661768271551500,9.849551513671875,0.021873978155851362,-0.08871990146040916,-0.01982902832478285
1769661768281540000,9.8595400390625,0.0730817489542067,-0.08265431781113147,-0.0034603695869445798
1769661768291528200,9.869528076171875,0.0665232672214508,-0.08635843302607536,0.005558510909974575
1769661768301516300,9.879516357421876,0.027112609461694956,-0.0767839644730091,0.02644201672375202
1769661768311504400,9.88950439453125,0.02667538708820939,-0.025032149925827977,-0.003559738308191299
1769661768321492200,9.8994921875,0.0450689757823944,0.0157768303245306,-0.026657997561991213
1769661768331480300,9.909480224609375,0.045549598906189204,0.04182663286030292,-0.007782324439287185
1769661768341468400,9.919468505859374,0.03338219125047326,0.04259937079846859,0.008538988025486468
1769661768351456300,9.929456298828125,0.03632796237878501,0.024291560691595077,0.005881751514971256
1769661768361444400,9.9394443359375,0.04475684109330177,-0.014106266763806342,0.010182955840229987
1769661768371432200,9.94943212890625,0.0484801724653691,-0.04603752855360508,0.003090367230772972
1769661768381420300,9.959420166015626,0.059407224671170114,-0.07672901941537856,-0.014007774825394153
1769661768391408000,9.969408203125,0.025327333480119705,-0.0867225901633501,-0.03744301094859838
1769661768401396200,9.979396240234376,0.0004465747237205505,-0.08662088335454464,-0.058413026002049444
1769661768411384300,9.98938427734375,-0.02101246595568955,-0.07657879728972912,-0.06499795735031366
1769661768421372200,9.9993720703125,-0.020764701739698646,-0.06615034225583076,-0.0573778377354145
1769661768431361300,10.009361328125,-0.020204583638906478,-0.04543664005100727,-0.02294774486720562
1769661768441349400,10.019349365234374,-0.007432780349254608,-0.01680558885037899,-0.003559446047246456
1769661768451337200,10.029337158203125,-0.015417495492845773,-0.016836568510532376,-0.001689268261194229
1769661768461325000,10.039324951171874,-0.027600977500528097,0.004230184915661812,0.01445405728816986
1769661768471313200,10.049313232421875,-0.011612111860513686,0.0035649990051984785,0.005200783513486385
1769661768481301200,10.05930126953125,-0.0105178868830204,-0.008712298765778542,0.014396774142980575
1769661768491289300,10.069289306640625,0.019229601126909256,-0.025827099695801735,0.025259236679971216
1769661768501277200,10.079277099609374,0.031930092746019365,-0.012729717713594435,0.029777590887248514
1769661768511265300,10.089265380859375,0.04286876232437789,-0.0401806192189455,0.004250350920855999
1769661768521253400,10.09925341796875,0.021844752061367035,-0.08426058396399021,-0.01246376025378704
1769661768531241200,10.1092412109375,0.024021438513323664,-0.07715513587296009,-0.008402794425189495
1769661768541229300,10.119229248046874,0.03576002629771829,-0.05861643961966037,-0.01598550463914871
1769661768551217400,10.129217529296875,-0.005026888251304626,-0.051070262023806566,-0.005600011964142323
1769661768561205200,10.139205322265624,-0.028245412883907556,-0.0320329685986042,0.007665712322294712
1769661768571193300,10.149193359375,-0.0353496919311583,-0.013852584263682365,0.04656330599337816
1769661768581182200,10.15918212890625,-0.04148468755483627,-0.030367081212997436,0.055546822915971274
1769661768591170300,10.16917041015625,-0.044517260183766484,-0.059819385668635365,0.02723141353577375
1769661768601158400,10.179158447265625,-0.013024462876468896,-0.06597732377648353,0.023265432514250277
1769661768611146200,10.189146240234376,0.015334347254037857,-0.039493805998563766,0.013201134617626667
1769661768621134300,10.19913427734375,0.025981997996568678,-0.04268997169137001,0.004055412870645523
1769661768631122400,10.209122314453126,0.02193579134568572,-0.03315875775814056,0.013554478099942207
1769661768641110300,10.2191103515625,-0.00037299803085625167,-0.04816343466639519,0.011617664818465708
1769661768651098400,10.229098388671876,0.005586860221624374,-0.06224515151083469,-0.006247954478859901
1769661768661086200,10.239086181640625,0.00401698055639863,-0.07178337970674037,-0.004797171148657798
1769661768671074000,10.249073974609376,-0.00835617880448699,-0.056042789739370345,0.005864215858280658
1769661768681062100,10.259062255859375,-0.033776159004122015,-0.04676934995949268,0.014684651173651218
1769661768691050200,10.26905029296875,-0.06115618723034858,-0.028665537992119787,0.028593349538743495
1769661768701038300,10.279038330078125,-0.10225867053456604,-0.007617489266395569,0.04138064265847206
1769661768711026200,10.289026123046876,-0.07674195196218789,0.006668225717544555,0.05020078571289777
1769661768721014300,10.29901416015625,-0.04553177098855376,-0.014379238486289978,0.04106763118654489
1769661768731003400,10.30900341796875,-0.022699176933616397,-0.03334405119717121,0.041891807051002976
1769661768740991200,10.3189912109375,0.019218056819587943,-0.036133974176645274,0.038757892939448355
1769661768750979000,10.32897900390625,0.03702821960262954,-0.04252630556225776,0.030171558640897274
1769661768760967200,10.33896728515625,0.04899813192486763,-0.04821662615835667,0.016084873360395432
1769661768770955300,10.348955322265626,0.030541268736124037,-0.03751286131441593,0.022661329141259193
1769661768780943000,10.358943115234375,0.02702595409154892,-0.011385317367315292,0.000815115775167942
1769661768790931200,10.36893115234375,0.02672784792780876,-0.012556699234247208,-0.002159516121447086
1769661768800919300,10.378919189453125,0.013998130214214324,-0.010143792873620987,0.005416472090780735
1769661768810907400,10.388907470703124,0.009798924958705902,-0.0014589666366577147,0.0019610709398984907
1769661768820895200,10.398895263671875,-0.007499269714206456,-0.02763502590060234,0.00395312153995037
1769661768830883300,10.40888330078125,-0.00536013879366219,-0.03831248725950718,0.024502573093771934
1769661768840871400,10.418871337890625,-0.0013325637780129908,-0.03850421043932438,0.014361118307709694
1769661768850859300,10.428859375,0.017720584803447126,-0.03736497727632522,0.023598025469481945
1769661768860847400,10.438847412109375,0.027773119197040796,-0.038326515784859655,0.01085866314470768
1769661768870836200,10.448836181640624,0.03188099290728569,-0.04582183997631073,-0.00034340661019086836
1769661768880824300,10.45882421875,0.05231229797415435,-0.05599193633496761,0.010346621969342232
1769661768890812200,10.468812255859374,0.046847018305584784,-0.06466799474358559,0.003490472464263439
1769661768900800300,10.47880029296875,0.04679324229173362,-0.048804655179381366,0.024863807621598243
1769661768910788400,10.488788330078124,0.053413537214323875,-0.0432826768875122,0.014185761740803719
1769661768920776400,10.4987763671875,0.013691621548309921,-0.04636661437749862,0.010249299074709416
1769661768930764300,10.508764404296874,0.01096088141016662,-0.04694470652639866,-0.007151040798425674
1769661768940752400,10.51875244140625,0.0025764263592660424,-0.0470692096889019,-0.0038230654194951054
1769661768950740200,10.528740234375,-0.02233348542638123,-0.03265782249867916,-0.015693535955250262
1769661768960728000,10.53872802734375,-0.048813276877254244,-0.04017769660949707,-0.009618892216682433
1769661768970716200,10.548716064453124,-0.03553074758648872,-0.033488428103923794,-0.017280220624804495
1769661768980704300,10.558704345703125,-0.03100055681094527,-0.03433481580018997,-0.032577450738847255
1769661768990692400,10.5686923828125,0.012043415949866175,-0.046925417304039,-0.05341594836711883
1769661769000680200,10.57868017578125,0.027091420543193814,-0.030984920850396155,-0.044370179863274094
1769661769010669300,10.58866943359375,0.03988192853331566,-0.03805120597481727,-0.042569852443039416
1769661769020657400,10.598657470703126,0.007722630141302943,-0.04052314904630184,-0.0332899829223752
1769661769030645200,10.608645263671875,-0.0038684389311820265,-0.06096680213809013,-0.04036912752836942
1769661769040633000,10.618633056640626,0.033450872572511434,-0.06205518189668655,-0.018283552448451517
1769661769050621200,10.62862109375,0.049602673689275976,-0.029414310532808303,-0.04468699072748422
1769661769060609300,10.638609375,0.002742722836881876,-0.03248012784421444,-0.06876023249328136
1769661769070597000,10.64859716796875,-0.04341112557277083,-0.03901040639579296,-0.0865247295036912
1769661769080585200,10.658585205078126,-0.0367781903643161,-0.00613514175415039,-0.09634294368475675
1769661769090573300,10.6685732421875,-0.02609305715560913,0.033497195932269096,-0.07835106765925884
1769661769100561400,10.6785615234375,-0.07202697920426726,0.03073065382838249,-0.05120879371166229
1769661769110549200,10.68854931640625,-0.0823919405478984,0.03431085040271282,-0.044693420468270774
1769661769120537300,10.698537353515626,-0.05330730036087334,0.00739303286075592,-0.03569850536882877
1769661769130525400,10.708525390625,0.011551321583986281,-0.0038420623809099193,-0.032306232582032676
1769661769140513300,10.71851318359375,0.02855754757300019,-0.03518587967157364,-0.040032735180854796
1769661769150502100,10.728502197265625,0.016546645653247833,-0.038327684828639026,-0.019800971274077893
1769661769160490200,10.738490234375,0.039123365250974894,-0.04198971446752548,-0.0032049335211515426
1769661769170478300,10.748478271484375,0.05411737463474273,-0.023445172995328903,0.04803367080688476
1769661769180466200,10.758466064453126,-0.023684900035336614,-0.12272563143670558,0.07570201445519924
1769661769190454300,10.768454345703125,0.014470423901081084,-0.3074836484163999,0.27260873439013955
1769661769200442400,10.7784423828125,0.3543034133888781,-0.1985550716638565,0.20510200908929108
1769661769210430200,10.78843017578125,0.41470322929397224,-0.0596738397181034,0.07400134801715612
1769661769220418300,10.798418212890626,0.16341493083015082,-0.001247369712591171,0.022835808925330638
1769661769230406400,10.808406494140625,-0.12237900995612144,-0.008221884900331497,0.07713730795532464
1769661769240394200,10.818394287109374,-0.1475040988624096,0.021119944918155668,-0.0026899697363376614
1769661769250382000,10.828382080078125,-0.1602946068525314,0.06201134275496006,-0.12905658802390096
1769661769260370200,10.8383701171875,-0.2626771229624748,0.06993804410099982,-0.12002893969863652
1769661769270358300,10.848358154296875,-0.27218729410767556,0.035872692891955375,-0.04948913031220436
1769661769280346000,10.85834619140625,-0.21551672785878181,-0.027156302472949027,0.08895955543518066
1769661769290335200,10.868335205078125,-0.12372932858653365,-0.11913549799025058,0.13931699301451445
1769661769300323300,10.8783232421875,-0.006053308689594268,-0.14606734405755994,0.13184563422054052
1769661769310311400,10.8883115234375,0.08188347956910728,-0.1315694476276636,0.06801905873715877
1769661769320299300,10.89829931640625,0.11310630082860589,-0.08545768479406833,0.037272622817754744
1769661769330287000,10.908287109375,0.08546170338205993,-0.04265490037798881,0.020229718080163002
1769661769340275200,10.918275146484374,0.08409260698594152,-0.041941199150681494,0.028809330376982686
1769661769350263300,10.92826318359375,0.09344999872222542,-0.052288405641913414,0.009494096793234348
1769661769360251100,10.938251220703124,0.05869768816232681,-0.0615869798630476,0.021162322755157947
1769661769370239200,10.9482392578125,0.017845453292131424,-0.06751987704336643,0.04932078800797462
1769661769380227300,10.958227294921874,-0.00017637948021292685,-0.057070963743329046,0.05060147546827793
1769661769390215200,10.968215087890625,-0.06359262059703469,-0.05316869560778141,0.0121104167714715
1769661769400203300,10.978203369140624,-0.13822086834087968,-0.04222703035473823,-0.009693418757617473
1769661769410191400,10.98819140625,-0.1185692424096167,-0.01730710863173008,-0.052424306981265545
1769661769420179500,10.998179443359374,-0.10241999857611954,-0.021932430344820023,-0.05696487302035093
1769661769430168000,11.00816796875,-0.09562909632697701,-0.010729483807086944,-0.022511399276554583
1769661769440156200,11.01815625,-0.08732990840673446,-0.011855272966623306,-0.03865823195725679
1769661769450144300,11.028144287109376,-0.04025003119334578,-0.03802782509922981,-0.044354105511307716
1769661769460132400,11.03813232421875,-0.0009504325926303862,-0.031389994519948956,-0.05371171644330024
1769661769470120200,11.0481201171875,0.00219093417301774,-0.019383330383896828,-0.043377953955531116
1769661769480108300,11.0581083984375,-0.011952157469838857,-0.03220890968739986,-0.01689618974328041
1769661769490096400,11.068096435546876,-0.002466682374477386,-0.034031448939442634,0.00044511341899633407
1769661769500084200,11.078084228515625,0.03533566340580582,-0.02967325372993946,0.018475567889213562
1769661769510072300,11.088072265625,0.05010638542771339,-0.0191840084195137,0.00418926838338375
1769661769520060400,11.098060302734375,0.05063610839024186,-0.007284311789274215,-0.011431494596600532
1769661769530048300,11.10804833984375,0.011947846620902418,0.0011035773277282715,-0.007488602189719676
1769661769540036000,11.1180361328125,0.032263416353613135,0.005529577076435089,0.001829261253774166
1769661769550024200,11.128024169921876,0.04370134069100022,0.011707973450422286,0.0037111294776201245
1769661769560013300,11.138013427734375,0.043050037175416944,-0.021197686329483986,0.00317541516572237
1769661769570001400,11.14800146484375,0.04043503237143159,-0.04633388115167617,-0.0011094225466251372
1769661769579989200,11.1579892578125,0.02936521069407463,-0.05405716888010501,-0.012814181126654148
1769661769589977300,11.167977294921876,0.04533201063275337,-0.04007774336636066,-0.018828326849639414
1769661769599965400,11.17796533203125,0.02879354828596115,-0.05181552743315696,-0.03691109602898359
1769661769609953300,11.187953369140626,0.010098127100989222,-0.07407704360187053,-0.047588265126943585
1769661769619941000,11.197941162109375,-0.0013947422940284013,-0.06250351018607617,-0.0430018141195178
1769661769629929200,11.20792919921875,-0.006624971097707748,-0.01629413219690323,-0.02220218719691038
1769661769639917300,11.217917236328125,-0.011316489914804696,-0.004804769933223724,0.009163841925561427
1769661769649905200,11.2279052734375,-0.03821962134428322,-0.013873042529821395,-0.012610767509043216
1769661769659893200,11.237893310546875,-0.03486212760992348,0.053933834761381146,0.024370471146702766
1769661769669881300,11.24788134765625,-0.03944119902849197,0.03585691080093384,0.009762100079655646
1769661769679869200,11.257869140625,-0.017894407000392673,0.020133271968364716,-0.021367197677493094
1769661769689857300,11.267857177734374,0.035274726998805996,-0.011738368588685988,0.002964402763545513
1769661769699846100,11.27784619140625,0.04901669049486518,-0.02728431276679039,-0.0055865679606795305
1769661769709834200,11.287834228515624,0.061288435307890174,-0.03693710725307464,-0.012757190242409705
1769661769719822000,11.297822021484375,0.0716518622815609,-0.016463643544912338,-0.010542436802387237
1769661769729810200,11.30781005859375,0.07164616319313645,-0.012386018842458725,0.0038771336942911147
1769661769739798300,11.31779833984375,0.09524097379222511,-0.015025135174393653,0.00020867431461811065
1769661769749786400,11.327786376953124,0.12234510768651961,-0.028080431580543515,-0.004986263979971408
1769661769759774200,11.337774169921875,0.15061156335845588,-0.025007600006461142,-0.01703296786546707
1769661769769762300,11.34776220703125,0.1189351531125605,-0.04844458969533443,-0.03558569264411926
1769661769779750400,11.35775048828125,0.059318596539646384,-0.06044657765626907,-0.05396949059665203
1769661769789738200,11.36773828125,0.01289338384270668,-0.07040507709085941,-0.07902239104956388
1769661769799726300,11.377726318359375,0.00278926539234817,-0.047882279637455935,-0.08062281198352575
1769661769809714400,11.38771435546875,-0.05579714441522956,-0.008525251761078835,-0.09325169967114925
1769661769819702300,11.397702392578125,-0.11534721162319182,0.05448796151280403,-0.09267506882697343
1769661769829690000,11.407690185546874,-0.14251345096826554,0.1003249990582466,-0.09862491714209318
1769661769839679200,11.41767919921875,-0.1630873063109815,0.094809450507164,-0.07849310647845267
1769661769849667300,11.427667236328125,-0.11592121211886405,0.07998772895038127,-0.06791910549402237
1769661769859655400,11.437655517578126,-0.05271934440508484,0.03170154468715191,-0.0304316708818078
1769661769869643300,11.447643310546875,0.030246669703721998,-0.013294365859031676,0.04759732521623373
1769661769879631400,11.45763134765625,0.11091989670023321,-0.07166647532880306,0.07801321400702
1769661769889619500,11.467619384765625,0.13830365125350652,-0.11413608226776123,0.08347586332708597
1769661769899607300,11.477607177734376,0.15062544575333595,-0.16479484088122845,0.08306728252619504
1769661769909595100,11.48759521484375,0.14452654435634613,-0.17134323961138725,0.09482581712007522
1769661769919583200,11.497583251953126,0.10048530418649315,-0.1484311505794525,0.08997896161079406
1769661769929571000,11.507571044921875,0.07851195730939507,-0.13574936366081236,0.054504328125715255
1769661769939559200,11.51755908203125,0.04500584741830826,-0.13135668165981768,0.026109423768520355
1769661769949547300,11.52754736328125,-0.013650924211740493,-0.0923649799644947,0.016544015304744242
1769661769959535400,11.537535400390626,-0.06303586349710821,-0.07843523881137371,0.0070204001560807226
1769661769969523200,11.547523193359375,-0.09428111578412353,-0.054632338419556614,0.01932341689020395
1769661769979512300,11.55751220703125,-0.10062084019966423,-0.04131634525060653,0.04797609540075064
1769661769989500200,11.567500244140625,-0.0975766501981765,-0.03507248242497444,0.05095248086303472
1769661769999488300,11.57748828125,-0.09183671830669045,-0.02160100643336773,0.035781507477164264
1769661770009476000,11.58747607421875,-0.05288768670931458,-0.01968903533220291,0.020052900208532808
1769661770019464200,11.597464111328126,-0.028544615026190875,-0.03664659987390041,0.016962825238704682
1769661770029452300,11.607452392578125,-0.010243015464395284,-0.07350479667186736,-0.003619359540939331
1769661770039440100,11.617440185546876,-0.0033458032965660092,-0.12926701590418815,-0.0034051322683691975
1769661770049428200,11.62742822265625,0.0165970606662333,-0.12483692450225352,-0.02062280905097723
1769661770059416300,11.637416259765626,0.049344168883562085,-0.08546937523186206,-0.020469956576824187
1769661770069404400,11.647404296875,0.01548296194449067,-0.06705985831618308,-0.0016685177341103552
1769661770079392300,11.657392333984374,-0.017875848430395126,-0.036517420536279675,0.03285772898495197
1769661770089380900,11.667380859375,-0.02592712600417435,-0.02010170778632164,0.04729629644304514
1769661770099368700,11.67736865234375,0.01487483998350799,-0.029528292301297186,0.05110650238096714
1769661770109357800,11.68735791015625,0.05172098101750016,-0.03731237030625343,0.04092530010640621
1769661770119345700,11.697345703125,0.03457088957838714,-0.03815408182740211,0.031186580902338026
1769661770129333800,11.707333740234375,0.0014261603455990551,-0.042051673787832256,0.010788520517945288
1769661770139321900,11.71732177734375,-0.0374538976687938,-0.048666123491525645,-0.024258535204827784
1769661770149310000,11.72731005859375,-0.0844062760449946,-0.06366670874655246,-0.023483459179103373
1769661770159297800,11.7372978515625,-0.07886376642175018,-0.0599485650062561,-0.04234218116700649
1769661770169286000,11.747285888671875,-0.05126242359504103,-0.03412614148557186,-0.04546440484076738
1769661770179273700,11.757273681640624,-0.019022680377960205,-0.013614683854579925,-0.02047901666611433
1769661770189261600,11.767261474609375,-0.03275784880705178,-0.010920622465014457,-0.00028027824610471724
1769661770199249700,11.777249755859375,-0.017470336369425056,-0.017631518280506134,0.003162263423204422
1769661770209237800,11.78723779296875,0.017186112600564955,-0.033980011013150214,0.008209317679703235
1769661770219225600,11.7972255859375,0.00916048092469573,-0.05000877027213573,0.0017684709772467612
1769661770229214700,11.807214599609376,-0.01875971859283745,-0.06417641183435917,0.020954525223374366
1769661770239202800,11.817202880859375,-0.03735694010034203,-0.04827390930354595,0.013961889857053756
1769661770249191000,11.82719091796875,-0.04830613107271492,-0.030801380977034568,0.009186930540204048
1769661770259178800,11.8371787109375,-0.06144611008763313,-0.008988777619600296,0.01613075832873583
1769661770269166600,11.84716650390625,-0.048965398699045176,0.0073012629240751265,0.029032325477898118
1769661770279154700,11.85715478515625,-0.03166822693943977,-0.011718494844436645,0.025000585743784904
1769661770289142800,11.867142822265626,-0.013025558855012059,-0.027247487887740132,0.025859248399734497
1769661770299130600,11.877130615234375,-0.024773352859169245,-0.05697744024097919,0.026166414652764796
1769661770309118700,11.88711865234375,-0.02190919559970498,-0.08636720085442065,0.032445933313667775
1769661770319106800,11.89710693359375,-0.03927526787705719,-0.08900456362068652,0.038269524900615214
1769661770329094700,11.9070947265625,-0.045657150933891534,-0.04517886589765548,0.04929711487144232
1769661770339082800,11.917082763671875,-0.07745273058004677,-0.05299976878166198,0.04481266293376684
1769661770349070800,11.92707080078125,-0.10433248113393782,-0.060190557068586344,0.07331687288433313
1769661770359059000,11.937058837890625,-0.052431686570122836,-0.05455050535500049,0.06392623646557331
1769661770369047800,11.9470478515625,-0.055606736409664154,-0.0874853912293911,0.05917611932903528
1769661770379035600,11.95703564453125,-0.05413030718155205,-0.10732581773102283,0.08931026856899262
1769661770389023700,11.967023681640624,-0.009216887287050486,-0.09271218596696854,0.0903214914381504
1769661770399011800,11.97701171875,-0.009630728784948587,-0.07989537449181079,0.12015110477358103
1769661770408999700,11.986999755859374,-0.023291005346924066,-0.09701368255317211,0.13097966504096983
1769661770418987800,11.99698779296875,-0.028128362375497817,-0.0874456437408924,0.16077391480207442
