time,seconds_elapsed,z,y,x
1769661758493253600,0.071253662109375,0.004016500897705555,0.012129686772823334,-0.014991981908679008
1769661758503241700,0.08124169921875,0.003626178950071335,0.016929568722844124,-0.014517100527882576
1769661758513229800,0.091229736328125,0.007427840959280729,0.0285811647772789,-0.013018541038036346
1769661758523217700,0.1012177734375,0.010307150892913342,0.04169560968875885,-0.011519571766257286
1769661758533205800,0.111205810546875,0.011328739114105701,0.04882116615772247,-0.012796024791896343
1769661758543193900,0.12119384765625,0.014572135172784328,0.0483970120549202,-0.01950702629983425
1769661758553181700,0.131181640625,0.01361419539898634,0.05598782002925873,-0.025346539914608
1769661758563169800,0.141169677734375,0.011073588393628597,0.061319369822740555,-0.03241175413131714
1769661758573158000,0.151157958984375,0.012035521678626537,0.05466146767139435,-0.03292281553149223
1769661758583146000,0.16114599609375,0.01792549341917038,0.04445650428533554,-0.03662978857755661
1769661758593133600,0.171133544921875,0.018216576427221298,0.05211042985320091,-0.03567344695329666
1769661758603121700,0.18112158203125,0.01743452250957489,0.07619825750589371,-0.025499636307358742
1769661758613109800,0.19110986328125,0.016979655250906944,0.07797271758317947,-0.01886996440589428
1769661758623097600,0.20109765625,0.015292275696992874,0.06803859770298004,-0.01777753420174122
1769661758633085700,0.211085693359375,0.014874693006277084,0.06566305458545685,-0.024371521547436714
1769661758643073800,0.22107373046875,0.012027143500745296,0.05690890923142433,-0.032055046409368515
1769661758653062000,0.231061767578125,0.00894719734787941,0.037254516035318375,-0.0373091958463192
1769661758663049700,0.2410498046875,0.009516268968582153,0.02998042292892933,-0.0370757095515728
1769661758673037800,0.251037841796875,0.009686179459095001,0.03812570124864578,-0.026156216859817505
1769661758683026000,0.26102587890625,0.004957587458193302,0.039765749126672745,-0.014520873315632343
1769661758693013800,0.271013671875,-0.003131231525912881,0.03442797437310219,-0.0013235791120678186
1769661758703001900,0.281001953125,-0.025986911728978157,0.022755099460482597,0.011794207617640495
1769661758712990700,0.29099072265625,-0.028512919321656227,-0.004940442740917206,0.014296247623860836
1769661758722978800,0.300978759765625,-0.013849458657205105,-0.024320732802152634,-0.0027908224146813154
1769661758732966700,0.310966552734375,-0.004667677916586399,-0.02103998512029648,-0.014700745232403278
1769661758742954800,0.320954833984375,-0.005558093078434467,0.001879948191344738,0.00026907259598374367
1769661758752942800,0.33094287109375,-0.004387900233268738,0.009614300914108753,0.01630023680627346
1769661758762931000,0.340930908203125,-0.002899999963119626,0.011555875651538372,0.015153755433857441
1769661758772918800,0.350918701171875,0.003344580065459013,0.012740716338157654,-0.003613007953390479
1769661758782907000,0.360906982421875,0.007294270675629377,0.008397366851568222,-0.012146547436714172
1769661758792894700,0.370894775390625,0.009290044195950031,0.007343288045376539,-0.012918863445520401
1769661758802882600,0.380882568359375,0.01202256977558136,0.0101273562759161,-0.016661515459418297
1769661758812870700,0.39087060546875,0.014699580147862434,0.0200542900711298,-0.02262992598116398
1769661758822858800,0.400858642578125,0.009104249067604542,0.042137596756219864,-0.020952334627509117
1769661758832846800,0.410846923828125,0.0022215761709958315,0.05282565951347351,-0.01411520130932331
1769661758842834700,0.420834716796875,-0.00628025084733963,0.042067985981702805,-0.012245508842170238
1769661758852822800,0.43082275390625,-0.010769806802272797,0.02532256208360195,-0.015066595748066902
1769661758862811000,0.440810791015625,-0.011187754571437836,0.014160390943288803,-0.02075701206922531
1769661758872798700,0.450798828125,-0.005499242804944515,0.006286755204200745,-0.0302629005163908
1769661758882786800,0.460786865234375,0.0030279813800007105,0.001648226287215948,-0.039481811225414276
1769661758892775000,0.47077490234375,0.006220578216016293,0.003256242722272873,-0.066110759973526
1769661758902762800,0.4807626953125,0.015892356634140015,0.034741491079330444,-0.06852627545595169
1769661758912750800,0.490750732421875,0.018827959895133972,0.06846057623624802,-0.06699575483798981
1769661758922738700,0.50073876953125,0.025051983073353767,0.09231066703796387,-0.043764982372522354
1769661758932726800,0.510726806640625,0.03132079541683197,0.07133027911186218,-0.03323431313037872
1769661758942714600,0.520714599609375,0.025265667587518692,0.052611202001571655,-0.023949069902300835
1769661758952702700,0.53070263671875,0.016784032806754112,0.04535142332315445,-0.022859571501612663
1769661758962690800,0.54069091796875,0.009621075354516506,0.03721623122692108,-0.02892259694635868
1769661758972678700,0.5506787109375,0.0053331186063587666,0.022692948579788208,-0.03867056593298912
1769661758982666800,0.560666748046875,0.003635207423940301,0.020829305052757263,-0.04586102440953255
1769661758992656000,0.57065576171875,0.002856232924386859,0.027285072952508926,-0.05519966408610344
1769661759002643700,0.580643798828125,0.003110710997134447,0.030139680951833725,-0.06584066897630692
1769661759012631600,0.590631591796875,0.001328523620031774,0.021344857290387154,-0.07009852677583694
1769661759022619600,0.60061962890625,0.0010172973852604628,0.01840905286371708,-0.07055415958166122
1769661759032607700,0.610607666015625,-0.004335656762123108,0.03002336621284485,-0.0891861617565155
1769661759042595800,0.620595947265625,-0.009002871811389923,0.0584673248231411,-0.12777122855186462
1769661759052583700,0.630583740234375,-0.002302358625456691,0.04762799292802811,-0.14301569759845734
1769661759062571800,0.64057177734375,0.0026120725087821484,0.032963331788778305,-0.14446353912353516
1769661759072558800,0.650558837890625,0.0049812206998467445,0.04319972172379494,-0.14364808797836304
1769661759082547000,0.660546875,0.012524696066975594,0.03387133404612541,-0.1646335870027542
1769661759092535000,0.67053515625,0.059278085827827454,0.04373621568083763,-0.18858152627944946
1769661759102523000,0.68052294921875,0.05698687210679054,0.04408342391252518,-0.216678187251091
1769661759112511000,0.690510986328125,0.045455384999513626,0.04977034032344818,-0.22857187688350677
1769661759122499000,0.7004990234375,0.046408504247665405,0.07653357833623886,-0.22047677636146545
1769661759132487000,0.71048681640625,0.04859282821416855,0.09456291049718857,-0.22147253155708313
1769661759142475000,0.72047509765625,0.04940078780055046,0.09849593788385391,-0.23533861339092255
1769661759152462800,0.730462890625,0.0535539872944355,0.08887366950511932,-0.2601531445980072
1769661759162451000,0.740450927734375,0.04854743182659149,0.07077313214540482,-0.26979324221611023
1769661759172438800,0.750438720703125,0.04470635578036308,0.07191189378499985,-0.2663426101207733
1769661759182427000,0.760427001953125,0.040511392056941986,0.08719487488269806,-0.24371597170829773
1769661759192415000,0.7704150390625,0.0333581417798996,0.10436960309743881,-0.21130529046058655
1769661759202402800,0.78040283203125,0.028289277106523514,0.11112910509109497,-0.17321376502513885
1769661759212391000,0.790390869140625,0.026499366387724876,0.1099085807800293,-0.13754257559776306
1769661759222379000,0.80037890625,0.02237337827682495,0.10710819810628891,-0.10776278376579285
1769661759232367000,0.8103671875,0.013891475275158882,0.09719911217689514,-0.07753404229879379
1769661759242355000,0.82035498046875,0.01071732584387064,0.09661388397216797,-0.055358245968818665
1769661759252343000,0.830343017578125,-0.0006525072967633605,0.07401403784751892,-0.038808029145002365
1769661759262331100,0.8403310546875,-0.0027127228677272797,0.04230716824531555,-0.022704269737005234
1769661759272318700,0.850318603515625,-0.00683662761002779,0.011133268475532532,-0.0068496717140078545
1769661759282307800,0.860307861328125,-0.015622812323272228,-0.00736844539642334,0.007407294120639563
1769661759292296000,0.8702958984375,-0.02064340189099312,-0.013447643257677555,0.01757684163749218
1769661759302284000,0.880283935546875,-0.017697196453809738,-0.011616619303822517,0.02261831797659397
1769661759312272000,0.89027197265625,-0.016958435997366905,-0.0022955562453716993,0.020343178883194923
1769661759322260000,0.900260009765625,-0.0172710157930851,0.01039423793554306,0.01467784121632576
1769661759332248000,0.910248046875,-0.014336212538182735,0.02711382880806923,0.0033924290910363197
1769661759342236200,0.920236083984375,-0.009369589388370514,0.04685914143919945,-0.011226769536733627
1769661759352224000,0.93022412109375,-0.007916567847132683,0.0667276531457901,-0.029997793957591057
1769661759362211800,0.9402119140625,-0.004736101254820824,0.09022635966539383,-0.04404935985803604
1769661759372200000,0.950199951171875,0.0020088867750018835,0.11188158392906189,-0.05867304280400276
1769661759382187800,0.960187744140625,0.007111509330570698,0.1305404156446457,-0.07924820482730865
1769661759392175900,0.97017578125,0.01190599799156189,0.14185112714767456,-0.09771189838647842
1769661759402164000,0.9801640625,0.014833604916930199,0.14317533373832703,-0.1083306074142456
1769661759412151800,0.99015185546875,0.015309512615203857,0.15035147964954376,-0.11170989274978638
1769661759422140000,1.000139892578125,0.015971239656209946,0.16227960586547852,-0.10790621489286423
1769661759432128000,1.0101279296875,0.014606103301048279,0.1710485965013504,-0.1007862538099289
1769661759442116000,1.0201162109375,0.013687432743608952,0.16055364906787872,-0.09359271079301834
1769661759452104000,1.03010400390625,0.015227538533508778,0.14605459570884705,-0.0885569378733635
1769661759462092000,1.040092041015625,0.013029118999838829,0.1302359700202942,-0.08845045417547226
1769661759472080000,1.050079833984375,0.011728431098163128,0.12864260375499725,-0.08285994827747345
1769661759482067700,1.060067626953125,0.00927595142275095,0.13287214934825897,-0.07691352814435959
1769661759492055800,1.070055908203125,0.0013200243702158332,0.13982540369033813,-0.07507408410310745
1769661759502044000,1.0800439453125,0.0014832302695140243,0.13602326810359955,-0.06623484939336777
1769661759512032000,1.090031982421875,-0.0029450738802552223,0.12597276270389557,-0.06519915163516998
1769661759522019800,1.100019775390625,-0.009959382005035877,0.11040569096803665,-0.06267553567886353
1769661759532008000,1.110008056640625,-0.014246538281440735,0.09603208303451538,-0.0607849583029747
1769661759541996000,1.11999609375,-0.01596028544008732,0.09326963126659393,-0.061331529170274734
1769661759551983900,1.12998388671875,-0.021302852779626846,0.09934642910957336,-0.06817558407783508
1769661759561972700,1.13997265625,-0.021938981488347054,0.10038028657436371,-0.07078003138303757
1769661759571960800,1.1499609375,-0.025133976712822914,0.09387098997831345,-0.07371749728918076
1769661759581949000,1.159948974609375,-0.022526543587446213,0.09046810120344162,-0.07123395055532455
1769661759591936800,1.169936767578125,-0.01974194310605526,0.08830561488866806,-0.06881366670131683
1769661759601924900,1.1799248046875,-0.020493976771831512,0.09393338114023209,-0.06383036077022552
1769661759611913000,1.189912841796875,-0.02126176655292511,0.10344459116458893,-0.0595027320086956
1769661759621901000,1.199901123046875,-0.02187233418226242,0.1148800477385521,-0.05472799763083458
1769661759631889000,1.209888916015625,-0.015603519044816494,0.1317138969898224,-0.053323447704315186
1769661759641877000,1.219876953125,-0.017924116924405098,0.1440560668706894,-0.054827701300382614
1769661759651865000,1.229864990234375,-0.01242841873317957,0.12765152752399445,-0.058624833822250366
1769661759661853000,1.23985302734375,-0.013088111765682697,0.11433208733797073,-0.061501506716012955
1769661759671841000,1.249841064453125,-0.016238631680607796,0.08740539848804474,-0.06839403510093689
1769661759681828900,1.259828857421875,-0.01771731674671173,0.05601811781525612,-0.0684843510389328
1769661759691817000,1.26981689453125,-0.015323135070502758,0.03913314267992973,-0.06469734013080597
1769661759701804800,1.2798046875,-0.014323575422167778,0.03123883157968521,-0.06546059250831604
1769661759711793000,1.28979296875,-0.014349142089486122,0.01955367997288704,-0.06248850375413895
1769661759721781000,1.299781005859375,-0.015637096017599106,0.012339809909462929,-0.055702127516269684
1769661759731768800,1.309768798828125,-0.012616803869605064,0.006494704633951187,-0.04789320379495621
1769661759741757000,1.3197568359375,-0.018174337223172188,-0.00163316261023283,-0.03991213068366051
1769661759751745000,1.3297451171875,-0.016470447182655334,-0.010773664340376854,-0.05159435421228409
1769661759761732900,1.33973291015625,-0.02221958339214325,-0.012942434288561344,-0.04606753960251808
1769661759771721000,1.349720947265625,-0.03192494437098503,-0.0030535846017301083,-0.036223433911800385
1769661759781709000,1.359708984375,-0.0333598256111145,0.00033810874447226524,-0.0340796560049057
1769661759791697200,1.369697265625,-0.034212302416563034,-0.00827988050878048,-0.04171733558177948
1769661759801684700,1.379684814453125,-0.03139131888747215,-0.01563737355172634,-0.05231080204248428
1769661759811672800,1.3896728515625,-0.028891675174236298,-0.014891423285007477,-0.05439658835530281
1769661759821661000,1.399660888671875,-0.033075425773859024,-0.015086320228874683,-0.04794365167617798
1769661759831648800,1.409648681640625,-0.0323324054479599,-0.012846868485212326,-0.04349856823682785
1769661759841636900,1.419636962890625,-0.036627817898988724,-0.01451076939702034,-0.042416613548994064
1769661759851625000,1.429625,-0.04002920910716057,-0.0181124284863472,-0.04064587876200676
1769661759861614000,1.439614013671875,-0.04430406540632248,-0.02223057486116886,-0.034941766411066055
1769661759871602000,1.449601806640625,-0.047532882541418076,-0.031213153153657913,-0.03160881996154785
1769661759881590000,1.459590087890625,-0.04995042085647583,-0.05028371885418892,-0.0334460511803627
1769661759891577900,1.469577880859375,-0.04744811728596687,-0.0701168105006218,-0.03217466175556183
1769661759901566000,1.47956591796875,-0.05243227630853653,-0.07480783760547638,-0.024469299241900444
1769661759911553800,1.4895537109375,-0.05352097377181053,-0.06761544197797775,-0.01601269654929638
1769661759921542000,1.4995419921875,-0.05320580303668976,-0.05281835049390793,-0.010932110249996185
1769661759931530000,1.509530029296875,-0.05097833275794983,-0.034795407205820084,-0.007069994695484638
1769661759941517800,1.519517822265625,-0.045592110604047775,-0.014911981299519539,-0.011024479754269123
1769661759951506000,1.529505859375,-0.04292948171496391,0.0005735007580369711,-0.015629353001713753
1769661759961494000,1.539493896484375,-0.036038801074028015,0.00684018712490797,-0.021288877353072166
1769661759971482000,1.549482177734375,-0.030911149457097054,0.005721925757825375,-0.021323231980204582
1769661759981470000,1.559469970703125,-0.02944221906363964,-0.0026980938855558634,-0.03865199536085129
1769661759991458000,1.5694580078125,-0.029752742499113083,-0.01455315575003624,-0.04543747007846832
1769661760001446000,1.57944580078125,-0.038197994232177734,-0.005031853914260864,-0.036163657903671265
1769661760011433700,1.589433837890625,-0.044760022312402725,0.02755778096616268,-0.025386910885572433
1769661760021421800,1.599421875,-0.04467390477657318,0.03817933052778244,-0.021800126880407333
1769661760031410000,1.609409912109375,-0.04340357705950737,0.04535068944096565,-0.02617809735238552
1769661760041398000,1.61939794921875,-0.03478909283876419,0.050227779895067215,-0.041852667927742004
1769661760051385900,1.6293857421875,-0.021944932639598846,0.03918471932411194,-0.06385277211666107
1769661760061374000,1.6393740234375,-0.009409633465111256,0.0204695463180542,-0.08782810717821121
1769661760071362000,1.649362060546875,-0.003434565616771579,0.02269887924194336,-0.10065575689077377
1769661760081350700,1.6593505859375,-0.004514357075095177,0.0345904640853405,-0.10084370523691177
1769661760091338800,1.6693388671875,-0.016358500346541405,0.04886766895651817,-0.10360566526651382
1769661760101326600,1.67932666015625,-0.03670061379671097,0.07163462042808533,-0.12061808258295059
1769661760111314700,1.689314697265625,-0.03629288449883461,0.08678561449050903,-0.13129575550556183
1769661760121302500,1.699302490234375,-0.022080229595303535,0.07713140547275543,-0.1335737705230713
1769661760131290600,1.70929052734375,-0.01693633385002613,0.06724575161933899,-0.14585334062576294
1769661760141278700,1.71927880859375,-0.023520413786172867,0.0639435201883316,-0.1586625576019287
1769661760151266600,1.7292666015625,-0.018590902909636497,0.060513634234666824,-0.1649864912033081
1769661760161254700,1.739254638671875,-0.016946788877248764,0.05755459517240524,-0.16154557466506958
1769661760171243800,1.749243896484375,-0.016037851572036743,0.04319855943322182,-0.157460555434227
1769661760181231600,1.759231689453125,-0.015222513116896152,0.03481755405664444,-0.15804466605186462
1769661760191219500,1.769219482421875,-0.013803048059344292,0.05335768312215805,-0.15850964188575745
1769661760201207600,1.77920751953125,-0.010308325290679932,0.08091980963945389,-0.1607111394405365
1769661760211195600,1.789195556640625,-0.004695712588727474,0.09009838849306107,-0.15258610248565674
1769661760221183700,1.799183837890625,0.001390695571899414,0.0826636403799057,-0.13135221600532532
1769661760231171600,1.809171630859375,0.001017852919176221,0.07721854001283646,-0.10404017567634583
1769661760241159700,1.81915966796875,-0.002432827837765217,0.07102379947900772,-0.0712316632270813
1769661760251147800,1.829147705078125,-0.008377269841730595,0.050111323595047,-0.051653966307640076
1769661760261135600,1.839135498046875,-0.013565517030656338,0.029413502663373947,-0.044485121965408325
1769661760271123700,1.849123779296875,-0.01836773008108139,0.013312031514942646,-0.052851706743240356
1769661760281111800,1.85911181640625,-0.02534439228475094,0.0015781482215970755,-0.05881403759121895
1769661760291100000,1.869099853515625,-0.027727654203772545,-0.008804718032479286,-0.04950335994362831
1769661760301087700,1.879087646484375,-0.032720498740673065,-0.0041781095787882805,-0.039992257952690125
1769661760311075600,1.88907568359375,-0.031466417014598846,0.013652552850544453,-0.04370763152837753
1769661760321063700,1.899063720703125,-0.03149953484535217,0.02254793979227543,-0.05712566524744034
1769661760331051500,1.909051513671875,-0.02842491678893566,0.026838025078177452,-0.06846939772367477
1769661760341039600,1.91903955078125,-0.026280589401721954,0.03624791279435158,-0.0698012113571167
1769661760351027700,1.92902783203125,-0.026176193729043007,0.05222741514444351,-0.06709597259759903
1769661760361015800,1.939015869140625,-0.023021647706627846,0.05051833391189575,-0.05866494029760361
1769661760371003600,1.949003662109375,-0.02238382026553154,0.04555659741163254,-0.05679619684815407
1769661760380991700,1.95899169921875,-0.033744122833013535,0.04898131266236305,-0.06042505428195
1769661760390979800,1.968979736328125,-0.04694408178329468,0.05261945724487305,-0.06546881794929504
1769661760400967700,1.9789677734375,-0.04688628762960434,0.03768628090620041,-0.07024618238210678
1769661760410955800,1.988955810546875,-0.04417598620057106,0.024605898186564445,-0.07585187256336212
1769661760420943600,1.998943603515625,-0.03756484016776085,0.01307101920247078,-0.0750313550233841
1769661760430931500,2.008931396484375,-0.02523333765566349,0.007157470565289259,-0.0802769809961319
1769661760440919600,2.01891943359375,-0.017315786331892014,0.005807056557387114,-0.08730359375476837
1769661760450907600,2.02890771484375,-0.01753709465265274,0.01657874323427677,-0.08756884187459946
1769661760460896800,2.038896728515625,-0.012023955583572388,0.023473065346479416,-0.079631507396698
1769661760470884600,2.048884521484375,-0.014430654235184193,0.025269633159041405,-0.0648254007101059
1769661760480872700,2.058872802734375,-0.019648589193820953,0.01952202245593071,-0.05792282149195671
1769661760490860800,2.06886083984375,-0.02365851029753685,0.01855422928929329,-0.06287523359060287
1769661760500849000,2.078848876953125,-0.03331312537193298,-0.0020818051416426897,-0.07143586128950119
1769661760510836500,2.08883642578125,-0.04509122297167778,-0.016023719683289528,-0.06674975901842117
1769661760520824600,2.098824462890625,-0.055336497724056244,-0.007979475893080235,-0.06521786749362946
1769661760530812700,2.108812744140625,-0.06308629363775253,-0.020483816042542458,-0.07698957622051239
1769661760540800500,2.118800537109375,-0.07094332575798035,-0.03235715255141258,-0.061594944447278976
1769661760550788600,2.12878857421875,-0.06641142815351486,-0.02079823426902294,-0.04626285657286644
1769661760560776700,2.138776611328125,-0.06461416929960251,-0.02612302452325821,-0.04204361140727997
1769661760570764800,2.148764892578125,-0.05945003777742386,-0.02341565489768982,-0.041715774685144424
1769661760580752600,2.158752685546875,-0.050654053688049316,-0.016147790476679802,-0.040263593196868896
1769661760590740700,2.16874072265625,-0.05090971663594246,-0.012113368138670921,-0.032432835549116135
1769661760600728800,2.178728759765625,-0.05157836899161339,-0.009292413480579853,-0.0277236420661211
1769661760610716700,2.188716552734375,-0.05591026693582535,-0.017087751999497414,-0.03349364548921585
1769661760620704800,2.198704833984375,-0.06443363428115845,-0.009856396354734898,-0.048440832644701004
1769661760630692600,2.208692626953125,-0.06607227772474289,-0.014921729452908039,-0.06728482991456985
1769661760640680700,2.2186806640625,-0.0646243691444397,-0.012230480089783669,-0.0747980922460556
1769661760650668500,2.22866845703125,-0.06241021677851677,-0.002189031569287181,-0.07270431518554688
1769661760660656600,2.23865673828125,-0.047710344195365906,0.014634434133768082,-0.059045277535915375
1769661760670644700,2.248644775390625,-0.029917500913143158,0.03173325955867767,-0.04416912794113159
1769661760680632600,2.258632568359375,-0.014398939907550812,0.05329617112874985,-0.03249937295913696
1769661760690620700,2.26862060546875,-0.00011827144771814346,0.07390344142913818,-0.028469480574131012
1769661760700608800,2.27860888671875,0.00507108960300684,0.08103688061237335,-0.0238193329423666
1769661760710596600,2.2885966796875,0.005154713056981564,0.06957463175058365,-0.018006185069680214
1769661760720584700,2.298584716796875,0.00526927737519145,0.053855497390031815,-0.013577993959188461
1769661760730572800,2.30857275390625,-0.005318918265402317,0.05315934494137764,-0.009859155863523483
1769661760740561000,2.318560791015625,-0.011104343459010124,0.0653752014040947,-0.001720955828204751
1769661760750548500,2.328548583984375,-0.01937265880405903,0.07886411249637604,-0.004341772757470608
1769661760760537600,2.33853759765625,-0.03539208695292473,0.07684383541345596,-0.013129444792866707
1769661760770525700,2.348525634765625,-0.055100277066230774,0.06466493755578995,-0.028830910101532936
1769661760780513800,2.358513671875,-0.07617362588644028,0.04821275919675827,-0.03908864036202431
1769661760790501600,2.368501708984375,-0.0944567620754242,0.02606058120727539,-0.05604046210646629
1769661760800489700,2.37848974609375,-0.10205824673175812,0.006813454441726208,-0.07222381234169006
1769661760810477800,2.388477783203125,-0.10100656002759933,-0.011240646243095398,-0.08664056658744812
1769661760820465700,2.398465576171875,-0.07743202149868011,-0.03097677044570446,-0.08449196815490723
1769661760830453800,2.408453857421875,-0.05218392238020897,-0.037012822926044464,-0.06942806392908096
1769661760840441600,2.418441650390625,-0.03542147949337959,-0.022819969803094864,-0.046918876469135284
1769661760850429700,2.4284296875,-0.027264749631285667,-0.004024178721010685,-0.03408350050449371
1769661760860417500,2.43841748046875,-0.021631019189953804,0.016323503106832504,-0.030279366299510002
1769661760870405600,2.448405517578125,-0.016999250277876854,0.027721833437681198,-0.026930972933769226
1769661760880393700,2.458393798828125,-0.013928261585533619,0.007934881374239922,-0.026580195873975754
1769661760890381600,2.468381591796875,-0.010213685221970081,-0.01184707973152399,-0.027726421132683754
1769661760900369700,2.47836962890625,-0.010039683431386948,-0.011876039206981659,-0.024206483736634254
1769661760910357800,2.488357666015625,-0.00938960537314415,-0.008044016547501087,-0.0242922380566597
1769661760920345900,2.498345947265625,-0.00732943881303072,-0.011025261133909225,-0.02752508781850338
1769661760930333700,2.508333740234375,-0.004810621030628681,-0.012520626187324524,-0.03323011472821236
1769661760940321800,2.51832177734375,-0.002278172643855214,-0.002738137962296605,-0.03857439011335373
1769661760950309600,2.5283095703125,-0.0032664716709405184,0.008749939501285553,-0.033543676137924194
1769661760960297500,2.53829736328125,-0.0007213344797492027,0.015894196927547455,-0.027768151834607124
1769661760970285600,2.54828564453125,0.0004667016910389066,0.017350414767861366,-0.02725975587964058
1769661760980273700,2.558273681640625,-0.0017879533115774393,0.012756762094795704,-0.027102401480078697
1769661760990261800,2.56826171875,-0.0028436302673071623,0.006763318553566933,-0.028173524886369705
1769661761000249600,2.57824951171875,-0.010137885808944702,0.006965717300772667,-0.028966767713427544
1769661761010237700,2.58823779296875,-0.00915597751736641,0.0003184676170349121,-0.025104384869337082
1769661761020225800,2.598225830078125,-0.007057189010083675,-0.016020724549889565,-0.022115938365459442
1769661761030213600,2.608213623046875,-0.01024179719388485,-0.021456502377986908,-0.011639595031738281
1769661761040201700,2.61820166015625,-0.012067947536706924,-0.02060455083847046,-0.0009315218776464462
1769661761050190600,2.628190673828125,-0.008388257585465908,-0.018808778375387192,0.008479823358356953
1769661761060178700,2.6381787109375,-0.006139346398413181,-0.007756853476166725,0.018561704084277153
1769661761070166500,2.64816650390625,-0.0008260736940428615,-0.0015082787722349167,0.023634759709239006
1769661761080153600,2.658153564453125,0.0042848787270486355,0.006775241810828447,0.0192476324737072
1769661761090141700,2.6681416015625,0.0037935255095362663,0.026684235781431198,0.019708357751369476
1769661761100129800,2.6781298828125,0.0013135900953784585,0.0459575317800045,0.020114224404096603
1769661761110117600,2.68811767578125,0.006091034971177578,0.0529153048992157,0.02736574411392212
1769661761120105700,2.698105712890625,0.007603245787322521,0.041202351450920105,0.034497007727622986
1769661761130093800,2.70809375,0.007709505967795849,0.04315232113003731,0.03219816833734512
1769661761140082000,2.71808203125,0.012509902939200401,0.04277564957737923,0.014581242576241493
1769661761150069800,2.72806982421875,0.010462198406457901,0.025108767673373222,0.00532649178057909
1769661761160057900,2.738057861328125,0.010647344402968884,0.02786632627248764,0.0017051507020369172
1769661761170046000,2.7480458984375,0.012360289692878723,0.03858554735779762,0.000895283417776227
1769661761180033800,2.75803369140625,0.012747141532599926,0.042161889374256134,0.002914847107604146
1769661761190021600,2.768021728515625,0.015107501298189163,0.04827890545129776,0.002213104162365198
1769661761200009700,2.778009765625,0.01362443808466196,0.052912406623363495,0.0035369228571653366
1769661761209997600,2.78799755859375,0.013665983453392982,0.056773193180561066,0.003189912997186184
1769661761219985700,2.797985595703125,0.014080345630645752,0.05382939800620079,0.005419931374490261
1769661761229973800,2.807973876953125,0.010591072961688042,0.04415147006511688,0.011953198350965977
1769661761239961900,2.8179619140625,0.004838839173316956,0.031004909425973892,0.021836264058947563
1769661761249949700,2.82794970703125,-0.0008779026102274656,0.01643635332584381,0.0342593789100647
1769661761259937800,2.837937744140625,-0.00560920313000679,0.001608536345884204,0.03955420106649399
1769661761269926000,2.84792578125,-0.011773888021707535,-0.012972003780305386,0.043094340711832047
1769661761279913700,2.857913818359375,-0.016354817897081375,-0.020909756422042847,0.041118960827589035
1769661761289901800,2.86790185546875,-0.018863780423998833,-0.02057579532265663,0.03483123704791069
1769661761299890000,2.877889892578125,-0.01962810568511486,-0.015327534638345242,0.028191251680254936
1769661761309877800,2.887877685546875,-0.01698065735399723,-0.007494645193219185,0.02110404707491398
1769661761319866600,2.89786669921875,-0.014590535312891006,0.006430611480027437,0.01387263648211956
1769661761329854700,2.907854736328125,-0.013052825815975666,0.012705817818641663,-0.003132179845124483
1769661761339842800,2.9178427734375,-0.012710658833384514,0.014411138370633125,-0.011116486974060535
1769661761349831000,2.927830810546875,-0.01684361882507801,0.02443128265440464,-0.014726667664945126
1769661761359818800,2.93781884765625,-0.01717107556760311,0.023508841171860695,-0.02287866733968258
1769661761369806800,2.947806884765625,-0.021266484633088112,0.013347283937036991,-0.03164685517549515
1769661761379795000,2.957794921875,-0.021303117275238037,0.014844815246760845,-0.03790893778204918
1769661761389782800,2.96778271484375,-0.02239447832107544,0.017022214829921722,-0.03676058351993561
1769661761399770600,2.9777705078125,-0.02096649259328842,0.015675188973546028,-0.036931026726961136
1769661761409758700,2.9877587890625,-0.019665271043777466,0.01209936197847128,-0.035109423100948334
1769661761419746800,2.997746826171875,-0.01783061772584915,0.012130753137171268,-0.03176015615463257
1769661761429734700,3.007734619140625,-0.017539002001285553,0.013347551226615906,-0.026156865060329437
1769661761439722800,3.01772265625,-0.01439748890697956,0.011933046393096447,-0.021552374586462975
1769661761449710800,3.0277109375,-0.010556410998106003,0.007885041646659374,-0.02339128591120243
1769661761459698700,3.03769873046875,-0.009372392669320107,0.009771130979061127,-0.020443741232156754
1769661761469686800,3.047686767578125,-0.006733199581503868,0.011671296320855618,-0.0157171618193388
1769661761479675000,3.0576748046875,-0.003254601499065757,0.008648381568491459,-0.01384526863694191
1769661761489662700,3.067662841796875,-0.0036554071120917797,0.0027113966643810272,-0.017311906442046165
1769661761499650800,3.07765087890625,-0.0050542717799544334,-0.0030958023853600025,-0.020151933655142784
1769661761509639000,3.087638916015625,-0.004052390344440937,-0.013550573959946632,-0.022317616268992424
1769661761519626800,3.097626708984375,-0.006030138116329908,-0.022793447598814964,-0.022262662649154663
1769661761529614600,3.107614501953125,-0.0037563310470432043,-0.028383689001202583,-0.01706070825457573
1769661761539602700,3.117602783203125,-0.005216312129050493,-0.02630075439810753,-0.010615495964884758
1769661761549590800,3.1275908203125,-0.0019142588134855032,-0.024038933217525482,-0.0067283459939062595
1769661761559578600,3.13757861328125,-0.0003804498119279742,-0.016528990119695663,-0.009381422773003578
1769661761569566700,3.147566650390625,0.0022033490240573883,-0.013747583143413067,-0.013979636132717133
1769661761579555800,3.157555908203125,0.002836505649611354,-0.016323387622833252,-0.018092207610607147
1769661761589544000,3.1675439453125,0.0007784147746860981,-0.014345194213092327,-0.015589633025228977
1769661761599531800,3.17753173828125,-0.00035262969322502613,-0.018162034451961517,-0.013705180026590824
1769661761609519600,3.18751953125,-0.0013632993213832378,-0.023275040090084076,-0.010272898711264133
1769661761619507700,3.1975078125,-0.0017963245045393705,-0.021745070815086365,-0.009328476153314114
1769661761629495800,3.207495849609375,-0.0006365178851410747,-0.01984730176627636,-0.009486934170126915
1769661761639483600,3.217483642578125,0.0016511812573298812,-0.018528051674365997,-0.011458119377493858
1769661761649471700,3.2274716796875,0.0022392072714865208,-0.012876026332378387,-0.01008819043636322
1769661761659459800,3.2374599609375,0.0014631676021963358,-0.008615785278379917,-0.009599967859685421
1769661761669447700,3.24744775390625,0.001041589304804802,-0.007488468661904335,-0.009300362318754196
1769661761679435800,3.257435791015625,0.0012385116424411535,-0.008670330978929996,-0.01046122144907713
1769661761689424000,3.267423828125,-0.0002922734711319208,-0.008019721135497093,-0.012729436159133911
1769661761699412000,3.277411865234375,-0.00139231001958251,-0.008803988806903362,-0.010008057579398155
1769661761709399800,3.28739990234375,-0.0013678089017048478,-0.008573625236749649,-0.008109224028885365
1769661761719387600,3.2973876953125,-0.004396955017000437,-0.01672462746500969,-0.003776535391807556
1769661761729375700,3.307375732421875,-0.006225481163710356,-0.01625111885368824,-0.0028518857434391975
1769661761739363600,3.317363525390625,-0.011752905324101448,-0.018661482259631157,-0.004087618552148342
1769661761749351700,3.3273515625,-0.015872815623879433,-0.02673911675810814,-0.013778595253825188
1769661761759339800,3.33733984375,-0.008404843509197235,-0.04603544622659683,-0.031189287081360817
1769661761769327900,3.347327880859375,-0.008410169743001461,-0.03270552679896355,-0.028274724259972572
1769661761779315700,3.357315673828125,-0.007423819974064827,-0.011554010212421417,-0.012861321680247784
1769661761789303800,3.3673037109375,-0.010774875059723854,-0.00219113496132195,0.001180195715278387
1769661761799292000,3.3772919921875,-0.00840461254119873,-0.005373976659029722,0.006392152514308691
1769661761809279700,3.38727978515625,-0.009877340868115425,-0.004919907543808222,0.0009371996857225895
1769661761819268600,3.3972685546875,-0.012781932950019836,-0.007731910794973373,-0.008148626424372196
1769661761829256700,3.407256591796875,-0.015786245465278625,-0.019404012709856033,-0.012477061711251736
1769661761839244800,3.417244873046875,-0.017238888889551163,-0.028864284977316856,-0.009481595829129219
1769661761849232600,3.427232666015625,-0.0183012243360281,-0.030247263610363007,-0.011671779677271843
1769661761859220700,3.437220703125,-0.017237940803170204,-0.031701672822237015,-0.010780691169202328
1769661761869208800,3.447208740234375,-0.01890641264617443,-0.025947649031877518,-0.008350555785000324
1769661761879197000,3.457197021484375,-0.019632263109087944,-0.021756887435913086,-0.0059314630925655365
1769661761889184800,3.467184814453125,-0.02183523029088974,-0.0169107336550951,-0.007144799456000328
1769661761899172900,3.4771728515625,-0.02065229043364525,-0.02212405577301979,-0.011515406891703606
1769661761909161000,3.487160888671875,-0.01903229020535946,-0.027023471891880035,-0.0166475847363472
1769661761919148800,3.497148681640625,-0.02226644940674305,-0.014922565780580044,-0.023552753031253815
1769661761929136600,3.50713671875,-0.023854225873947144,-0.01691567525267601,-0.03163837268948555
1769661761939124700,3.517124755859375,-0.030350351706147194,-0.010843126103281975,-0.03319830819964409
1769661761949112600,3.527112548828125,-0.038725193589925766,-0.0033239570911973715,-0.04194466024637222
1769661761959100700,3.5371005859375,-0.03776499629020691,-0.011825288645923138,-0.04682689160108566
1769661761969088800,3.5470888671875,-0.03090975433588028,-0.009532039985060692,-0.04199458658695221
1769661761979076900,3.557076904296875,-0.02210298366844654,0.003668291727080941,-0.03840808942914009
1769661761989064700,3.567064697265625,-0.012688709422945976,0.013551016338169575,-0.019375812262296677
1769661761999052800,3.577052734375,-0.007212422788143158,0.02673916704952717,-0.01453559659421444
1769661762009041000,3.587041015625,-0.007150636985898018,0.03199145197868347,-0.014815760776400566
1769661762019028700,3.59702880859375,-0.0023698280565440655,0.02429058775305748,-0.01264105923473835
1769661762029016800,3.607016845703125,-0.0061405980959534645,0.011646962724626064,-0.007574128918349743
1769661762039005000,3.6170048828125,-0.01082645170390606,0.004115583375096321,-0.002511502942070365
1769661762048992800,3.62699267578125,-0.013776701875030994,-0.00918690674006939,-0.005872412584722042
1769661762058980600,3.636980712890625,-0.016781307756900787,-0.017002161592245102,-0.009871257469058037
1769661762068969700,3.6469697265625,-0.008587558753788471,-0.012715802527964115,-0.00483495369553566
1769661762078958300,3.656958251953125,-0.005815349984914064,-0.006061617285013199,-0.0009188971016556025
1769661762088946400,3.666946533203125,-0.002596121048554778,-0.006074933335185051,0.0028414863627403975
1769661762098934500,3.6769345703125,-0.003542460734024644,0.0010375423589721322,0.004208939149975777
1769661762108922400,3.68692236328125,-0.0018335103522986174,0.0032032248564064503,0.00019608810544013977
1769661762118910200,3.69691015625,0.0003150963457301259,-0.006449056789278984,-0.006651340052485466
1769661762128898300,3.706898193359375,-0.00028065277729183435,-0.0038343649357557297,-0.004443047568202019
1769661762138886400,3.716886474609375,-0.0029403483495116234,0.010340554639697075,-0.002328162547200918
1769661762148874200,3.726874267578125,-0.0006111478433012962,0.010852147825062275,-0.0021721012890338898
1769661762158862300,3.7368623046875,0.002172362059354782,0.016434457153081894,-0.005072925705462694
1769661762168850400,3.746850341796875,0.0014003115938976407,0.02314562350511551,-0.011723104864358902
1769661762178838500,3.756838623046875,-0.0008513424545526505,0.020167313516139984,-0.011504041962325573
1769661762188826400,3.766826416015625,-0.004504400305449963,0.009826524183154106,-0.008355919271707535
1769661762198814500,3.776814453125,-0.006500314921140671,0.00007057725451886654,-0.007338979281485081
1769661762208802600,3.786802490234375,-0.00911181140691042,-0.008683232590556145,-0.004067818634212017
1769661762218790400,3.796790283203125,-0.01140530314296484,-0.018823524937033653,-0.00239104893989861
1769661762228778200,3.8067783203125,-0.012700398452579975,-0.02529127709567547,-0.0053279828280210495
1769661762238766300,3.816766357421875,-0.013917924836277962,-0.02287832647562027,-0.005715812090784311
1769661762248754400,3.82675439453125,-0.01450701616704464,-0.012637939304113388,-0.008663132786750793
1769661762258742300,3.8367421875,-0.006449014414101839,-0.008269714191555977,-0.005050560459494591
1769661762268730400,3.84673046875,-0.00046888599172234535,-0.002388654975220561,-0.0033879491966217756
1769661762278718500,3.856718505859375,0.002580504398792982,0.006339450366795063,-0.004034637473523617
1769661762288707600,3.86670751953125,0.006221045274287462,0.009747231379151344,-0.007168378680944443
1769661762298695400,3.8766953125,0.009728210978209972,0.012248107232153416,-0.012866593897342682
1769661762308683500,3.88668359375,0.010265637189149857,0.01669372245669365,-0.015576358884572983
1769661762318671400,3.89667138671875,0.01030778605490923,0.02429264783859253,-0.01682705245912075
1769661762328659200,3.9066591796875,0.013129671104252338,0.030841894447803497,-0.016374049708247185
1769661762338647300,3.916647216796875,0.013934262096881866,0.03836895525455475,-0.014383185654878616
1769661762348635400,3.926635498046875,0.013104687444865704,0.04409049078822136,-0.010489643551409245
1769661762358623500,3.93662353515625,0.014364850707352161,0.046475961804389954,-0.009610353969037533
1769661762368611300,3.946611328125,0.014804539270699024,0.0411059632897377,-0.007175159640610218
1769661762378599400,3.956599365234375,0.013570099137723446,0.03646264225244522,-0.005030176602303982
1769661762388587500,3.96658740234375,0.011441700160503387,0.029268112033605576,-0.00005858740769326687
1769661762398575400,3.976575439453125,0.00884786807000637,0.01728474721312523,0.0018378205131739378
1769661762408563500,3.9865634765625,0.008225221186876297,0.004952446557581425,0.0006439252756536007
1769661762418551600,3.996551513671875,0.009542297571897507,-0.004369419068098068,0.0008968556066974998
1769661762428539400,4.006539306640625,0.008282622322440147,-0.00823073647916317,-0.0005138209089636803
1769661762438527200,4.01652734375,0.0088566355407238,-0.005841836333274841,-0.00010393466800451279
1769661762448515300,4.026515380859375,0.011271589435636997,-0.0011115302331745625,0.005065260920673609
1769661762458503400,4.03650341796875,0.012279546819627285,0.0042204828932881355,0.008787410333752632
1769661762468491300,4.0464912109375,0.012474756687879562,0.012966569513082504,0.007632131222635508
1769661762478479400,4.056479248046875,0.015070420689880848,0.019345344975590706,0.001315565430559218
1769661762488467500,4.066467529296875,0.014367879368364811,0.024104412645101547,-0.0021998072043061256
1769661762498455300,4.076455322265625,0.013763824477791786,0.025727707892656326,-0.009477844461798668
1769661762508443400,4.086443359375,0.01180134154856205,0.024527687579393387,-0.014792182482779026
1769661762518432300,4.096432373046875,0.010162160731852055,0.020093008875846863,-0.014201823621988297
1769661762528420400,4.10642041015625,0.00781458429992199,0.012426834553480148,-0.00913649145513773
1769661762538408200,4.116408203125,0.0069579388946294785,0.004024655558168888,-0.00256783957593143
1769661762548396300,4.126396240234375,0.005543801002204418,-0.0007288204506039619,0.0035417182371020317
1769661762558384400,4.13638427734375,0.0040272315964102745,-0.0027189566753804684,0.006310448050498962
1769661762568372500,4.14637255859375,0.003226418746635318,-0.0006970847025513649,0.008773073554039001
1769661762578360300,4.1563603515625,0.002647110726684332,0.000872455071657896,0.006052725948393345
1769661762588348400,4.166348388671875,0.0032697576098144054,0.005155616905540228,-0.0001460476778447628
1769661762598336500,4.17633642578125,0.003763487795367837,0.00937703438103199,-0.008497766219079494
1769661762608324400,4.186324462890625,0.003528064349666238,0.011844187043607235,-0.015937838703393936
1769661762618312400,4.1963125,0.0029099644161760807,0.013111012056469917,-0.019859831780195236
1769661762628300500,4.206300537109375,-0.00043869426008313894,0.009112275205552578,-0.020387668162584305
1769661762638288400,4.216288330078125,-0.003930532373487949,0.004692030139267445,-0.015833096578717232
1769661762648276200,4.226276123046875,-0.006725519895553589,-0.002715285634621978,-0.012790434993803501
1769661762658264300,4.236264404296875,-0.007601601537317038,-0.010528665035963058,-0.012638600543141365
1769661762668252400,4.24625244140625,-0.009076726622879505,-0.021109404042363167,-0.014277243986725807
1769661762678240300,4.256240234375,-0.008996643126010895,-0.027686988934874535,-0.015675393864512444
1769661762688228400,4.266228271484375,-0.007595021277666092,-0.029553597792983055,-0.018982773646712303
1769661762698216400,4.276216552734375,-0.007689237594604492,-0.027972329407930374,-0.02108406275510788
1769661762708204300,4.286204345703125,-0.006127027794718742,-0.030562253668904305,-0.018869644030928612
1769661762718192400,4.2961923828125,-0.004413901828229427,-0.02884194254875183,-0.015552463009953499
1769661762728181200,4.30618115234375,-0.00410044752061367,-0.01981569081544876,-0.014323148876428604
1769661762738169300,4.31616943359375,-0.0015184273943305016,-0.015204868279397488,-0.01537317968904972
1769661762748157400,4.326157470703125,-0.0002691384870558977,-0.012994443997740746,-0.015239490196108818
1769661762758145300,4.336145263671875,0.0019156818743795156,-0.012006336823105812,-0.01698642410337925
1769661762768133400,4.34613330078125,0.002608636626973748,-0.002051972784101963,-0.01928233541548252
1769661762778121500,4.35612158203125,0.004507311154156923,0.012846628203988075,-0.021395185962319374
1769661762788109300,4.366109375,0.008597927168011665,0.016618462279438972,-0.022052187472581863
1769661762798097400,4.376097412109375,0.011767173185944557,0.02305886708199978,-0.018388841301202774
1769661762808085500,4.38608544921875,0.011644135229289532,0.02758757397532463,-0.020793942734599113
1769661762818073300,4.3960732421875,0.017252005636692047,0.029434088617563248,-0.018945755437016487
1769661762828061400,4.4060615234375,0.015377406030893326,0.034404076635837555,-0.01047450490295887
1769661762838049500,4.416049560546875,0.012687375769019127,0.03152860701084137,-0.0040186308324337006
1769661762848037400,4.426037353515625,0.011957935988903046,0.023598244413733482,-0.003235394833609462
1769661762858025200,4.436025146484375,0.012658894993364811,0.018285224214196205,-0.0011261149775236845
1769661762868013300,4.446013427734375,0.011743832379579544,0.008955903351306915,0.0007918935734778643
1769661762878001400,4.45600146484375,0.009251071140170097,0.0016977975610643625,0.007028587628155947
1769661762887989200,4.4659892578125,0.007690724451094866,0.0032690626103430986,0.008164692670106888
1769661762897977300,4.475977294921875,0.006447553634643555,0.005295486655086279,0.004660251084715128
1769661762907965400,4.48596533203125,0.007710158824920654,0.010544577613472939,-0.0058240811340510845
1769661762917953500,4.49595361328125,0.005957665853202343,0.017428569495677948,-0.014855263754725456
1769661762927941400,4.50594140625,0.006340628489851952,0.015577672980725765,-0.028980936855077744
1769661762937930200,4.51593017578125,0.009606562554836273,0.01978553645312786,-0.036007653921842575
1769661762947918300,4.52591845703125,0.008521058596670628,0.020217502489686012,-0.03575225546956062
1769661762957906400,4.535906494140625,0.01057928241789341,0.01589440554380417,-0.02896079234778881
1769661762967894300,4.545894287109375,0.009649839252233505,0.009050880558788776,-0.021821122616529465
1769661762977882400,4.55588232421875,0.01022611279040575,0.0008574555395171046,-0.01664191111922264
1769661762987870500,4.565870361328125,0.008888140320777893,0.004974169656634331,-0.006236939691007137
1769661762997858300,4.5758583984375,0.007081779185682535,0.0008235109271481633,0.0004346796777099371
1769661763007846400,4.585846435546875,0.0059584579430520535,-0.007237611338496208,0.007384997792541981
1769661763017834500,4.59583447265625,0.006716035306453705,-0.016217345371842384,0.012726793996989727
1769661763027822600,4.605822509765625,0.008769865147769451,-0.022289352491497993,0.01884460635483265
1769661763037810400,4.615810546875,0.009354193694889545,-0.024779198691248894,0.024416843429207802
1769661763047798300,4.62579833984375,0.009938225150108337,-0.024260148406028748,0.027262164279818535
1769661763057786400,4.635786376953125,0.010451260022819042,-0.0159212127327919,0.02709813416004181
1769661763067774200,4.645774169921875,0.014640678651630878,-0.0025675904471427202,0.022189129143953323
1769661763077762000,4.655761962890625,0.012710043229162693,0.012166302651166916,0.013858741149306297
1769661763087750100,4.665750244140625,0.017019571736454964,0.028158318251371384,0.0031693452037870884
1769661763097738000,4.675738037109375,0.020225858315825462,0.03855806216597557,-0.005306931212544441
1769661763107726000,4.68572607421875,0.02225225791335106,0.04740108922123909,-0.014030381105840206
1769661763117714200,4.695714111328125,0.02278035320341587,0.05384058132767677,-0.01684907078742981
1769661763127702300,4.705702392578125,0.02398889698088169,0.04911453649401665,-0.016278088092803955
1769661763137690000,4.715690185546875,0.020554836839437485,0.03972671180963516,-0.015333754010498524
1769661763147678200,4.72567822265625,0.01613931730389595,0.02400980144739151,-0.006596987135708332
1769661763157667000,4.7356669921875,0.01029371377080679,0.0029068836010992527,-0.002872184384614229
1769661763167655200,4.7456552734375,0.005119724199175835,-0.015410337597131729,0.0011688959784805775
1769661763177643000,4.75564306640625,0.002541530877351761,-0.028926482424139977,0.006717104464769363
1769661763187631000,4.765631103515625,0.0033513978123664856,-0.030055128037929535,0.007133889012038708
1769661763197619200,4.775619140625,0.0021669548004865646,-0.025772487744688988,0.007680507842451334
1769661763207607000,4.78560693359375,0.005041304510086775,-0.017204565927386284,0.009354570880532265
1769661763217595100,4.79559521484375,0.007769596762955189,-0.006759942043572664,0.009799502789974213
1769661763227583200,4.805583251953125,0.011290295980870724,0.0017523192800581455,0.006357900332659483
1769661763237571300,4.8155712890625,0.016453050076961517,0.013034633360803127,0.0018998845480382442
1769661763247559200,4.82555908203125,0.019851243123412132,0.024230029433965683,-0.0015031024813652039
1769661763257547300,4.83554736328125,0.020069194957613945,0.035063017159700394,-0.004158783704042435
1769661763267535000,4.84553515625,0.01907104067504406,0.040964581072330475,-0.006026457995176315
1769661763277523000,4.85552294921875,0.017404830083251,0.03765880689024925,-0.0059027476236224174
1769661763287511000,4.865510986328125,0.015687357634305954,0.02880699560046196,-0.006182113662362099
1769661763297499100,4.8754990234375,0.01216018758714199,0.018312696367502213,-0.0052491966634988785
1769661763307487200,4.8854873046875,0.006884200032800436,0.0009265171829611063,-0.0040260073728859425
1769661763317475000,4.89547509765625,0.002039616461843252,-0.004053269512951374,0.0004980629310011864
1769661763327463200,4.905463134765625,0.000928545487113297,-0.009389977902173996,0.0055479491129517555
1769661763337451300,4.915451171875,0.000304041663184762,-0.013098446652293205,0.01487386878579855
1769661763347439000,4.925439208984375,0.0022569375578314066,-0.006570772267878056,0.023056430742144585
1769661763357428000,4.935427978515625,0.0010823343181982636,-0.00036581908352673054,0.023268505930900574
1769661763367416000,4.945416015625,0.0011449184967204928,0.00284941541031003,0.018420754000544548
1769661763377404200,4.955404052734375,0.0007837458979338408,0.007513481192290783,0.013424772769212723
1769661763387392000,4.96539208984375,-0.0006538283778354526,0.006850620731711388,0.006251548416912556
1769661763397380000,4.975380126953125,-0.0022674903739243746,0.001700724009424448,-0.0009718844667077065
1769661763407368200,4.9853681640625,-0.003334619104862213,-0.0005176891572773457,-0.003405214985832572
1769661763417356300,4.995356201171875,-0.003687405027449131,-0.0008720711339265108,-0.0007575203198939562
1769661763427344100,5.00534423828125,-0.004354260396212339,0.0010978692444041371,0.0039562745951116085
1769661763437332200,5.015332275390625,-0.004343824461102486,0.0029734354466199875,0.006726112682372332
1769661763447320300,5.0253203125,-0.0028396709822118282,0.006639809347689152,0.0073370421305298805
1769661763457308200,5.03530810546875,-0.0015099156880751252,0.007188605144619942,0.006549902260303497
1769661763467296000,5.0452958984375,-0.002076902659609914,0.006869558244943619,-0.000245152972638607
1769661763477284000,5.0552841796875,-0.0054933615028858185,0.004332417622208595,-0.005723713897168636
1769661763487272000,5.06527197265625,-0.005686973221600056,-0.002003508387133479,-0.005426505580544472
1769661763497260000,5.075260009765625,-0.0072443182580173016,-0.00759492814540863,-0.006960019934922457
1769661763507248000,5.085248046875,-0.008417973294854164,-0.010551835410296917,-0.003945321775972843
1769661763517236200,5.095236328125,-0.008566906675696373,-0.011584787629544735,-0.006346642039716244
1769661763527224000,5.10522412109375,-0.008316302672028542,-0.008365824818611145,-0.004478435032069683
1769661763537212200,5.115212158203125,-0.008776205591857433,-0.007551462389528751,-0.005413621198385954
1769661763547200300,5.1252001953125,-0.008012943901121616,-0.0038866866379976273,-0.011293880641460419
1769661763557188000,5.13518798828125,-0.007958533242344856,0.0026679709553718567,-0.013708055950701237
1769661763567177000,5.145177001953125,-0.008133236318826675,0.00891068670898676,-0.014228970743715763
1769661763577165000,5.1551650390625,-0.007948113605380058,0.012071002274751663,-0.016068577766418457
1769661763587153200,5.165153076171875,-0.007398969493806362,0.015511274337768555,-0.016967128962278366
1769661763597141000,5.17514111328125,-0.006700246129184961,0.020164839923381805,-0.01647581160068512
1769661763607129000,5.185129150390625,-0.00462963804602623,0.02265303209424019,-0.014862204901874065
1769661763617117200,5.1951171875,-0.0038341451436281204,0.023501180112361908,-0.014296232722699642
1769661763627105300,5.205105224609375,-0.0037838113494217396,0.025111859664320946,-0.015674151480197906
1769661763637093000,5.215093017578125,-0.002589333802461624,0.02260332927107811,-0.016596786677837372
1769661763647081200,5.225081298828125,-0.0060104308649897575,0.02200411818921566,-0.012750648893415928
1769661763657069300,5.2350693359375,-0.0067149437963962555,0.020632803440093994,-0.01291373185813427
1769661763667057200,5.24505712890625,-0.007813498377799988,0.015276387333869934,-0.017509547993540764
1769661763677045000,5.255044921875,-0.008984756655991077,0.011238022707402706,-0.02516878768801689
1769661763687033000,5.265033203125,-0.012556588277220726,0.011504072695970535,-0.02839786931872368
1769661763697021200,5.275021240234375,-0.013631765730679035,0.012569673359394073,-0.030629482120275497
1769661763707009000,5.285009033203125,-0.0132434768602252,0.011655676178634167,-0.027596672996878624
1769661763716997000,5.2949970703125,-0.016015008091926575,0.024516332894563675,-0.020811153575778008
1769661763726985200,5.304985107421875,-0.01468848716467619,0.029287653043866158,-0.012423794716596603
1769661763736973000,5.31497314453125,-0.01726827770471573,0.0240827277302742,-0.006896885111927986
1769661763746961200,5.324961181640625,-0.01823340728878975,0.017331348732113838,-0.006564788520336151
1769661763756949200,5.33494921875,-0.018429705873131752,0.009914743714034557,-0.010682952590286732
1769661763766938000,5.344938232421875,-0.022195681929588318,0.00274737854488194,-0.00745440274477005
1769661763776926000,5.354926025390625,-0.021183308213949203,-0.007111591286957264,-0.006526726298034191
1769661763786914000,5.3649140625,-0.022274937480688095,-0.01463342271745205,-0.002212405437603593
1769661763796902100,5.374902099609375,-0.022403104230761528,-0.014696933329105377,-0.0034262053668498993
1769661763806890200,5.38489013671875,-0.020883237943053246,-0.01290728896856308,-0.0063767209649086
1769661763816878000,5.394878173828125,-0.0183562021702528,-0.012015322223305702,-0.009689860045909882
1769661763826866200,5.4048662109375,-0.01782516948878765,-0.009223264642059803,-0.0173198152333498
1769661763836854300,5.414854248046875,-0.017226116731762886,-0.008030647411942482,-0.020766381174325943
1769661763846842000,5.424842041015625,-0.015494262799620628,-0.004370666109025478,-0.02200848050415516
1769661763856830200,5.434830322265625,-0.011633658781647682,-0.0030468918848782778,-0.02442297525703907
1769661763866818300,5.444818359375,-0.010765733197331429,0.0007039043121039867,-0.02116965688765049
1769661763876806100,5.45480615234375,-0.0030120094306766987,0.011328121647238731,-0.01617530547082424
1769661763886794000,5.4647939453125,0.0005350547144189477,0.00999494269490242,-0.018120478838682175
1769661763896782000,5.474781982421875,-0.0014467383734881878,0.008642842061817646,-0.01902155950665474
1769661763906770200,5.484770263671875,-0.004539467394351959,0.006354654207825661,-0.00663386657834053
1769661763916758000,5.494758056640625,-0.005397970322519541,0.0004188044695183635,0.007598899304866791
1769661763926746000,5.50474609375,-0.007984698750078678,-0.01197954174131155,0.012696987949311733
1769661763936734200,5.514734130859375,-0.009022992104291916,-0.021204045042395592,0.01040500495582819
1769661763946722000,5.52472216796875,-0.00589058268815279,-0.01692620851099491,0.008831875398755074
1769661763956711200,5.534711181640625,-0.004390424117445946,-0.005410701036453247,0.005775898694992065
1769661763966699000,5.544698974609375,-0.003954464569687843,0.002089292975142598,0.009871041402220726
1769661763976687000,5.55468701171875,-0.00032286636997014284,0.008884882554411888,0.014270929619669914
1769661763986675000,5.564675048828125,0.00039538810960948467,0.012698795646429062,0.017769791185855865
1769661763996663000,5.5746630859375,0.000962976599112153,0.012197182513773441,0.019029129296541214
1769661764006651100,5.584651123046875,0.0024644669611006975,0.007061809301376343,0.01774521917104721
1769661764016639200,5.59463916015625,0.0007992553291842341,0.0017577435355633497,0.019503645598888397
1769661764026627000,5.604626953125,0.002926055807620287,0.006480326876044273,0.01921842060983181
1769661764036615200,5.614615234375,-0.0006934965495020151,0.005196781828999519,0.019420936703681946
1769661764046603300,5.624603271484375,-0.0025534480810165405,0.007464197464287281,0.01915222406387329
1769661764056591000,5.634591064453125,0.0004097691271454096,0.011507030576467514,0.015500244684517384
1769661764066579200,5.6445791015625,-0.0007803974440321326,0.014354748651385307,0.013446414843201637
1769661764076567300,5.6545673828125,-0.000022862455807626247,0.014903373084962368,0.010687250643968582
1769661764086555600,5.6645556640625,0.0001241440186277032,0.016177695244550705,0.012022826820611954
1769661764096543500,5.67454345703125,0.0012312701437622309,0.015090495347976685,0.011237343773245811
1769661764106531600,5.684531494140625,-0.00129367271438241,0.010663256049156189,0.013132715597748756
1769661764116519700,5.694519775390625,-0.0026938121300190687,0.0036114435642957687,0.010913154110312462
1769661764126507500,5.704507568359375,-0.004066938068717718,-0.002902648411691189,0.011593857780098915
1769661764136495600,5.71449560546875,-0.005414015147835016,-0.008099708706140518,0.011166537180542946
1769661764146483700,5.724483642578125,-0.006947729736566544,-0.01386012602597475,0.008893528953194618
1769661764156472600,5.73447265625,-0.0060726311057806015,-0.015525384806096554,0.008263637311756611
1769661764166460700,5.744460693359375,-0.006202859804034233,-0.013830815441906452,0.010462076403200626
1769661764176448500,5.754448486328125,-0.004180049989372492,-0.010546085424721241,0.009611854329705238
1769661764186436600,5.7644365234375,-0.004780858755111694,-0.007067997008562088,0.011827604845166206
1769661764196424700,5.7744248046875,-0.003622254356741905,-0.001057470217347145,0.010809089988470078
1769661764206412500,5.78441259765625,-0.0005684074712917209,0.0007582730613648891,0.009761136956512928
1769661764216400600,5.794400634765625,-0.00026171852368861437,0.0008463452104479074,0.007753808982670307
1769661764226388700,5.804388671875,-0.003109702840447426,0.00003994000144302845,0.004797966219484806
1769661764236376600,5.81437646484375,-0.0031144097447395325,-0.0011400135699659586,0.0024957158602774143
1769661764246364700,5.82436474609375,-0.004317892249673605,-0.0008201678283512592,-0.0021576255094259977
1769661764256352800,5.834352783203125,-0.0027012666687369347,0.0005099006230011582,-0.006554528139531612
1769661764266340600,5.844340576171875,-0.002289009280502796,0.006430639885365963,-0.009141256101429462
1769661764276328400,5.854328369140625,-0.0018614305881783366,0.013046453706920147,-0.008051367476582527
1769661764286316500,5.864316650390625,-0.0015660860808566213,0.017689675092697144,-0.007179714739322662
1769661764296304600,5.8743046875,0.0004182198317721486,0.01549159549176693,-0.0022190813906490803
1769661764306292500,5.88429248046875,0.0009921308374032378,0.011448917910456657,-0.00036392337642610073
1769661764316280600,5.894280517578125,0.0001212006900459528,0.007389013655483723,-0.0000261703971773386
1769661764326268700,5.9042685546875,0.0014210897497832775,0.0013524264795705676,-0.0017159462440758944
1769661764336256800,5.9142568359375,0.0007728246273472905,-0.0021710782311856747,0.00012602005153894424
1769661764346244600,5.92424462890625,0.0021060029976069927,-0.00002217339351773262,-0.0002750519197434187
1769661764356233500,5.9342333984375,0.004608874209225178,0.0039391955360770226,-0.0014307673554867506
1769661764366221600,5.9442216796875,0.006778019014745951,0.009761398658156395,-0.0036230816040188074
1769661764376209700,5.954209716796875,0.007350116036832333,0.015664197504520416,-0.00584347452968359
1769661764386197500,5.964197509765625,0.006737322546541691,0.017712434753775597,-0.00339310010895133
1769661764396185600,5.974185546875,0.00531732477247715,0.015579774975776672,-0.003710548859089613
1769661764406173700,5.984173583984375,0.005156736355274916,0.01880885660648346,-0.004739328287541866
1769661764416161500,5.99416162109375,0.0030192662961781025,0.017146021127700806,-0.010594336315989494
1769661764426149600,6.004149658203125,0.0017028659349307418,0.012185350991785526,-0.014286808669567108
1769661764436137700,6.0141376953125,-0.0010068502742797136,0.009417695924639702,-0.014776146970689297
1769661764446125800,6.024125732421875,-0.002152542117983103,0.0019989279098808765,-0.012654406949877739
1769661764456113700,6.03411376953125,-0.0008267045486718416,-0.002629085211083293,-0.01690313220024109
1769661764466101800,6.044101806640625,-0.001586238038726151,-0.0030211026314646006,-0.01744348555803299
1769661764476089600,6.054089599609375,0.002016802318394184,-0.0045149680227041245,-0.0226756501942873
1769661764486077400,6.064077392578125,0.0017635357799008489,-0.00045923981815576553,-0.025461049750447273
1769661764496065500,6.0740654296875,0.0035945316776633263,0.007803637534379959,-0.02435377426445484
1769661764506053600,6.0840537109375,0.009402619674801826,0.008280876092612743,-0.016123807057738304
1769661764516041700,6.094041748046875,0.00725950114428997,0.004211145918816328,-0.006891360506415367
1769661764526029600,6.104029541015625,0.0065151480957865715,0.00037965597584843636,0.0034054857678711414
1769661764536017700,6.114017578125,0.0026421300135552883,-0.0027064562309533358,0.005324873141944408
1769661764546006800,6.1240068359375,-0.0007810973329469562,-0.013014486990869045,0.0035464141983538866
1769661764555994600,6.13399462890625,-0.0025848234072327614,-0.01743033342063427,-0.0016964483074843884
1769661764565982500,6.143982421875,-0.0025667138397693634,-0.019074035808444023,0.00013580662198364735
1769661764575970600,6.153970458984375,-0.0017711275722831488,-0.023417048156261444,0.004747370257973671
1769661764585958700,6.163958740234375,-0.0009261064697057009,-0.02639872394502163,0.011572519317269325
1769661764595946500,6.173946533203125,0.003370487131178379,-0.026291903108358383,0.014613398350775242
1769661764605934600,6.1839345703125,0.0022125449031591415,-0.026026651263237,0.013691412284970284
1769661764615922700,6.193922607421875,0.0038814162835478783,-0.022030059248209,0.012321878224611282
1769661764625910500,6.20391064453125,0.005287831649184227,-0.015305843204259872,0.010427038185298443
1769661764635898600,6.213898681640625,0.0059723458252847195,-0.0032021973747760057,0.011080033145844936
1769661764645886700,6.22388671875,0.010306905955076218,0.0085708387196064,0.010455521754920483
1769661764655874800,6.233874755859375,0.010220786556601524,0.017890766263008118,0.008604058064520359
1769661764665862700,6.243862548828125,0.010317991487681866,0.018539778888225555,0.004254050552845001
1769661764675850800,6.253850830078125,0.009266143664717674,0.01927967555820942,0.0014375257305800915
1769661764685838600,6.263838623046875,0.007733760867267847,0.01546523068100214,-0.001089015044271946
1769661764695826400,6.273826416015625,0.0046888189390301704,0.00801799539476633,0.002373708877712488
1769661764705814500,6.283814453125,-0.0007637370144948363,0.0009739341912791133,0.008247843012213707
1769661764715802600,6.293802734375,-0.0023832221049815416,-0.006700189784169197,0.007195846643298864
1769661764725790700,6.303790771484375,-0.0038223944138735533,-0.018407978117465973,0.004970509558916092
1769661764735779600,6.313779541015625,-0.006257689092308283,-0.02585051767528057,-0.00024266261607408524
1769661764745767700,6.323767578125,-0.007944801822304726,-0.03204769268631935,-0.0019428245723247528
1769661764755755800,6.333755859375,-0.009325234219431877,-0.035393450409173965,-0.003774628508836031
1769661764765743600,6.34374365234375,-0.010620861314237118,-0.03620225191116333,-0.0027977810241281986
1769661764775731500,6.3537314453125,-0.011658895760774612,-0.03631531074643135,-0.0001671789214015007
1769661764785719600,6.363719482421875,-0.0081797419115901,-0.03414110839366913,0.002322077751159668
1769661764795707600,6.373707763671875,-0.006503160577267408,-0.0351884700357914,0.004405552521348
1769661764805695500,6.383695556640625,-0.005735104903578758,-0.03194047883152962,0.003938966430723667
1769661764815683600,6.39368359375,-0.005470774602144957,-0.027235262095928192,0.0014797198818996549
1769661764825671700,6.403671630859375,-0.0051586520858109,-0.021552875638008118,-0.0008814388420432806
1769661764835659800,6.41365966796875,-0.004728834144771099,-0.01599348708987236,-0.0032711413223296404
1769661764845647600,6.423647705078125,-0.004310717806220055,-0.015793217346072197,-0.002294027479365468
1769661764855635700,6.4336357421875,-0.0033710887655615807,-0.016471663489937782,-0.0026791887357831
1769661764865623800,6.443623779296875,-0.003775889053940773,-0.01591426320374012,-0.0017910245805978775
1769661764875611600,6.453611572265625,-0.004804658703505993,-0.018358219414949417,0.002325954847037792
1769661764885599500,6.463599609375,-0.00881964061409235,-0.018361948430538177,0.0018974521663039923
1769661764895587600,6.473587646484375,-0.011144489049911499,-0.020572064444422722,0.00555906817317009
1769661764905575700,6.48357568359375,-0.011836645193397999,-0.018697464838624,0.008358050137758255
1769661764915563500,6.4935634765625,-0.01016309205442667,-0.015148283913731575,0.009573033079504967
1769661764925552600,6.503552734375,-0.010052038356661797,-0.012643846683204174,0.009848404675722122
1769661764935540700,6.513540771484375,-0.00818125531077385,-0.0059943124651908875,0.005871790461242199
1769661764945528800,6.52352880859375,-0.006594544276595116,0.00271742045879364,0.009635635651648045
1769661764955516700,6.5335166015625,-0.006506161764264107,0.0004953354364261031,0.00865921936929226
1769661764965504800,6.5435048828125,-0.005513601936399937,-0.0008990957867354155,0.008324992842972279
1769661764975492600,6.55349267578125,-0.0044592213816940784,-0.002343118190765381,-0.002765107434242964
1769661764985480400,6.56348046875,-0.008771412074565887,-0.002325541339814663,-0.007130294572561979
1769661764995468500,6.573468505859375,-0.008677083998918533,0.004155669827014208,-0.003677896922454238
1769661765005456600,6.58345654296875,-0.004878351464867592,0.005913356319069862,0.0006686483975499868
1769661765015444700,6.59344482421875,-0.004805533215403557,0.009426386095583439,0.005825418047606945
1769661765025432600,6.6034326171875,-0.002036644611507654,0.010599242523312569,0.006740213371813297
1769661765035420700,6.613420654296875,-0.0023617411497980356,0.014691876247525215,0.00453877542167902
1769661765045408800,6.62340869140625,0.0002907671732828021,0.011991164647042751,0.0029211712535470724
1769661765055396600,6.633396728515625,-0.0014042442198842764,0.009407407604157925,-0.004720201250165701
1769661765065384700,6.643384765625,-0.00004736357368528843,0.007021214812994003,-0.006934087257832289
1769661765075372800,6.653372802734375,-0.00033102312590926886,0.0063011534512043,-0.010808556340634823
1769661765085360400,6.6633603515625,0.0020109605975449085,0.004423624835908413,-0.006148823536932468
1769661765095348500,6.673348388671875,0.0017913455376401544,0.005018182098865509,-0.003994877450168133
1769661765105336300,6.68333642578125,0.0017796276370063424,0.006274661514908075,0.0003623205702751875
1769661765115325400,6.693325439453125,0.0018298161448910832,0.007706867530941963,0.0004575299099087715
1769661765125313300,6.703313232421875,0.0012854660162702203,0.012673662975430489,0.0020080222748219967
1769661765135301400,6.71330126953125,0.0015609547263011336,0.0164245143532753,-0.002342430641874671
1769661765145289500,6.72328955078125,0.001041638315655291,0.018642660230398178,-0.004141395911574364
1769661765155277600,6.733277587890625,0.0005401798989623785,0.01789480447769165,-0.004308592528104782
1769661765165265400,6.743265380859375,0.0006522990297526121,0.013662507757544518,-0.006379200145602226
1769661765175253500,6.75325341796875,0.0009806668385863304,0.020828276872634888,-0.005064663477241993
1769661765185241300,6.763241455078125,-0.001032416708767414,0.02018618769943714,-0.006611693650484085
1769661765195229200,6.773229248046875,-0.0006631654687225819,0.017421040683984756,-0.006602773442864418
1769661765205217300,6.78321728515625,-0.0048009189777076244,0.013625770807266235,-0.002974216127768159
1769661765215205400,6.793205322265625,-0.005982790607959032,0.009792894124984741,-0.005219697020947933
1769661765225193500,6.803193359375,-0.004425640217959881,0.008353721350431442,-0.013856594450771809
1769661765235181300,6.813181396484375,-0.004556627944111824,0.009037494659423828,-0.020123658701777458
1769661765245169400,6.82316943359375,-0.003944633528590202,0.0113334059715271,-0.023826517164707184
1769661765255157500,6.833157470703125,-0.0020019575022161007,0.016543809324502945,-0.01919291913509369
1769661765265145300,6.843145263671875,-0.0016080760397017002,0.023337533697485924,-0.014558752067387104
1769661765275133400,6.853133544921875,-0.0006191593129187822,0.022889168933033943,-0.006139982026070356
1769661765285121500,6.86312158203125,-0.0028013535775244236,0.016749251633882523,-0.0020887809805572033
1769661765295109400,6.873109375,-0.004408287815749645,0.011732685379683971,0.0002116491086781025
1769661765305098200,6.88309814453125,-0.007148148026317358,0.007552054710686207,0.004356326535344124
1769661765315086300,6.89308642578125,-0.013265596702694893,0.0021732670720666647,0.0011662174947559834
1769661765325074400,6.903074462890625,-0.013299152255058289,-0.00223293318413198,0.0001656678505241871
1769661765335062500,6.9130625,-0.011176753789186478,-0.0045279888436198235,-0.00008885050192475319
1769661765345050400,6.92305029296875,-0.008494418114423752,-0.0034946822561323643,-0.006314522586762905
1769661765355038500,6.93303857421875,-0.006497967056930065,-0.0023245711345225573,-0.015152045525610447
1769661765365026600,6.943026611328125,-0.006847640499472618,-0.0025211123283952475,-0.018656499683856964
1769661765375014400,6.953014404296875,-0.007249530404806137,0.008823487907648087,-0.016474345698952675
1769661765385002500,6.96300244140625,-0.006556576117873192,0.016520289704203606,-0.014960603788495064
1769661765394990300,6.972990234375,-0.00506424019113183,0.01654363051056862,-0.01980466954410076
1769661765404978200,6.982978271484375,-0.003933728206902742,0.01968855783343315,-0.020195888355374336
1769661765414966300,6.99296630859375,-0.003310202155262232,0.022448766976594925,-0.019914137199521065
1769661765424954400,7.002954345703125,-0.0030113954562693834,0.019127005711197853,-0.017032595351338387
1769661765434942500,7.0129423828125,-0.001988609554246068,0.009954020380973816,-0.015450350008904934
1769661765444930300,7.022930419921875,-0.0028187166899442673,0.006400565151125193,-0.012070265598595142
1769661765454918400,7.03291845703125,-0.003122399328276515,0.000528190634213388,-0.007538275793194771
1769661765464906500,7.042906494140625,-0.0044726221822202206,-0.0019485491793602705,-0.0032761532347649336
1769661765474894300,7.052894287109375,-0.005116257816553116,-0.002646928420290351,-0.0012109880335628986
1769661765484883200,7.06288330078125,-0.004932233598083258,-0.006915975362062454,-0.003805173095315695
1769661765494871300,7.072871337890625,-0.0013961686054244637,-0.00782552920281887,-0.0056038545444607735
1769661765504859400,7.082859375,-0.00046699168160557747,-0.006098203361034393,-0.005946602672338486
1769661765514847200,7.09284716796875,-0.0019101080251857638,-0.0017565498128533363,-0.005170141812413931
1769661765524835300,7.10283544921875,-0.0016208887100219727,0.00135029386729002,-0.004106475505977869
1769661765534823400,7.112823486328125,-0.003490921575576067,0.0007560871308669448,-0.004641939885914326
1769661765544811500,7.1228115234375,-0.0010280301794409752,0.00428264494985342,-0.0057229166850447655
1769661765554799400,7.13279931640625,-0.0018863417208194733,0.003924897871911526,-0.008795835077762604
1769661765564787500,7.142787353515625,-0.0025175109039992094,0.005104677751660347,-0.008799297735095024
1769661765574775600,7.152775634765625,-0.0007234237855300307,0.004987653810530901,-0.007993676699697971
1769661765584763400,7.162763427734375,-0.0009700325317680836,0.0022422010079026222,-0.008236290886998177
1769661765594751200,7.172751220703125,-0.003342759096994996,-0.0010002260096371174,-0.010392468422651291
1769661765604739300,7.1827392578125,-0.006703401915729046,-0.002830350073054433,-0.01056184433400631
1769661765614727400,7.1927275390625,-0.00588941527530551,-0.0009809948969632387,-0.011413974687457085
1769661765624715300,7.20271533203125,-0.004026001784950495,-0.0046159434132277966,-0.012964467518031597
1769661765634703400,7.212703369140625,-0.0054740700870752335,-0.0016506111714988947,-0.010345282033085823
1769661765644691500,7.22269140625,-0.004054605029523373,0.0045838491059839725,-0.00744083896279335
1769661765654679300,7.23267919921875,-0.001573864952661097,0.010266795754432678,-0.0076552219688892365
1769661765664668400,7.24266845703125,-0.0013794542755931616,0.009978641755878925,-0.008083724416792393
1769661765674656500,7.252656494140625,-0.002202217932790518,0.010676361620426178,-0.012296130880713463
1769661765684644400,7.262644287109375,-0.0018445553723722696,0.00969685148447752,-0.01502294186502695
1769661765694632200,7.272632080078125,-0.0020259555894881487,0.005689648445695639,-0.01481185108423233
1769661765704620300,7.282620361328125,-0.0024424740113317966,0.00027890410274267197,-0.013291185721755028
1769661765714608400,7.2926083984375,-0.0037841745652258396,-0.004340082406997681,-0.010785151273012161
1769661765724596500,7.302596435546875,-0.0035282447934150696,-0.006608029827475548,-0.008274056017398834
1769661765734584300,7.312584228515625,-0.0036550851073116064,-0.009751975536346436,-0.006409831345081329
1769661765744572400,7.322572509765625,-0.002934700110927224,-0.012157076969742775,-0.0021738079376518726
1769661765754560500,7.332560546875,-0.0037937413435429335,-0.016613230109214783,0.0002571025397628546
1769661765764548400,7.34254833984375,-0.0036691054701805115,-0.020728081464767456,0.004348783288151026
1769661765774536400,7.352536376953125,-0.004330626223236322,-0.021418415009975433,0.003913145512342453
1769661765784524500,7.362524658203125,-0.0025878536980599165,-0.016507279127836227,0.004323272034525871
1769661765794512400,7.372512451171875,-0.0012086434289813042,-0.01036624051630497,-0.0012883704621344805
1769661765804500200,7.382500244140625,0.0015008564805611968,-0.0010017675813287497,-0.0043928176164627075
1769661765814488300,7.39248828125,0.005357155576348305,0.006112208589911461,-0.008800198324024677
1769661765824476400,7.402476318359375,0.006269554141908884,0.013259068131446838,-0.00999489240348339
1769661765834465500,7.412465576171875,0.007798776496201754,0.014185258187353611,-0.00968053750693798
1769661765844453400,7.422453369140625,0.008323685266077518,0.014446781016886234,-0.008061069995164871
1769661765854441500,7.43244140625,0.006959252059459686,0.013291770592331886,-0.009054256603121758
1769661765864429600,7.4424296875,0.005177597515285015,0.008770788088440895,-0.01116960495710373
1769661765874417400,7.45241748046875,0.003776006866246462,0.0029343420173972845,-0.010680755600333214
1769661765884405200,7.4624052734375,0.0036463108845055103,0.0007675942033529282,-0.006592270452529192
1769661765894393300,7.472393310546875,0.0029984936118125916,0.001404608367010951,-0.0017284061759710312
1769661765904381200,7.482381103515625,0.0033247312530875206,0.0013020767364650965,0.0005818861536681652
1769661765914369300,7.492369384765625,0.0024251779541373253,-0.001582195982336998,0.0017301201587542892
1769661765924357400,7.502357421875,0.0030957618728280067,-0.002942272461950779,-0.0026819389313459396
1769661765934345500,7.512345458984375,0.0035087554715573788,-0.00536221731454134,-0.004920204635709524
1769661765944333300,7.522333251953125,-0.00002472673077136278,-0.007157986983656883,-0.005193445365875959
1769661765954321400,7.5323212890625,-0.00013532699085772038,-0.006291212048381567,-0.005243496038019657
1769661765964309500,7.5423095703125,-0.003248562105000019,-0.003919667564332485,-0.008800413459539413
1769661765974297300,7.55229736328125,-0.0005543667357414961,-0.006892539095133543,-0.017289109528064728
1769661765984285400,7.562285400390625,-0.0003397159744054079,-0.0030394778586924076,-0.024091623723506927
1769661765994273500,7.5722734375,0.001157739432528615,0.0040035732090473175,-0.027244102209806442
1769661766004261400,7.582261474609375,0.004244076553732157,0.009867321699857712,-0.03071766346693039
1769661766014249200,7.592249267578125,0.00581275625154376,0.014102630317211151,-0.026774868369102478
1769661766024238300,7.60223828125,0.006348584312945604,0.018115215003490448,-0.018512943759560585
1769661766034226400,7.612226318359375,0.004625163972377777,0.013471952639520168,-0.007646486163139343
1769661766044214500,7.622214599609375,-0.0008500289404764771,0.003551411209627986,0.0011957412352785468
1769661766054202400,7.632202392578125,-0.003400916000828147,-0.00957141350954771,0.006505787372589111
1769661766064190500,7.6421904296875,-0.006674739997833967,-0.01898675225675106,0.007818193174898624
1769661766074178600,7.652178466796875,-0.007680048700422049,-0.030527882277965546,0.007450512144714594
1769661766084166400,7.66216650390625,-0.007892035879194736,-0.03617032244801521,0.008273961022496223
1769661766094154200,7.672154296875,-0.00622673612087965,-0.031411267817020416,0.008218348026275635
1769661766104142300,7.682142333984375,-0.0037300223484635353,-0.02433658018708229,0.011233844794332981
1769661766114130400,7.69213037109375,-0.0028532983269542456,-0.01799510419368744,0.008332915604114532
1769661766124118300,7.7021181640625,0.0004889687988907099,-0.015497858636081219,0.006334213539958
1769661766134106400,7.7121064453125,-0.0014231677632778883,-0.01016625203192234,0.003844475606456399
1769661766144094500,7.722094482421875,-0.0003397937398403883,-0.0036311205476522446,0.0028079731855541468
1769661766154082600,7.73208251953125,0.001463635009713471,-0.0014764834195375443,0.003193132346495986
1769661766164070400,7.7420703125,0.003135833889245987,0.0011595134856179357,0.005793176591396332
1769661766174058500,7.75205859375,0.004759659059345722,0.004548961296677589,0.007221727166324854
1769661766184046600,7.762046630859375,0.004577498883008957,0.006497596390545368,0.007427323143929243
1769661766194034400,7.772034423828125,0.0049149044789373875,0.004860858898609877,0.007885072380304337
1769661766204023300,7.782023193359375,0.004170018248260021,0.0012733145849779248,0.007737800013273954
1769661766214011400,7.792011474609375,0.002814429346472025,-0.0029577892273664474,0.008465755730867386
1769661766223999500,7.80199951171875,0.0008769799023866653,-0.007965863682329655,0.01053556427359581
1769661766233987300,7.8119873046875,0.0009493485558778048,-0.011092230677604675,0.01125222910195589
1769661766243975400,7.821975341796875,0.0025118249468505383,-0.009299123659729958,0.010845297947525978
1769661766253963500,7.831963623046875,0.0036526662297546864,-0.008078305050730705,0.010438279248774052
1769661766263951600,7.84195166015625,0.002744262106716633,-0.004629777744412422,0.00699987169355154
1769661766273939500,7.851939453125,0.0022796783596277237,-0.0038742253091186285,0.004458016715943813
1769661766283927600,7.861927490234375,-0.0008452748879790306,-0.0072212861850857735,0.0046455031260848045
1769661766293915400,7.871915283203125,-0.0017020509112626314,-0.01217604149132967,0.002173192100599408
1769661766303903200,7.8819033203125,-0.0012429219204932451,-0.013362745754420757,0.0003859447315335274
1769661766313891300,7.891891357421875,0.000357193173840642,-0.013055571354925632,-0.0007946526166051626
1769661766323879400,7.90187939453125,0.0021681427024304867,-0.007927654311060905,-0.0025544692762196064
1769661766333867300,7.9118671875,0.002307388000190258,-0.0004358601290732622,-0.0009151259437203407
1769661766343855400,7.92185546875,0.0035715908743441105,0.004076866433024406,-0.0007188508752733469
1769661766353843500,7.931843505859375,0.0038899679202586412,0.0063177067786455154,-0.0026338526513427496
1769661766363831600,7.94183154296875,0.0044428398832678795,0.007037825882434845,-0.0036485169548541307
1769661766373820400,7.9518203125,0.004302996210753918,0.004297180101275444,-0.004617419093847275
1769661766383808300,7.961808349609375,0.002464349614456296,-0.00022460147738456726,-0.005946069955825806
1769661766393796400,7.97179638671875,0.0009194373851642013,-0.0025039587635546923,-0.006125619634985924
1769661766403784400,7.981784423828125,0.0009079856099560857,-0.003950054757297039,-0.0075767757371068
1769661766413772300,7.991772216796875,-0.00020686443895101547,-0.008689052425324917,-0.01095780823379755
1769661766423760400,8.001760498046876,-0.0003815677482634783,-0.009393990971148014,-0.012590325437486172
1769661766433748500,8.01174853515625,0.0013800115557387471,-0.008176997303962708,-0.012375707738101482
1769661766443736300,8.021736328125,-0.0022714484948664904,-0.007025711704045534,-0.016087885946035385
1769661766453724400,8.031724365234375,-0.001694585895165801,-0.010630536824464798,-0.015351270325481892
1769661766463712500,8.04171240234375,0.0008631139062345028,-0.006943656597286463,-0.008963145315647125
1769661766473700600,8.05170068359375,0.0019054027507081628,-0.0029650924261659384,-0.0020827394910156727
1769661766483688400,8.0616884765625,0.0028913049027323723,-0.003835946088656783,0.0015902923187240958
1769661766493676500,8.071676513671875,0.0019256818341091275,-0.006181447766721249,0.005964099429547787
1769661766503664400,8.081664306640626,0.0055049704387784,-0.004282346926629543,0.008406218141317368
1769661766513652200,8.09165234375,0.006201880518347025,-0.003859115531668067,0.009343553334474564
1769661766523640300,8.101640380859376,0.005533959716558456,-0.004244208335876465,0.01268848404288292
1769661766533628400,8.11162841796875,0.004877949133515358,-0.005120472051203251,0.01434684544801712
1769661766543617500,8.121617431640624,0.006942165084183216,-0.004658679943531752,0.014296245761215687
1769661766553605400,8.13160546875,0.007005445659160614,-0.001967359334230423,0.013383548706769943
1769661766563593500,8.141593505859374,0.006634201854467392,-0.001191047951579094,0.012362225912511349
1769661766573581600,8.15158154296875,0.006280975881963968,-0.0007445486262440681,0.011895926669239998
1769661766583569400,8.1615693359375,0.004550454206764698,0.0011481598485261202,0.012239741161465645
1769661766593557200,8.17155712890625,0.004205595701932907,0.0018254320602864027,0.012183803133666515
1769661766603545300,8.18154541015625,0.003407179843634367,0.002147408202290535,0.014692501164972782
1769661766613533400,8.191533447265625,0.0007057385519146919,-0.0008973013609647751,0.015500761568546295
1769661766623521300,8.201521240234374,-0.000040212878957390785,-0.004003878682851791,0.01578012853860855
1769661766633509400,8.21150927734375,-0.00033566984347999096,-0.0036627554800361395,0.016067663207650185
1769661766643497500,8.22149755859375,-0.0012499330332502723,-0.004465165548026562,0.0147398104891181
1769661766653485600,8.231485595703125,0.0007203764980658889,-0.004579344764351845,0.013031957671046257
1769661766663473400,8.241473388671874,-0.0003869658103212714,-0.0033649432007223368,0.012703590095043182
1769661766673461500,8.25146142578125,-0.0010464569786563516,0.0010400781175121665,0.012730243615806103
1769661766683449600,8.26144970703125,0.0005301343044266105,0.0002741529606282711,0.010718491859734058
1769661766693437400,8.2714375,-0.0007347888313233852,0.002237102249637246,0.009630988352000713
1769661766703425300,8.28142529296875,-0.0002980304416269064,0.004551921971142292,0.006882073357701302
1769661766713414400,8.291414306640625,0.001034282729960978,0.0016661447007209063,0.006379987578839064
1769661766723402500,8.301402587890625,-0.002891482785344124,-0.0006334949284791946,0.003316020593047142
1769661766733390300,8.311390380859375,-0.00421257596462965,-0.005304076708853245,-0.0012123859487473965
1769661766743378400,8.32137841796875,-0.0035715526901185513,-0.009703618474304676,-0.009003996849060059
1769661766753366500,8.331366455078125,-0.004393751733005047,-0.010469051077961922,-0.013120753690600395
1769661766763354600,8.341354736328125,-0.006155699025839567,-0.004822616931051016,-0.011150814592838287
1769661766773342500,8.351342529296875,-0.00273175654001534,0.0017312663840129972,-0.00934990867972374
1769661766783330600,8.36133056640625,-0.000801231013610959,0.0032428766135126352,-0.00547314528375864
1769661766793318400,8.371318359375,0.0015711128944531083,0.0045904358848929405,0.0012579947942867875
1769661766803306200,8.38130615234375,0.00046163995284587145,0.003146470058709383,0.004454587120562792
1769661766813294300,8.39129443359375,-0.002552218735218048,-0.0013205052819103003,0.008150085806846619
1769661766823282400,8.401282470703125,-0.004661708604544401,-0.003474469995126128,0.008503220975399017
1769661766833270300,8.411270263671875,-0.005508634727448225,-0.008754397742450237,0.006450359709560871
1769661766843258400,8.42125830078125,-0.0067483363673090935,-0.00798687431961298,0.006961686536669731
1769661766853246500,8.43124658203125,-0.00509338453412056,-0.004966724663972855,0.012070896103978157
1769661766863234600,8.441234619140625,-0.004391641356050968,0.004296815022826195,0.014769477769732475
1769661766873223400,8.451223388671876,0.0015451413346454501,0.008654139004647732,0.01631484366953373
1769661766883211300,8.461211181640625,0.002368857152760029,0.008432031609117985,0.009768793359398842
1769661766893199400,8.471199462890626,0.0014103499706834555,0.006026525050401688,0.0021709054708480835
1769661766903187500,8.4811875,-0.000025626388378441334,0.0008623896865174174,-0.0021375566720962524
1769661766913175300,8.49117529296875,-0.002209263853728771,-0.003531320719048381,-0.0066682118922472
1769661766923163400,8.501163330078125,-0.0020524037536233664,-0.008307700045406818,-0.005808543413877487
1769661766933151500,8.5111513671875,-0.003034895518794656,-0.007871909067034721,0.00007396354340016842
1769661766943139300,8.521139404296875,-0.0008148844353854656,-0.0023932543117552996,0.005141426809132099
1769661766953127400,8.53112744140625,0.0016749760834500194,0.002221554284915328,0.009327905252575874
1769661766963115500,8.541115478515625,0.0037391921505331993,0.00047452072612941265,0.010648567229509354
1769661766973103600,8.551103515625,0.0039122262969613075,-0.0004787077195942402,0.010387587361037731
1769661766983091500,8.561091552734375,0.0017350923735648394,-0.0017801944632083178,0.010183855891227722
1769661766993079300,8.571079345703126,-0.00033751141745597124,-0.012012382969260216,0.003327472135424614
1769661767003067400,8.5810673828125,0.0003043104661628604,-0.021203750744462013,-0.0011740690097212791
1769661767013055200,8.59105517578125,0.000020747887901961803,-0.01996791735291481,-0.0036924201995134354
1769661767023043300,8.601043212890625,-0.00014197116252034903,-0.01548475306481123,0.0005081838462501764
1769661767033031400,8.611031494140626,0.0010893875733017921,-0.008240995928645134,0.0019366643391549587
1769661767043020500,8.6210205078125,-0.00010850222315639257,-0.0018283703830093145,0.005847250111401081
1769661767053008400,8.63100830078125,0.00019774073734879494,-0.0017744440119713545,0.004827622789889574
1769661767062996500,8.64099658203125,-0.0007319687865674496,-0.006686112843453884,0.003230525180697441
1769661767072984600,8.650984619140624,-0.003253367729485035,-0.010408150963485241,0.005885535851120949
1769661767082972400,8.660972412109375,0.00009981857147067785,-0.01385667733848095,0.0067990003153681755
1769661767092960000,8.6709599609375,-0.00008065090514719486,-0.01563156209886074,0.011864310130476952
1769661767102948000,8.680947998046875,0.0021366970613598824,-0.011973443441092968,0.01224966999143362
1769661767112936200,8.690936279296874,0.003911447711288929,-0.006070632487535477,0.013609586283564568
1769661767122924000,8.700924072265625,0.004493348766118288,-0.0035582061391323805,0.01274911966174841
1769661767132912000,8.710912109375,0.007191265467554331,-0.001687543699517846,0.012651720084249973
1769661767142900200,8.720900146484375,0.008572913706302643,-0.002085686195641756,0.01326051913201809
1769661767152888300,8.730888427734374,0.0061202021315693855,-0.0026283131446689367,0.014023984782397747
1769661767162876200,8.740876220703125,0.005669595208019018,-0.003669609082862735,0.013226634822785854
1769661767172864300,8.7508642578125,0.003253953531384468,-0.007817720994353294,0.014746585860848427
1769661767182852400,8.760852294921875,0.002489093691110611,-0.01050351932644844,0.012681038118898869
1769661767192841200,8.77084130859375,0.0006784016732126474,-0.013640147633850574,0.010473489761352539
1769661767202829000,8.7808291015625,0.00020329374819993973,-0.021426698192954063,0.008914208970963955
1769661767212817200,8.790817138671875,-0.0006884040776640177,-0.021773435175418854,0.009710113517940044
1769661767222805200,8.80080517578125,-0.0019664550200104713,-0.01951480843126774,0.011861414648592472
1769661767232793000,8.81079296875,-0.0015548855299130082,-0.01758350059390068,0.012332144193351269
1769661767242781200,8.82078125,-0.003628689097240567,-0.011308561079204082,0.013074900023639202
1769661767252769300,8.830769287109375,-0.0023045602720230818,-0.005537534132599831,0.012968432158231735
1769661767262757000,8.840757080078125,-0.0008701817132532597,-0.006791883148252964,0.013163907453417778
1769661767272745200,8.8507451171875,-0.0020670422818511724,-0.009304564446210861,0.013346562162041664
1769661767282733300,8.8607333984375,0.00007467193063348532,-0.013393847271800041,0.01426002662628889
1769661767292721200,8.87072119140625,-0.002057300414890051,-0.018340429291129112,0.0127185033634305
1769661767302709000,8.880708984375,-0.0033302914816886187,-0.019816886633634567,0.014246092177927494
1769661767312697000,8.890697021484375,-0.0027267474215477705,-0.018113180994987488,0.010179967619478703
1769661767322685200,8.900685302734376,-0.003880162490531802,-0.01721223257482052,0.006210526451468468
1769661767332673000,8.910673095703125,-0.0035534037742763758,-0.013300538994371891,-0.0006919072475284338
1769661767342661000,8.9206611328125,-0.0033150508534163237,-0.009269578382372856,-0.003619520226493478
1769661767352649200,8.930649169921875,-0.004256006330251694,-0.008358104154467583,-0.006481289863586426
1769661767362638300,8.940638427734376,-0.001662087393924594,-0.0066185276955366135,-0.008988656103610992
1769661767372626200,8.950626220703125,-0.0016787622589617968,-0.004926817491650581,-0.00787009671330452
1769661767382614000,8.960614013671876,-0.0007519822102040052,-0.006199807859957218,-0.006451164372265339
1769661767392602000,8.97060205078125,-0.0007778838044032454,-0.00853879377245903,-0.003997734747827053
1769661767402590200,8.980590087890626,-0.0036082915030419827,-0.008661565370857716,-0.0014656013809144497
1769661767412578000,8.990578125,-0.0029293899424374104,-0.007163296453654766,-0.0010561894159764051
1769661767422566100,9.000566162109376,-0.004192527383565903,-0.006254892796278,-0.003225866472348571
1769661767432554200,9.01055419921875,-0.0023571630008518696,-0.003061119932681322,-0.00769537128508091
1769661767442542000,9.0205419921875,-0.0034578475169837475,-0.002319429535418749,-0.007396564818918705
1769661767452530200,9.0305302734375,-0.002237258478999138,-0.001308101462200284,-0.007957224734127522
1769661767462518300,9.040518310546876,-0.0020961109548807144,0.0004210888873785734,-0.006777710281312466
1769661767472506400,9.05050634765625,-0.0003534615971148014,0.00529069360345602,-0.008934209123253822
1769661767482494200,9.060494140625,-0.00044587324373424053,0.006927472539246082,-0.008940069004893303
1769661767492482300,9.070482421875,0.002476650755852461,0.008024974726140499,-0.007053795736283064
1769661767502470100,9.08047021484375,0.0009815521771088243,0.010352577082812786,-0.008539041504263878
1769661767512459300,9.090459228515625,-0.00021380896214395761,0.009159272536635399,-0.010967236012220383
1769661767522447000,9.100447021484374,0.002185166347771883,0.005017790477722883,-0.013942520134150982
1769661767532435200,9.110435302734375,-0.00045388226862996817,0.007353442721068859,-0.018046386539936066
1769661767542423300,9.12042333984375,0.000692075933329761,0.011019283905625343,-0.017863692715764046
1769661767552411100,9.1304111328125,0.002018770668655634,0.01421571895480156,-0.013006269000470638
1769661767562399200,9.140399169921874,0.00481029599905014,0.015045559965074062,-0.006198696792125702
1769661767572387300,9.15038720703125,0.005949047394096851,0.014702409505844116,0.0019520007772371173
1769661767582375200,9.160375244140624,0.0025769525673240423,0.005738741252571344,0.010930581949651241
1769661767592363000,9.170363037109375,-0.0019786341581493616,0.002549741417169571,0.01171851810067892
1769661767602351000,9.18035107421875,-0.00734543614089489,-0.0026167912874370813,0.003426499664783478
1769661767612339200,9.190339111328125,-0.011476648971438408,-0.014540812000632286,-0.004145544022321701
1769661767622327000,9.2003271484375,-0.014367775991559029,-0.023307671770453453,-0.012149941176176071
1769661767632315100,9.210315185546875,-0.015515163540840149,-0.02532726153731346,-0.011914758011698723
1769661767642303200,9.22030322265625,-0.015382538549602032,-0.027333153411746025,-0.005969783291220665
1769661767652291300,9.230291259765625,-0.011526865884661674,-0.02779032103717327,0.0006458931602537632
1769661767662279200,9.240279052734374,-0.00954254437237978,-0.02080271951854229,0.0040321024134755135
1769661767672268000,9.25026806640625,-0.007415927480906248,-0.011607316322624683,0.002848902251571417
1769661767682256100,9.260256103515625,-0.005042251665145159,-0.0025898527819663286,-0.001443847082555294
1769661767692244200,9.270244140625,-0.00361647829413414,0.008158358745276928,-0.00564475916326046
1769661767702232000,9.280232177734375,-0.002238558605313301,0.01506313681602478,-0.004033813253045082
1769661767712220200,9.29022021484375,0.0005899681709706783,0.012751109898090363,-0.0017529891338199377
1769661767722208300,9.300208251953125,-0.002103020204231143,0.009085269644856453,0.000038253143429756165
1769661767732196000,9.310196044921875,0.000029954127967357635,0.0019975402392446995,-0.0001430425327271223
1769661767742184200,9.32018408203125,-0.0019695472437888384,-0.005099251866340637,0.00036775157786905766
1769661767752172300,9.33017236328125,-0.004595507867634296,-0.007183748297393322,0.002986130304634571
1769661767762160000,9.34016015625,-0.006502597592771053,-0.004885440692305565,0.0012726524146273732
1769661767772148200,9.350148193359376,-0.004777415189892054,-0.012171229347586632,0.0025106428656727076
1769661767782136300,9.36013623046875,-0.0016015955479815602,-0.007293649949133396,0.0019468516111373901
1769661767792124200,9.370124267578126,-0.0011704337084665895,0.00031595025211572647,-0.0006314993370324373
1769661767802112000,9.380112060546875,0.0007355905836448073,0.0012166313827037811,-0.005404683295637369
1769661767812100000,9.39010009765625,0.004503869451582432,0.004283529706299305,-0.004214611370116472
1769661767822088200,9.400088134765625,-0.0004986121784895658,0.005538943689316511,-0.0011162895243614912
1769661767832077300,9.410077392578126,-0.0003410046920180321,0.0011368365958333015,0.0009190156124532223
1769661767842065200,9.420065185546875,-0.0017974874936044216,0.00039088516496121883,0.003375781700015068
1769661767852053200,9.43005322265625,-0.002768060192465782,-0.0013920851051807404,0.00564917828887701
1769661767862041300,9.440041259765625,-0.000717426068149507,-0.0015196504537016153,0.006637477315962315
1769661767872029200,9.450029296875,0.0019012714037671685,0.003570557339116931,0.006715944968163967
1769661767882017000,9.46001708984375,0.0028770538046956062,0.0006898159626871347,-0.004077047575265169
1769661767892005000,9.470005126953126,0.003316354937851429,-0.006542665883898735,-0.016785113140940666
1769661767901993200,9.4799931640625,0.0005932726198807359,-0.005746913142502308,-0.012631380930542946
1769661767911981000,9.48998095703125,0.001759542035870254,-0.00016755214892327785,-0.0017488531302660704
1769661767921969200,9.49996923828125,0.0004551258170977235,-0.000956646865233779,0.003596377559006214
1769661767931957200,9.509957275390626,0.0017708750674501061,-0.0020972632337361574,0.005135808140039444
1769661767941945000,9.519945068359375,0.0016403802437707782,0.004805117845535278,0.004198375623673201
1769661767951933200,9.52993310546875,0.0015407167375087738,0.011709548532962799,0.006520120892673731
1769661767961921300,9.53992138671875,0.0012365838047116995,0.011559613049030304,0.0016132466262206435
1769661767971909400,9.549909423828124,-0.0020052208565175533,0.006830984726548195,-0.0033847088925540447
1769661767981898000,9.55989794921875,-0.002105888444930315,-0.007123979739844799,-0.007623129989951849
1769661767991886000,9.569885986328124,-0.0022635727655142546,-0.000824569258838892,-0.001545514678582549
1769661768001874200,9.579874267578125,-0.00586736248806119,0.008150016888976097,-0.000014729797840118408
1769661768011862300,9.5898623046875,-0.010632810182869434,0.01266935933381319,0.0009443260496482253
1769661768021850000,9.59985009765625,-0.008869797922670841,0.006341421976685524,0.007500495761632919
1769661768031838200,9.609838134765624,-0.009208590723574162,-0.003393858438357711,0.014200793579220772
1769661768041826300,9.619826416015625,-0.004736344795674086,-0.0046016015112400055,0.01368067879229784
1769661768051814100,9.629814208984374,-0.0034829319920390844,0.0008567546028643847,0.006874367594718933
1769661768061802200,9.63980224609375,-0.0025787889026105404,0.004021122585982084,-0.0001340070739388466
1769661768071790300,9.649790283203124,-0.0017887931317090988,0.015566528774797916,-0.0049652159214019775
1769661768081778200,9.659778076171875,-0.0012915809638798237,0.0254316758364439,-0.003617922542616725
1769661768091766300,9.669766357421874,-0.0014479178935289383,0.02620350383222103,-0.0032858802005648613
1769661768101754000,9.679754150390625,-0.0011826669797301292,0.019109906628727913,-0.010631144978106022
1769661768111742200,9.6897421875,-0.004625314846634865,0.025006061419844627,-0.01568198949098587
1769661768121730300,9.699730224609375,-0.006719358265399933,0.025214320048689842,-0.017740080133080482
1769661768131719400,9.709719482421875,-0.007393764331936836,0.015053919516503811,-0.018920879811048508
1769661768141707300,9.719707275390626,-0.006560194306075573,0.010609103366732597,-0.01628914475440979
1769661768151695400,9.7296953125,-0.010113035328686237,0.011235163547098637,-0.009709104895591736
1769661768161683200,9.73968310546875,-0.009090914390981197,0.007760270498692989,-0.006640876643359661
1769661768171671000,9.749671142578125,-0.008242928422987461,0.009079323150217533,-0.00500352680683136
1769661768181659100,9.7596591796875,-0.0077539728954434395,0.011184551753103733,-0.007084786891937256
1769661768191647200,9.769647216796875,-0.006256735883653164,0.012062286958098412,-0.007045848295092583
1769661768201635300,9.77963525390625,-0.007475664839148521,0.010025767609477043,-0.00792762078344822
1769661768211623200,9.789623046875,-0.009022117592394352,0.009735427796840668,-0.00818745419383049
1769661768221611300,9.799611328125,-0.010167542845010757,0.011599107645452023,-0.007866276428103447
1769661768231599400,9.809599365234375,-0.008769726380705833,0.015885265544056892,-0.007411542348563671
1769661768241587200,9.819587158203126,-0.0070900702849030495,0.017348406836390495,-0.010248075239360332
1769661768251575300,9.8295751953125,-0.007953865453600883,0.015077853575348854,-0.007577651180326939
1769661768261563400,9.8395634765625,-0.007207647431641817,0.012851450592279434,-0.0041067530401051044
1769661768271551500,9.849551513671875,-0.008566169068217278,0.013651253655552864,-0.010726134292781353
1769661768281540000,9.8595400390625,-0.00749717652797699,0.013037927448749542,-0.022123929113149643
1769661768291528200,9.869528076171875,-0.008025281131267548,0.01663479395210743,-0.02692161500453949
1769661768301516300,9.879516357421876,-0.007514487020671368,0.01976320892572403,-0.025012128055095673
1769661768311504400,9.88950439453125,-0.006886057555675507,0.018124837428331375,-0.02117648907005787
1769661768321492200,9.8994921875,-0.006862355396151543,0.011580385267734528,-0.012393382377922535
1769661768331480300,9.909480224609375,-0.007734884042292833,0.003924085292965174,-0.0023365584202110767
1769661768341468400,9.919468505859374,-0.00860041193664074,-0.0065980637446045876,0.005068360827863216
1769661768351456300,9.929456298828125,-0.011578675359487534,-0.009260328486561775,0.004703891463577747
1769661768361444400,9.9394443359375,-0.013555539771914482,-0.01196876261383295,0.001848982647061348
1769661768371432200,9.94943212890625,-0.013161740265786648,-0.01285985205322504,-0.0005511634517461061
1769661768381420300,9.959420166015626,-0.011436810716986656,-0.011043842881917953,-0.002444138517603278
1769661768391408000,9.969408203125,-0.008641714230179787,-0.006868511438369751,-0.0038454055320471525
1769661768401396200,9.979396240234376,-0.006065638270229101,-0.00246417592279613,-0.00591548066586256
1769661768411384300,9.98938427734375,-0.005262577906250954,0.0024309642612934113,-0.005092686042189598
1769661768421372200,9.9993720703125,-0.003386913798749447,0.008031858131289482,-0.009484505280852318
1769661768431361300,10.009361328125,-0.0018431443022564054,0.010989749804139137,-0.014708557166159153
1769661768441349400,10.019349365234374,0.0016458631725981832,0.013654242269694805,-0.01760075055062771
1769661768451337200,10.029337158203125,0.0020888042636215687,0.01847841776907444,-0.013796219602227211
1769661768461325000,10.039324951171874,0.004144498147070408,0.019404131919145584,-0.008472294546663761
1769661768471313200,10.049313232421875,0.005523691885173321,0.016891315579414368,-0.003233263036236167
1769661768481301200,10.05930126953125,0.005852059461176395,0.014574364759027958,0.0018288736464455724
1769661768491289300,10.069289306640625,0.005429896526038647,0.011523811146616936,0.0015043525490909815
1769661768501277200,10.079277099609374,0.006413135211914778,0.005913862492889166,0.004429834894835949
1769661768511265300,10.089265380859375,0.0029498115181922913,0.001989412121474743,0.007391413673758507
1769661768521253400,10.09925341796875,0.004330394323915243,0.0025683834683150053,0.008707547560334206
1769661768531241200,10.1092412109375,0.0044983369298279285,0.001524620340205729,0.007175399921834469
1769661768541229300,10.119229248046874,0.00716948788613081,0.00426474679261446,0.004960981197655201
1769661768551217400,10.129217529296875,0.01049633976072073,0.00861030351370573,0.004474871791899204
1769661768561205200,10.139205322265624,0.011871064081788063,0.013389878906309605,0.001483609084971249
1769661768571193300,10.149193359375,0.011088840663433075,0.01562303677201271,-0.00043055228888988495
1769661768581182200,10.15918212890625,0.009815316647291183,0.01658257283270359,-0.0027586878277361393
1769661768591170300,10.16917041015625,0.007080848328769207,0.014832647517323494,-0.004418578930199146
1769661768601158400,10.179158447265625,0.007524530403316021,0.008109496906399727,-0.005200482904911041
1769661768611146200,10.189146240234376,0.007179719395935535,0.0046967389062047005,-0.002893926575779915
1769661768621134300,10.19913427734375,0.007099557667970657,0.004975571762770414,0.0006741767283529043
1769661768631122400,10.209122314453126,0.008317558094859123,0.009207437746226788,0.001375130726955831
1769661768641110300,10.2191103515625,0.00919613428413868,0.009844465181231499,0.0027541154995560646
1769661768651098400,10.229098388671876,0.008923969231545925,0.008529841899871826,0.0022578174248337746
1769661768661086200,10.239086181640625,0.009602010250091553,0.008260596543550491,-0.0010631443001329899
1769661768671074000,10.249073974609376,0.007884688675403595,0.0076704565435647964,-0.0007953753229230642
1769661768681062100,10.259062255859375,0.008257531560957432,0.004893045872449875,-0.0016411955002695322
1769661768691050200,10.26905029296875,0.007565638516098261,0.0033473907969892025,0.0018996840808540583
1769661768701038300,10.279038330078125,0.0077025252394378185,0.006550640799105167,-0.00014216150157153606
1769661768711026200,10.289026123046876,0.007331707514822483,0.009987379424273968,0.0050272708758711815
1769661768721014300,10.29901416015625,0.006127959117293358,0.010160218924283981,0.005034727975726128
1769661768731003400,10.30900341796875,0.005856866482645273,0.0114844786003232,0.0016987582203000784
1769661768740991200,10.3189912109375,0.005610790569335222,0.009734781458973885,-0.002259231638163328
1769661768750979000,10.32897900390625,0.0034556060563772917,0.007607742212712765,-0.004678893834352493
1769661768760967200,10.33896728515625,0.0033512103836983442,0.0013996473280712962,-0.0013195828069001436
1769661768770955300,10.348955322265626,0.001553827547468245,-0.004686388187110424,0.002212989144027233
1769661768780943000,10.358943115234375,-0.0015841751592233777,-0.014306524768471718,0.0057448735460639
1769661768790931200,10.36893115234375,-0.0013605793938040733,-0.019289059564471245,0.008072921074926853
1769661768800919300,10.378919189453125,-0.0008953252108767629,-0.020507987588644028,0.01157524436712265
1769661768810907400,10.388907470703124,-0.0014937415253371,-0.01987384632229805,0.012733926996588707
1769661768820895200,10.398895263671875,-0.0014990678755566478,-0.015227962285280228,0.01236348133534193
1769661768830883300,10.40888330078125,-0.0013173785991966724,-0.01530937384814024,0.008131450042128563
1769661768840871400,10.418871337890625,-0.0023786481469869614,-0.015412970446050167,0.0032091294415295124
1769661768850859300,10.428859375,-0.0007739136926829815,-0.017444320023059845,0.001383877475745976
1769661768860847400,10.438847412109375,-0.002188584767282009,-0.02132987231016159,-0.0007461188361048698
1769661768870836200,10.448836181640624,0.0001586448634043336,-0.025548847392201424,-0.0021313352044671774
1769661768880824300,10.45882421875,-0.0008552205981686711,-0.029464758932590485,0.000053522177040576935
1769661768890812200,10.468812255859374,0.0012801018310710788,-0.033314891159534454,-0.002002704655751586
1769661768900800300,10.47880029296875,-0.003291746601462364,-0.03875572979450226,-0.0007171966135501862
1769661768910788400,10.488788330078124,-0.0022265349980443716,-0.04216452315449715,-0.0007163239642977715
1769661768920776400,10.4987763671875,-0.005908088758587837,-0.047619208693504333,0.0020360532216727734
1769661768930764300,10.508764404296874,-0.00409174058586359,-0.05492710694670677,0.002924846252426505
1769661768940752400,10.51875244140625,-0.004342610482126474,-0.05398993939161301,0.004754171706736088
1769661768950740200,10.528740234375,-0.001857953262515366,-0.048792820423841476,0.006589836440980434
1769661768960728000,10.53872802734375,0.0008648624643683434,-0.04124489054083824,0.008834348991513252
1769661768970716200,10.548716064453124,0.001449089264497161,-0.03328414633870125,0.009820707142353058
1769661768980704300,10.558704345703125,0.0032413965091109276,-0.024250168353319168,0.007902432233095169
1769661768990692400,10.5686923828125,0.004528461955487728,-0.013534413650631905,0.0026838956400752068
1769661769000680200,10.57868017578125,0.007480309810489416,-0.005426952615380287,-0.005714116618037224
1769661769010669300,10.58866943359375,0.00601637689396739,-0.0019659961108118296,-0.006815214641392231
1769661769020657400,10.598657470703126,0.0037377760745584965,0.0012622876092791557,-0.004871106706559658
1769661769030645200,10.608645263671875,-0.0011093909852206707,0.003175671212375164,-0.00348558253608644
1769661769040633000,10.618633056640626,-0.0024974304251372814,0.004969576373696327,-0.006125840358436108
1769661769050621200,10.62862109375,-0.0018148497911170125,-0.000678276177495718,-0.013391627930104733
1769661769060609300,10.638609375,-0.0014188376953825355,0.002249070443212986,-0.015984749421477318
1769661769070597000,10.64859716796875,-0.0022499756887555122,0.008226657286286354,-0.014335867948830128
1769661769080585200,10.658585205078126,0.0007447489770129323,0.01613917574286461,-0.011144069023430347
1769661769090573300,10.6685732421875,0.0014796294271945953,0.027149641886353493,-0.006621484644711018
1769661769100561400,10.6785615234375,0.0018527384381741285,0.03844916820526123,0.001140032080002129
1769661769110549200,10.68854931640625,0.0014295052969828248,0.052008792757987976,0.00672234408557415
1769661769120537300,10.698537353515626,0.0018106036586686969,0.05636226385831833,0.007677619345486164
1769661769130525400,10.708525390625,0.0024195073638111353,0.054533544927835464,0.010645476169884205
1769661769140513300,10.71851318359375,0.0011981816496700048,0.054952457547187805,0.007836107164621353
1769661769150502100,10.728502197265625,-0.00002836680505424738,0.050287824124097824,0.011128479614853859
1769661769160490200,10.738490234375,0.0002547273179516196,0.04820869490504265,0.012385491281747818
1769661769170478300,10.748478271484375,0.008433300070464611,0.04788205772638321,0.007069472223520279
1769661769180466200,10.758466064453126,-0.00622447207570076,0.0367463156580925,0.030444303527474403
1769661769190454300,10.768454345703125,-0.02129407413303852,0.031440962105989456,0.036527734249830246
1769661769200442400,10.7784423828125,-0.03388283774256706,0.008764944970607758,0.0056326668709516525
1769661769210430200,10.78843017578125,-0.03308570384979248,-0.04272573068737984,-0.012071406468749046
1769661769220418300,10.798418212890626,-0.0278983972966671,-0.06449200958013535,-0.012481532990932465
1769661769230406400,10.808406494140625,-0.027680128812789917,-0.04503200948238373,0.009004433639347553
1769661769240394200,10.818394287109374,-0.019972940906882286,-0.04147615656256676,0.018796609714627266
1769661769250382000,10.828382080078125,-0.004248091019690037,-0.016793660819530487,0.027000924572348595
1769661769260370200,10.8383701171875,0.007559832185506821,0.01321510411798954,0.03860059008002281
1769661769270358300,10.848358154296875,0.014598406851291656,0.03165947273373604,0.0399949885904789
1769661769280346000,10.85834619140625,0.017006702721118927,0.05846711993217468,0.025295935571193695
1769661769290335200,10.868335205078125,0.018388407304883003,0.0738498866558075,0.0020518694072961807
1769661769300323300,10.8783232421875,0.01777428202331066,0.05816492810845375,-0.01619557850062847
1769661769310311400,10.8883115234375,0.011145568452775478,0.02809537574648857,-0.026501240208745003
1769661769320299300,10.89829931640625,0.006637102924287319,0.0013867986854165792,-0.01891096495091915
1769661769330287000,10.908287109375,0.0010184223065152764,-0.013880179263651371,-0.0008289611432701349
1769661769340275200,10.918275146484374,-0.00043113622814416885,-0.02166353352367878,0.01897750049829483
1769661769350263300,10.92826318359375,-0.0027009351179003716,-0.02036959119141102,0.02744406834244728
1769661769360251100,10.938251220703124,-0.0018402014393359423,-0.011059978976845741,0.027831025421619415
1769661769370239200,10.9482392578125,0.0012716322671622038,-0.004163761623203754,0.017645180225372314
1769661769380227300,10.958227294921874,0.0006849379278719425,-0.004601852037012577,0.0020550356712192297
1769661769390215200,10.968215087890625,-0.0005116772372275591,-0.005934311076998711,-0.004739755764603615
1769661769400203300,10.978203369140624,0.0013671828201040626,-0.01534192729741335,-0.006976810749620199
1769661769410191400,10.98819140625,0.005310320295393467,-0.010679229162633419,-0.003186273155733943
1769661769420179500,10.998179443359374,0.009421974420547485,0.006230778992176056,0.0005464134737849236
1769661769430168000,11.00816796875,0.014435907825827599,0.029154203832149506,0.004926781170070171
1769661769440156200,11.01815625,0.017505202442407608,0.04631081968545914,0.005143029615283012
1769661769450144300,11.028144287109376,0.017319954931735992,0.0501689687371254,0.004390507936477661
1769661769460132400,11.03813232421875,0.01952771656215191,0.045104969292879105,-0.0018322344403713942
1769661769470120200,11.0481201171875,0.018024412915110588,0.03917960450053215,-0.004957572091370821
1769661769480108300,11.0581083984375,0.012562536634504795,0.03184046596288681,-0.004922152031213045
1769661769490096400,11.068096435546876,0.007528780028223991,0.027797935530543327,-0.003219125559553504
1769661769500084200,11.078084228515625,0.006688286550343037,0.02744133770465851,-0.0025397527497261763
1769661769510072300,11.088072265625,0.006182823795825243,0.025828352198004723,-0.0038021139334887266
1769661769520060400,11.098060302734375,0.0028568021953105927,0.019826384261250496,0.0002855719067156315
1769661769530048300,11.10804833984375,0.0015982936602085829,0.014641990885138512,0.002060086466372013
1769661769540036000,11.1180361328125,-0.00039481616113334894,0.006624277681112289,0.0035807513631880283
1769661769550024200,11.128024169921876,-0.0038518651854246855,-0.0003866273909807205,0.004543137736618519
1769661769560013300,11.138013427734375,-0.002165817888453603,-0.0034420720767229795,0.005552475806325674
1769661769570001400,11.14800146484375,-0.003746029455214739,-0.005502798594534397,0.0041197845712304115
1769661769579989200,11.1579892578125,-0.003705815877765417,-0.008731349371373653,0.0020334641449153423
1769661769589977300,11.167977294921876,-0.0019393437542021275,-0.009764877147972584,0.0028400758747011423
1769661769599965400,11.17796533203125,-0.0008975152159109712,-0.011067962273955345,0.00716371787711978
1769661769609953300,11.187953369140626,-0.0008685406064614654,-0.009168942458927631,0.013090843334794044
1769661769619941000,11.197941162109375,0.0028098172042518854,-0.005008285865187645,0.017588123679161072
1769661769629929200,11.20792919921875,0.003594066947698593,0.004737028386443853,0.01201383676379919
1769661769639917300,11.217917236328125,0.00581327872350812,0.011402120813727379,0.009167716838419437
1769661769649905200,11.2279052734375,0.00196783896535635,0.017176272347569466,0.007905674166977406
1769661769659893200,11.237893310546875,0.004167876671999693,0.008399026468396187,0.009476141072809696
1769661769669881300,11.24788134765625,0.0023942049592733383,0.003899970091879368,0.011068858206272125
1769661769679869200,11.257869140625,0.0029084612615406513,-0.0006817320827394724,0.0065164510160684586
1769661769689857300,11.267857177734374,0.0021160105243325233,-0.008773942478001118,0.00507650850340724
1769661769699846100,11.27784619140625,0.0034049805253744125,-0.01562518998980522,0.0059830485843122005
1769661769709834200,11.287834228515624,0.006261222530156374,-0.016399415209889412,0.010156282223761082
1769661769719822000,11.297822021484375,0.008757669478654861,-0.017803966999053955,0.01841820776462555
1769661769729810200,11.30781005859375,0.009181217290461063,-0.01930343359708786,0.028271542862057686
1769661769739798300,11.31779833984375,0.0067777144722640514,-0.026567472144961357,0.038006462156772614
1769661769749786400,11.327786376953124,0.007145071402192116,-0.03892979398369789,0.044832970947027206
1769661769759774200,11.337774169921875,0.009369876235723495,-0.05283522233366966,0.04617973044514656
1769661769769762300,11.34776220703125,0.009728922508656979,-0.06085977703332901,0.04385772719979286
1769661769779750400,11.35775048828125,0.012015512213110924,-0.06632325798273087,0.04057085141539574
1769661769789738200,11.36773828125,0.015281349420547485,-0.06620145589113235,0.0402628630399704
1769661769799726300,11.377726318359375,0.02037171460688114,-0.053032658994197845,0.03709663450717926
1769661769809714400,11.38771435546875,0.026768790557980537,-0.03310283273458481,0.03700011596083641
1769661769819702300,11.397702392578125,0.03242321312427521,-0.0130138099193573,0.038057923316955566
1769661769829690000,11.407690185546874,0.03781142458319664,-0.0007083371747285128,0.040532298386096954
1769661769839679200,11.41767919921875,0.042307108640670776,0.011674029752612114,0.04352675750851631
1769661769849667300,11.427667236328125,0.045347750186920166,0.017580639570951462,0.03998372703790665
1769661769859655400,11.437655517578126,0.04681754857301712,0.020848603919148445,0.0330299474298954
1769661769869643300,11.447643310546875,0.04227045923471451,0.016799354925751686,0.026697471737861633
1769661769879631400,11.45763134765625,0.039783600717782974,0.00429261801764369,0.022134412080049515
1769661769889619500,11.467619384765625,0.03529202938079834,-0.005793632939457893,0.02266858145594597
1769661769899607300,11.477607177734376,0.02939499355852604,-0.02273399941623211,0.0278492271900177
1769661769909595100,11.48759521484375,0.019311988726258278,-0.03705386444926262,0.03204606845974922
1769661769919583200,11.497583251953126,0.01092622708529234,-0.0436348021030426,0.030536320060491562
1769661769929571000,11.507571044921875,0.0033495971001684666,-0.050806477665901184,0.026548422873020172
1769661769939559200,11.51755908203125,-0.001147683011367917,-0.04956704378128052,0.02142636477947235
1769661769949547300,11.52754736328125,-0.005336835514754057,-0.04078739881515503,0.017191939055919647
1769661769959535400,11.537535400390626,-0.00229284237138927,-0.026990097016096115,0.017062243074178696
1769661769969523200,11.547523193359375,-0.0000916945282369852,-0.009405919350683689,0.0124867744743824
1769661769979512300,11.55751220703125,0.003497181460261345,0.006741093471646309,0.00856899842619896
1769661769989500200,11.567500244140625,0.003064757212996483,0.009744200855493546,0.0016464110231027007
1769661769999488300,11.57748828125,0.004352129530161619,0.009963378310203552,-0.0013845327775925398
1769661770009476000,11.58747607421875,0.004228111356496811,0.007040627300739288,-0.006616372615098953
1769661770019464200,11.597464111328126,0.004788707010447979,0.008301634341478348,-0.009424409829080105
1769661770029452300,11.607452392578125,0.0034356708638370037,0.015954654663801193,-0.008222629316151142
1769661770039440100,11.617440185546876,0.003940073773264885,0.022115079686045647,-0.008602929301559925
1769661770049428200,11.62742822265625,0.004888307768851519,0.021775586530566216,-0.011783640831708908
1769661770059416300,11.637416259765626,0.0060102976858615875,0.015554443001747131,-0.015039355494081974
1769661770069404400,11.647404296875,0.003651696490123868,0.012286095879971981,-0.007271413691341877
1769661770079392300,11.657392333984374,0.001370166428387165,0.008495884947478771,-0.0009711738675832748
1769661770089380900,11.667380859375,-0.0032105762511491776,0.002136585069820285,0.0053653353825211525
1769661770099368700,11.67736865234375,-0.0053640082478523254,-0.005267801694571972,0.005336040630936623
1769661770109357800,11.68735791015625,-0.004839045461267233,-0.006688961759209633,-0.0017369017004966736
1769661770119345700,11.697345703125,-0.0037343662697821856,-0.011059742420911789,-0.008122362196445465
1769661770129333800,11.707333740234375,-0.005385722033679485,-0.013049883767962456,-0.016155309975147247
1769661770139321900,11.71732177734375,-0.005759363528341055,-0.011853856965899467,-0.01575184054672718
1769661770149310000,11.72731005859375,-0.006311552599072456,-0.0028725091833621264,-0.01625496707856655
1769661770159297800,11.7372978515625,-0.005276115145534277,0.00470791244879365,-0.013857323676347733
1769661770169286000,11.747285888671875,-0.0015423722798004746,0.010003296658396721,-0.014460033737123013
1769661770179273700,11.757273681640624,-0.0003253077156841755,0.018170678988099098,-0.009711084887385368
1769661770189261600,11.767261474609375,0.0024108756333589554,0.02433810755610466,-0.003626022022217512
1769661770199249700,11.777249755859375,0.0017080676043406129,0.021491721272468567,-0.0035091089084744453
1769661770209237800,11.78723779296875,-0.0008268347010016441,0.014221308752894402,-0.005005160346627235
1769661770219225600,11.7972255859375,-0.003940869122743607,0.0064880214631557465,-0.00879137683659792
1769661770229214700,11.807214599609376,-0.005867772735655308,0.00005073496140539646,-0.009554541669785976
1769661770239202800,11.817202880859375,-0.005611842963844538,-0.005581584759056568,-0.008884756825864315
1769661770249191000,11.82719091796875,-0.00687640905380249,-0.006049881689250469,-0.005476524122059345
1769661770259178800,11.8371787109375,-0.003883548779413104,-0.0006564478389918804,0.003095392370596528
1769661770269166600,11.84716650390625,-0.003660965710878372,0.007317685522139072,0.0050011128187179565
