time,seconds_elapsed,acc_z,acc_y,acc_x,gyro_z,gyro_y,gyro_x
1.76966E+18,0.071253662,0.018624621,-0.026375966,-0.039994449,0.004016501,0.012129687,-0.014991982
1.76966E+18,0.081241699,-0.013795301,-0.052534489,-0.038318625,0.003626179,0.016929569,-0.014517101
1.76966E+18,0.091229736,-0.018406156,-0.057706924,-0.060719842,0.007427841,0.028581165,-0.013018541
1.76966E+18,0.101217773,-0.040225043,-0.057657824,-0.072655779,0.010307151,0.04169561,-0.011519572
1.76966E+18,0.111205811,-0.069183426,-0.064106269,-0.068377955,0.011328739,0.048821166,-0.012796025
1.76966E+18,0.121193848,-0.054690791,-0.063307228,-0.020517011,0.014572135,0.048397012,-0.019507026
1.76966E+18,0.131181641,-0.044536549,-0.052379007,0.000973229,0.013614195,0.05598782,-0.02534654
1.76966E+18,0.141169678,-0.043781274,-0.059984221,0.003228607,0.011073588,0.06131937,-0.032411754
1.76966E+18,0.151157959,-0.038182139,-0.038199675,0.001426233,0.012035522,0.054661468,-0.032922816
1.76966E+18,0.161145996,-0.048033744,-0.034862639,-0.029491175,0.017925493,0.044456504,-0.036629789
1.76966E+18,0.171133545,-0.031883404,-0.04016776,-0.046999067,0.018216576,0.05211043,-0.035673447
1.76966E+18,0.181121582,-0.054516019,-0.023225977,-0.027504093,0.017434523,0.076198258,-0.025499636
1.76966E+18,0.191109863,-0.077858316,-0.037094344,-0.013042437,0.016979655,0.077972718,-0.018869964
1.76966E+18,0.201097656,-0.025526875,-0.054921092,0.016621757,0.015292276,0.068038598,-0.017777534
1.76966E+18,0.211085693,0.009047814,-0.063235916,0.070667527,0.014874693,0.065663055,-0.024371522
1.76966E+18,0.22107373,0.055199836,-0.055202832,0.108114922,0.012027144,0.056908909,-0.032055046
1.76966E+18,0.231061768,0.081894439,-0.04329729,0.06024784,0.008947197,0.037254516,-0.037309196
1.76966E+18,0.241049805,0.080720719,-0.027432781,0.044828737,0.009516269,0.029980423,-0.03707571
1.76966E+18,0.251037842,0.018087957,-0.039086394,0.026655367,0.009686179,0.038125701,-0.026156217
1.76966E+18,0.261025879,-0.05131335,-0.026717327,0.000403028,0.004957587,0.039765749,-0.014520873
1.76966E+18,0.271013672,-0.036593993,-0.037624505,-0.003345803,-0.003131232,0.034427974,-0.001323579
1.76966E+18,0.281001953,-0.005043328,-0.092384854,0.031777533,-0.025986912,0.022755099,0.011794208
1.76966E+18,0.290990723,0.058298387,-0.089194533,0.146381232,-0.028512919,-0.004940443,0.014296248
1.76966E+18,0.30097876,0.178559162,-0.033693595,0.170618432,-0.013849459,-0.024320733,-0.002790822
1.76966E+18,0.310966553,0.148095635,-0.033595396,-0.005420856,-0.004667678,-0.021039985,-0.014700745
1.76966E+18,0.320954834,-0.085574005,-0.048415948,-0.094674426,-0.005558093,0.001879948,0.000269073
1.76966E+18,0.330942871,-0.223719324,-0.001201777,-0.026570027,-0.0043879,0.009614301,0.016300237
1.76966E+18,0.340930908,-0.118991121,0.015303368,0.050098202,-0.0029,0.011555876,0.015153755
1.76966E+18,0.350918701,0.009176994,-0.049096332,0.024476854,0.00334458,0.012740716,-0.003613008
1.76966E+18,0.360906982,0.045888549,-0.074037881,-0.011612989,0.007294271,0.008397367,-0.012146547
1.76966E+18,0.370894775,-0.024826398,-0.098840313,-0.02425269,0.009290044,0.007343288,-0.012918863
1.76966E+18,0.380882568,-0.042556116,-0.094837508,0.000970306,0.01202257,0.010127356,-0.016661515
1.76966E+18,0.390870605,-0.014024434,-0.059841013,-0.000391045,0.01469958,0.02005429,-0.022629926
1.76966E+18,0.400858643,-0.002206497,-0.023566754,0.028323885,0.009104249,0.042137597,-0.020952335
1.76966E+18,0.410846924,-0.009246552,-0.050108139,0.05726181,0.002221576,0.05282566,-0.014115201
1.76966E+18,0.420834717,0.0243845,-0.066091306,0.063095046,-0.006280251,0.042067986,-0.012245509
1.76966E+18,0.430822754,0.074781392,-0.070084175,0.033013212,-0.010769807,0.025322562,-0.015066596
1.76966E+18,0.440810791,0.086945293,-0.109538233,0.012151918,-0.011187755,0.014160391,-0.020757012
1.76966E+18,0.450798828,0.051829045,-0.07394728,-0.006092472,-0.005499243,0.006286755,-0.030262901
1.76966E+18,0.460786865,-0.008678396,-0.036382981,-0.016083704,0.003027981,0.001648226,-0.039481811
1.76966E+18,0.470774902,0.044420083,-0.094857966,-0.034482992,0.006220578,0.003256243,-0.06611076
1.76966E+18,0.480762695,-0.093549806,-0.013690087,-0.026359599,0.015892357,0.034741491,-0.068526275
1.76966E+18,0.490750732,-0.09327625,0.019798341,-0.026829555,0.01882796,0.068460576,-0.066995755
1.76966E+18,0.50073877,-0.091914241,0.027820904,-0.061361939,0.025051983,0.092310667,-0.043764982
1.76966E+18,0.510726807,-0.111525681,0.045662266,-0.07315876,0.031320795,0.071330279,-0.033234313
1.76966E+18,0.5207146,0.017731983,-0.1402344,-0.023252573,0.025265668,0.052611202,-0.02394907
1.76966E+18,0.530702637,0.022206571,-0.199388015,0.035994858,0.016784033,0.045351423,-0.022859572
1.76966E+18,0.540690918,0.033825113,-0.118607675,0.076101535,0.009621075,0.037216231,-0.028922597
1.76966E+18,0.550678711,0.053814519,-0.053375032,0.084059801,0.005333119,0.022692949,-0.038670566
1.76966E+18,0.560666748,0.039382747,-0.026623803,0.073903148,0.003635207,0.020829305,-0.045861024
1.76966E+18,0.570655762,-0.014074703,-0.019451135,0.049217328,0.002856233,0.027285073,-0.055199664
1.76966E+18,0.580643799,-0.025147301,-0.035103462,0.033471185,0.003110711,0.030139681,-0.065840669
1.76966E+18,0.590631592,-0.009665654,-0.047865329,0.011445815,0.001328524,0.021344857,-0.070098527
1.76966E+18,0.600619629,0.023159342,-0.077957684,-0.006660627,0.001017297,0.018409053,-0.07055416
1.76966E+18,0.610607666,0.0426549,-0.097444475,-0.018400749,-0.004335657,0.030023366,-0.089186162
1.76966E+18,0.620595947,0.049828153,-0.090619598,-0.00864011,-0.009002872,0.058467325,-0.127771229
1.76966E+18,0.63058374,-0.035480552,-0.036175475,-0.017379882,-0.002302359,0.047627993,-0.143015698
1.76966E+18,0.640571777,-0.087829017,0.005868015,-0.060747314,0.002612073,0.032963332,-0.144463539
1.76966E+18,0.650558838,-0.085847561,-0.025144378,-0.084538524,0.004981221,0.043199722,-0.143648088
1.76966E+18,0.660546875,-0.047361544,-0.107031219,-0.032064825,0.012524696,0.033871334,-0.164633587
1.76966E+18,0.670535156,0.011301146,-0.057650809,0.066269292,0.059278086,0.043736216,-0.188581526
1.76966E+18,0.680522949,-0.055905427,-0.086660631,0.080627488,0.056986872,0.044083424,-0.216678187
1.76966E+18,0.690510986,-0.012322817,0.036323359,-0.194173496,0.045455385,0.04977034,-0.228571877
1.76966E+18,0.700499023,-0.156534304,0.043936172,-0.054090194,0.046408504,0.076533578,-0.220476776
1.76966E+18,0.710486816,-0.232670034,0.010093524,-0.02453063,0.048592828,0.09456291,-0.221472532
1.76966E+18,0.720475098,-0.114796007,-0.022857144,-0.04057751,0.049400788,0.098495938,-0.235338613
1.76966E+18,0.730462891,0.01910455,-0.07129998,0.00834405,0.053553987,0.08887367,-0.260153145
1.76966E+18,0.740450928,0.053704045,-0.078874799,-0.033731297,0.048547432,0.070773132,-0.269793242
1.76966E+18,0.750438721,-0.017070962,-0.090357732,-0.008089198,0.044706356,0.071911894,-0.26634261
1.76966E+18,0.760427002,-0.064675594,-0.079485625,0.020574001,0.040511392,0.087194875,-0.243715972
1.76966E+18,0.770415039,-0.093302005,-0.092795773,-0.005372925,0.033358142,0.104369603,-0.21130529
1.76966E+18,0.780402832,-0.088194416,-0.035400984,-0.035194355,0.028289277,0.111129105,-0.173213765
1.76966E+18,0.790390869,-0.021608642,0.030660511,0.000530161,0.026499366,0.109908581,-0.137542576
1.76966E+18,0.800378906,0.047970542,0.033444589,-0.003845277,0.022373378,0.107108198,-0.107762784
1.76966E+18,0.810367188,0.096961112,-0.003372107,0.002942191,0.013891475,0.097199112,-0.077534042
1.76966E+18,0.82035498,0.132342222,-0.03140753,0.050514382,0.010717326,0.096613884,-0.055358246
1.76966E+18,0.830343018,0.168514738,-0.038674891,0.052670975,-0.000652507,0.074014038,-0.038808029
1.76966E+18,0.840331055,0.188662075,-0.017840193,0.037892508,-0.002712723,0.042307168,-0.02270427
1.76966E+18,0.850318604,0.16927458,-0.0073603,0.086572953,-0.006836628,0.011133268,-0.006849672
1.76966E+18,0.860307861,0.152118863,-0.007208908,0.028766953,-0.015622812,-0.007368445,0.007407294
1.76966E+18,0.870295898,0.124822969,-0.021749475,-0.000354805,-0.020643402,-0.013447643,0.017576842
1.76966E+18,0.880283936,0.09405191,-0.01314882,0.010364158,-0.017697196,-0.011616619,0.022618318
1.76966E+18,0.890271973,0.0764654,-0.014926351,0.003462708,-0.016958436,-0.002295556,0.020343179
1.76966E+18,0.90026001,0.042619245,-0.018754969,-0.046437926,-0.017271016,0.010394238,0.014677841
1.76966E+18,0.910248047,-0.001070881,-0.014008067,-0.063070496,-0.014336213,0.027113829,0.003392429
1.76966E+18,0.920236084,-0.025671544,-0.029062428,-0.081476798,-0.009369589,0.046859141,-0.01122677
1.76966E+18,0.930224121,-0.043584327,-0.043683074,-0.101323655,-0.007916568,0.066727653,-0.029997794
1.76966E+18,0.940211914,-0.093235918,-0.084714173,-0.14827596,-0.004736101,0.09022636,-0.04404936
1.76966E+18,0.950199951,-0.119382678,-0.109175245,-0.145978204,0.002008887,0.111881584,-0.058673043
1.76966E+18,0.960187744,-0.10254852,-0.125107558,-0.137337217,0.007111509,0.130540416,-0.079248205
1.76966E+18,0.970175781,-0.04943013,-0.108700029,-0.115486912,0.011905998,0.141851127,-0.097711898
1.76966E+18,0.980164063,-0.056513914,-0.090591541,-0.081418639,0.014833605,0.143175334,-0.108330607
1.76966E+18,0.990151855,-0.090832948,-0.077059859,-0.06260171,0.015309513,0.15035148,-0.111709893
1.76966E+18,1.000139893,-0.111724345,-0.044198038,-0.04051029,0.01597124,0.162279606,-0.107906215
1.76966E+18,1.01012793,-0.119558144,-0.055960372,-0.022001988,0.014606103,0.171048597,-0.100786254
1.76966E+18,1.020116211,-0.083518826,-0.060694415,0.021928339,0.013687433,0.160553649,-0.093592711
1.76966E+18,1.030104004,-0.021473562,-0.048215457,0.029306174,0.015227539,0.146054596,-0.088556938
1.76966E+18,1.040092041,0.036651879,-0.052470776,0.059455229,0.013029119,0.13023597,-0.088450454
1.76966E+18,1.050079834,0.066906732,-0.04984452,0.103130996,0.011728431,0.128642604,-0.082859948
1.76966E+18,1.060067627,0.076481785,-0.057899816,0.076834233,0.009275951,0.132872149,-0.076913528
1.76966E+18,1.070055908,0.093179237,-0.059979545,0.086894732,0.001320024,0.139825404,-0.075074084
1.76966E+18,1.080043945,0.108287356,-0.06427052,0.059737845,0.00148323,0.136023268,-0.066234849
1.76966E+18,1.090031982,0.126458388,-0.054967854,0.056038406,-0.002945074,0.125972763,-0.065199152
1.76966E+18,1.100019775,0.147573091,-0.071820789,0.022304771,-0.009959382,0.110405691,-0.062675536
1.76966E+18,1.110008057,0.119485627,-0.103418289,-0.016502222,-0.014246538,0.096032083,-0.060784958
1.76966E+18,1.119996094,0.092810988,-0.09721242,0.002761574,-0.015960285,0.093269631,-0.061331529
1.76966E+18,1.129983887,0.059781392,-0.097695235,0.028574645,-0.021302853,0.099346429,-0.068175584
1.76966E+18,1.139972656,-0.001971592,-0.075550623,0.016079028,-0.021938981,0.100380287,-0.070780031
1.76966E+18,1.149960938,-0.035804295,-0.042250411,-0.012834347,-0.025133977,0.09387099,-0.073717497
1.76966E+18,1.159948975,-0.060998366,-0.001183072,-0.01400193,-0.022526544,0.090468101,-0.071233951
1.76966E+18,1.169936768,-0.069624731,0.033395489,-0.007888123,-0.019741943,0.088305615,-0.068813667
1.76966E+18,1.179924805,-0.079372803,0.037035891,-0.050316521,-0.020493977,0.093933381,-0.063830361
1.76966E+18,1.189912842,-0.100486912,0.059313774,-0.083423256,-0.021261767,0.103444591,-0.059502732
1.76966E+18,1.199901123,-0.111202367,0.032788171,-0.054347676,-0.021872334,0.114880048,-0.054727998
1.76966E+18,1.209888916,-0.094126729,-0.013592472,-0.020949265,-0.015603519,0.131713897,-0.053323448
1.76966E+18,1.219876953,-0.068186817,-0.042277299,-0.00378741,-0.017924117,0.144056067,-0.054827701
1.76966E+18,1.22986499,-0.02662731,-0.080247257,-0.055710489,-0.012428419,0.127651528,-0.058624834
1.76966E+18,1.239853027,-0.027265608,-0.101812607,-0.020902211,-0.013088112,0.114332087,-0.061501507
1.76966E+18,1.249841064,0.011561843,-0.083051793,-0.016258476,-0.016238632,0.087405398,-0.068394035
1.76966E+18,1.259828857,0.044931029,-0.038691842,-0.017982816,-0.017717317,0.056018118,-0.068484351
1.76966E+18,1.269816895,-0.006164368,-0.044914662,0.013987901,-0.015323135,0.039133143,-0.06469734
1.76966E+18,1.279804688,0.0494412,-0.003714052,0.00896452,-0.014323575,0.031238832,-0.065460593
1.76966E+18,1.289792969,0.06936872,0.006814941,0.013814298,-0.014349142,0.01955368,-0.062488504
1.76966E+18,1.299781006,0.062862991,0.004398527,0.037338382,-0.015637096,0.01233981,-0.055702128
1.76966E+18,1.309768799,0.063053545,0.015262451,0.046293257,-0.012616804,0.006494705,-0.047893204
1.76966E+18,1.319756836,0.041913722,0.028372108,0.038479953,-0.018174337,-0.001633163,-0.039912131
1.76966E+18,1.329745117,0.101664723,0.048604749,0.062391867,-0.016470447,-0.010773664,-0.051594354
1.76966E+18,1.33973291,0.101274263,-0.012151041,0.122911217,-0.022219583,-0.012942434,-0.04606754
1.76966E+18,1.349720947,-0.044427171,-0.191610367,0.057231707,-0.031924944,-0.003053585,-0.036223434
1.76966E+18,1.359708984,-0.011447286,-0.134554016,0.098174543,-0.033359826,0.000338109,-0.034079656
1.76966E+18,1.369697266,0.113476732,-0.076920743,0.098330318,-0.034212302,-0.008279881,-0.041717336
1.76966E+18,1.379684814,0.211239197,-0.063686582,0.030309798,-0.031391319,-0.015637374,-0.052310802
1.76966E+18,1.389672852,0.200123928,-0.028365678,0.013707038,-0.028891675,-0.014891423,-0.054396588
1.76966E+18,1.399660889,0.150493335,-0.000502689,0.008114333,-0.033075426,-0.01508632,-0.047943652
1.76966E+18,1.409648682,0.133483766,-0.004268763,-0.020977614,-0.032332405,-0.012846868,-0.043498568
1.76966E+18,1.419636963,0.177768304,0.001681085,-0.036126668,-0.036627818,-0.014510769,-0.042416614
1.76966E+18,1.429625,0.195462951,-0.011453122,-0.032231998,-0.040029209,-0.018112428,-0.040645879
1.76966E+18,1.439614014,0.165237324,-0.041192427,0.000303075,-0.044304065,-0.022230575,-0.034941766
1.76966E+18,1.449601807,0.132658412,-0.030380525,0.023792964,-0.047532883,-0.031213153,-0.03160882
1.76966E+18,1.459590088,0.11063012,-0.010216274,0.024955578,-0.049950421,-0.050283719,-0.033446051
1.76966E+18,1.469577881,0.098704704,-0.008905776,0.044059214,-0.047448117,-0.070116811,-0.032174662
1.76966E+18,1.479565918,0.061510398,-0.031312838,-0.020617841,-0.052432276,-0.074807838,-0.024469299
1.76966E+18,1.489553711,0.043173956,-0.037507601,-0.0466013,-0.053520974,-0.067615442,-0.016012697
1.76966E+18,1.499541992,0.042389537,-0.045105801,-0.058220426,-0.053205803,-0.05281835,-0.01093211
1.76966E+18,1.509530029,0.038467386,-0.078682492,-0.089125267,-0.050978333,-0.034795407,-0.007069995
1.76966E+18,1.519517822,0.033362181,-0.102054015,-0.100411801,-0.045592111,-0.014911981,-0.01102448
1.76966E+18,1.529505859,0.027960011,-0.08092121,-0.121487906,-0.042929482,0.000573501,-0.015629353
1.76966E+18,1.539493896,0.032929625,0.010113982,-0.108403092,-0.036038801,0.006840187,-0.021288877
1.76966E+18,1.549482178,0.049248307,0.114378074,-0.142232004,-0.030911149,0.005721926,-0.021323232
1.76966E+18,1.559469971,0.094048394,0.241430921,-0.158946407,-0.029442219,-0.002698094,-0.038651995
1.76966E+18,1.569458008,0.175492176,0.375825948,-0.140935826,-0.029752742,-0.014553156,-0.04543747
1.76966E+18,1.579445801,0.022801021,0.169346513,-0.174473354,-0.038197994,-0.005031854,-0.036163658
1.76966E+18,1.589433838,-0.110842886,-0.025177111,-0.199869369,-0.044760022,0.027557781,-0.025386911
1.76966E+18,1.599421875,-0.120854595,-0.193787127,-0.149222593,-0.044673905,0.038179331,-0.021800127
1.76966E+18,1.609409912,-0.115219786,-0.30479777,-0.120075701,-0.043403577,0.045350689,-0.026178097
1.76966E+18,1.619397949,-0.131529097,-0.331677009,-0.063072542,-0.034789093,0.05022778,-0.041852668
1.76966E+18,1.629385742,-0.118683672,-0.269020355,-0.016179274,-0.021944933,0.039184719,-0.063852772
1.76966E+18,1.639374023,-0.06655832,-0.196067931,-0.005748188,-0.009409633,0.020469546,-0.087828107
1.76966E+18,1.649362061,-0.059525353,-0.108368605,-0.018655308,-0.003434566,0.022698879,-0.100655757
1.76966E+18,1.659350586,-0.081883333,0.001423895,0.018658523,-0.004514357,0.034590464,-0.100843705
1.76966E+18,1.669338867,-0.062283145,0.02291092,0.01229571,-0.0163585,0.048867669,-0.103605665
1.76966E+18,1.67932666,0.05005376,0.054565118,0.013808453,-0.036700614,0.07163462,-0.120618083
1.76966E+18,1.689314697,0.023784177,-0.010124504,0.126183371,-0.036292884,0.086785614,-0.131295756
1.76966E+18,1.69930249,-0.111017073,-0.243366858,0.191399939,-0.02208023,0.077131405,-0.133573771
1.76966E+18,1.709290527,-0.058261617,-0.270663446,0.195104639,-0.016936334,0.067245752,-0.145853341
1.76966E+18,1.719278809,0.05607439,-0.178781281,0.098760234,-0.023520414,0.06394352,-0.158662558
1.76966E+18,1.729266602,0.05411036,-0.138257547,0.123846452,-0.018590903,0.060513634,-0.164986491
1.76966E+18,1.739254639,0.041043995,-0.086329791,0.109041389,-0.016946789,0.057554595,-0.161545575
1.76966E+18,1.749243896,0.064369889,-0.066701546,0.00904723,-0.016037852,0.043198559,-0.157460555
1.76966E+18,1.759231689,0.147868841,-0.069914079,-0.001855565,-0.015222513,0.034817554,-0.158044666
1.76966E+18,1.769219482,0.170886143,-0.082191961,0.026113808,-0.013803048,0.053357683,-0.158509642
1.76966E+18,1.77920752,0.137299516,-0.097685883,0.018914252,-0.010308325,0.08091981,-0.160711139
1.76966E+18,1.789195557,0.134487965,-0.064652213,0.012696984,-0.004695713,0.090098388,-0.152586102
1.76966E+18,1.799183838,0.076433251,-0.027382512,0.043140638,0.001390696,0.08266364,-0.131352216
1.76966E+18,1.809171631,0.013563246,-0.024325463,0.046752983,0.001017853,0.07721854,-0.104040176
1.76966E+18,1.819159668,-0.024554705,-0.029431846,0.065353054,-0.002432828,0.071023799,-0.071231663
1.76966E+18,1.829147705,0.006781623,-0.090999537,0.1083499,-0.00837727,0.050111324,-0.051653966
1.76966E+18,1.839135498,0.059428304,-0.14308979,0.115297527,-0.013565517,0.029413503,-0.044485122
1.76966E+18,1.849123779,0.099199246,-0.097462595,0.129764152,-0.01836773,0.013312032,-0.052851707
1.76966E+18,1.859111816,0.090897867,-0.023147067,0.126806471,-0.025344392,0.001578148,-0.058814038
1.76966E+18,1.869099854,0.024782559,0.044435354,0.149466631,-0.027727654,-0.008804718,-0.04950336
1.76966E+18,1.879087646,-0.005445442,0.015374095,0.132822078,-0.032720499,-0.00417811,-0.039992258
1.76966E+18,1.889075684,0.043980559,-0.064216159,0.085315938,-0.031466417,0.013652553,-0.043707632
1.76966E+18,1.899063721,0.071034644,-0.135935826,0.056896192,-0.031499535,0.02254794,-0.057125665
1.76966E+18,1.909051514,0.060156655,-0.15763737,0.016949673,-0.028424917,0.026838025,-0.068469398
1.76966E+18,1.919039551,0.006098901,-0.12756255,-0.018611177,-0.026280589,0.036247913,-0.069801211
1.76966E+18,1.929027832,-0.032374329,-0.104610129,-0.040917701,-0.026176194,0.052227415,-0.067095973
1.76966E+18,1.939015869,-0.042343862,-0.035270051,0.007825579,-0.023021648,0.050518334,-0.05866494
1.76966E+18,1.949003662,0.000645385,-0.016354338,-0.001155308,-0.02238382,0.045556597,-0.056796197
1.76966E+18,1.958991699,0.045994785,0.016911972,0.005125965,-0.033744123,0.048981313,-0.060425054
1.76966E+18,1.968979736,0.014068273,0.018596564,-0.01481763,-0.046944082,0.052619457,-0.065468818
1.76966E+18,1.978967773,-0.023780615,-0.016385902,0.071069971,-0.046886288,0.037686281,-0.070246182
1.76966E+18,1.988955811,-0.082756609,-0.082030048,0.112483054,-0.044175986,0.024605898,-0.075851873
1.76966E+18,1.998943604,-0.156554836,-0.171912564,0.160484869,-0.03756484,0.013071019,-0.075031355
1.76966E+18,2.008931396,-0.183490774,-0.242331085,0.170102592,-0.025233338,0.007157471,-0.080276981
1.76966E+18,2.018919434,-0.111067342,-0.187659584,0.180410928,-0.017315786,0.005807057,-0.087303594
1.76966E+18,2.028907715,-0.056389923,-0.110723643,0.123519997,-0.017537095,0.016578743,-0.087568842
1.76966E+18,2.038896729,-0.05950199,-0.05839549,0.131075819,-0.012023956,0.023473065,-0.079631507
1.76966E+18,2.048884521,-0.032847792,0.014858546,0.12254063,-0.014430654,0.025269633,-0.064825401
1.76966E+18,2.058872803,0.032001404,0.00675415,0.110059919,-0.019648589,0.019522022,-0.057922821
1.76966E+18,2.06886084,0.119025023,0.044812955,0.108632516,-0.02365851,0.018554229,-0.062875234
1.76966E+18,2.078848877,0.180505036,0.057905076,0.035319443,-0.033313125,-0.002081805,-0.071435861
1.76966E+18,2.088836426,0.181872817,0.009267595,-0.01165069,-0.045091223,-0.01602372,-0.066749759
1.76966E+18,2.098824463,0.174037886,-0.000251929,-0.043559156,-0.055336498,-0.007979476,-0.065217867
1.76966E+18,2.108812744,0.238852011,0.133991706,-0.096089261,-0.063086294,-0.020483816,-0.076989576
1.76966E+18,2.118800537,0.074994085,-0.007056933,-0.115592419,-0.070943326,-0.032357153,-0.061594944
1.76966E+18,2.128788574,-0.118295467,-0.170881467,-0.111494043,-0.066411428,-0.020798234,-0.046262857
1.76966E+18,2.138776611,-0.052172013,-0.088169866,-0.097522509,-0.064614169,-0.026123025,-0.042043611
1.76966E+18,2.148764893,0.053180971,0.049573886,-0.135599726,-0.059450038,-0.023415655,-0.041715775
1.76966E+18,2.158752686,0.051649523,0.099650461,-0.11974077,-0.050654054,-0.01614779,-0.040263593
1.76966E+18,2.168740723,0.008364472,0.132335171,-0.123238842,-0.050909717,-0.012113368,-0.032432836
1.76966E+18,2.17872876,-0.020973851,0.127069214,-0.138985277,-0.051578369,-0.009292413,-0.027723642
1.76966E+18,2.188716553,0.01721417,0.116578215,-0.137723879,-0.055910267,-0.017087752,-0.033493645
1.76966E+18,2.198704834,0.027739071,0.085210432,-0.151023213,-0.064433634,-0.009856396,-0.048440833
1.76966E+18,2.208692627,0.039026262,0.118262222,-0.124384505,-0.066072278,-0.014921729,-0.06728483
1.76966E+18,2.218680664,-0.03871062,0.043587213,-0.06383359,-0.064624369,-0.01223048,-0.074798092
1.76966E+18,2.228668457,-0.054229603,-0.000965046,-0.072491528,-0.062410217,-0.002189032,-0.072704315
1.76966E+18,2.238656738,-0.12731464,-0.026037528,-0.03602876,-0.047710344,0.014634434,-0.059045278
1.76966E+18,2.248644775,-0.137189626,-0.099704821,0.037851299,-0.029917501,0.03173326,-0.044169128
1.76966E+18,2.258632568,-0.039660906,-0.129215578,-0.02537088,-0.01439894,0.053296171,-0.032499373
1.76966E+18,2.268620605,0.029678514,-0.118610013,0.020474633,-0.000118271,0.073903441,-0.028469481
1.76966E+18,2.278608887,0.102873514,-0.065777417,-0.02431085,0.00507109,0.081036881,-0.023819333
1.76966E+18,2.28859668,0.132589511,-0.036430327,-0.040808103,0.005154713,0.069574632,-0.018006185
1.76966E+18,2.298584717,0.146238098,0.052654901,-0.010332593,0.005269277,0.053855497,-0.013577994
1.76966E+18,2.308572754,0.147390775,0.10636954,0.022368484,-0.005318918,0.053159345,-0.009859156
1.76966E+18,2.318560791,0.080347137,0.081287706,0.068458327,-0.011104343,0.065375201,-0.001720956
1.76966E+18,2.328548584,0.046178471,0.031749475,0.086894732,-0.019372659,0.078864112,-0.004341773
1.76966E+18,2.338537598,0.083839217,0.049164136,0.092558164,-0.035392087,0.076843835,-0.013129445
1.76966E+18,2.348525635,0.126750138,0.008360417,0.079190149,-0.055100277,0.064664938,-0.02883091
1.76966E+18,2.358513672,0.094062505,-0.055712535,0.024175241,-0.076173626,0.048212759,-0.03908864
1.76966E+18,2.368501709,0.081428502,-0.165665194,-0.016041619,-0.094456762,0.026060581,-0.056040462
1.76966E+18,2.378489746,0.12187391,-0.1517261,-0.033484629,-0.102058247,0.006813454,-0.072223812
1.76966E+18,2.388477783,0.093993385,-0.224269943,-0.010656419,-0.10100656,-0.011240646,-0.086640567
1.76966E+18,2.398465576,0.046045054,-0.197848969,0.073940265,-0.077432021,-0.03097677,-0.084491968
1.76966E+18,2.408453857,-0.078881229,-0.243134218,0.139506086,-0.052183922,-0.037012823,-0.069428064
1.76966E+18,2.41844165,-0.105368181,-0.246381237,0.02180179,-0.035421479,-0.02281997,-0.046918876
1.76966E+18,2.428429688,-0.085660587,-0.182023039,-0.052568976,-0.02726475,-0.004024179,-0.034083501
1.76966E+18,2.43841748,-0.024649434,-0.076527944,-0.012873802,-0.021631019,0.016323503,-0.030279366
1.76966E+18,2.448405518,-0.010628873,-0.006823709,-0.012052841,-0.01699925,0.027721833,-0.026930973
1.76966E+18,2.458393799,-0.000100611,0.035583939,0.00957213,-0.013928262,0.007934881,-0.026580196
1.76966E+18,2.468381592,0.00537519,0.041948798,-0.012508476,-0.010213685,-0.01184708,-0.027726421
1.76966E+18,2.478369629,-0.070392875,-0.021752398,0.001734569,-0.010039683,-0.011876039,-0.024206484
1.76966E+18,2.488357666,-0.064856357,-0.053732759,0.031167876,-0.009389605,-0.008044017,-0.024292238
1.76966E+18,2.498345947,-0.007099603,-0.085914781,0.034709787,-0.007329439,-0.011025261,-0.027525088
1.76966E+18,2.50833374,0.09454532,-0.083950203,0.012081191,-0.004810621,-0.012520626,-0.033230115
1.76966E+18,2.518321777,0.126120023,-0.048331777,-0.016695699,-0.002278173,-0.002738138,-0.03857439
1.76966E+18,2.52830957,0.084181674,-0.033500119,-0.032410862,-0.003266472,0.00874994,-0.033543676
1.76966E+18,2.538297363,0.090294676,-0.041574704,-0.037504678,-0.000721334,0.015894197,-0.027768152
1.76966E+18,2.548285645,0.139885514,-0.069072367,-0.060054363,0.000466702,0.017350415,-0.027259756
1.76966E+18,2.558273682,0.146849361,-0.094911157,-0.053383215,-0.001787953,0.012756762,-0.027102401
1.76966E+18,2.568261719,0.126285881,-0.07481471,-0.032370822,-0.00284363,0.006763319,-0.028173525
1.76966E+18,2.578249512,0.09662841,-0.057504094,-0.010323241,-0.010137886,0.006965717,-0.028966768
1.76966E+18,2.588237793,0.041525531,-0.021494039,0.034194238,-0.009155978,0.000318468,-0.025104385
1.76966E+18,2.59822583,0.026215807,0.016167875,0.045187926,-0.007057189,-0.016020725,-0.022115938
1.76966E+18,2.608213623,-0.010814824,0.03994681,0.032886955,-0.010241797,-0.021456502,-0.011639595
1.76966E+18,2.61820166,-0.037706338,0.032438627,0.01362199,-0.012067948,-0.020604551,-0.000931522
1.76966E+18,2.628190674,-0.010180106,0.045095864,0.001322189,-0.008388258,-0.018808778,0.008479823
1.76966E+18,2.638178711,0.00879004,0.020230887,-0.003730711,-0.006139346,-0.007756853,0.018561704
1.76966E+18,2.648166504,0.038121276,0.017748423,-0.039666532,-0.000826074,-0.001508279,0.02363476
1.76966E+18,2.658153564,0.082002576,0.062597034,-0.035752281,0.004284879,0.006775242,0.019247632
1.76966E+18,2.668141602,0.121027522,0.049341246,-0.02643851,0.003793526,0.026684236,0.019708358
1.76966E+18,2.678129883,0.044017932,-0.029894788,-0.089785777,0.00131359,0.045957532,0.020114224
1.76966E+18,2.688117676,0.007326397,0.010606734,-0.001043372,0.006091035,0.052915305,0.027365744
1.76966E+18,2.698105713,-0.035474633,-0.059112114,0.018061142,0.007603246,0.041202351,0.034497008
1.76966E+18,2.70809375,-0.08213234,-0.129777304,-0.025956279,0.007709506,0.043152321,0.032198168
1.76966E+18,2.718082031,0.013144728,-0.085949268,-0.031432665,0.012509903,0.04277565,0.014581243
1.76966E+18,2.728069824,0.021709143,-0.070400401,-0.015675124,0.010462198,0.025108768,0.005326492
1.76966E+18,2.738057861,-0.035633623,-0.075195234,-0.013917466,0.010647344,0.027866326,0.001705151
1.76966E+18,2.748045898,-0.061096566,-0.024672669,-0.000896657,0.01236029,0.038585547,0.000895283
1.76966E+18,2.758033691,-0.048989876,-0.054248308,-0.015923545,0.012747142,0.042161889,0.002914847
1.76966E+18,2.768021729,-0.017802199,-0.078228318,-0.043106736,0.015107501,0.048278905,0.002213104
1.76966E+18,2.778009766,0.011274258,-0.08343407,-0.009128478,0.013624438,0.052912407,0.003536923
1.76966E+18,2.787997559,0.052180269,-0.077628014,-0.000717208,0.013665983,0.056773193,0.003189913
1.76966E+18,2.797985596,0.086243867,-0.031889176,0.036246495,0.014080346,0.053829398,0.005419931
1.76966E+18,2.807973877,0.105858156,-0.006985037,0.039069443,0.010591073,0.04415147,0.011953198
1.76966E+18,2.817961914,0.075236224,0.029211481,0.052827627,0.004838839,0.031004909,0.021836264
1.76966E+18,2.827949707,0.0513889,0.027713352,0.051422729,-0.000877903,0.016436353,0.034259379
1.76966E+18,2.837937744,0.058550389,0.001131634,0.053851709,-0.005609203,0.001608536,0.039554201
1.76966E+18,2.847925781,0.083710476,-0.027464346,0.045638008,-0.011773888,-0.012972004,0.043094341
1.76966E+18,2.857913818,0.072446812,-0.055304539,0.012930793,-0.016354818,-0.020909756,0.041118961
1.76966E+18,2.867901855,0.04733809,-0.077842534,-0.014359072,-0.01886378,-0.020575795,0.034831237
1.76966E+18,2.877889893,0.056617886,-0.052599371,-0.030973815,-0.019628106,-0.015327535,0.028191252
1.76966E+18,2.887877686,0.019285788,-0.037762452,-0.032173254,-0.016980657,-0.007494645,0.021104047
1.76966E+18,2.897866699,-0.005252514,-0.045359483,-0.041382981,-0.014590535,0.006430611,0.013872636
1.76966E+18,2.907854736,0.023837899,-0.053439329,-0.048637482,-0.013052826,0.012705818,-0.00313218
1.76966E+18,2.917842773,0.043278074,-0.083766663,-0.04519874,-0.012710659,0.014411138,-0.011116487
1.76966E+18,2.927830811,-0.046297714,-0.174786658,-0.103752051,-0.016843619,0.024431283,-0.014726668
1.76966E+18,2.937818848,-0.020151977,-0.096274262,-0.062313833,-0.017171076,0.023508841,-0.022878667
1.76966E+18,2.947806885,0.043749052,-0.055526072,-0.058183017,-0.021266485,0.013347284,-0.031646855
1.76966E+18,2.957794922,0.065131959,-0.05596914,-0.082554365,-0.021303117,0.014844815,-0.037908938
1.76966E+18,2.967782715,0.050007017,-0.033780105,-0.077025664,-0.022394478,0.017022215,-0.036760584
1.76966E+18,2.977770508,0.049497314,-0.007277882,-0.099156832,-0.020966493,0.015675189,-0.036931027
1.76966E+18,2.987758789,0.049669236,0.009379238,-0.079940383,-0.019665271,0.012099362,-0.035109423
1.76966E+18,2.997746826,0.036413376,0.040309799,-0.05161679,-0.017830618,0.012130753,-0.031760156
1.76966E+18,3.007734619,0.000475801,0.04562018,-0.051521805,-0.017539002,0.013347551,-0.026156865
1.76966E+18,3.017722656,-0.031340895,0.01172434,-0.029662148,-0.014397489,0.011933046,-0.021552375
1.76966E+18,3.027710938,0.024701895,0.010433131,0.009176994,-0.010556411,0.007885042,-0.023391286
1.76966E+18,3.03769873,0.039331382,-0.037059857,0.024415187,-0.009372393,0.009771131,-0.020443741
1.76966E+18,3.047686768,0.02368132,-0.069223174,0.051190966,-0.0067332,0.011671296,-0.015717162
1.76966E+18,3.057674805,0.02604403,-0.087167996,0.052623921,-0.003254601,0.008648382,-0.013845269
1.76966E+18,3.067662842,0.031217049,-0.094563951,0.066387366,-0.003655407,0.002711397,-0.017311906
1.76966E+18,3.077650879,0.065224533,-0.078452774,0.0653098,-0.005054272,-0.003095802,-0.020151934
1.76966E+18,3.087638916,0.051301148,-0.070704352,0.0680515,-0.00405239,-0.013550574,-0.022317616
1.76966E+18,3.097626709,0.03173837,-0.046330959,0.064531509,-0.006030138,-0.022793448,-0.022262663
1.76966E+18,3.107614502,0.010088775,-0.015785598,0.034045185,-0.003756331,-0.028383689,-0.017060708
1.76966E+18,3.117602783,-0.00599493,0.003248773,0.018676643,-0.005216312,-0.026300754,-0.010615496
1.76966E+18,3.12759082,0.012589359,-0.007764789,-0.001550737,-0.001914259,-0.024038933,-0.006728346
1.76966E+18,3.137578613,0.058950129,-0.003488427,0.005543313,-0.00038045,-0.01652899,-0.009381423
1.76966E+18,3.14756665,0.089856139,0.002564298,-0.015104338,0.002203349,-0.013747583,-0.013979636
1.76966E+18,3.157555908,0.093154011,1.4613E-05,-0.040477556,0.002836506,-0.016323388,-0.018092208
1.76966E+18,3.167543945,0.064690207,-0.019008652,-0.056525313,0.000778415,-0.014345194,-0.015589633
1.76966E+18,3.177531738,0.047306599,-0.027645547,-0.057584174,-0.00035263,-0.018162034,-0.01370518
1.76966E+18,3.187519531,0.061736033,-0.005283493,-0.072941025,-0.001363299,-0.02327504,-0.010272899
1.76966E+18,3.197507813,0.055823229,-0.023059389,-0.070462068,-0.001796325,-0.021745071,-0.009328476
1.76966E+18,3.20749585,0.052949573,-0.011351415,-0.05705372,-0.000636518,-0.019847302,-0.009486934
1.76966E+18,3.217483643,0.034926425,-0.001518003,-0.048547466,0.001651181,-0.018528052,-0.011458119
1.76966E+18,3.22747168,0.020627851,0.010629531,-0.0213067,0.002239207,-0.012876026,-0.01008819
1.76966E+18,3.237459961,-0.027004838,0.023769583,-0.010789397,0.001463168,-0.008615785,-0.009599968
1.76966E+18,3.247447754,-0.013622867,0.002625672,-0.009980711,0.001041589,-0.007488469,-0.009300362
1.76966E+18,3.257435791,0.018956045,-0.026780455,-0.01941694,0.001238512,-0.008670331,-0.010461221
1.76966E+18,3.267423828,0.033979426,-0.034943888,-0.023100013,-0.000292273,-0.008019721,-0.012729436
1.76966E+18,3.277411865,0.026731355,-0.052682373,0.007173837,-0.00139231,-0.008803989,-0.010008058
1.76966E+18,3.287399902,-0.025009281,-0.049373979,0.030950434,-0.001367809,-0.008573625,-0.008109224
1.76966E+18,3.297387695,-0.033122517,-0.037905076,0.038176878,-0.004396955,-0.016724627,-0.003776535
1.76966E+18,3.307375732,-0.014561682,0.009527122,0.022855975,-0.006225481,-0.016251119,-0.002851886
1.76966E+18,3.317363525,0.007291253,0.015091186,0.01722323,-0.011752905,-0.018661482,-0.004087619
1.76966E+18,3.327351563,0.061499886,0.043237669,-0.00251286,-0.015872816,-0.026739117,-0.013778595
1.76966E+18,3.337339844,0.131607515,0.068761402,0.013297581,-0.008404844,-0.046035446,-0.031189287
1.76966E+18,3.347327881,0.103454529,-0.006492285,-0.003121931,-0.00841017,-0.032705527,-0.028274724
1.76966E+18,3.357315674,-0.029557007,-0.06728373,-0.05340835,-0.00742382,-0.01155401,-0.012861322
1.76966E+18,3.367303711,-0.003479147,-0.022618659,-0.045560266,-0.010774875,-0.002191135,0.001180196
1.76966E+18,3.377291992,0.054999857,-0.006624387,-0.032839609,-0.008404613,-0.005373977,0.006392153
1.76966E+18,3.387279785,0.11575287,-0.033408349,-0.044719724,-0.009877341,-0.004919908,0.0009372
1.76966E+18,3.397268555,0.123116604,-0.047647886,-0.06173311,-0.012781933,-0.007731911,-0.008148626
1.76966E+18,3.407256592,0.083454455,-0.024379239,-0.034299452,-0.015786245,-0.019404013,-0.012477062
1.76966E+18,3.417244873,0.049117374,-0.011310499,-0.023729835,-0.017238889,-0.028864285,-0.009481596
1.76966E+18,3.427232666,0.049816463,0.002755436,-0.049607204,-0.018301224,-0.030247264,-0.01167178
1.76966E+18,3.437220703,0.053467459,0.008572598,-0.03138941,-0.017237941,-0.031701673,-0.010780691
1.76966E+18,3.44720874,0.02305822,-0.02893851,-0.045276189,-0.018906413,-0.025947649,-0.008350556
1.76966E+18,3.457197021,-0.014053075,-0.058394906,-0.0336179,-0.019632263,-0.021756887,-0.005931463
1.76966E+18,3.467184814,0.005792612,-0.011598083,-0.041595747,-0.02183523,-0.016910734,-0.007144799
1.76966E+18,3.477172852,0.039164136,0.038068742,-0.014276655,-0.02065229,-0.022124056,-0.011515407
1.76966E+18,3.487160889,0.056849503,-0.006597499,-0.018295243,-0.01903229,-0.027023472,-0.016647585
1.76966E+18,3.497148682,0.059879591,-0.015231471,-0.021484394,-0.022266449,-0.014922566,-0.023552753
1.76966E+18,3.507136719,0.027530981,-0.013069325,0.017674481,-0.023854226,-0.016915675,-0.031638373
1.76966E+18,3.517124756,0.022383681,-0.054383332,-0.053057636,-0.030350352,-0.010843126,-0.033198308
1.76966E+18,3.527112549,0.005372925,-0.01047171,-0.041899698,-0.038725194,-0.003323957,-0.04194466
1.76966E+18,3.537100586,0.001626213,0.027682372,-0.031148002,-0.037764996,-0.011825289,-0.046826892
1.76966E+18,3.547088867,-0.029021439,-0.035317397,-0.018323592,-0.030909754,-0.00953204,-0.041994587
1.76966E+18,3.557076904,-0.040689738,-0.058302551,-0.011325696,-0.022102984,0.003668292,-0.038408089
1.76966E+18,3.567064697,-0.047744844,-0.204173496,0.034386838,-0.012688709,0.013551016,-0.019375812
1.76966E+18,3.577052734,0.006661285,-0.191924255,-0.010611118,-0.007212423,0.026739167,-0.014535597
1.76966E+18,3.587041016,0.107991661,-0.097283732,0.011640169,-0.007150637,0.031991452,-0.014815761
1.76966E+18,3.597028809,0.108082774,-0.072041738,0.014883973,-0.002369828,0.024290588,-0.012641059
1.76966E+18,3.607016846,0.074732366,-0.042595864,0.019858254,-0.006140598,0.011646963,-0.007574129
1.76966E+18,3.617004883,0.051778191,-0.006789806,-0.009610124,-0.010826452,0.004115583,-0.002511503
1.76966E+18,3.626992676,0.078572601,0.039675592,0.025901042,-0.013776702,-0.009186907,-0.005872413
1.76966E+18,3.636980713,0.092564886,0.052256841,0.041727264,-0.016781308,-0.017002162,-0.009871257
1.76966E+18,3.646969727,0.02782463,-0.031772272,0.040923839,-0.008587559,-0.012715803,-0.004834954
1.76966E+18,3.656958252,-0.029035467,-0.071878072,-0.001438508,-0.00581535,-0.006061617,-0.000918897
1.76966E+18,3.666946533,-0.01208784,-0.049661564,-0.01393997,-0.002596121,-0.006074933,0.002841486
1.76966E+18,3.67693457,-0.004310264,-0.047213002,-0.035853988,-0.003542461,0.001037542,0.004208939
1.76966E+18,3.686922363,0.014588497,-0.01374211,-0.061723173,-0.00183351,0.003203225,0.000196088
1.76966E+18,3.696910156,0.035994858,-0.000111059,-0.089739892,0.000315096,-0.006449057,-0.00665134
1.76966E+18,3.706898193,-0.008571429,-0.10537293,-0.091022333,-0.000280653,-0.003834365,-0.004443048
1.76966E+18,3.716886475,-0.03959091,-0.104050742,-0.072525138,-0.002940348,0.010340555,-0.002328163
1.76966E+18,3.726874268,-0.001166779,-0.050628363,-0.038545419,-0.000611148,0.010852148,-0.002172101
1.76966E+18,3.736862305,0.055952773,-0.066720836,-0.045603229,0.002172362,0.016434457,-0.005072926
1.76966E+18,3.746850342,0.095112233,-0.052542088,-0.036877486,0.001400312,0.023145624,-0.011723105
1.76966E+18,3.756838623,0.078157518,-0.016093057,-0.003415361,-0.000851342,0.020167314,-0.011504042
1.76966E+18,3.766826416,0.066866893,-0.019289222,-0.003141513,-0.0045044,0.009826524,-0.008355919
1.76966E+18,3.776814453,0.046129225,-0.011218729,0.001809972,-0.006500315,7.05773E-05,-0.007338979
1.76966E+18,3.78680249,0.03708901,-0.003407178,0.01165449,-0.009111811,-0.008683233,-0.004067819
1.76966E+18,3.796790283,0.034042555,-0.014504326,0.00308949,-0.011405303,-0.018823525,-0.002391049
1.76966E+18,3.80677832,0.066432082,-0.017142273,-0.009798048,-0.012700398,-0.025291277,-0.005327983
1.76966E+18,3.816766357,0.048717634,-0.029493221,-0.03057897,-0.013917925,-0.022878326,-0.005715812
1.76966E+18,3.826754395,0.05127784,-0.051844169,-0.038725452,-0.014507016,-0.012637939,-0.008663133
1.76966E+18,3.836742188,0.035219855,-0.05448387,-0.008070786,-0.006449014,-0.008269714,-0.00505056
1.76966E+18,3.846730469,-0.003202084,-0.084155955,-0.025339901,-0.000468886,-0.002388655,-0.003387949
1.76966E+18,3.856718506,-0.029172318,-0.085551793,-0.028778351,0.002580504,0.00633945,-0.004034637
1.76966E+18,3.86670752,-0.03836809,-0.073538699,-0.026116146,0.006221045,0.009747231,-0.007168379
1.76966E+18,3.876695313,-0.030324923,-0.080529581,-0.037195758,0.009728211,0.012248107,-0.012866594
1.76966E+18,3.886683594,-0.043942018,-0.055507952,-0.02682897,0.010265637,0.016693722,-0.015576359
1.76966E+18,3.896671387,-0.053352893,-0.046202364,-0.030697336,0.010307786,0.024292648,-0.016827052
1.76966E+18,3.90665918,-0.036788639,0.012849545,-0.034697219,0.013129671,0.030841894,-0.01637405
1.76966E+18,3.916647217,0.001298735,0.022703415,-0.021122575,0.013934262,0.038368955,-0.014383186
1.76966E+18,3.926635498,0.007774214,0.011284195,-0.023517069,0.013104687,0.044090491,-0.010489644
1.76966E+18,3.936623535,0.032886297,0.021686347,-0.011685469,0.014364851,0.046475962,-0.009610354
1.76966E+18,3.946611328,0.039276364,0.004538228,0.026458091,0.014804539,0.041105963,-0.00717516
1.76966E+18,3.956599365,0.050896586,-0.021308161,0.024324586,0.013570099,0.036462642,-0.005030177
1.76966E+18,3.966587402,0.060866264,-0.06159341,0.030020167,0.0114417,0.029268112,-5.85874E-05
1.76966E+18,3.976575439,0.061726681,-0.068041271,0.050883215,0.008847868,0.017284747,0.001837821
1.76966E+18,3.986563477,0.083958386,-0.084581486,0.02259031,0.008225221,0.004952447,0.000643925
1.76966E+18,3.996551514,0.103578448,-0.069392685,0.015167759,0.009542298,-0.004369419,0.000896856
1.76966E+18,4.006539307,0.066143255,-0.079490301,0.007260054,0.008282622,-0.008230736,-0.000513821
1.76966E+18,4.016527344,0.032914355,-0.054994742,-0.007569558,0.008856636,-0.005841836,-0.000103935
1.76966E+18,4.026515381,-0.011721929,-0.038216041,-0.018275954,0.011271589,-0.00111153,0.005065261
1.76966E+18,4.036503418,-0.020577582,-0.03848083,-0.016952888,0.012279547,0.004220483,0.00878741
1.76966E+18,4.046491211,-0.020918869,-0.036434418,-0.02729425,0.012474757,0.01296657,0.007632131
1.76966E+18,4.056479248,-0.016429741,-0.034591421,-0.017704876,0.015070421,0.019345345,0.001315565
1.76966E+18,4.066467529,0.002466682,-0.046624389,-0.007438626,0.014367879,0.024104413,-0.002199807
1.76966E+18,4.076455322,0.021418051,-0.054295069,-0.009466624,0.013763824,0.025727708,-0.009477844
1.76966E+18,4.086443359,0.026849355,-0.062390113,0.011471242,0.011801342,0.024527688,-0.014792182
1.76966E+18,4.096432373,0.012729791,-0.048100306,0.000248422,0.010162161,0.020093009,-0.014201824
1.76966E+18,4.10642041,0.016080197,-0.042638534,0.001714987,0.007814584,0.012426835,-0.009136491
1.76966E+18,4.116408203,0.008501213,-0.029773791,-0.002525427,0.006957939,0.004024656,-0.00256784
1.76966E+18,4.12639624,0.025806568,-0.02483692,-0.024223172,0.005543801,-0.00072882,0.003541718
1.76966E+18,4.136384277,0.054215647,-0.032537996,-0.033737727,0.004027232,-0.002718957,0.006310448
1.76966E+18,4.146372559,0.04377141,-0.050419689,-0.028478199,0.003226419,-0.000697085,0.008773074
1.76966E+18,4.156360352,0.035974911,-0.073379709,-0.03950462,0.002647111,0.000872455,0.006052726
1.76966E+18,4.166348389,0.032733153,-0.069809449,-0.050208969,0.003269758,0.005155617,-0.000146048
1.76966E+18,4.176336426,0.029839842,-0.077404727,-0.037093467,0.003763488,0.009377034,-0.008497766
1.76966E+18,4.186324463,0.013621625,-0.045001756,-0.030735622,0.003528064,0.011844187,-0.015937839
1.76966E+18,4.1963125,0.007882862,-0.025879122,0.005607611,0.002909964,0.013111012,-0.019859832
1.76966E+18,4.206300537,-0.000168415,-0.013090368,0.00893091,-0.000438694,0.009112275,-0.020387668
1.76966E+18,4.21628833,0.008051205,-0.02048457,0.002531857,-0.003930532,0.00469203,-0.015833097
1.76966E+18,4.226276123,0.029014424,-0.042071548,6.45897E-05,-0.00672552,-0.002715286,-0.012790435
1.76966E+18,4.236264404,0.058625134,-0.036636078,0.004989479,-0.007601602,-0.010528665,-0.012638601
1.76966E+18,4.246252441,0.081144425,-0.062846625,0.004815876,-0.009076727,-0.021109404,-0.014277244
1.76966E+18,4.256240234,0.072326401,-0.084086981,0.017696108,-0.008996643,-0.027686989,-0.015675394
1.76966E+18,4.266228271,0.0599718,-0.081202365,0.012208616,-0.007595021,-0.029553598,-0.018982774
1.76966E+18,4.276216553,0.050805547,-0.073622286,-0.003092121,-0.007689238,-0.027972329,-0.021084063
1.76966E+18,4.286204346,0.012459669,-0.060924717,-0.00935615,-0.006127028,-0.030562254,-0.018869644
1.76966E+18,4.296192383,-0.018525837,-0.065410922,-0.019218203,-0.004413902,-0.028841943,-0.015552463
1.76966E+18,4.306181152,0.00297054,-0.056564768,-0.036741,-0.004100448,-0.019815691,-0.014323149
1.76966E+18,4.316169434,-0.009624737,-0.057065119,-0.052581543,-0.001518427,-0.015204868,-0.01537318
1.76966E+18,4.326157471,-0.010719035,-0.045678048,-0.066615329,-0.000269138,-0.012994444,-0.01523949
1.76966E+18,4.336145264,0.018316505,-0.03602876,-0.045621057,0.001915682,-0.012006337,-0.016986424
1.76966E+18,4.346133301,-0.008316651,-0.030491,-0.033142099,0.002608637,-0.002051973,-0.019282335
1.76966E+18,4.356121582,-0.026798064,-0.011295301,-0.027323476,0.004507311,0.012846628,-0.021395186
1.76966E+18,4.366109375,-0.026911461,-0.017155133,-0.013007658,0.008597927,0.016618462,-0.022052187
1.76966E+18,4.376097412,-0.029891427,-0.015451836,0.00628098,0.011767173,0.023058867,-0.018388841
1.76966E+18,4.386085449,-0.006060469,-0.020732407,0.007551146,0.011644135,0.027587574,-0.020793943
1.76966E+18,4.396073242,0.014743834,-0.022666005,-0.002991875,0.017252006,0.029434089,-0.018945755
1.76966E+18,4.406061523,-0.030395138,-0.035827685,0.038904608,0.015377406,0.034404077,-0.010474505
1.76966E+18,4.416049561,0.002974194,-0.024695465,0.031692777,0.012687376,0.031528607,-0.004018631
1.76966E+18,4.426037354,0.061877633,-0.035053193,0.028581659,0.011957936,0.023598244,-0.003235395
1.76966E+18,4.436025146,0.079151278,-0.044573886,0.016395839,0.012658895,0.018285224,-0.001126115
1.76966E+18,4.446013428,0.080942399,-0.034020343,0.02383125,0.011743832,0.008955903,0.000791894
1.76966E+18,4.456001465,0.048311903,-0.037011342,0.023190906,0.009251071,0.001697798,0.007028588
1.76966E+18,4.465989258,0.001306991,-0.057622168,0.019005145,0.007690724,0.003269063,0.008164693
1.76966E+18,4.475977295,-0.008600509,-0.075857497,0.021096272,0.006447554,0.005295487,0.004660251
1.76966E+18,4.485965332,-0.002187135,-0.098932083,-0.003259586,0.007710159,0.010544578,-0.005824081
1.76966E+18,4.495953613,-0.013710545,-0.117339262,0.000621055,0.005957666,0.017428569,-0.014855264
1.76966E+18,4.505941406,-0.026788711,-0.0805062,-0.009198329,0.006340628,0.015577673,-0.028980937
1.76966E+18,4.515930176,-0.011669249,-0.029169396,-0.013844693,0.009606563,0.019785536,-0.036007654
1.76966E+18,4.525918457,-0.05600085,0.011618542,-0.033563539,0.008521059,0.020217502,-0.035752255
1.76966E+18,4.535906494,-0.06424597,0.029509588,-0.048019642,0.010579282,0.015894406,-0.028960792
1.76966E+18,4.545894287,-0.024189927,0.051943538,-0.018655601,0.009649839,0.009050881,-0.021821123
1.76966E+18,4.555882324,0.023780615,0.063571432,0.00864391,0.010226113,0.000857456,-0.016641911
1.76966E+18,4.565870361,0.00910086,0.026888591,-0.015148762,0.00888814,0.00497417,-0.00623694
1.76966E+18,4.575858398,0.028630978,-0.020991935,0.001117898,0.007081779,0.000823511,0.00043468
1.76966E+18,4.585846436,0.095676808,-0.036839492,0.011100655,0.005958458,-0.007237611,0.007384998
1.76966E+18,4.595834473,0.111811877,-0.052121232,0.014982465,0.006716035,-0.016217345,0.012726794
1.76966E+18,4.60582251,0.076689126,-0.058806994,0.001011223,0.008769865,-0.022289352,0.018844606
1.76966E+18,4.615810547,0.033718657,-0.069721771,-0.002870587,0.009354194,-0.024779199,0.024416843
1.76966E+18,4.62579834,-0.019263503,-0.067896309,-0.020069559,0.009938225,-0.024260148,0.027262164
1.76966E+18,4.635786377,-0.060434887,-0.070068392,-0.027462592,0.01045126,-0.015921213,0.027098134
1.76966E+18,4.64577417,-0.087677114,-0.063498366,-0.013311902,0.014640679,-0.00256759,0.022189129
1.76966E+18,4.655761963,-0.09106135,-0.062288991,-0.019640812,0.012710043,0.012166303,0.013858741
1.76966E+18,4.665750244,-0.069192048,-0.028312487,-0.024294776,0.017019572,0.028158318,0.003169345
1.76966E+18,4.675738037,-0.053554918,-0.027923195,-0.025292554,0.020225858,0.038558062,-0.005306931
1.76966E+18,4.685726074,-0.031747795,-0.020503274,-0.002663666,0.022252258,0.047401089,-0.014030381
1.76966E+18,4.695714111,-0.014933365,0.000462357,0.0232289,0.022780353,0.053840581,-0.016849071
1.76966E+18,4.705702393,0.03029577,-0.008353402,0.038667,0.023988897,0.049114536,-0.016278088
1.76966E+18,4.715690186,0.087223672,-0.014673838,0.039890404,0.020554837,0.039726712,-0.015333754
1.76966E+18,4.725678223,0.074776716,-0.045563481,0.051364569,0.016139317,0.024009801,-0.006596987
1.76966E+18,4.735666992,0.093501437,-0.076555416,0.0444827,0.010293714,0.002906884,-0.002872184
1.76966E+18,4.745655273,0.110550771,-0.072148706,0.013670798,0.005119724,-0.015410338,0.001168896
1.76966E+18,4.755643066,0.090922526,-0.08889292,0.010549451,0.002541531,-0.028926482,0.006717104
1.76966E+18,4.765631104,0.044704234,-0.066902622,0.01427344,0.003351398,-0.030055128,0.007133889
1.76966E+18,4.775619141,-0.027822073,-0.035141456,0.025644729,0.002166955,-0.025772488,0.007680508
1.76966E+18,4.785606934,-0.085521398,-0.037882864,-0.007967033,0.005041305,-0.017204566,0.009354571
1.76966E+18,4.795595215,-0.113341132,-0.028434067,-0.019186931,0.007769597,-0.006759942,0.009799503
1.76966E+18,4.805583252,-0.1042893,-0.021679332,-0.033703824,0.011290296,0.001752319,0.0063579
1.76966E+18,4.815571289,-0.097753103,-0.020585107,-0.015433716,0.01645305,0.013034633,0.001899885
1.76966E+18,4.825559082,-0.098645156,-0.011524434,0.015726854,0.019851243,0.024230029,-0.001503102
1.76966E+18,4.835547363,-0.07913725,-0.005396891,0.033265141,0.020069195,0.035063017,-0.004158784
1.76966E+18,4.845535156,-0.049174804,-0.010177695,0.04037848,0.019071041,0.040964581,-0.006026458
1.76966E+18,4.855522949,-0.000515621,-0.029517186,0.041441725,0.01740483,0.037658807,-0.005902748
1.76966E+18,4.865510986,0.039381505,-0.041350832,0.03287468,0.015687358,0.028806996,-0.006182114
1.76966E+18,4.875499023,0.099351113,-0.045558805,0.026702713,0.012160188,0.018312696,-0.005249197
1.76966E+18,4.885487305,0.116162035,-0.071743632,0.001437047,0.0068842,0.000926517,-0.004026007
1.76966E+18,4.895475098,0.134561615,-0.071761168,-0.01408727,0.002039616,-0.00405327,0.000498063
1.76966E+18,4.905463135,0.115792617,-0.043344636,-0.015038871,0.000928545,-0.009389978,0.005547949
1.76966E+18,4.915451172,0.075359923,-0.021283027,-0.015867431,0.000304042,-0.013098447,0.014873869
1.76966E+18,4.925439209,0.049714756,-0.011810849,-0.015460312,0.002256938,-0.006570772,0.023056431
1.76966E+18,4.935427979,0.034121027,-0.014812369,0.003348434,0.001082334,-0.000365819,0.023268506
1.76966E+18,4.945416016,0.023723259,-0.014597265,-0.004841887,0.001144918,0.002849415,0.018420754
1.76966E+18,4.955404053,0.001172551,-0.031854689,-0.006024083,0.000783746,0.007513481,0.013424773
1.76966E+18,4.96539209,-0.011965017,-0.04101064,-9.06009E-06,-0.000653828,0.006850621,0.006251548
1.76966E+18,4.975380127,-0.016975685,-0.047750178,-0.007626842,-0.00226749,0.001700724,-0.000971884
1.76966E+18,4.985368164,-0.033428807,-0.056617959,-0.00704758,-0.003334619,-0.000517689,-0.003405215
1.76966E+18,4.995356201,-0.040362406,-0.041880993,-0.014171149,-0.003687405,-0.000872071,-0.00075752
1.76966E+18,5.005344238,-0.032337066,-0.036626142,-0.020518472,-0.00435426,0.001097869,0.003956275
1.76966E+18,5.015332275,0.008999299,-0.031284781,-0.025455636,-0.004343824,0.002973435,0.006726113
1.76966E+18,5.025320313,0.041123599,-0.016629648,0.019916122,-0.002839671,0.006639809,0.007337042
1.76966E+18,5.035308105,0.033655455,-0.038009705,0.026326866,-0.001509916,0.007188605,0.006549902
1.76966E+18,5.045295898,0.039100861,-0.05861644,0.02152005,-0.002076903,0.006869558,-0.000245153
1.76966E+18,5.05528418,0.042986836,-0.096263156,0.019053368,-0.005493362,0.004332418,-0.005723714
1.76966E+18,5.065271973,0.031571196,-0.105796124,0.027272622,-0.005686973,-0.002003508,-0.005426506
1.76966E+18,5.07526001,0.030929537,-0.085010526,0.034412265,-0.007244318,-0.007594928,-0.00696002
1.76966E+18,5.085248047,0.031275574,-0.089124391,0.01187427,-0.008417973,-0.010551835,-0.003945322
1.76966E+18,5.095236328,0.044956748,-0.074427172,0.007703999,-0.008566907,-0.011584788,-0.006346642
1.76966E+18,5.105224121,0.048240592,-0.057553779,0.007413491,-0.008316303,-0.008365825,-0.004478435
1.76966E+18,5.115212158,0.036109424,-0.06133622,0.010734745,-0.008776206,-0.007551462,-0.005413621
1.76966E+18,5.125200195,0.012730887,-0.056676411,0.003688333,-0.008012944,-0.003886687,-0.011293881
1.76966E+18,5.135187988,-0.00645093,-0.058875383,0.002688801,-0.007958533,0.002667971,-0.013708056
1.76966E+18,5.145177002,-0.019794395,-0.055199909,0.010197277,-0.008133236,0.008910687,-0.014228971
1.76966E+18,5.155165039,-0.014761516,-0.052872343,0.010320611,-0.007948114,0.012071002,-0.016068578
1.76966E+18,5.165153076,0.009613047,-0.063236501,0.007303893,-0.007398969,0.015511274,-0.016967129
1.76966E+18,5.175141113,0.007608283,-0.059966101,-0.002737024,-0.006700246,0.02016484,-0.016475812
1.76966E+18,5.18512915,-0.002528496,-0.047250411,-0.002937807,-0.004629638,0.022653032,-0.014862205
1.76966E+18,5.195117188,0.017236381,-0.047667176,-0.007012801,-0.003834145,0.02350118,-0.014296233
1.76966E+18,5.205105225,0.048358811,-0.016951135,-0.004969897,-0.003783811,0.02511186,-0.015674151
1.76966E+18,5.215093018,0.051231006,-0.023781273,-0.013593057,-0.002589334,0.022603329,-0.016596787
1.76966E+18,5.225081299,0.017733371,-0.053372694,0.006668518,-0.006010431,0.022004118,-0.012750649
1.76966E+18,5.235069336,0.004312603,-0.082464933,0.010802841,-0.006714944,0.020632803,-0.012913732
1.76966E+18,5.245057129,0.010926029,-0.060822425,0.021102994,-0.007813498,0.015276387,-0.017509548
1.76966E+18,5.255044922,0.03473346,-0.085382281,0.029344752,-0.008984757,0.011238023,-0.025168788
1.76966E+18,5.265033203,0.030129692,-0.098021398,0.034418402,-0.012556588,0.011504073,-0.028397869
1.76966E+18,5.27502124,0.015142624,-0.05651333,0.040408875,-0.013631766,0.012569673,-0.030629482
1.76966E+18,5.285009033,0.023674233,-0.017128829,0.009861761,-0.013243477,0.011655676,-0.027596673
1.76966E+18,5.29499707,0.020766894,0.004198621,-0.010789982,-0.016015008,0.024516333,-0.020811154
1.76966E+18,5.304985107,0.01010273,0.016309914,-0.025645898,-0.014688487,0.029287653,-0.012423795
1.76966E+18,5.314973145,0.029453035,0.013853753,-0.017663375,-0.017268278,0.024082728,-0.006896885
1.76966E+18,5.324961182,0.040881461,-0.010103461,-0.019256781,-0.018233407,0.017331349,-0.006564789
1.76966E+18,5.334949219,0.047366293,-0.026999651,-0.002218553,-0.018429706,0.009914744,-0.010682953
1.76966E+18,5.344938232,0.040651305,-0.023453941,0.023626375,-0.022195682,0.002747379,-0.007454403
1.76966E+18,5.354926025,0.005702522,-0.026112931,0.0459253,-0.021183308,-0.007111591,-0.006526726
1.76966E+18,5.364914063,-0.013016207,-0.015548282,0.064593176,-0.022274937,-0.014633423,-0.002212405
1.76966E+18,5.3749021,-0.037375499,-0.041968087,0.035939036,-0.022403104,-0.014696933,-0.003426205
1.76966E+18,5.384890137,-0.029019028,-0.062085577,0.013883856,-0.020883238,-0.012907289,-0.006376721
1.76966E+18,5.394878174,-0.018661227,-0.085256609,0.008759353,-0.018356202,-0.012015322,-0.00968986
1.76966E+18,5.404866211,-0.012850129,-0.104406131,0.007501462,-0.017825169,-0.009223265,-0.017319815
1.76966E+18,5.414854248,-0.004654036,-0.08244389,-0.006150632,-0.017226117,-0.008030647,-0.020766381
1.76966E+18,5.424842041,-0.015920111,-0.069700144,-0.004909692,-0.015494263,-0.004370666,-0.022008481
1.76966E+18,5.434830322,-0.006853008,-0.046664721,-0.005489245,-0.011633659,-0.003046892,-0.024422975
1.76966E+18,5.444818359,0.006625994,-0.028911622,-0.021647768,-0.010765733,0.000703904,-0.021169657
1.76966E+18,5.454806152,-0.011821517,-0.045372343,-0.000472878,-0.003012009,0.011328122,-0.016175305
1.76966E+18,5.464793945,0.022158056,-0.046709144,0.021027298,0.000535055,0.009994943,-0.018120479
1.76966E+18,5.474781982,0.121327967,0.032186698,-0.010607319,-0.001446738,0.008642842,-0.01902156
1.76966E+18,5.484770264,0.029288054,0.040790276,0.02955898,-0.004539467,0.006354654,-0.006633867
1.76966E+18,5.494758057,-0.039661125,0.007566051,0.024746903,-0.00539797,0.000418804,0.007598899
1.76966E+18,5.504746094,0.008446341,-0.007535656,0.006060323,-0.007984699,-0.011979542,0.012696988
1.76966E+18,5.514734131,0.076255411,-0.049359951,-0.024071196,-0.009022992,-0.021204045,0.010405005
1.76966E+18,5.524722168,0.089174806,-0.062716276,-0.026586101,-0.005890583,-0.016926209,0.008831875
1.76966E+18,5.534711182,0.028280338,-0.041844753,-0.025970015,-0.004390424,-0.005410701,0.005775899
1.76966E+18,5.544698975,0.002695961,-0.007894553,-0.011166122,-0.003954465,0.002089293,0.009871041
1.76966E+18,5.554687012,-0.028675548,0.018577859,-0.008463,-0.000322866,0.008884883,0.01427093
1.76966E+18,5.564675049,-0.054858695,0.022500001,-0.009651041,0.000395388,0.012698796,0.017769791
1.76966E+18,5.574663086,-0.031207624,0.011435002,-0.008769874,0.000962977,0.012197183,0.019029129
1.76966E+18,5.584651123,-0.017381416,0.005798457,0.004098083,0.002464467,0.007061809,0.017745219
1.76966E+18,5.59463916,-0.017915669,0.007487725,0.000269172,0.000799255,0.001757744,0.019503646
1.76966E+18,5.604626953,-0.035673517,-0.006378303,-0.00118015,0.002926056,0.006480327,0.019218421
1.76966E+18,5.614615234,-0.046018239,-0.034518356,-0.008368892,-0.000693497,0.005196782,0.019420937
1.76966E+18,5.624603271,-0.035575171,-0.049532385,-0.006604221,-0.002553448,0.007464197,0.019152224
1.76966E+18,5.634591064,-0.026642362,-0.067120064,-0.016528233,0.000409769,0.011507031,0.015500245
1.76966E+18,5.644579102,-0.012194296,-0.07150807,-0.024091946,-0.000780397,0.014354749,0.013446415
1.76966E+18,5.654567383,-0.001934841,-0.068810501,-0.032118893,-2.28625E-05,0.014903373,0.010687251
1.76966E+18,5.664555664,0.008168255,-0.052435705,-0.024254444,0.000124144,0.016177695,0.012022827
1.76966E+18,5.674543457,0.004500819,-0.031304654,-0.004078501,0.00123127,0.015090495,0.011237344
1.76966E+18,5.684531494,0.02580328,-0.010627192,0.015180326,-0.001293673,0.010663256,0.013132716
1.76966E+18,5.694519775,0.016207623,-0.010085341,0.0284706,-0.002693812,0.003611444,0.010913154
1.76966E+18,5.704507568,0.030232641,-0.013455109,0.036093058,-0.004066938,-0.002902648,0.011593858
1.76966E+18,5.714495605,0.02274835,-0.025243162,0.039478901,-0.005414015,-0.008099709,0.011166537
1.76966E+18,5.724483643,0.034545098,-0.029600773,0.037434535,-0.00694773,-0.013860126,0.008893529
1.76966E+18,5.734472656,0.040025721,-0.030505028,0.009479484,-0.006072631,-0.015525385,0.008263637
1.76966E+18,5.744460693,0.026150194,-0.049966685,-0.025035073,-0.00620286,-0.013830815,0.010462076
1.76966E+18,5.754448486,0.03805464,-0.062645549,-0.040846682,-0.00418005,-0.010546085,0.009611854
1.76966E+18,5.764436523,0.03307444,-0.074401453,-0.044124388,-0.004780859,-0.007067997,0.011827605
1.76966E+18,5.774424805,0.023301527,-0.076243866,-0.043612932,-0.003622254,-0.00105747,0.01080909
1.76966E+18,5.784412598,0.023649756,-0.046435003,-0.031845922,-0.000568407,0.000758273,0.009761137
1.76966E+18,5.794400635,0.022640798,-0.033010874,-0.023984979,-0.000261719,0.000846345,0.007753809
1.76966E+18,5.804388672,0.001062588,-0.026944706,-0.001768471,-0.003109703,3.994E-05,0.004797966
1.76966E+18,5.814376465,-0.016331542,-0.033616438,0.000796119,-0.00311441,-0.001140014,0.002495716
1.76966E+18,5.824364746,-0.019902824,-0.042256256,0.01252192,-0.004317892,-0.000820168,-0.002157626
1.76966E+18,5.834352783,-0.004155951,-0.056675242,-0.006010054,-0.002701267,0.000509901,-0.006554528
1.76966E+18,5.844340576,0.005056114,-0.058330024,-0.004646365,-0.002289009,0.00643064,-0.009141256
1.76966E+18,5.854328369,-0.000114639,-0.052635612,-0.00747019,-0.001861431,0.013046454,-0.008051367
1.76966E+18,5.86431665,0.004023849,-0.03704349,-0.020494506,-0.001566086,0.017689675,-0.007179715
1.76966E+18,5.874304688,-0.005487565,-0.043175125,-0.008684534,0.00041822,0.015491595,-0.002219081
1.76966E+18,5.88429248,0.003882541,-0.040883215,-0.006271043,0.000992131,0.011448918,-0.000363923
1.76966E+18,5.894280518,0.007762597,-0.039346506,-0.013024317,0.000121201,0.007389014,-2.61704E-05
1.76966E+18,5.904268555,-0.004942571,-0.01281915,0.001414251,0.00142109,0.001352426,-0.001715946
1.76966E+18,5.914256836,-0.014062428,-0.014447628,0.005099953,0.000772825,-0.002171078,0.00012602
1.76966E+18,5.924244629,-0.030231326,-0.027126492,0.004943302,0.002106003,-2.21734E-05,-0.000275052
1.76966E+18,5.934233398,-0.018697832,-0.02520283,0.004621815,0.004608874,0.003939196,-0.001430767
1.76966E+18,5.94422168,-0.019466917,-0.032929625,0.00268617,0.006778019,0.009761399,-0.003623082
1.76966E+18,5.954209717,0.002312369,-0.030857495,-0.016406653,0.007350116,0.015664198,-0.005843475
1.76966E+18,5.96419751,0.005745996,-0.050640638,-0.024328678,0.006737323,0.017712435,-0.0033931
1.76966E+18,5.974185547,0.012319529,-0.043970075,-0.025474048,0.005317325,0.015579775,-0.003710549
1.76966E+18,5.984173584,0.016554756,-0.057558455,-0.024971067,0.005156736,0.018808857,-0.004739328
1.76966E+18,5.994161621,0.04950915,-0.042982817,-0.005117489,0.003019266,0.017146021,-0.010594336
1.76966E+18,6.004149658,0.058600658,-0.034855625,0.026064416,0.001702866,0.012185351,-0.014286809
1.76966E+18,6.014137695,0.029285716,-0.035578678,0.031605683,-0.00100685,0.009417696,-0.014776147
1.76966E+18,6.024125732,-0.012587094,-0.028757308,0.027719782,-0.002152542,0.001998928,-0.012654407
1.76966E+18,6.03411377,-0.004785115,-0.002924363,0.016183658,-0.000826705,-0.002629085,-0.016903132
1.76966E+18,6.044101807,-0.021254385,-0.032736148,-0.005976152,-0.001586238,-0.003021103,-0.017443486
1.76966E+18,6.0540896,-0.019570962,-0.029997663,-0.010329671,0.002016802,-0.004514968,-0.02267565
1.76966E+18,6.064077393,0.000847557,-0.023989947,-0.025686814,0.001763536,-0.00045924,-0.02546105
1.76966E+18,6.07406543,-0.017757629,-0.028693595,-0.032109833,0.003594532,0.007803638,-0.024353774
1.76966E+18,6.084053711,-0.017629253,0.001574702,-0.033503041,0.00940262,0.008280876,-0.016123807
1.76966E+18,6.094041748,-0.000288754,0.027456162,0.003518822,0.007259501,0.004211146,-0.006891361
1.76966E+18,6.104029541,-0.023122663,0.025021044,0.034985389,0.006515148,0.000379656,0.003405486
1.76966E+18,6.114017578,0.005994783,-0.023480829,0.041629941,0.00264213,-0.002706456,0.005324873
1.76966E+18,6.124006836,0.065328504,-0.054030281,0.041141865,-0.000781097,-0.013014487,0.003546414
1.76966E+18,6.133994629,0.086929073,-0.090600893,0.054427463,-0.002584823,-0.017430333,-0.001696448
1.76966E+18,6.143982422,0.078749054,-0.082019527,0.057989248,-0.002566714,-0.019074036,0.000135807
1.76966E+18,6.153970459,0.038862522,-0.065226213,0.058768123,-0.001771128,-0.023417048,0.00474737
1.76966E+18,6.16395874,0.027380174,-0.023494273,0.023450141,-0.000926106,-0.026398724,0.011572519
1.76966E+18,6.173946533,-0.014208558,-0.005485153,0.00287614,0.003370487,-0.026291903,0.014613398
1.76966E+18,6.18393457,-0.023405572,-0.012850714,-0.012812428,0.002212545,-0.026026651,0.013691412
1.76966E+18,6.193922607,-0.035909518,-0.013277415,-0.036836862,0.003881416,-0.022030059,0.012321878
1.76966E+18,6.203910645,-0.043414633,-0.029608372,-0.039748073,0.005287832,-0.015305843,0.010427038
1.76966E+18,6.213898682,-0.032306525,-0.014158874,-0.039816462,0.005972346,-0.003202197,0.011080033
1.76966E+18,6.223886719,-0.054583823,-0.028692426,-0.041100657,0.010306906,0.008570839,0.010455522
1.76966E+18,6.233874756,-0.04948197,-0.02957973,-0.023518238,0.010220787,0.017890766,0.008604058
1.76966E+18,6.243862549,-0.021238018,-0.011482348,-0.012464637,0.010317991,0.018539779,0.004254051
1.76966E+18,6.25385083,0.008737433,-0.038893502,0.013777181,0.009266144,0.019279676,0.001437526
1.76966E+18,6.263838623,0.023060558,-0.021708558,0.041727556,0.007733761,0.015465231,-0.001089015
1.76966E+18,6.273826416,0.036825975,-0.020198738,0.049241293,0.004688819,0.008017995,0.002373709
1.76966E+18,6.283814453,0.058304743,-0.040292847,0.032439796,-0.000763737,0.000973934,0.008247843
1.76966E+18,6.293802734,0.060710635,-0.057041738,0.029565117,-0.002383222,-0.00670019,0.007195847
1.76966E+18,6.303790771,0.082245737,-0.057556117,0.023826574,-0.003822394,-0.018407978,0.00497051
1.76966E+18,6.313779541,0.097221188,-0.064541738,0.020026889,-0.006257689,-0.025850518,-0.000242663
1.76966E+18,6.323767578,0.092301998,-0.067037062,0.023153204,-0.007944802,-0.032047693,-0.001942825
1.76966E+18,6.333755859,0.052448126,-0.04648235,0.01700608,-0.009325234,-0.03539345,-0.003774629
1.76966E+18,6.343743652,0.02440262,-0.037292497,0.015179449,-0.010620861,-0.036202252,-0.002797781
1.76966E+18,6.353731445,0.005839228,-0.030104631,0.01873568,-0.011658896,-0.036315311,-0.000167179
1.76966E+18,6.363719482,-0.001676482,-0.033211949,0.011695114,-0.008179742,-0.034141108,0.002322078
1.76966E+18,6.373707764,-0.010092209,-0.023684242,0.008466215,-0.006503161,-0.03518847,0.004405553
1.76966E+18,6.383695557,0.003050035,-0.042391866,-0.005523147,-0.005735105,-0.031940479,0.003938966
1.76966E+18,6.393683594,0.010453516,-0.041467736,-0.006318682,-0.005470775,-0.027235262,0.00147972
1.76966E+18,6.403671631,0.008997107,-0.050668695,-0.01683803,-0.005158652,-0.021552876,-0.000881439
1.76966E+18,6.413659668,0.008580781,-0.054194532,-0.016206454,-0.004728834,-0.015993487,-0.003271141
1.76966E+18,6.423647705,0.020639322,-0.056655953,-0.029957039,-0.004310718,-0.015793217,-0.002294027
1.76966E+18,6.433635742,0.019765169,-0.032772973,-0.04241057,-0.003371089,-0.016471663,-0.002679189
1.76966E+18,6.443623779,0.036281274,-0.015786767,-0.021066461,-0.003775889,-0.015914263,-0.001791025
1.76966E+18,6.453611572,0.017749592,-0.005012275,-0.007963526,-0.004804659,-0.018358219,0.002325955
1.76966E+18,6.463599609,0.025186975,0.007328735,-0.017102526,-0.008819641,-0.018361948,0.001897452
1.76966E+18,6.473587646,0.023704701,0.005610241,-0.030687691,-0.011144489,-0.020572064,0.005559068
1.76966E+18,6.483575684,0.004217837,-0.014535306,-0.01166618,-0.011836645,-0.018697465,0.00835805
1.76966E+18,6.493563477,0.008351649,-0.031564182,-0.026277474,-0.010163092,-0.015148284,0.009573033
1.76966E+18,6.503552734,0.015164836,-0.05294307,-0.049082595,-0.010052038,-0.012643847,0.009848405
1.76966E+18,6.513540771,0.005372852,-0.041800914,-0.044108899,-0.008181255,-0.005994312,0.00587179
1.76966E+18,6.523528809,-0.004167714,-0.036301732,-0.031519174,-0.006594544,0.00271742,0.009635636
1.76966E+18,6.533516602,-0.004317425,-0.041539633,-0.043117842,-0.006506162,0.000495335,0.008659219
1.76966E+18,6.543504883,-0.016007863,-0.010562895,-0.038002691,-0.005513602,-0.000899096,0.008324993
1.76966E+18,6.553492676,0.027777576,0.025725393,-0.037738195,-0.004459221,-0.002343118,-0.002765107
1.76966E+18,6.563480469,0.070882631,0.038453942,-0.005932605,-0.008771412,-0.002325541,-0.007130295
1.76966E+18,6.573468506,-0.034710079,-0.052178516,-0.030342531,-0.008677084,0.00415567,-0.003677897
1.76966E+18,6.583456543,-0.045302785,-0.059872577,0.002962941,-0.004878351,0.005913356,0.000668648
1.76966E+18,6.593444824,-0.008815905,-0.067149875,-0.032246611,-0.004805533,0.009426386,0.005825418
1.76966E+18,6.603432617,0.020517887,-0.062721537,-0.008993454,-0.002036645,0.010599243,0.006740213
1.76966E+18,6.613420654,0.032048166,-0.085021047,-0.006316344,-0.002361741,0.014691876,0.004538775
1.76966E+18,6.623408691,0.008051205,-0.096783381,-0.01172697,0.000290767,0.011991165,0.002921171
1.76966E+18,6.633396729,0.029861031,-0.080813658,-0.002184651,-0.001404244,0.009407408,-0.004720201
1.76966E+18,6.643384766,0.038117841,-0.088385555,-0.002496201,-4.73636E-05,0.007021215,-0.006934087
1.76966E+18,6.653372803,0.024546412,-0.062287822,0.011547814,-0.000331023,0.006301153,-0.010808556
1.76966E+18,6.663360352,0.008309709,-0.045423196,-0.0006231,0.002010961,0.004423625,-0.006148824
1.76966E+18,6.673348389,-0.009198036,-0.018689503,-0.021671441,0.001791346,0.005018182,-0.003994877
1.76966E+18,6.683336426,-0.003739771,-0.022048166,-0.011919863,0.001779628,0.006274662,0.000362321
1.76966E+18,6.693325439,-0.009776713,-0.015851649,-0.009188976,0.001829816,0.007706868,0.00045753
1.76966E+18,6.703313232,0.002107786,-0.033016719,-0.011338556,0.001285466,0.012673663,0.002008022
1.76966E+18,6.71330127,0.010859394,-0.03293021,-0.009133155,0.001560955,0.016424514,-0.002342431
1.76966E+18,6.723289551,0.019119857,-0.04823007,-0.020371465,0.001041638,0.01864266,-0.004141396
1.76966E+18,6.733277588,0.010488807,-0.063563248,-0.029271979,0.00054018,0.017894804,-0.004308593
1.76966E+18,6.743265381,0.018972558,-0.055866849,-0.02224135,0.000652299,0.013662508,-0.0063792
1.76966E+18,6.753253418,0.004312603,-0.038402504,-0.00876286,0.000980667,0.020828277,-0.005064663
1.76966E+18,6.763241455,-0.014330139,-0.03491057,-0.004221709,-0.001032417,0.020186188,-0.006611694
1.76966E+18,6.773229248,0.003632365,-0.005399813,0.024929859,-0.000663165,0.017421041,-0.006602773
1.76966E+18,6.783217285,-0.021987229,-0.027008418,0.03436375,-0.004800919,0.013625771,-0.002974216
1.76966E+18,6.793205322,-0.040689738,-0.081746555,0.03957447,-0.005982791,0.009792894,-0.005219697
1.76966E+18,6.803193359,-0.006035846,-0.07673428,0.031000703,-0.00442564,0.008353721,-0.013856594
1.76966E+18,6.813181396,0.042162587,-0.095869189,0.013879472,-0.004556628,0.009037495,-0.020123659
1.76966E+18,6.823169434,0.010005773,-0.108936176,0.026636078,-0.003944634,0.011333406,-0.023826517
1.76966E+18,6.833157471,-0.014417671,-0.072163319,-0.001814356,-0.002001958,0.016543809,-0.019192919
1.76966E+18,6.843145264,0.004044891,-0.028671383,0.006511866,-0.001608076,0.023337534,-0.014558752
1.76966E+18,6.853133545,0.015169512,0.014233108,-0.008522914,-0.000619159,0.022889169,-0.006139982
1.76966E+18,6.863121582,0.01160276,0.033436406,0.010013152,-0.002801354,0.016749252,-0.002088781
1.76966E+18,6.873109375,-0.002870149,0.039340661,0.042945992,-0.004408288,0.011732685,0.000211649
1.76966E+18,6.883098145,-0.005063129,0.014765023,0.05557751,-0.007148148,0.007552055,0.004356327
1.76966E+18,6.893086426,-0.003405425,-0.014876667,0.051824588,-0.013265597,0.002173267,0.001166217
1.76966E+18,6.903074463,0.030782092,-0.044400283,0.039320788,-0.013299152,-0.002232933,0.000165668
1.76966E+18,6.9130625,0.040847559,-0.087279055,0.012218261,-0.011176754,-0.004527989,-8.88505E-05
1.76966E+18,6.923050293,0.044567456,-0.100683311,-0.010649989,-0.008494418,-0.003494682,-0.006314523
1.76966E+18,6.933038574,0.024977643,-0.072120064,-0.022616321,-0.006497967,-0.002324571,-0.015152046
1.76966E+18,6.943026611,0.00287351,-0.044482116,-0.037000528,-0.00684764,-0.002521112,-0.0186565
1.76966E+18,6.953014404,-0.079342855,-0.106470662,-0.040398061,-0.00724953,0.008823488,-0.016474346
1.76966E+18,6.963002441,-0.099264676,-0.073107322,-0.018119302,-0.006556576,0.01652029,-0.014960604
1.76966E+18,6.972990234,-0.038377515,-0.022931963,0.008742986,-0.00506424,0.016543631,-0.01980467
1.76966E+18,6.982978271,0.005862681,-0.042417584,0.009921967,-0.003933728,0.019688558,-0.020195888
1.76966E+18,6.992966309,0.003237009,-0.047816813,0.012598785,-0.003310202,0.022448767,-0.019914137
1.76966E+18,7.002954346,0.012561375,-0.059502575,0.005514087,-0.003011395,0.019127006,-0.017032595
1.76966E+18,7.012942383,0.041884427,-0.035763972,-0.000832067,-0.00198861,0.00995402,-0.01545035
1.76966E+18,7.02293042,0.039026188,-0.008346388,0.020497721,-0.002818717,0.006400565,-0.012070266
1.76966E+18,7.032918457,0.048136547,-0.019321956,-0.003351941,-0.003122399,0.000528191,-0.007538276
1.76966E+18,7.042906494,0.053503627,-0.051591656,-0.009754209,-0.004472622,-0.001948549,-0.003276153
1.76966E+18,7.052894287,0.043327247,-0.068051792,-0.0040861,-0.005116258,-0.002646928,-0.001210988
1.76966E+18,7.062883301,0.047156815,-0.065763389,-0.001221358,-0.004932234,-0.006915975,-0.003805173
1.76966E+18,7.072871338,0.042043344,-0.071794486,-0.003878887,-0.001396169,-0.007825529,-0.005603855
1.76966E+18,7.082859375,-0.002918956,-0.050780339,-0.015619009,-0.000466992,-0.006098203,-0.005946603
1.76966E+18,7.092847168,-0.050826589,-0.030528994,0.004935118,-0.001910108,-0.00175655,-0.005170142
1.76966E+18,7.102835449,-0.074733535,-0.020050854,0.030842005,-0.001620889,0.001350294,-0.004106476
1.76966E+18,7.112823486,-0.071755761,-0.023218379,0.009263503,-0.003490922,0.000756087,-0.00464194
1.76966E+18,7.122811523,-0.056101242,-0.040409167,-0.00070961,-0.00102803,0.004282645,-0.005722917
1.76966E+18,7.132799316,-0.016210984,-0.052044075,-0.015322072,-0.001886342,0.003924898,-0.008795835
1.76966E+18,7.142787354,0.017656068,-0.055851067,0.000516425,-0.002517511,0.005104678,-0.008799298
1.76966E+18,7.152775635,0.015523732,-0.064177581,-0.002584171,-0.000723424,0.004987654,-0.007993677
1.76966E+18,7.162763428,0.027636195,-0.062498834,-0.00478285,-0.000970033,0.002242201,-0.008236291
1.76966E+18,7.172751221,0.028417262,-0.064727031,-0.010584522,-0.003342759,-0.001000226,-0.010392468
1.76966E+18,7.182739258,0.011216756,-0.074351184,-0.019688743,-0.006703402,-0.00283035,-0.010561844
1.76966E+18,7.192727539,-0.006959171,-0.072516955,-0.030528702,-0.005889415,-0.000980995,-0.011413975
1.76966E+18,7.202715332,-0.00537161,-0.049524786,-0.004086393,-0.004026002,-0.004615943,-0.012964468
1.76966E+18,7.212703369,-0.006851912,-0.037294835,-0.028377953,-0.00547407,-0.001650611,-0.010345282
1.76966E+18,7.222691406,-0.019678368,-0.017880525,-0.043206397,-0.004054605,0.004583849,-0.007440839
1.76966E+18,7.232679199,-0.027688875,-0.010075404,-0.032788171,-0.001573865,0.010266796,-0.007655222
1.76966E+18,7.242668457,0.005572832,-0.020328502,-0.021249417,-0.001379454,0.009978642,-0.008083724
1.76966E+18,7.252656494,-0.003421791,-0.034476855,-0.008137129,-0.002202218,0.010676362,-0.012296131
1.76966E+18,7.262644287,0.043161242,-0.033025487,-0.011659458,-0.001844555,0.009696851,-0.015022942
1.76966E+18,7.27263208,0.038038493,-0.032476621,-0.009608371,-0.002025956,0.005689648,-0.014811851
1.76966E+18,7.282620361,0.030502836,-0.038079263,-0.007150749,-0.002442474,0.000278904,-0.013291186
1.76966E+18,7.292608398,0.029504473,-0.031191842,-0.003698855,-0.003784175,-0.004340082,-0.010785151
1.76966E+18,7.302596436,0.050645461,-0.021361937,-0.00847206,-0.003528245,-0.00660803,-0.008274056
1.76966E+18,7.312584229,0.038944355,-0.027569559,-0.000676584,-0.003655085,-0.009751976,-0.006409831
1.76966E+18,7.32257251,0.028862522,-0.027644963,-0.004631167,-0.0029347,-0.012157077,-0.002173808
1.76966E+18,7.332560547,0.017569413,-0.016812019,0.003734803,-0.003793741,-0.01661323,0.000257103
1.76966E+18,7.34254834,0.001129223,-0.030697921,0.004476853,-0.003669105,-0.020728081,0.004348783
1.76966E+18,7.352536377,-0.042391939,-0.018902269,0.007672434,-0.004330626,-0.021418415,0.003913146
1.76966E+18,7.362524658,-0.047615153,-0.019949148,0.001519757,-0.002587854,-0.016507279,0.004323272
1.76966E+18,7.372512451,-0.047992608,-0.020876784,-0.009736966,-0.001208643,-0.010366241,-0.00128837
1.76966E+18,7.382500244,-0.034313773,-0.03201894,-0.029194823,0.001500856,-0.001001768,-0.004392818
1.76966E+18,7.392488281,-0.025305268,-0.026111177,-0.027754268,0.005357156,0.006112209,-0.008800198
1.76966E+18,7.402476318,-0.027322891,-0.027889877,-0.01777648,0.006269554,0.013259068,-0.009994892
1.76966E+18,7.412465576,-0.021257892,-0.034260582,-0.021198271,0.007798776,0.014185258,-0.009680538
1.76966E+18,7.422453369,-0.014844518,-0.030316228,-0.014784604,0.008323685,0.014446781,-0.00806107
1.76966E+18,7.432441406,-0.01413162,-0.041345571,-0.01077683,0.006959252,0.013291771,-0.009054257
1.76966E+18,7.442429688,0.025212913,-0.047813891,0.004070903,0.005177598,0.008770788,-0.011169605
1.76966E+18,7.45241748,0.024698315,-0.047723874,0.013573183,0.003776007,0.002934342,-0.010680756
1.76966E+18,7.462405273,0.010433643,-0.039309682,0.00682137,0.003646311,0.000767594,-0.00659227
1.76966E+18,7.472393311,0.009665581,-0.02676175,0.020924715,0.002998494,0.001404608,-0.001728406
1.76966E+18,7.482381104,0.007895649,-0.016807342,0.008271277,0.003324731,0.001302077,0.000581886
1.76966E+18,7.492369385,0.033244025,-0.022432781,0.012369944,0.002425178,-0.001582196,0.00173012
1.76966E+18,7.502357422,0.039076311,-0.022048166,0.003146774,0.003095762,-0.002942272,-0.002681939
1.76966E+18,7.512345459,0.043108635,-0.022961189,-0.002272621,0.003508755,-0.005362217,-0.004920205
1.76966E+18,7.522333252,0.026720688,-0.028945524,-0.009915537,-2.47267E-05,-0.007157987,-0.005193445
1.76966E+18,7.532321289,-0.011184242,-0.060271221,-0.018315701,-0.000135327,-0.006291212,-0.005243496
1.76966E+18,7.54230957,-0.029073973,-0.060535425,0.003905191,-0.003248562,-0.003919668,-0.008800413
1.76966E+18,7.552297363,0.014570962,-0.038693596,-0.001687515,-0.000554367,-0.006892539,-0.01728911
1.76966E+18,7.5622854,0.040306291,-0.062407649,-0.038116088,-0.000339716,-0.003039478,-0.024091624
1.76966E+18,7.572273438,0.009554522,-0.085299864,-0.019764731,0.001157739,0.004003573,-0.027244102
1.76966E+18,7.582261475,0.027733226,-0.066325114,-0.003948153,0.004244077,0.009867322,-0.030717663
1.76966E+18,7.592249268,0.037794016,-0.033216625,-0.021977146,0.005812756,0.01410263,-0.026774868
1.76966E+18,7.602238281,0.011091887,-0.010640052,-0.006487608,0.006348584,0.018115215,-0.018512944
1.76966E+18,7.612226318,-0.011006547,0.019167057,0.018140637,0.004625164,0.013471953,-0.007646486
1.76966E+18,7.6222146,-0.023255642,0.04815116,0.042675943,-0.000850029,0.003551411,0.001195741
1.76966E+18,7.632202393,-0.012200141,0.036502807,0.060549161,-0.003400916,-0.009571414,0.006505787
1.76966E+18,7.64219043,0.014310265,0.000347791,0.037246319,-0.00667474,-0.018986752,0.007818193
1.76966E+18,7.652178467,0.060745999,-0.015679215,0.028660862,-0.007680049,-0.030527882,0.007450512
1.76966E+18,7.662166504,0.08326507,-0.049646951,0.0129381,-0.007892036,-0.036170322,0.008273961
1.76966E+18,7.672154297,0.05790493,-0.068496029,-0.006091303,-0.006226736,-0.031411268,0.008218348
1.76966E+18,7.682142334,0.040970089,-0.072628598,-0.024536183,-0.003730022,-0.02433658,0.011233845
1.76966E+18,7.692130371,0.023966567,-0.064118544,-0.048803194,-0.002853298,-0.017995104,0.008332916
1.76966E+18,7.702118164,0.012106398,-0.049408466,-0.044892742,0.000488969,-0.015497859,0.006334214
1.76966E+18,7.712106445,-0.005696896,-0.034018005,-0.014599311,-0.001423168,-0.010166252,0.003844476
1.76966E+18,7.722094482,-0.012483049,-0.015352467,-0.004441782,-0.000339794,-0.003631121,0.002807973
1.76966E+18,7.73208252,-0.00368373,0.007428689,-0.016105332,0.001463635,-0.001476483,0.003193132
1.76966E+18,7.742070313,-0.007167407,0.019639351,-0.028070787,0.003135834,0.001159513,0.005793177
1.76966E+18,7.752058594,-0.00199227,-0.002106032,-0.020806933,0.004759659,0.004548961,0.007221727
1.76966E+18,7.762046631,0.013946546,-0.004414309,-0.014293606,0.004577499,0.006497596,0.007427323
1.76966E+18,7.772034424,0.022963308,-0.019301497,-0.009086977,0.004914904,0.004860859,0.007885072
1.76966E+18,7.782023193,0.023320085,-0.039596682,-0.002225567,0.004170018,0.001273315,0.0077378
1.76966E+18,7.792011475,-0.002567293,-0.060990768,0.005149638,0.002814429,-0.002957789,0.008465756
1.76966E+18,7.801999512,0.023045287,-0.050426703,0.007065408,0.00087698,-0.007965864,0.010535564
1.76966E+18,7.811987305,0.057681789,-0.045883799,-0.010878829,0.000949349,-0.011092231,0.011252229
1.76966E+18,7.821975342,0.070323975,-0.056022331,-0.002936053,0.002511825,-0.009299124,0.010845298
1.76966E+18,7.831963623,0.063045362,-0.051081952,0.003383797,0.003652666,-0.008078305,0.010438279
1.76966E+18,7.84195166,0.039078942,-0.057939563,-0.000863923,0.002744262,-0.004629778,0.006999872
1.76966E+18,7.851939453,0.026685689,-0.077542089,0.005367665,0.002279678,-0.003874225,0.004458017
1.76966E+18,7.86192749,0.002964695,-0.070959788,0.00819792,-0.000845275,-0.007221286,0.004645503
1.76966E+18,7.871915283,-0.021547669,-0.060965049,-0.010124504,-0.001702051,-0.012176041,0.002173192
1.76966E+18,7.88190332,-0.041170069,-0.045258361,-0.005857786,-0.001242922,-0.013362746,0.000385945
1.76966E+18,7.891891357,-0.033981765,-0.038038931,0.002663374,0.000357193,-0.013055571,-0.000794653
1.76966E+18,7.901879395,-0.039942719,-0.036134559,-0.008680735,0.002168143,-0.007927654,-0.002554469
1.76966E+18,7.911867188,-0.038369186,-0.04902502,0.003144143,0.002307388,-0.00043586,-0.000915126
1.76966E+18,7.921855469,-0.020273557,-0.040488662,-0.005878829,0.003571591,0.004076866,-0.000718851
1.76966E+18,7.931843506,0.009927374,-0.051528527,-0.007895429,0.003889968,0.006317707,-0.002633853
1.76966E+18,7.941831543,0.033686143,-0.059535308,-0.001144786,0.00444284,0.007037826,-0.003648517
1.76966E+18,7.951820313,0.038920975,-0.043311318,-0.008742694,0.004302996,0.00429718,-0.004617419
1.76966E+18,7.96180835,0.047397638,-0.035830607,-0.016234511,0.00246435,-0.000224601,-0.00594607
1.76966E+18,7.971796387,0.045939767,-0.043188569,-0.013911329,0.000919437,-0.002503959,-0.00612562
1.76966E+18,7.981784424,0.068405428,-0.031278935,0.000342238,0.000907986,-0.003950055,-0.007576776
1.76966E+18,7.991772217,0.071193378,-0.020108138,0.011746844,-0.000206864,-0.008689052,-0.010957808
1.76966E+18,8.001760498,0.037810529,-0.034784898,0.016242987,-0.000381568,-0.009393991,-0.012590325
1.76966E+18,8.011748535,0.015174188,-0.068583707,0.014519816,0.001380012,-0.008176997,-0.012375708
1.76966E+18,8.021736328,0.055078329,-0.063787705,-0.038796179,-0.002271448,-0.007025712,-0.016087886
1.76966E+18,8.031724365,0.051807271,-0.016492285,-0.010986966,-0.001694586,-0.010630537,-0.01535127
1.76966E+18,8.041712402,0.004369886,-0.008761983,0.005083879,0.000863114,-0.006943657,-0.008963145
1.76966E+18,8.051700684,-0.022330051,0.016170798,-0.006986206,0.001905403,-0.002965092,-0.002082739
1.76966E+18,8.061688477,0.005166004,0.019258827,-0.015126842,0.002891305,-0.003835946,0.001590292
1.76966E+18,8.071676514,0.008065233,0.005723638,-0.00036328,0.001925682,-0.006181448,0.005964099
1.76966E+18,8.081664307,0.004682166,-0.003300795,-0.01842676,0.00550497,-0.004282347,0.008406218
1.76966E+18,8.091652344,0.003196093,-0.011705635,-0.006959025,0.006201881,-0.003859116,0.009343553
1.76966E+18,8.101640381,-0.016303485,-0.015693828,-0.011174013,0.00553396,-0.004244208,0.012688484
1.76966E+18,8.111628418,-0.006999065,-0.008461539,-0.006026421,0.004877949,-0.005120472,0.014346845
1.76966E+18,8.121617432,0.001485635,-0.02382745,-0.012167992,0.006942165,-0.00465868,0.014296246
1.76966E+18,8.131605469,0.001529109,-0.025142625,-0.0230816,0.007005446,-0.001967359,0.013383549
1.76966E+18,8.141593506,0.001530424,-0.031668227,-0.013458617,0.006634202,-0.001191048,0.012362226
1.76966E+18,8.151581543,0.01795549,-0.022610476,-0.023738018,0.006280976,-0.000744549,0.011895927
1.76966E+18,8.161569336,0.036049803,-0.029329555,-0.007955927,0.004550454,0.00114816,0.012239741
1.76966E+18,8.171557129,0.025488515,-0.038905192,0.00081307,0.004205596,0.001825432,0.012183803
1.76966E+18,8.18154541,0.034078722,-0.02846797,0.007547347,0.00340718,0.002147408,0.014692501
1.76966E+18,8.191533447,0.034299671,-0.034264673,0.002168868,0.000705739,-0.000897301,0.015500762
1.76966E+18,8.20152124,0.030713045,-0.041590486,0.018257541,-4.02129E-05,-0.004003879,0.015780129
1.76966E+18,8.211509277,0.012606895,-0.05016133,0.011989713,-0.00033567,-0.003662755,0.016067663
1.76966E+18,8.221497559,-0.002859481,-0.035362405,-0.002716858,-0.001249933,-0.004465166,0.01473981
1.76966E+18,8.231485596,0.010155629,-0.045700259,-0.002680617,0.000720376,-0.004579345,0.013031958
1.76966E+18,8.241473389,0.014961422,-0.053923898,-0.010142332,-0.000386966,-0.003364943,0.01270359
1.76966E+18,8.251461426,0.010162644,-0.047762453,0.005441314,-0.001046457,0.001040078,0.012730244
1.76966E+18,8.261449707,0.011602906,-0.045158408,0.004829904,0.000530134,0.000274153,0.010718492
1.76966E+18,8.2714375,0.011875147,-0.039554012,0.000195523,-0.000734789,0.002237102,0.009630988
1.76966E+18,8.281425293,0.018038272,-0.017905659,0.008712007,-0.00029803,0.004551922,0.006882073
1.76966E+18,8.291414307,0.024164135,-0.047845455,0.00486556,0.001034283,0.001666145,0.006379988
1.76966E+18,8.301402588,0.019021511,-0.086205873,0.0186594,-0.002891483,-0.000633495,0.003316021
1.76966E+18,8.311390381,0.031776875,-0.087518709,0.013692425,-0.004212576,-0.005304077,-0.001212386
1.76966E+18,8.321378418,0.062017553,-0.076537881,-0.005856617,-0.003571553,-0.009703618,-0.009003997
1.76966E+18,8.331366455,0.034161797,-0.078175711,-0.014312895,-0.004393752,-0.010469051,-0.013120754
1.76966E+18,8.341354736,-0.010417203,-0.059057169,0.010910393,-0.006155699,-0.004822617,-0.011150815
1.76966E+18,8.351342529,-0.021124767,-0.040223289,0.00873568,-0.002731757,0.001731266,-0.009349909
1.76966E+18,8.361330566,0.002838438,0.001559504,0.017896014,-0.000801231,0.003242877,-0.005473145
1.76966E+18,8.371318359,-0.000600889,-0.006429741,-0.011700375,0.001571113,0.004590436,0.001257995
1.76966E+18,8.381306152,-0.023038346,-0.008909283,0.022530981,0.00046164,0.00314647,0.004454587
1.76966E+18,8.391294434,-0.018843817,0.01304536,0.02340338,-0.002552219,-0.001320505,0.008150086
1.76966E+18,8.401282471,-0.009755743,-0.024667993,0.022421675,-0.004661709,-0.00347447,0.008503221
1.76966E+18,8.411270264,0.015424291,-0.048503626,0.01708236,-0.005508635,-0.008754398,0.00645036
1.76966E+18,8.421258301,0.022647739,-0.070584525,-0.010933482,-0.006748336,-0.007986874,0.006961687
1.76966E+18,8.431246582,0.015630042,-0.067268533,-0.003902853,-0.005093385,-0.004966725,0.012070896
1.76966E+18,8.441234619,0.023755116,-0.065576926,-0.006266951,-0.004391641,0.004296815,0.014769478
1.76966E+18,8.451223389,0.024007483,-0.054407882,-0.010139993,0.001545141,0.008654139,0.016314844
1.76966E+18,8.461211182,0.039294922,-0.044565702,-0.005847849,0.002368857,0.008432032,0.009768793
1.76966E+18,8.471199463,0.038014819,-0.042041737,-0.003959844,0.00141035,0.006026525,0.002170905
1.76966E+18,8.4811875,0.001068506,-0.036918987,0.003015256,-2.56264E-05,0.00086239,-0.002137557
1.76966E+18,8.491175293,-0.01334237,-0.042853638,0.010956278,-0.002209264,-0.003531321,-0.006668212
1.76966E+18,8.50116333,0.006667057,-0.02008008,0.010131518,-0.002052404,-0.0083077,-0.005808543
1.76966E+18,8.511151367,-0.007108809,-0.002155132,-0.005737082,-0.003034896,-0.007871909,7.39635E-05
1.76966E+18,8.521139404,-0.02232859,0.000500351,0.010724223,-0.000814884,-0.002393254,0.005141427
1.76966E+18,8.531127441,-0.005052461,-0.006750643,0.018189737,0.001674976,0.002221554,0.009327905
1.76966E+18,8.541115479,0.028833296,-0.014068857,0.033900808,0.003739192,0.000474521,0.010648567
1.76966E+18,8.551103516,0.040519057,-0.03870704,0.017004326,0.003912226,-0.000478708,0.010387587
1.76966E+18,8.561091553,0.018396073,-0.079705405,0.013863106,0.001735092,-0.001780194,0.010183856
1.76966E+18,8.571079346,0.009545169,-0.102314712,-0.000139408,-0.000337511,-0.012012383,0.003327472
1.76966E+18,8.581067383,0.035709538,-0.076743048,-0.003568506,0.00030431,-0.021203751,-0.001174069
1.76966E+18,8.591055176,0.01762918,-0.069406129,-0.00208499,2.07479E-05,-0.019967917,-0.00369242
1.76966E+18,8.601043213,-0.020049247,-0.043383215,0.025338147,-0.000141971,-0.015484753,0.000508184
1.76966E+18,8.611031494,-0.028391543,-0.010897826,0.023498072,0.001089388,-0.008240996,0.001936664
1.76966E+18,8.621020508,-0.046584203,-0.016707974,0.024957916,-0.000108502,-0.00182837,0.00584725
1.76966E+18,8.631008301,-0.032716713,-0.038424131,0.014709493,0.000197741,-0.001774444,0.004827623
1.76966E+18,8.640996582,0.002558964,-0.021222821,0.004424538,-0.000731969,-0.006686113,0.003230525
1.76966E+18,8.650984619,-0.006163345,-0.015610242,0.008948446,-0.003253368,-0.010408151,0.005885536
1.76966E+18,8.660972412,-0.018026509,0.008880641,-0.003849953,9.98186E-05,-0.013856677,0.006799
1.76966E+18,8.670959961,-0.027131168,0.006850597,-0.0173112,-8.06509E-05,-0.015631562,0.01186431
1.76966E+18,8.680947998,-0.032807898,-0.014307342,-0.022552024,0.002136697,-0.011973443,0.01224967
1.76966E+18,8.690936279,-0.029474955,-0.023877135,-0.016618834,0.003911448,-0.006070632,0.013609586
1.76966E+18,8.700924072,-0.034564971,-0.040034489,0.005649404,0.004493349,-0.003558206,0.01274912
1.76966E+18,8.710912109,-0.046713674,-0.046852352,0.019117081,0.007191265,-0.001687544,0.01265172
1.76966E+18,8.720900146,-0.029100861,-0.043448097,0.014395897,0.008572914,-0.002085686,0.013260519
1.76966E+18,8.730888428,-0.022708529,-0.027626258,-0.003379121,0.006120202,-0.002628313,0.014023985
1.76966E+18,8.740876221,-0.014272856,-0.03552724,0.015850188,0.005669595,-0.003669609,0.013226635
1.76966E+18,8.750864258,-0.003265212,-0.031664135,0.016486148,0.003253954,-0.007817721,0.014746586
1.76966E+18,8.760852295,-0.012086744,-0.024269349,0.014725568,0.002489094,-0.010503519,0.012681038
1.76966E+18,8.770841309,0.013877719,-0.016447861,0.01155892,0.000678402,-0.013640148,0.01047349
1.76966E+18,8.780829102,0.007743746,0.011305238,0.007281389,0.000203294,-0.021426698,0.008914209
1.76966E+18,8.790817139,-0.001683277,-0.002403554,0.004342998,-0.000688404,-0.021773435,0.009710114
1.76966E+18,8.800805176,-0.023590207,-0.001490531,0.006136603,-0.001966455,-0.019514808,0.011861415
1.76966E+18,8.810792969,-0.021100071,-0.003470306,-0.000307459,-0.001554886,-0.017583501,0.012332144
1.76966E+18,8.82078125,-0.008403087,-0.023392566,0.004015665,-0.003628689,-0.011308561,0.0130749
1.76966E+18,8.830769287,-0.00249379,-0.047681204,0.00504004,-0.00230456,-0.005537534,0.012968432
1.76966E+18,8.84075708,0.007749591,-0.04695932,-0.000875906,-0.000870182,-0.006791883,0.013163907
1.76966E+18,8.850745117,0.019441125,-0.055054948,-0.027011633,-0.002067042,-0.009304564,0.013346562
1.76966E+18,8.860733398,0.009477365,-0.049079965,-0.011167291,7.46719E-05,-0.013393847,0.014260027
1.76966E+18,8.870721191,0.00409158,-0.064952072,-0.005573124,-0.0020573,-0.018340429,0.012718503
1.76966E+18,8.880708984,0.00179682,-0.079528295,0.00552607,-0.003330291,-0.019816887,0.014246092
1.76966E+18,8.890697021,0.000447744,-0.085431381,0.030139118,-0.002726747,-0.018113181,0.010179968
1.76966E+18,8.900685303,-0.005858078,-0.079469258,0.029932781,-0.003880162,-0.017212233,0.006210526
1.76966E+18,8.910673096,-0.012866569,-0.064930445,0.026913141,-0.003553404,-0.013300539,-0.000691907
1.76966E+18,8.920661133,-0.024237785,-0.076686349,0.014238661,-0.003315051,-0.009269578,-0.00361952
1.76966E+18,8.93064917,-0.019143238,-0.063745035,0.008560908,-0.004256006,-0.008358104,-0.00648129
1.76966E+18,8.940638428,-0.027329979,-0.031124622,-0.005185586,-0.001662087,-0.006618528,-0.008988656
1.76966E+18,8.950626221,-0.020844051,-0.012785247,-0.010600304,-0.001678762,-0.004926817,-0.007870097
1.76966E+18,8.960614014,-0.025805472,-0.003304302,-0.009411971,-0.000751982,-0.006199808,-0.006451164
1.76966E+18,8.970602051,-0.026634397,8.47557E-05,-0.008870412,-0.000777884,-0.008538794,-0.003997735
1.76966E+18,8.980590088,-0.009336057,-0.013982348,-0.018321546,-0.003608292,-0.008661565,-0.001465601
1.76966E+18,8.990578125,-0.011346885,-0.053674307,-0.011401976,-0.00292939,-0.007163296,-0.001056189
1.76966E+18,9.000566162,0.017640725,-0.075112232,0.000650865,-0.004192527,-0.006254893,-0.003225866
1.76966E+18,9.010554199,0.025054873,-0.086823128,0.008309271,-0.002357163,-0.00306112,-0.007695371
1.76966E+18,9.020541992,0.004949585,-0.08101941,0.001819909,-0.003457848,-0.00231943,-0.007396565
1.76966E+18,9.030530273,-0.019139585,-0.082680621,-0.011723463,-0.002237258,-0.001308101,-0.007957225
1.76966E+18,9.040518311,-0.017501754,-0.061012979,-0.021928631,-0.002096111,0.000421089,-0.00677771
1.76966E+18,9.050506348,-0.009891426,-0.040788522,-0.010090601,-0.000353462,0.005290694,-0.008934209
1.76966E+18,9.060494141,1.74626E-05,-0.009005144,-0.007858605,-0.000445873,0.006927473,-0.008940069
1.76966E+18,9.070482422,0.006042714,-0.007980477,-0.001477964,0.002476651,0.008024975,-0.007053796
1.76966E+18,9.080470215,-0.018817075,-0.04044833,0.000953063,0.000981552,0.010352577,-0.008539042
1.76966E+18,9.090459229,-0.028599633,-0.036706221,0.001055647,-0.000213809,0.009159273,-0.010967236
1.76966E+18,9.100447021,-0.015817308,-0.04263035,-0.018410686,0.002185166,0.00501779,-0.01394252
1.76966E+18,9.110435303,-0.012758798,-0.050823594,-0.009929566,-0.000453882,0.007353443,-0.018046387
1.76966E+18,9.12042334,-0.021420389,-0.030741175,-0.014191899,0.000692076,0.011019284,-0.017863693
1.76966E+18,9.130411133,0.009998978,0.001771686,-0.026602468,0.002018771,0.014215719,-0.013006269
1.76966E+18,9.14039917,0.019153613,0.038662616,-0.012038813,0.004810296,0.01504556,-0.006198697
1.76966E+18,9.150387207,-0.003221885,0.049638183,0.009443243,0.005949047,0.01470241,0.001952001
1.76966E+18,9.160375244,-0.023813422,0.082637367,0.037987201,0.002576953,0.005738741,0.010930582
1.76966E+18,9.170363037,-0.027102965,0.032378421,0.048662616,-0.001978634,0.002549741,0.011718518
1.76966E+18,9.180351074,0.011347835,-0.037428106,0.050719549,-0.007345436,-0.002616791,0.0034265
1.76966E+18,9.190339111,0.072354385,-0.096523853,0.035451837,-0.011476649,-0.014540812,-0.004145544
1.76966E+18,9.200327148,0.091108185,-0.145042093,0.015038871,-0.014367776,-0.023307672,-0.012149941
1.76966E+18,9.210315186,0.058846011,-0.1298492,-0.001148293,-0.015515164,-0.025327262,-0.011914758
1.76966E+18,9.220303223,0.037216436,-0.097646135,-0.039135786,-0.015382539,-0.027333153,-0.005969783
1.76966E+18,9.23029126,-0.003413462,-0.079201547,-0.02695172,-0.011526866,-0.027790321,0.000645893
1.76966E+18,9.240279053,-0.045300446,-0.067158058,-0.040911856,-0.009542544,-0.02080272,0.004032102
1.76966E+18,9.250268066,-0.040909591,-0.045599722,-0.018982056,-0.007415927,-0.011607316,0.002848902
1.76966E+18,9.260256104,-0.039388592,-0.023576106,-0.000879705,-0.005042252,-0.002589853,-0.001443847
1.76966E+18,9.270244141,-0.048452042,-0.00622925,0.000710486,-0.003616478,0.008158359,-0.005644759
1.76966E+18,9.280232178,-0.062349635,0.014177578,0.002259762,-0.002238559,0.015063137,-0.004033813
1.76966E+18,9.290220215,-0.063757456,0.01214052,0.010019582,0.000589968,0.01275111,-0.001752989
1.76966E+18,9.300208252,-0.053613371,-0.000440145,0.018579321,-0.00210302,0.00908527,3.82531E-05
1.76966E+18,9.310196045,-0.012228198,-0.00688859,0.010304244,2.99541E-05,0.00199754,-0.000143043
1.76966E+18,9.320184082,0.008927987,-0.000932897,0.033669338,-0.001969547,-0.005099252,0.000367752
1.76966E+18,9.330172363,-0.00122282,-0.024248891,0.025194062,-0.004595508,-0.007183748,0.00298613
1.76966E+18,9.340160156,-0.004020342,-0.053811085,0.025259529,-0.006502598,-0.004885441,0.001272652
1.76966E+18,9.350148193,-0.004710077,-0.086363109,0.042023617,-0.004777415,-0.012171229,0.002510643
1.76966E+18,9.36013623,-0.004331307,-0.112695236,0.009416355,-0.001601596,-0.00729365,0.001946852
1.76966E+18,9.370124268,0.022012948,-0.108272159,0.00921148,-0.001170434,0.00031595,-0.000631499
1.76966E+18,9.380112061,0.025764702,-0.089538232,0.026379473,0.000735591,0.001216631,-0.005404683
1.76966E+18,9.390100098,-0.00178513,-0.071002458,0.010287585,0.004503869,0.00428353,-0.004214611
1.76966E+18,9.400088135,-0.053333969,-0.044711248,0.013843816,-0.000498612,0.005538944,-0.00111629
1.76966E+18,9.410077393,-0.053299044,-0.007578326,0.000946049,-0.000341005,0.001136837,0.000919016
1.76966E+18,9.420065186,-0.030834845,0.028016719,0.011272505,-0.001797487,0.000390885,0.003375782
1.76966E+18,9.430053223,-0.01228212,0.026033436,0.007651392,-0.00276806,-0.001392085,0.005649178
1.76966E+18,9.44004126,-0.009431991,0.017869419,0.011446692,-0.000717426,-0.00151965,0.006637477
1.76966E+18,9.450029297,1.50514E-05,-0.004234277,0.033326516,0.001901271,0.003570557,0.006715945
1.76966E+18,9.46001709,0.016261326,-0.04363982,0.01521189,0.002877054,0.000689816,-0.004077048
1.76966E+18,9.470005127,0.076615549,0.00164426,0.022005203,0.003316355,-0.006542666,-0.016785113
1.76966E+18,9.479993164,-0.037397564,-0.092418756,0.031755905,0.000593273,-0.005746913,-0.012631381
1.76966E+18,9.489980957,-0.130506056,-0.121230424,-0.009337153,0.001759542,-0.000167552,-0.001748853
1.76966E+18,9.499969238,-0.061066171,-0.042991,-0.001593114,0.000455126,-0.000956647,0.003596378
1.76966E+18,9.509957275,0.006488339,-0.023841479,-0.017900691,0.001770875,-0.002097263,0.005135808
1.76966E+18,9.519945068,0.018455621,-0.042666006,-0.006750351,0.00164038,0.004805118,0.004198376
1.76966E+18,9.529933105,0.011917159,-0.066588149,-0.012551439,0.001540717,0.011709549,0.006520121
1.76966E+18,9.539921387,0.02278459,-0.060709028,-0.008020517,0.001236584,0.011559613,0.001613247
1.76966E+18,9.549909424,0.02331066,-0.055738254,0.011844167,-0.002005221,0.006830985,-0.003384709
1.76966E+18,9.559897949,0.039887774,-0.045344286,0.008203765,-0.002105888,-0.00712398,-0.00762313
1.76966E+18,9.569885986,0.031799014,-0.051639002,-0.002285773,-0.002263573,-0.000824569,-0.001545515
1.76966E+18,9.579874268,-0.007925021,-0.019136078,-0.003871581,-0.005867362,0.008150017,-1.47298E-05
1.76966E+18,9.589862305,0.010304098,0.009767361,-0.021688685,-0.01063281,0.012669359,0.000944326
1.76966E+18,9.599850098,-0.007528496,0.022735563,0.005801964,-0.008869798,0.006341422,0.007500496
1.76966E+18,9.609838135,-0.027985593,-0.02179273,0.011551906,-0.009208591,-0.003393858,0.014200794
1.76966E+18,9.619826416,-0.014775544,-0.069122636,-0.018867782,-0.004736345,-0.004601602,0.013680679
1.76966E+18,9.629814209,0.006465981,-0.043415363,-0.034636721,-0.003482932,0.000856755,0.006874368
1.76966E+18,9.639802246,0.002284165,-0.031074937,-0.012761282,-0.002578789,0.004021123,-0.000134007
1.76966E+18,9.649790283,-0.010047931,-0.033914545,0.004339491,-0.001788793,0.015566529,-0.004965216
1.76966E+18,9.659778076,-0.039208559,-0.027781156,0.001816402,-0.001291581,0.025431676,-0.003617923
1.76966E+18,9.669766357,-0.029673838,-0.020179449,-0.013127777,-0.001447918,0.026203504,-0.00328588
1.76966E+18,9.67975415,0.02492299,-0.024175825,-0.000561433,-0.001182667,0.019109907,-0.010631145
1.76966E+18,9.689742188,0.052045975,-0.06035773,-0.01611673,-0.004625315,0.025006061,-0.015681989
1.76966E+18,9.699730225,0.054426002,-0.063962477,-0.006206161,-0.006719358,0.02521432,-0.01774008
1.76966E+18,9.709719482,0.063555065,-0.074507836,-0.003166355,-0.007393764,0.01505392,-0.01892088
1.76966E+18,9.719707275,0.059512512,-0.079818218,-0.023002398,-0.006560194,0.010609103,-0.016289145
1.76966E+18,9.729695313,0.057563862,-0.083255206,-0.027506431,-0.010113035,0.011235164,-0.009709105
1.76966E+18,9.739683105,0.035821839,-0.081696871,-0.027028584,-0.009090914,0.00776027,-0.006640877
1.76966E+18,9.749671143,0.045853331,-0.067083824,-0.014997663,-0.008242928,0.009079323,-0.005003527
1.76966E+18,9.75965918,0.037708603,-0.059317281,-0.013030746,-0.007753973,0.011184552,-0.007084787
1.76966E+18,9.769647217,0.015254852,-0.056588733,-0.000652911,-0.006256736,0.012062287,-0.007045848
1.76966E+18,9.779635254,-0.004371274,-0.042927872,-0.010292261,-0.007475665,0.010025768,-0.007927621
1.76966E+18,9.789623047,-0.001718494,-0.041881578,-0.006776362,-0.009022118,0.009735428,-0.008187454
1.76966E+18,9.799611328,0.028309564,-0.028606501,-0.027533611,-0.010167543,0.011599108,-0.007866276
1.76966E+18,9.809599365,0.037877018,-0.025780338,-0.023185645,-0.008769726,0.015885266,-0.007411542
1.76966E+18,9.819587158,0.07092121,-0.01843582,-0.025154023,-0.00709007,0.017348407,-0.010248075
1.76966E+18,9.829575195,0.064458736,-0.029305589,-0.024547289,-0.007953865,0.015077854,-0.007577651
1.76966E+18,9.839563477,0.025378918,-0.065821841,-0.036782501,-0.007207647,0.012851451,-0.004106753
1.76966E+18,9.849551514,0.021873978,-0.088719901,-0.019829028,-0.008566169,0.013651254,-0.010726134
1.76966E+18,9.859540039,0.073081749,-0.082654318,-0.00346037,-0.007497177,0.013037927,-0.022123929
1.76966E+18,9.869528076,0.066523267,-0.086358433,0.005558511,-0.008025281,0.016634794,-0.026921615
1.76966E+18,9.879516357,0.027112609,-0.076783964,0.026442017,-0.007514487,0.019763209,-0.025012128
1.76966E+18,9.889504395,0.026675387,-0.02503215,-0.003559738,-0.006886058,0.018124837,-0.021176489
1.76966E+18,9.899492188,0.045068976,0.01577683,-0.026657998,-0.006862355,0.011580385,-0.012393382
1.76966E+18,9.909480225,0.045549599,0.041826633,-0.007782324,-0.007734884,0.003924085,-0.002336558
1.76966E+18,9.919468506,0.033382191,0.042599371,0.008538988,-0.008600412,-0.006598064,0.005068361
1.76966E+18,9.929456299,0.036327962,0.024291561,0.005881752,-0.011578675,-0.009260328,0.004703891
1.76966E+18,9.939444336,0.044756841,-0.014106267,0.010182956,-0.01355554,-0.011968763,0.001848983
1.76966E+18,9.949432129,0.048480172,-0.046037529,0.003090367,-0.01316174,-0.012859852,-0.000551163
1.76966E+18,9.959420166,0.059407225,-0.076729019,-0.014007775,-0.011436811,-0.011043843,-0.002444139
1.76966E+18,9.969408203,0.025327333,-0.08672259,-0.037443011,-0.008641714,-0.006868511,-0.003845406
1.76966E+18,9.97939624,0.000446575,-0.086620883,-0.058413026,-0.006065638,-0.002464176,-0.005915481
1.76966E+18,9.989384277,-0.021012466,-0.076578797,-0.064997957,-0.005262578,0.002430964,-0.005092686
1.76966E+18,9.99937207,-0.020764702,-0.066150342,-0.057377838,-0.003386914,0.008031858,-0.009484505
1.76966E+18,10.00936133,-0.020204584,-0.04543664,-0.022947745,-0.001843144,0.01098975,-0.014708557
1.76966E+18,10.01934937,-0.00743278,-0.016805589,-0.003559446,0.001645863,0.013654242,-0.017600751
1.76966E+18,10.02933716,-0.015417495,-0.016836569,-0.001689268,0.002088804,0.018478418,-0.01379622
1.76966E+18,10.03932495,-0.027600978,0.004230185,0.014454057,0.004144498,0.019404132,-0.008472295
1.76966E+18,10.04931323,-0.011612112,0.003564999,0.005200784,0.005523692,0.016891316,-0.003233263
1.76966E+18,10.05930127,-0.010517887,-0.008712299,0.014396774,0.005852059,0.014574365,0.001828874
1.76966E+18,10.06928931,0.019229601,-0.0258271,0.025259237,0.005429897,0.011523811,0.001504353
1.76966E+18,10.0792771,0.031930093,-0.012729718,0.029777591,0.006413135,0.005913862,0.004429835
1.76966E+18,10.08926538,0.042868762,-0.040180619,0.004250351,0.002949812,0.001989412,0.007391414
1.76966E+18,10.09925342,0.021844752,-0.084260584,-0.01246376,0.004330394,0.002568383,0.008707548
1.76966E+18,10.10924121,0.024021439,-0.077155136,-0.008402794,0.004498337,0.00152462,0.0071754
1.76966E+18,10.11922925,0.035760026,-0.05861644,-0.015985505,0.007169488,0.004264747,0.004960981
1.76966E+18,10.12921753,-0.005026888,-0.051070262,-0.005600012,0.01049634,0.008610304,0.004474872
1.76966E+18,10.13920532,-0.028245413,-0.032032969,0.007665712,0.011871064,0.013389879,0.001483609
1.76966E+18,10.14919336,-0.035349692,-0.013852584,0.046563306,0.011088841,0.015623037,-0.000430552
1.76966E+18,10.15918213,-0.041484688,-0.030367081,0.055546823,0.009815317,0.016582573,-0.002758688
1.76966E+18,10.16917041,-0.04451726,-0.059819386,0.027231414,0.007080848,0.014832648,-0.004418579
1.76966E+18,10.17915845,-0.013024463,-0.065977324,0.023265433,0.00752453,0.008109497,-0.005200483
1.76966E+18,10.18914624,0.015334347,-0.039493806,0.013201135,0.007179719,0.004696739,-0.002893927
1.76966E+18,10.19913428,0.025981998,-0.042689972,0.004055413,0.007099558,0.004975572,0.000674177
1.76966E+18,10.20912231,0.021935791,-0.033158758,0.013554478,0.008317558,0.009207438,0.001375131
1.76966E+18,10.21911035,-0.000372998,-0.048163435,0.011617665,0.009196134,0.009844465,0.002754115
1.76966E+18,10.22909839,0.00558686,-0.062245152,-0.006247954,0.008923969,0.008529842,0.002257817
1.76966E+18,10.23908618,0.004016981,-0.07178338,-0.004797171,0.00960201,0.008260597,-0.001063144
1.76966E+18,10.24907397,-0.008356179,-0.05604279,0.005864216,0.007884689,0.007670457,-0.000795375
1.76966E+18,10.25906226,-0.033776159,-0.04676935,0.014684651,0.008257532,0.004893046,-0.001641196
1.76966E+18,10.26905029,-0.061156187,-0.028665538,0.02859335,0.007565639,0.003347391,0.001899684
1.76966E+18,10.27903833,-0.102258671,-0.007617489,0.041380643,0.007702525,0.006550641,-0.000142162
1.76966E+18,10.28902612,-0.076741952,0.006668226,0.050200786,0.007331708,0.009987379,0.005027271
1.76966E+18,10.29901416,-0.045531771,-0.014379238,0.041067631,0.006127959,0.010160219,0.005034728
1.76966E+18,10.30900342,-0.022699177,-0.033344051,0.041891807,0.005856866,0.011484479,0.001698758
1.76966E+18,10.31899121,0.019218057,-0.036133974,0.038757893,0.005610791,0.009734781,-0.002259232
1.76966E+18,10.328979,0.03702822,-0.042526306,0.030171559,0.003455606,0.007607742,-0.004678894
1.76966E+18,10.33896729,0.048998132,-0.048216626,0.016084873,0.00335121,0.001399647,-0.001319583
1.76966E+18,10.34895532,0.030541269,-0.037512861,0.022661329,0.001553828,-0.004686388,0.002212989
1.76966E+18,10.35894312,0.027025954,-0.011385317,0.000815116,-0.001584175,-0.014306525,0.005744874
1.76966E+18,10.36893115,0.026727848,-0.012556699,-0.002159516,-0.001360579,-0.01928906,0.008072921
1.76966E+18,10.37891919,0.01399813,-0.010143793,0.005416472,-0.000895325,-0.020507988,0.011575244
1.76966E+18,10.38890747,0.009798925,-0.001458967,0.001961071,-0.001493742,-0.019873846,0.012733927
1.76966E+18,10.39889526,-0.00749927,-0.027635026,0.003953122,-0.001499068,-0.015227962,0.012363481
1.76966E+18,10.4088833,-0.005360139,-0.038312487,0.024502573,-0.001317379,-0.015309374,0.00813145
1.76966E+18,10.41887134,-0.001332564,-0.03850421,0.014361118,-0.002378648,-0.01541297,0.003209129
1.76966E+18,10.42885938,0.017720585,-0.037364977,0.023598025,-0.000773914,-0.01744432,0.001383877
1.76966E+18,10.43884741,0.027773119,-0.038326516,0.010858663,-0.002188585,-0.021329872,-0.000746119
1.76966E+18,10.44883618,0.031880993,-0.04582184,-0.000343407,0.000158645,-0.025548847,-0.002131335
1.76966E+18,10.45882422,0.052312298,-0.055991936,0.010346622,-0.000855221,-0.029464759,5.35222E-05
1.76966E+18,10.46881226,0.046847018,-0.064667995,0.003490472,0.001280102,-0.033314891,-0.002002705
1.76966E+18,10.47880029,0.046793242,-0.048804655,0.024863808,-0.003291747,-0.03875573,-0.000717197
1.76966E+18,10.48878833,0.053413537,-0.043282677,0.014185762,-0.002226535,-0.042164523,-0.000716324
1.76966E+18,10.49877637,0.013691622,-0.046366614,0.010249299,-0.005908089,-0.047619209,0.002036053
1.76966E+18,10.5087644,0.010960881,-0.046944707,-0.007151041,-0.004091741,-0.054927107,0.002924846
1.76966E+18,10.51875244,0.002576426,-0.04706921,-0.003823065,-0.00434261,-0.053989939,0.004754172
1.76966E+18,10.52874023,-0.022333485,-0.032657822,-0.015693536,-0.001857953,-0.04879282,0.006589836
1.76966E+18,10.53872803,-0.048813277,-0.040177697,-0.009618892,0.000864862,-0.041244891,0.008834349
1.76966E+18,10.54871606,-0.035530748,-0.033488428,-0.017280221,0.001449089,-0.033284146,0.009820707
1.76966E+18,10.55870435,-0.031000557,-0.034334816,-0.032577451,0.003241397,-0.024250168,0.007902432
1.76966E+18,10.56869238,0.012043416,-0.046925417,-0.053415948,0.004528462,-0.013534414,0.002683896
1.76966E+18,10.57868018,0.027091421,-0.030984921,-0.04437018,0.00748031,-0.005426953,-0.005714117
1.76966E+18,10.58866943,0.039881929,-0.038051206,-0.042569852,0.006016377,-0.001965996,-0.006815215
1.76966E+18,10.59865747,0.00772263,-0.040523149,-0.033289983,0.003737776,0.001262288,-0.004871107
1.76966E+18,10.60864526,-0.003868439,-0.060966802,-0.040369128,-0.001109391,0.003175671,-0.003485583
1.76966E+18,10.61863306,0.033450873,-0.062055182,-0.018283552,-0.00249743,0.004969576,-0.00612584
1.76966E+18,10.62862109,0.049602674,-0.029414311,-0.044686991,-0.00181485,-0.000678276,-0.013391628
1.76966E+18,10.63860938,0.002742723,-0.032480128,-0.068760232,-0.001418838,0.00224907,-0.015984749
1.76966E+18,10.64859717,-0.043411126,-0.039010406,-0.08652473,-0.002249976,0.008226657,-0.014335868
1.76966E+18,10.65858521,-0.03677819,-0.006135142,-0.096342944,0.000744749,0.016139176,-0.011144069
1.76966E+18,10.66857324,-0.026093057,0.033497196,-0.078351068,0.001479629,0.027149642,-0.006621485
1.76966E+18,10.67856152,-0.072026979,0.030730654,-0.051208794,0.001852738,0.038449168,0.001140032
1.76966E+18,10.68854932,-0.082391941,0.03431085,-0.04469342,0.001429505,0.052008793,0.006722344
1.76966E+18,10.69853735,-0.0533073,0.007393033,-0.035698505,0.001810604,0.056362264,0.007677619
1.76966E+18,10.70852539,0.011551322,-0.003842062,-0.032306233,0.002419507,0.054533545,0.010645476
1.76966E+18,10.71851318,0.028557548,-0.03518588,-0.040032735,0.001198182,0.054952458,0.007836107
1.76966E+18,10.7285022,0.016546646,-0.038327685,-0.019800971,-2.83668E-05,0.050287824,0.01112848
1.76966E+18,10.73849023,0.039123365,-0.041989714,-0.003204934,0.000254727,0.048208695,0.012385491
1.76966E+18,10.74847827,0.054117375,-0.023445173,0.048033671,0.0084333,0.047882058,0.007069472
1.76966E+18,10.75846606,-0.0236849,-0.122725631,0.075702014,-0.006224472,0.036746316,0.030444304
1.76966E+18,10.76845435,0.014470424,-0.307483648,0.272608734,-0.021294074,0.031440962,0.036527734
1.76966E+18,10.77844238,0.354303413,-0.198555072,0.205102009,-0.033882838,0.008764945,0.005632667
1.76966E+18,10.78843018,0.414703229,-0.05967384,0.074001348,-0.033085704,-0.042725731,-0.012071406
1.76966E+18,10.79841821,0.163414931,-0.00124737,0.022835809,-0.027898397,-0.06449201,-0.012481533
1.76966E+18,10.80840649,-0.12237901,-0.008221885,0.077137308,-0.027680129,-0.045032009,0.009004434
1.76966E+18,10.81839429,-0.147504099,0.021119945,-0.00268997,-0.019972941,-0.041476157,0.01879661
1.76966E+18,10.82838208,-0.160294607,0.062011343,-0.129056588,-0.004248091,-0.016793661,0.027000925
1.76966E+18,10.83837012,-0.262677123,0.069938044,-0.12002894,0.007559832,0.013215104,0.03860059
1.76966E+18,10.84835815,-0.272187294,0.035872693,-0.04948913,0.014598407,0.031659473,0.039994989
1.76966E+18,10.85834619,-0.215516728,-0.027156302,0.088959555,0.017006703,0.05846712,0.025295936
1.76966E+18,10.86833521,-0.123729329,-0.119135498,0.139316993,0.018388407,0.073849887,0.002051869
1.76966E+18,10.87832324,-0.006053309,-0.146067344,0.131845634,0.017774282,0.058164928,-0.016195579
1.76966E+18,10.88831152,0.08188348,-0.131569448,0.068019059,0.011145568,0.028095376,-0.02650124
1.76966E+18,10.89829932,0.113106301,-0.085457685,0.037272623,0.006637103,0.001386799,-0.018910965
1.76966E+18,10.90828711,0.085461703,-0.0426549,0.020229718,0.001018422,-0.013880179,-0.000828961
1.76966E+18,10.91827515,0.084092607,-0.041941199,0.02880933,-0.000431136,-0.021663534,0.0189775
1.76966E+18,10.92826318,0.093449999,-0.052288406,0.009494097,-0.002700935,-0.020369591,0.027444068
1.76966E+18,10.93825122,0.058697688,-0.06158698,0.021162323,-0.001840201,-0.011059979,0.027831025
1.76966E+18,10.94823926,0.017845453,-0.067519877,0.049320788,0.001271632,-0.004163762,0.01764518
1.76966E+18,10.95822729,-0.000176379,-0.057070964,0.050601475,0.000684938,-0.004601852,0.002055036
1.76966E+18,10.96821509,-0.063592621,-0.053168696,0.012110417,-0.000511677,-0.005934311,-0.004739756
1.76966E+18,10.97820337,-0.138220868,-0.04222703,-0.009693419,0.001367183,-0.015341927,-0.006976811
1.76966E+18,10.98819141,-0.118569242,-0.017307109,-0.052424307,0.00531032,-0.010679229,-0.003186273
1.76966E+18,10.99817944,-0.102419999,-0.02193243,-0.056964873,0.009421974,0.006230779,0.000546413
1.76966E+18,11.00816797,-0.095629096,-0.010729484,-0.022511399,0.014435908,0.029154204,0.004926781
1.76966E+18,11.01815625,-0.087329908,-0.011855273,-0.038658232,0.017505202,0.04631082,0.00514303
1.76966E+18,11.02814429,-0.040250031,-0.038027825,-0.044354106,0.017319955,0.050168969,0.004390508
1.76966E+18,11.03813232,-0.000950433,-0.031389995,-0.053711716,0.019527717,0.045104969,-0.001832234
1.76966E+18,11.04812012,0.002190934,-0.01938333,-0.043377954,0.018024413,0.039179605,-0.004957572
1.76966E+18,11.0581084,-0.011952157,-0.03220891,-0.01689619,0.012562537,0.031840466,-0.004922152
1.76966E+18,11.06809644,-0.002466682,-0.034031449,0.000445113,0.00752878,0.027797936,-0.003219126
1.76966E+18,11.07808423,0.035335663,-0.029673254,0.018475568,0.006688287,0.027441338,-0.002539753
1.76966E+18,11.08807227,0.050106385,-0.019184008,0.004189268,0.006182824,0.025828352,-0.003802114
1.76966E+18,11.0980603,0.050636108,-0.007284312,-0.011431495,0.002856802,0.019826384,0.000285572
1.76966E+18,11.10804834,0.011947847,0.001103577,-0.007488602,0.001598294,0.014641991,0.002060086
1.76966E+18,11.11803613,0.032263416,0.005529577,0.001829261,-0.000394816,0.006624278,0.003580751
1.76966E+18,11.12802417,0.043701341,0.011707973,0.003711129,-0.003851865,-0.000386627,0.004543138
1.76966E+18,11.13801343,0.043050037,-0.021197686,0.003175415,-0.002165818,-0.003442072,0.005552476
1.76966E+18,11.14800146,0.040435032,-0.046333881,-0.001109423,-0.003746029,-0.005502799,0.004119785
1.76966E+18,11.15798926,0.029365211,-0.054057169,-0.012814181,-0.003705816,-0.008731349,0.002033464
1.76966E+18,11.16797729,0.045332011,-0.040077743,-0.018828327,-0.001939344,-0.009764877,0.002840076
1.76966E+18,11.17796533,0.028793548,-0.051815527,-0.036911096,-0.000897515,-0.011067962,0.007163718
1.76966E+18,11.18795337,0.010098127,-0.074077044,-0.047588265,-0.000868541,-0.009168942,0.013090843
1.76966E+18,11.19794116,-0.001394742,-0.06250351,-0.043001814,0.002809817,-0.005008286,0.017588124
1.76966E+18,11.2079292,-0.006624971,-0.016294132,-0.022202187,0.003594067,0.004737028,0.012013837
1.76966E+18,11.21791724,-0.01131649,-0.00480477,0.009163842,0.005813279,0.011402121,0.009167717
1.76966E+18,11.22790527,-0.038219621,-0.013873043,-0.012610768,0.001967839,0.017176272,0.007905674
1.76966E+18,11.23789331,-0.034862128,0.053933835,0.024370471,0.004167877,0.008399026,0.009476141
1.76966E+18,11.24788135,-0.039441199,0.035856911,0.0097621,0.002394205,0.00389997,0.011068858
1.76966E+18,11.25786914,-0.017894407,0.020133272,-0.021367198,0.002908461,-0.000681732,0.006516451
1.76966E+18,11.26785718,0.035274727,-0.011738369,0.002964403,0.002116011,-0.008773942,0.005076509
1.76966E+18,11.27784619,0.04901669,-0.027284313,-0.005586568,0.003404981,-0.01562519,0.005983049
1.76966E+18,11.28783423,0.061288435,-0.036937107,-0.01275719,0.006261223,-0.016399415,0.010156282
1.76966E+18,11.29782202,0.071651862,-0.016463644,-0.010542437,0.008757669,-0.017803967,0.018418208
1.76966E+18,11.30781006,0.071646163,-0.012386019,0.003877134,0.009181217,-0.019303434,0.028271543
1.76966E+18,11.31779834,0.095240974,-0.015025135,0.000208674,0.006777714,-0.026567472,0.038006462
1.76966E+18,11.32778638,0.122345108,-0.028080432,-0.004986264,0.007145071,-0.038929794,0.044832971
1.76966E+18,11.33777417,0.150611563,-0.0250076,-0.017032968,0.009369876,-0.052835222,0.04617973
1.76966E+18,11.34776221,0.118935153,-0.04844459,-0.035585693,0.009728923,-0.060859777,0.043857727
1.76966E+18,11.35775049,0.059318597,-0.060446578,-0.053969491,0.012015512,-0.066323258,0.040570851
1.76966E+18,11.36773828,0.012893384,-0.070405077,-0.079022391,0.015281349,-0.066201456,0.040262863
1.76966E+18,11.37772632,0.002789265,-0.04788228,-0.080622812,0.020371715,-0.053032659,0.037096635
1.76966E+18,11.38771436,-0.055797144,-0.008525252,-0.0932517,0.026768791,-0.033102833,0.037000116
1.76966E+18,11.39770239,-0.115347212,0.054487962,-0.092675069,0.032423213,-0.01301381,0.038057923
1.76966E+18,11.40769019,-0.142513451,0.100324999,-0.098624917,0.037811425,-0.000708337,0.040532298
1.76966E+18,11.4176792,-0.163087306,0.094809451,-0.078493106,0.042307109,0.01167403,0.043526758
1.76966E+18,11.42766724,-0.115921212,0.079987729,-0.067919105,0.04534775,0.01758064,0.039983727
1.76966E+18,11.43765552,-0.052719344,0.031701545,-0.030431671,0.046817549,0.020848604,0.033029947
1.76966E+18,11.44764331,0.03024667,-0.013294366,0.047597325,0.042270459,0.016799355,0.026697472
1.76966E+18,11.45763135,0.110919897,-0.071666475,0.078013214,0.039783601,0.004292618,0.022134412
1.76966E+18,11.46761938,0.138303651,-0.114136082,0.083475863,0.035292029,-0.005793633,0.022668581
1.76966E+18,11.47760718,0.150625446,-0.164794841,0.083067283,0.029394994,-0.022733999,0.027849227
1.76966E+18,11.48759521,0.144526544,-0.17134324,0.094825817,0.019311989,-0.037053864,0.032046068
1.76966E+18,11.49758325,0.100485304,-0.148431151,0.089978962,0.010926227,-0.043634802,0.03053632
1.76966E+18,11.50757104,0.078511957,-0.135749364,0.054504328,0.003349597,-0.050806478,0.026548423
1.76966E+18,11.51755908,0.045005847,-0.131356682,0.026109424,-0.001147683,-0.049567044,0.021426365
1.76966E+18,11.52754736,-0.013650924,-0.09236498,0.016544015,-0.005336836,-0.040787399,0.017191939
1.76966E+18,11.5375354,-0.063035863,-0.078435239,0.0070204,-0.002292842,-0.026990097,0.017062243
1.76966E+18,11.54752319,-0.094281116,-0.054632338,0.019323417,-9.16945E-05,-0.009405919,0.012486774
1.76966E+18,11.55751221,-0.10062084,-0.041316345,0.047976095,0.003497181,0.006741093,0.008568998
1.76966E+18,11.56750024,-0.09757665,-0.035072482,0.050952481,0.003064757,0.009744201,0.001646411
1.76966E+18,11.57748828,-0.091836718,-0.021601006,0.035781507,0.00435213,0.009963378,-0.001384533
1.76966E+18,11.58747607,-0.052887687,-0.019689035,0.0200529,0.004228111,0.007040627,-0.006616373
1.76966E+18,11.59746411,-0.028544615,-0.0366466,0.016962825,0.004788707,0.008301634,-0.00942441
1.76966E+18,11.60745239,-0.010243015,-0.073504797,-0.00361936,0.003435671,0.015954655,-0.008222629
1.76966E+18,11.61744019,-0.003345803,-0.129267016,-0.003405132,0.003940074,0.02211508,-0.008602929
1.76966E+18,11.62742822,0.016597061,-0.124836925,-0.020622809,0.004888308,0.021775587,-0.011783641
1.76966E+18,11.63741626,0.049344169,-0.085469375,-0.020469957,0.006010298,0.015554443,-0.015039355
1.76966E+18,11.6474043,0.015482962,-0.067059858,-0.001668518,0.003651696,0.012286096,-0.007271414
1.76966E+18,11.65739233,-0.017875848,-0.036517421,0.032857729,0.001370166,0.008495885,-0.000971174
1.76966E+18,11.66738086,-0.025927126,-0.020101708,0.047296296,-0.003210576,0.002136585,0.005365335
1.76966E+18,11.67736865,0.01487484,-0.029528292,0.051106502,-0.005364008,-0.005267802,0.005336041
1.76966E+18,11.68735791,0.051720981,-0.03731237,0.0409253,-0.004839045,-0.006688962,-0.001736902
1.76966E+18,11.6973457,0.03457089,-0.038154082,0.031186581,-0.003734366,-0.011059742,-0.008122362
1.76966E+18,11.70733374,0.00142616,-0.042051674,0.010788521,-0.005385722,-0.013049884,-0.01615531
1.76966E+18,11.71732178,-0.037453898,-0.048666123,-0.024258535,-0.005759364,-0.011853857,-0.015751841
1.76966E+18,11.72731006,-0.084406276,-0.063666709,-0.023483459,-0.006311553,-0.002872509,-0.016254967
1.76966E+18,11.73729785,-0.078863766,-0.059948565,-0.042342181,-0.005276115,0.004707912,-0.013857324
1.76966E+18,11.74728589,-0.051262424,-0.034126141,-0.045464405,-0.001542372,0.010003297,-0.014460034
1.76966E+18,11.75727368,-0.01902268,-0.013614684,-0.020479017,-0.000325308,0.018170679,-0.009711085
1.76966E+18,11.76726147,-0.032757849,-0.010920622,-0.000280278,0.002410876,0.024338108,-0.003626022
1.76966E+18,11.77724976,-0.017470336,-0.017631518,0.003162263,0.001708068,0.021491721,-0.003509109
1.76966E+18,11.78723779,0.017186113,-0.033980011,0.008209318,-0.000826835,0.014221309,-0.00500516
1.76966E+18,11.79722559,0.009160481,-0.05000877,0.001768471,-0.003940869,0.006488021,-0.008791377
1.76966E+18,11.8072146,-0.018759719,-0.064176412,0.020954525,-0.005867773,5.0735E-05,-0.009554542
1.76966E+18,11.81720288,-0.03735694,-0.048273909,0.01396189,-0.005611843,-0.005581585,-0.008884757
1.76966E+18,11.82719092,-0.048306131,-0.030801381,0.009186931,-0.006876409,-0.006049882,-0.005476524
1.76966E+18,11.83717871,-0.06144611,-0.008988778,0.016130758,-0.003883549,-0.000656448,0.003095392
1.76966E+18,11.8471665,-0.048965399,0.007301263,0.029032325,-0.003660966,0.007317686,0.005001113
1.76966E+18,11.85715479,-0.031668227,-0.011718495,0.025000586,-0.002026051,0.009806942,0.009834218
1.76966E+18,11.86714282,-0.013025559,-0.027247488,0.025859248,-0.002506385,0.008737575,0.003745874
1.76966E+18,11.87713062,-0.024773353,-0.05697744,0.026166415,-0.003293349,0.005375069,-0.000703203
1.76966E+18,11.88711865,-0.021909196,-0.086367201,0.032445933,-0.006240829,0.003438755,-0.005500326
1.76966E+18,11.89710693,-0.039275268,-0.089004564,0.038269525,-0.005649075,0.001694917,-0.008083592
1.76966E+18,11.90709473,-0.045657151,-0.045178866,0.049297115,-0.002845618,0.002078288,-0.008134669
1.76966E+18,11.91708276,-0.077452731,-0.052999769,0.044812663,-0.004298905,0.010695212,-0.005982568
1.76966E+18,11.9270708,-0.104332481,-0.060190557,0.073316873,0.000809677,0.010681923,-0.006136142
1.76966E+18,11.93705884,-0.052431687,-0.054550505,0.063926236,0.001630197,0.005122308,-0.006484217
1.76966E+18,11.94704785,-0.055606736,-0.087485391,0.059176119,0.001228062,0.003451086,-0.012411758
1.76966E+18,11.95703564,-0.054130307,-0.107325818,0.089310269,0.000428048,-0.001462446,-0.017544469
1.76966E+18,11.96702368,-0.009216887,-0.092712186,0.090321491,-0.001387058,-0.009969489,-0.02582939
1.76966E+18,11.97701172,-0.009630729,-0.079895374,0.120151105,-0.002834752,-0.018120624,-0.03174587
1.76966E+18,11.98699976,-0.023291005,-0.097013683,0.130979665,-0.001779022,-0.023232928,-0.032297529
1.76966E+18,11.99698779,-0.028128362,-0.087445644,0.160773915,-0.002887962,-0.030275656,-0.035478942
1.76966E+18,12.00697583,-0.007242226,-0.080323829,0.144846278,-0.005720655,-0.035961077,-0.032816838
1.76966E+18,12.01696362,-0.007934154,-0.061920157,0.191495216,-0.007305501,-0.043461073,-0.028671896
1.76966E+18,12.0269519,-0.042340428,-0.056411039,0.137233172,-0.012380585,-0.045857668,-0.017444493
1.76966E+18,12.03693994,-0.033404257,-0.080352471,0.077218849,-0.015494619,-0.050887316,-0.002411481
1.76966E+18,12.04692773,0.003880056,-0.049568041,0.057222647,-0.01993431,-0.059996221,0.005683442
1.76966E+18,12.05691553,0.068131871,-0.036273675,0.020011984,-0.020419804,-0.056158874,0.011353844
1.76966E+18,12.06690356,0.073594959,-0.001015899,-0.014283961,-0.019006742,-0.052749228,0.023279915
1.76966E+18,12.07689282,0.063074442,0.036529111,-0.033318917,-0.016002696,-0.052854691,0.025959587
1.76966E+18,12.08688086,0.023687165,0.064661565,-0.062398296,-0.013388008,-0.049969997,0.033340603
1.76966E+18,12.09686865,-0.065910542,0.061175476,-0.094412852,-0.008565023,-0.041189823,0.038857076
1.76966E+18,12.10685693,-0.121768769,0.055476973,-0.107484515,-0.006505973,-0.029625915,0.038019482
1.76966E+18,12.11684497,-0.157549765,0.031720249,-0.126764093,-0.003741079,-0.014427522,0.033385847
1.76966E+18,12.12683276,-0.176490612,0.026516251,-0.143147073,-0.000604032,0.005417227,0.029449644
1.76966E+18,12.13682056,-0.166209968,0.030883214,-0.159223178,0.003184048,0.028410694,0.024996305
1.76966E+18,12.14680859,-0.179002961,0.01991583,-0.176414552,0.00569488,0.053236637,0.019917609
1.76966E+18,12.15679688,-0.138242934,-0.013094459,-0.158773096,0.010069654,0.07253816,0.017645134
1.76966E+18,12.16678467,-0.079921532,-0.046327451,-0.127084703,0.011525227,0.082926638,0.013681242
1.76966E+18,12.17677271,-0.023095483,-0.097486561,-0.109123515,0.011646934,0.088313952,0.007828946
1.76966E+18,12.18676074,0.006498861,-0.083249946,-0.067893679,0.010614055,0.087241605,0.00255481
