time,seconds_elapsed,z,y,x
1769667428656976100,0.05797607421875,0.4465789794921875,0.8571319580078125,-0.1744384765625
1769667428666965200,0.06796533203125,0.444305419921875,0.856292724609375,-0.1715087890625
1769667428676953000,0.077953125,0.4566802978515625,0.854095458984375,-0.17218017578125
1769667428686942200,0.087942138671875,0.467071533203125,0.8545684814453125,-0.1720733642578125
1769667428696930000,0.097929931640625,0.4631500244140625,0.840545654296875,-0.1691741943359375
1769667428706919200,0.107919189453125,0.4444580078125,0.8307647705078125,-0.1690521240234375
1769667428716907300,0.1179072265625,0.4349517822265625,0.8203125,-0.173980712890625
1769667428726896400,0.127896484375,0.4382171630859375,0.82177734375,-0.1780548095703125
1769667428736884200,0.13788427734375,0.4406280517578125,0.7959747314453125,-0.1696624755859375
1769667428746873000,0.147873046875,0.4792327880859375,0.8034210205078125,-0.140167236328125
1769667428756862200,0.1578623046875,0.4509735107421875,0.812164306640625,-0.125732421875
1769667428766850300,0.167850341796875,0.3814697265625,0.797454833984375,-0.13580322265625
1769667428776839200,0.177839111328125,0.4425048828125,0.8182373046875,-0.1414947509765625
1769667428786827000,0.187826904296875,0.3844757080078125,0.927825927734375,-0.17034912109375
1769667428796816100,0.197816162109375,0.496734619140625,0.823272705078125,-0.1380767822265625
1769667428806804200,0.20780419921875,0.5344696044921875,0.802642822265625,-0.0634765625
1769667428816793000,0.21779296875,0.5022735595703125,0.7599639892578125,-0.083648681640625
1769667428826782200,0.2277822265625,0.451568603515625,0.776397705078125,-0.15234375
1769667428836770300,0.237770263671875,0.4358978271484375,0.8236541748046875,-0.1771697998046875
1769667428846759200,0.24775927734375,0.456939697265625,0.7874908447265625,-0.1813201904296875
1769667428856747300,0.257747314453125,0.4854736328125,0.766693115234375,-0.1761932373046875
1769667428866736000,0.267736083984375,0.53338623046875,0.7640380859375,-0.1945343017578125
1769667428876724200,0.27772412109375,0.5576171875,0.7909088134765625,-0.18280029296875
1769667428886713300,0.28771337890625,0.56292724609375,0.8042449951171875,-0.1790618896484375
1769667428896702200,0.2977021484375,0.4939117431640625,0.7649993896484375,-0.16619873046875
1769667428906690000,0.30768994140625,0.552642822265625,0.6929931640625,-0.165557861328125
1769667428916679200,0.31767919921875,0.6844635009765625,0.8153076171875,-0.12359619140625
1769667428926667300,0.327667236328125,0.5704803466796875,0.804046630859375,-0.1387176513671875
1769667428936656100,0.33765625,0.5738525390625,0.8059234619140625,-0.187652587890625
1769667428946644500,0.34764453125,0.7025299072265625,0.837554931640625,-0.221343994140625
1769667428956633600,0.357633544921875,0.764739990234375,0.7940216064453125,-0.2350921630859375
1769667428966621400,0.367621337890625,0.748931884765625,0.81463623046875,-0.30169677734375
1769667428976610300,0.3776103515625,0.7111663818359375,0.8598175048828125,-0.369476318359375
1769667428986599400,0.387599365234375,0.6058197021484375,0.851959228515625,-0.27520751953125
1769667428996587500,0.39758740234375,0.4676513671875,0.9176177978515625,-0.1591644287109375
1769667429006576600,0.40757666015625,0.4778594970703125,0.891204833984375,-0.14776611328125
1769667429016564500,0.417564453125,0.5812225341796875,0.8733367919921875,-0.121002197265625
1769667429026553600,0.4275537109375,0.59820556640625,0.8190765380859375,-0.1238250732421875
1769667429036541400,0.43754150390625,0.5833892822265625,0.7815093994140625,-0.1768951416015625
1769667429046530600,0.447530517578125,0.5948333740234375,0.7843475341796875,-0.2202911376953125
1769667429056519400,0.45751953125,0.62255859375,0.7794036865234375,-0.2686767578125
1769667429066507500,0.467507568359375,0.6057281494140625,0.8730926513671875,-0.2919769287109375
1769667429076496600,0.47749658203125,0.5963287353515625,0.9334259033203125,-0.264373779296875
1769667429086484500,0.487484375,0.562744140625,0.9623565673828125,-0.259918212890625
1769667429096473300,0.497473388671875,0.5452880859375,1.004974365234375,-0.312835693359375
1769667429106461400,0.50746142578125,0.5022125244140625,0.955535888671875,-0.3033905029296875
1769667429116450600,0.517450439453125,0.4277496337890625,0.8953704833984375,-0.3223419189453125
1769667429126438700,0.527438720703125,0.38604736328125,0.8540496826171875,-0.3212890625
1769667429136427500,0.537427490234375,0.3798065185546875,0.852386474609375,-0.3104705810546875
1769667429146416400,0.54741650390625,0.41241455078125,0.861358642578125,-0.3095245361328125
1769667429156404500,0.557404541015625,0.4575042724609375,0.8843231201171875,-0.2888031005859375
1769667429166393600,0.5673935546875,0.485107421875,0.8838348388671875,-0.2773895263671875
1769667429176381700,0.577381591796875,0.5114898681640625,0.838470458984375,-0.2672576904296875
1769667429186370600,0.58737060546875,0.5387725830078125,0.8102874755859375,-0.2576141357421875
1769667429196358400,0.5973583984375,0.56597900390625,0.7775421142578125,-0.25732421875
1769667429206347500,0.607347412109375,0.5592803955078125,0.752471923828125,-0.2225494384765625
1769667429216336400,0.61733642578125,0.5463104248046875,0.7101898193359375,-0.1935882568359375
1769667429226324500,0.627324462890625,0.47308349609375,0.746978759765625,-0.1563262939453125
1769667429236313600,0.637313720703125,0.338134765625,0.8125,-0.1961669921875
1769667429246301400,0.647301513671875,0.267669677734375,0.930419921875,-0.32257080078125
1769667429256290600,0.65729052734375,0.27801513671875,0.9197845458984375,-0.39678955078125
1769667429266278400,0.6672783203125,0.3509063720703125,0.7613677978515625,-0.358428955078125
1769667429276267500,0.677267578125,0.5045623779296875,0.774810791015625,-0.3360748291015625
1769667429286255600,0.687255615234375,0.4992828369140625,0.824462890625,-0.290771484375
1769667429296244700,0.69724462890625,0.3962249755859375,0.82794189453125,-0.251312255859375
1769667429306233300,0.7072333984375,0.3650054931640625,0.793304443359375,-0.29095458984375
1769667429316221400,0.717221435546875,0.3940582275390625,0.7897491455078125,-0.3435821533203125
1769667429326210600,0.72721044921875,0.395294189453125,0.7863006591796875,-0.36328125
1769667429336198700,0.73719873046875,0.353912353515625,0.8055267333984375,-0.3390045166015625
1769667429346187500,0.7471875,0.3140411376953125,0.8111114501953125,-0.348388671875
1769667429356175400,0.75717529296875,0.312835693359375,0.8289337158203125,-0.3712310791015625
1769667429366164500,0.76716455078125,0.261383056640625,0.8243560791015625,-0.3903045654296875
1769667429376153300,0.7771533203125,0.1932220458984375,0.835418701171875,-0.3792572021484375
1769667429386141400,0.787141357421875,0.297149658203125,0.7833099365234375,-0.40911865234375
1769667429396130600,0.797130615234375,0.363983154296875,0.8392791748046875,-0.353118896484375
1769667429406118400,0.807118408203125,0.289276123046875,0.847503662109375,-0.2747039794921875
1769667429416107500,0.817107421875,0.304412841796875,0.822509765625,-0.2886810302734375
1769667429426095400,0.827095458984375,0.337799072265625,0.793426513671875,-0.285797119140625
1769667429436084500,0.83708447265625,0.324676513671875,0.774688720703125,-0.29071044921875
1769667429446072600,0.847072509765625,0.276519775390625,0.7865753173828125,-0.322662353515625
1769667429456061700,0.857061767578125,0.25244140625,0.848297119140625,-0.357147216796875
1769667429466050600,0.867050537109375,0.2742462158203125,0.905792236328125,-0.356658935546875
1769667429476038400,0.877038330078125,0.3001708984375,0.910003662109375,-0.3336639404296875
1769667429486027500,0.887027587890625,0.345245361328125,0.8631134033203125,-0.31964111328125
1769667429496015600,0.897015625,0.4051666259765625,0.86798095703125,-0.27227783203125
1769667429506004500,0.90700439453125,0.447357177734375,0.84490966796875,-0.06353759765625
1769667429515992300,0.916992431640625,0.4134979248046875,0.4878692626953125,0.017364501953125
1769667429525981400,0.9269814453125,0.41241455078125,0.779327392578125,-0.238128662109375
1769667429535969500,0.936969482421875,0.1825103759765625,0.83837890625,-0.3511199951171875
1769667429545958400,0.94695849609375,0.7811126708984375,1.0421600341796875,-0.4395294189453125
1769667429555947500,0.956947509765625,1.0410614013671875,0.9486846923828125,-0.46527099609375
1769667429565935600,0.966935546875,1.073822021484375,0.8752288818359375,-0.449951171875
1769667429575924500,0.976924560546875,0.855804443359375,0.834625244140625,-0.3790130615234375
1769667429585912600,0.98691259765625,0.3351898193359375,0.7488861083984375,-0.3592529296875
1769667429595901400,0.9969013671875,0.5115203857421875,0.7808685302734375,-0.3073577880859375
1769667429605889500,1.0068896484375,0.6083831787109375,0.80816650390625,-0.52178955078125
1769667429615878700,1.016878662109375,0.13873291015625,0.8666534423828125,-0.5120391845703125
1769667429625867500,1.026867431640625,0.039276123046875,1.0188446044921875,-0.199676513671875
1769667429635855400,1.03685546875,0.1632232666015625,1.0917816162109375,-0.3053131103515625
1769667429645844500,1.046844482421875,0.3655242919921875,1.113189697265625,-0.3120880126953125
1769667429655832600,1.05683251953125,0.455078125,1.0467071533203125,-0.32989501953125
1769667429665821400,1.066821533203125,0.571441650390625,0.95904541015625,-0.3309478759765625
1769667429675809500,1.0768095703125,0.6303558349609375,0.9018096923828125,-0.288818359375
1769667429685798400,1.08679833984375,0.61920166015625,0.9376068115234375,-0.1693115234375
1769667429695786500,1.096786376953125,1.038116455078125,0.95086669921875,0.1320343017578125
1769667429705775600,1.106775634765625,2.017913818359375,0.8055572509765625,0.2103118896484375
1769667429715764500,1.116764404296875,1.771575927734375,0.506103515625,0.08428955078125
1769667429725752600,1.126752685546875,0.469940185546875,0.431793212890625,-0.220977783203125
1769667429735741700,1.13674169921875,-0.471710205078125,0.6304473876953125,-0.44793701171875
1769667429745729500,1.1467294921875,-0.1717376708984375,0.7817840576171875,-0.5811767578125
1769667429755718400,1.156718505859375,0.252227783203125,0.8934326171875,-0.5189666748046875
1769667429765706500,1.16670654296875,0.4140472412109375,0.8761138916015625,-0.3802947998046875
1769667429775695600,1.176695556640625,0.6002197265625,0.8226318359375,-0.219696044921875
1769667429785683500,1.186683349609375,0.6777801513671875,0.71319580078125,-0.1871337890625
1769667429795672300,1.19667236328125,0.6119537353515625,0.6630096435546875,-0.15753173828125
1769667429805661400,1.206661376953125,0.5405731201171875,0.673828125,-0.1291046142578125
1769667429815649500,1.2166494140625,0.515777587890625,0.6635894775390625,-0.1455841064453125
1769667429825638700,1.226638671875,0.5375213623046875,0.6578369140625,-0.1485595703125
1769667429835626500,1.23662646484375,0.58624267578125,0.6739501953125,-0.143463134765625
1769667429845615600,1.24661572265625,0.5844268798828125,0.698638916015625,-0.151519775390625
1769667429855603500,1.256603515625,0.606689453125,0.727508544921875,-0.1546783447265625
1769667429865592600,1.266592529296875,0.654937744140625,0.7655181884765625,-0.1392364501953125
1769667429875581400,1.27658154296875,0.58489990234375,0.8272705078125,-0.1136016845703125
1769667429885569500,1.286569580078125,0.564544677734375,0.8229217529296875,-0.094329833984375
1769667429895558700,1.29655859375,0.56396484375,0.815948486328125,-0.12017822265625
1769667429905546500,1.30654638671875,0.563323974609375,0.8055877685546875,-0.1008148193359375
1769667429915535400,1.316535400390625,0.5668792724609375,0.7780303955078125,-0.100982666015625
1769667429925523500,1.3265234375,0.5592498779296875,0.7165374755859375,-0.0910186767578125
1769667429935512600,1.3365126953125,0.5515289306640625,0.699676513671875,-0.09259033203125
1769667429945500700,1.346500732421875,0.5824432373046875,0.6879730224609375,-0.0501556396484375
1769667429955489300,1.3564892578125,0.643341064453125,0.66644287109375,-0.0259552001953125
1769667429965478400,1.366478515625,0.69488525390625,0.6490631103515625,0.0481109619140625
1769667429975466500,1.376466552734375,0.759613037109375,0.639678955078125,0.0933990478515625
1769667429985455600,1.38645556640625,0.7658843994140625,0.6317596435546875,0.07928466796875
1769667429995443500,1.396443359375,0.7101287841796875,0.6569976806640625,0.114532470703125
1769667430005432300,1.406432373046875,0.6763458251953125,0.6607208251953125,0.1230621337890625
1769667430015420400,1.41642041015625,0.8003997802734375,0.672821044921875,0.0917205810546875
1769667430025409500,1.426409423828125,0.859954833984375,0.6914520263671875,0.1393280029296875
1769667430035397600,1.436397705078125,0.8580169677734375,0.6474761962890625,0.098663330078125
1769667430045386200,1.44638623046875,0.918853759765625,0.5916900634765625,0.07952880859375
1769667430055375400,1.456375244140625,0.960906982421875,0.556732177734375,0.066802978515625
1769667430065363500,1.466363525390625,0.9843292236328125,0.5048370361328125,0.0375213623046875
1769667430075352300,1.476352294921875,0.979522705078125,0.479522705078125,0.08770751953125
1769667430085340400,1.48634033203125,0.9376068115234375,0.4678192138671875,0.1119384765625
1769667430095329500,1.49632958984375,0.92181396484375,0.485198974609375,0.066131591796875
1769667430105317400,1.5063173828125,0.9652252197265625,0.5159759521484375,0.0882110595703125
1769667430115306500,1.516306396484375,0.9040374755859375,0.53631591796875,0.1185760498046875
1769667430125295400,1.52629541015625,0.8715667724609375,0.5743408203125,0.1295166015625
1769667430135283500,1.536283447265625,0.9154205322265625,0.5608367919921875,0.1775970458984375
1769667430145272600,1.5462724609375,0.92767333984375,0.5423126220703125,0.16778564453125
1769667430155260400,1.556260498046875,0.9201812744140625,0.497467041015625,0.1624908447265625
1769667430165249300,1.566249267578125,0.883453369140625,0.4696807861328125,0.141632080078125
1769667430175237400,1.5762373046875,0.83319091796875,0.4550628662109375,0.1360626220703125
1769667430185226500,1.5862265625,0.91583251953125,0.4354248046875,0.156097412109375
1769667430195214600,1.596214599609375,0.9636077880859375,0.428497314453125,0.1983795166015625
1769667430205203500,1.606203369140625,0.863250732421875,0.42596435546875,0.1724090576171875
1769667430215192300,1.6161923828125,0.97064208984375,0.342803955078125,0.1826324462890625
1769667430225180400,1.626180419921875,0.9136962890625,0.262420654296875,0.157440185546875
1769667430235169500,1.63616943359375,0.828155517578125,0.3401947021484375,0.1233978271484375
1769667430245157400,1.646157470703125,0.952789306640625,0.300689697265625,0.1932373046875
1769667430255146500,1.656146484375,0.951019287109375,0.2699737548828125,0.244720458984375
1769667430265134300,1.66613427734375,0.88946533203125,0.2622222900390625,0.25726318359375
1769667430275123500,1.67612353515625,0.9461517333984375,0.2457122802734375,0.27886962890625
1769667430285111600,1.686111572265625,1.01910400390625,0.2269744873046875,0.2696533203125
1769667430295100400,1.696100341796875,0.931365966796875,0.2263336181640625,0.241668701171875
1769667430305089500,1.706089599609375,0.9273223876953125,0.230743408203125,0.231536865234375
1769667430315077600,1.71607763671875,1.0125274658203125,0.2996063232421875,0.1848907470703125
1769667430325066200,1.726066162109375,1.0585784912109375,0.329681396484375,0.1342315673828125
1769667430335054300,1.736054443359375,1.052642822265625,0.3589935302734375,0.0918121337890625
1769667430345043500,1.74604345703125,1.082763671875,0.31256103515625,0.1364593505859375
1769667430355031600,1.756031494140625,1.009979248046875,0.2911529541015625,0.136474609375
1769667430365020400,1.7660205078125,0.9862518310546875,0.258270263671875,0.1452484130859375
1769667430375009500,1.776009521484375,1.002349853515625,0.288604736328125,0.122802734375
1769667430384997400,1.785997314453125,0.97918701171875,0.2772064208984375,0.164398193359375
1769667430394986500,1.795986572265625,0.9640045166015625,0.23089599609375,0.2067108154296875
1769667430404974300,1.805974365234375,0.9385986328125,0.295166015625,0.194915771484375
1769667430414963500,1.81596337890625,0.967803955078125,0.27978515625,0.2646026611328125
1769667430424951300,1.825951416015625,0.9366302490234375,0.2996368408203125,0.23114013671875
1769667430434940400,1.8359404296875,0.9806365966796875,0.240142822265625,0.2410430908203125
1769667430444928500,1.845928466796875,0.9538116455078125,0.2433319091796875,0.2291412353515625
1769667430454917400,1.85591748046875,0.9470367431640625,0.2360382080078125,0.248016357421875
1769667430464906500,1.865906494140625,0.9307861328125,0.2149200439453125,0.2085418701171875
1769667430474894600,1.87589453125,0.960418701171875,0.2353973388671875,0.235321044921875
1769667430484883500,1.885883544921875,0.95989990234375,0.246002197265625,0.23260498046875
1769667430494871300,1.895871337890625,0.9701385498046875,0.247650146484375,0.2516632080078125
1769667430504860400,1.9058603515625,0.982574462890625,0.192840576171875,0.25927734375
1769667430514848500,1.9158486328125,0.975311279296875,0.1944427490234375,0.214385986328125
1769667430524837400,1.92583740234375,0.9619293212890625,0.2149810791015625,0.2547454833984375
1769667430534825200,1.9358251953125,0.949737548828125,0.2266387939453125,0.2556915283203125
1769667430544814300,1.945814453125,0.9420166015625,0.2004547119140625,0.2521514892578125
1769667430554803500,1.955803466796875,0.9443359375,0.1714935302734375,0.265045166015625
1769667430564791600,1.96579150390625,0.924041748046875,0.176239013671875,0.305511474609375
1769667430574780400,1.975780517578125,0.9416351318359375,0.114837646484375,0.3457183837890625
1769667430584768500,1.9857685546875,0.9079437255859375,0.06072998046875,0.3981170654296875
1769667430594757400,1.99575732421875,0.9125518798828125,0.0510406494140625,0.4048004150390625
1769667430604745500,2.005745361328125,0.911468505859375,0.087493896484375,0.3892974853515625
1769667430614734300,2.015734375,0.9168853759765625,0.10028076171875,0.368988037109375
1769667430624723500,2.025723388671875,0.9282989501953125,0.1012420654296875,0.3496856689453125
1769667430634711600,2.035711669921875,0.9034576416015625,0.1073150634765625,0.3277740478515625
1769667430644700400,2.045700439453125,0.9214324951171875,0.0881195068359375,0.356781005859375
1769667430654688300,2.055688232421875,0.94317626953125,0.1127471923828125,0.3586578369140625
1769667430664677400,2.065677490234375,0.9435882568359375,0.109771728515625,0.341278076171875
1769667430674665500,2.07566552734375,0.9100494384765625,0.134368896484375,0.3285064697265625
1769667430684654600,2.085654541015625,0.9112396240234375,0.1423797607421875,0.3094024658203125
1769667430694642400,2.095642333984375,0.9295654296875,0.151031494140625,0.2913055419921875
1769667430704631300,2.10563134765625,0.9430999755859375,0.1582794189453125,0.2798004150390625
1769667430714620400,2.115620361328125,0.9503021240234375,0.161895751953125,0.27154541015625
1769667430724608500,2.1256083984375,0.9530181884765625,0.16796875,0.269775390625
1769667430734597400,2.135597412109375,0.9507293701171875,0.1592864990234375,0.263427734375
1769667430744585500,2.14558544921875,0.9586944580078125,0.163543701171875,0.25811767578125
1769667430754574600,2.15557470703125,0.9681396484375,0.167205810546875,0.24896240234375
1769667430764562400,2.1655625,0.9736785888671875,0.1662445068359375,0.2320709228515625
1769667430774551300,2.17555126953125,0.98065185546875,0.16497802734375,0.2362518310546875
1769667430784539400,2.185539306640625,0.9726715087890625,0.1633453369140625,0.2443084716796875
1769667430794528500,2.195528564453125,0.9644012451171875,0.1578216552734375,0.242034912109375
1769667430804517600,2.205517578125,0.97821044921875,0.1591033935546875,0.233551025390625
1769667430814505200,2.215505126953125,0.9867706298828125,0.158905029296875,0.236053466796875
1769667430824494300,2.225494384765625,0.9827117919921875,0.1552581787109375,0.2299652099609375
1769667430834482400,2.235482421875,0.9958953857421875,0.1636962890625,0.227508544921875
1769667430844471600,2.245471435546875,0.990142822265625,0.1634979248046875,0.22650146484375
1769667430854459600,2.255459716796875,0.9691619873046875,0.165924072265625,0.2254638671875
1769667430864448500,2.265448486328125,0.9585113525390625,0.15924072265625,0.21221923828125
1769667430874437400,2.275437255859375,0.951629638671875,0.163848876953125,0.2096710205078125
1769667430884425500,2.285425537109375,0.9433135986328125,0.1538238525390625,0.2177276611328125
1769667430894414300,2.295414306640625,0.9570770263671875,0.14862060546875,0.218719482421875
1769667430904402400,2.30540234375,0.9481964111328125,0.1637725830078125,0.2372589111328125
1769667430914391600,2.3153916015625,0.9666595458984375,0.1357574462890625,0.20404052734375
1769667430924379400,2.32537939453125,0.99359130859375,0.1626434326171875,0.1988067626953125
1769667430934368300,2.3353681640625,0.97332763671875,0.17626953125,0.1947021484375
1769667430944356400,2.3453564453125,0.9644775390625,0.1566009521484375,0.163177490234375
1769667430954345700,2.355345703125,0.9950714111328125,0.175750732421875,0.148223876953125
1769667430964334800,2.3653349609375,0.98406982421875,0.1827239990234375,0.139129638671875
1769667430974322700,2.37532275390625,0.9717864990234375,0.179718017578125,0.12109375
1769667430984311600,2.3853115234375,0.9838714599609375,0.1862640380859375,0.1324615478515625
1769667430994299600,2.395299560546875,0.98614501953125,0.17132568359375,0.1622314453125
1769667431004288800,2.405288818359375,0.9882965087890625,0.161376953125,0.16717529296875
1769667431014276900,2.41527685546875,0.9871826171875,0.1588287353515625,0.1523284912109375
1769667431024265700,2.425265625,0.9905548095703125,0.18255615234375,0.14215087890625
1769667431034254800,2.4352548828125,0.9821319580078125,0.154296875,0.1378326416015625
1769667431044242700,2.44524267578125,0.990570068359375,0.1828460693359375,0.1313018798828125
1769667431054231600,2.4552314453125,0.9870147705078125,0.170074462890625,0.1478424072265625
1769667431064219600,2.4652197265625,0.9930419921875,0.1886138916015625,0.1432647705078125
1769667431074208800,2.475208740234375,0.9808502197265625,0.17535400390625,0.159942626953125
1769667431084196600,2.485196533203125,0.9921875,0.135498046875,0.2135467529296875
1769667431094185500,2.495185546875,1.016571044921875,0.1024169921875,0.2838897705078125
1769667431104173600,2.505173583984375,0.9973907470703125,0.134552001953125,0.2186279296875
1769667431114162700,2.51516259765625,0.9757843017578125,0.1968231201171875,0.136932373046875
1769667431124151800,2.52515185546875,0.9937591552734375,0.2092437744140625,0.12322998046875
1769667431134140000,2.535139892578125,0.968841552734375,0.195068359375,0.1514129638671875
1769667431144128500,2.54512841796875,0.937469482421875,0.1855316162109375,0.1802978515625
1769667431154116600,2.55511669921875,0.9156646728515625,0.1978607177734375,0.1855926513671875
1769667431164105700,2.565105712890625,0.9086456298828125,0.2048187255859375,0.1768341064453125
1769667431174093800,2.57509375,0.93017578125,0.203155517578125,0.19580078125
1769667431184082700,2.585082763671875,0.97222900390625,0.1923980712890625,0.19775390625
1769667431194070500,2.595070556640625,0.9749908447265625,0.1951446533203125,0.19927978515625
1769667431204059600,2.6050595703125,0.9608917236328125,0.1897430419921875,0.218353271484375
1769667431214048500,2.615048583984375,0.9744415283203125,0.1942291259765625,0.2210845947265625
1769667431224036600,2.62503662109375,0.9510650634765625,0.2103118896484375,0.2027130126953125
1769667431234025700,2.635025634765625,0.9406585693359375,0.2499542236328125,0.204010009765625
1769667431244013800,2.645013916015625,0.94207763671875,0.2846221923828125,0.19964599609375
1769667431254002700,2.655002685546875,0.9501800537109375,0.34393310546875,0.16021728515625
1769667431263990500,2.664990478515625,0.9356231689453125,0.309478759765625,0.1367950439453125
1769667431273979600,2.674979736328125,0.8985748291015625,0.3116912841796875,0.1580657958984375
1769667431283968800,2.68496875,0.9162139892578125,0.3050384521484375,0.1922607421875
1769667431293956900,2.694956787109375,0.9320220947265625,0.3347015380859375,0.150543212890625
1769667431303945700,2.70494580078125,0.940155029296875,0.3094482421875,0.1338958740234375
1769667431313933600,2.71493359375,0.915008544921875,0.32562255859375,0.1858367919921875
1769667431323922700,2.724922607421875,0.8832855224609375,0.3419952392578125,0.196807861328125
1769667431333910800,2.734910888671875,0.8704071044921875,0.3086700439453125,0.1636505126953125
1769667431343899600,2.744899658203125,0.881591796875,0.288970947265625,0.129119873046875
1769667431353887700,2.7548876953125,0.963714599609375,0.27288818359375,0.2832489013671875
1769667431363876600,2.764876708984375,0.9706268310546875,0.301239013671875,0.295135498046875
1769667431373865700,2.77486572265625,0.8890838623046875,0.290435791015625,0.2776947021484375
1769667431383853600,2.784853515625,0.8298187255859375,0.3015594482421875,0.2750244140625
1769667431393842700,2.7948427734375,0.8070068359375,0.3052520751953125,0.3001251220703125
1769667431403830800,2.804830810546875,0.8680267333984375,0.229827880859375,0.2183990478515625
1769667431413820000,2.81481982421875,0.921905517578125,0.2554931640625,0.2423553466796875
1769667431423807700,2.824807861328125,0.92108154296875,0.2729034423828125,0.1988525390625
1769667431433796600,2.834796630859375,0.8999176025390625,0.2169189453125,0.28887939453125
1769667431443785700,2.84478564453125,0.9382781982421875,0.2043914794921875,0.32208251953125
1769667431453773800,2.85477392578125,0.9669647216796875,0.2223663330078125,0.4173583984375
1769667431463762700,2.8647626953125,0.9531402587890625,0.239349365234375,0.4576263427734375
1769667431473750500,2.87475048828125,0.931243896484375,0.2547607421875,0.33074951171875
1769667431483739600,2.88473974609375,0.932861328125,0.2896728515625,0.2661590576171875
1769667431493727700,2.894727783203125,0.9436492919921875,0.2483673095703125,0.34490966796875
1769667431503716600,2.904716552734375,0.951080322265625,0.26275634765625,0.3091888427734375
1769667431513704700,2.91470458984375,0.9333038330078125,0.28033447265625,0.284088134765625
1769667431523693600,2.924693603515625,0.9089202880859375,0.26025390625,0.3284759521484375
1769667431533682700,2.9346826171875,0.915283203125,0.258941650390625,0.3409423828125
1769667431543670500,2.94467041015625,0.9333343505859375,0.30615234375,0.2738189697265625
1769667431553659600,2.95465966796875,0.91558837890625,0.270538330078125,0.3068695068359375
1769667431563647700,2.964647705078125,0.88726806640625,0.2536163330078125,0.3377685546875
1769667431573636900,2.974636962890625,0.883087158203125,0.2757720947265625,0.3026885986328125
1769667431583624700,2.984624755859375,0.917572021484375,0.2851104736328125,0.3148956298828125
1769667431593613600,2.994613525390625,0.91845703125,0.3026885986328125,0.3058319091796875
1769667431603602700,3.004602783203125,0.9102935791015625,0.3076934814453125,0.293212890625
1769667431613590800,3.0145908203125,0.9246978759765625,0.30596923828125,0.2800750732421875
1769667431623579600,3.02457958984375,0.9468231201171875,0.3238983154296875,0.29168701171875
1769667431633567500,3.0345673828125,0.973785400390625,0.3541412353515625,0.316436767578125
1769667431643556600,3.044556640625,0.9960479736328125,0.3697509765625,0.318603515625
1769667431653544700,3.054544677734375,0.9830474853515625,0.3762664794921875,0.327667236328125
1769667431663533600,3.064533447265625,0.980316162109375,0.3936309814453125,0.305755615234375
1769667431673521700,3.074521728515625,0.9749603271484375,0.41741943359375,0.2800445556640625
1769667431683510800,3.0845107421875,0.9860687255859375,0.4350128173828125,0.2596435546875
1769667431693498600,3.09449853515625,0.971099853515625,0.413116455078125,0.222564697265625
1769667431703487700,3.10448779296875,0.921661376953125,0.39581298828125,0.2258758544921875
1769667431713476600,3.1144765625,0.9171295166015625,0.3998565673828125,0.2126922607421875
1769667431723464700,3.124464599609375,0.9304962158203125,0.3723297119140625,0.2075347900390625
1769667431733453800,3.134453857421875,0.928070068359375,0.367279052734375,0.2040557861328125
1769667431743441700,3.144441650390625,0.89959716796875,0.353912353515625,0.2874908447265625
1769667431753430500,3.154430419921875,0.91607666015625,0.3104095458984375,0.313568115234375
1769667431763418600,3.164418701171875,0.9039306640625,0.3334197998046875,0.3206939697265625
1769667431773407700,3.17440771484375,0.8625946044921875,0.242645263671875,0.3647613525390625
1769667431783396600,3.184396728515625,0.7550506591796875,0.191253662109375,0.3773651123046875
1769667431793384700,3.194384765625,0.7029266357421875,0.1728668212890625,0.3744659423828125
1769667431803373600,3.20437353515625,0.728485107421875,0.2788238525390625,0.3307342529296875
1769667431813361700,3.214361572265625,0.781097412109375,0.389129638671875,0.313812255859375
1769667431823350800,3.224350830078125,0.83416748046875,0.3890380859375,0.3312835693359375
1769667431833338600,3.234338623046875,0.8466949462890625,0.3334808349609375,0.340301513671875
1769667431843327700,3.24432763671875,0.9019012451171875,0.23663330078125,0.322998046875
1769667431853316900,3.25431689453125,0.95379638671875,0.2579498291015625,0.42022705078125
1769667431863304700,3.2643046875,0.8908538818359375,0.2480316162109375,0.4605560302734375
1769667431873293600,3.27429345703125,0.862335205078125,0.2201385498046875,0.4472198486328125
1769667431883281700,3.28428173828125,0.9073638916015625,0.1687469482421875,0.4247894287109375
1769667431893270800,3.294270751953125,0.9013671875,0.179779052734375,0.406585693359375
1769667431903258600,3.304258544921875,0.89678955078125,0.1804656982421875,0.4285125732421875
1769667431913247500,3.31424755859375,0.8296051025390625,0.1738433837890625,0.4123382568359375
1769667431923235600,3.324235595703125,0.9031982421875,0.1434478759765625,0.407440185546875
1769667431933224700,3.334224609375,1.00360107421875,-0.0177459716796875,0.37908935546875
1769667431943213800,3.3442138671875,1.012664794921875,-0.1327667236328125,0.449005126953125
1769667431953201400,3.354201416015625,0.993896484375,-0.205810546875,0.50653076171875
1769667431963190000,3.36418994140625,0.9654998779296875,-0.18804931640625,0.5740509033203125
1769667431973178000,3.37417822265625,0.9449005126953125,-0.1764068603515625,0.5772705078125
1769667431983167200,3.384167236328125,0.9999847412109375,-0.125,0.50213623046875
1769667431993155300,3.3941552734375,1.09991455078125,0.0910186767578125,0.42578125
1769667432003144200,3.404144287109375,1.2061004638671875,0.2682342529296875,0.3677215576171875
1769667432013133300,3.41413330078125,1.1282501220703125,0.30340576171875,0.38055419921875
1769667432023121200,3.42412109375,0.9127655029296875,0.3134002685546875,0.3043060302734375
1769667432033110000,3.434110107421875,0.8695526123046875,0.4149322509765625,0.1840362548828125
1769667432043098000,3.44409814453125,0.835662841796875,0.500823974609375,0.09124755859375
1769667432053087200,3.454087158203125,0.7920684814453125,0.5165863037109375,-0.012481689453125
1769667432063075000,3.464074951171875,0.8168182373046875,0.4838409423828125,-0.0374755859375
1769667432073064200,3.474064208984375,0.845062255859375,0.4582061767578125,-0.0706024169921875
1769667432083052000,3.484052001953125,0.8763427734375,0.4308624267578125,-0.030487060546875
1769667432093041200,3.494041259765625,0.8816070556640625,0.375762939453125,0.054901123046875
1769667432103030300,3.5040302734375,0.902496337890625,0.2968902587890625,0.1392364501953125
1769667432113018400,3.514018310546875,0.9624176025390625,0.146453857421875,0.25946044921875
1769667432123007200,3.52400732421875,0.994537353515625,-0.0351104736328125,0.3763580322265625
1769667432132995000,3.5339951171875,1.0450439453125,-0.08270263671875,0.434112548828125
1769667432142984200,3.543984130859375,1.0991058349609375,0.1166534423828125,0.4481964111328125
1769667432152972300,3.55397216796875,1.1224822998046875,0.2738494873046875,0.44659423828125
1769667432162961200,3.563961181640625,0.921783447265625,0.280548095703125,0.2428436279296875
1769667432172950300,3.5739501953125,0.7066802978515625,0.411773681640625,0.1251678466796875
1769667432182938000,3.583938232421875,0.587615966796875,0.5123443603515625,-0.0414581298828125
1769667432192927200,3.59392724609375,0.548431396484375,0.728912353515625,-0.096466064453125
1769667432202915000,3.6039150390625,0.790985107421875,0.952972412109375,-0.1162261962890625
1769667432212904200,3.613904296875,0.8980560302734375,0.9317474365234375,-0.1623382568359375
1769667432222892300,3.623892333984375,0.79193115234375,0.807220458984375,-0.2391510009765625
1769667432232881200,3.633881103515625,0.8011932373046875,0.7170867919921875,-0.2833099365234375
1769667432242869200,3.643869140625,0.7950897216796875,0.787109375,-0.18646240234375
1769667432252858000,3.653858154296875,0.879547119140625,0.926666259765625,-0.2377166748046875
1769667432262847200,3.66384716796875,0.961700439453125,0.9007568359375,-0.07745361328125
1769667432272835300,3.67383544921875,0.8918914794921875,0.5532989501953125,-0.033935546875
1769667432282824200,3.68382421875,0.8505859375,0.3300323486328125,0.0059356689453125
1769667432292812000,3.69381201171875,0.8761444091796875,0.35552978515625,0.058349609375
1769667432302801200,3.70380126953125,0.906951904296875,0.3441314697265625,0.045196533203125
1769667432312789200,3.713789306640625,0.873626708984375,0.4077911376953125,0.0200958251953125
1769667432322778000,3.723778076171875,0.8894195556640625,0.4832305908203125,0.0169677734375
1769667432332767200,3.733767333984375,0.895050048828125,0.473876953125,0.0278167724609375
1769667432342755000,3.743755126953125,0.88812255859375,0.4013214111328125,0.0144195556640625
1769667432352744200,3.753744140625,0.874969482421875,0.424041748046875,0.0068206787109375
1769667432362732300,3.763732177734375,0.886077880859375,0.4873504638671875,0.01959228515625
1769667432372721200,3.77372119140625,0.8506317138671875,0.4569854736328125,0.0102081298828125
1769667432382709200,3.783709228515625,0.8129119873046875,0.4096832275390625,0.0221405029296875
1769667432392698400,3.793698486328125,0.8306427001953125,0.435546875,0.03509521484375
1769667432402686200,3.803686279296875,0.89208984375,0.4441986083984375,0.0355987548828125
1769667432412675000,3.813675048828125,0.8839111328125,0.4185333251953125,0.02947998046875
1769667432422664200,3.823664306640625,0.88018798828125,0.431732177734375,0.0500335693359375
1769667432432652300,3.83365234375,0.898101806640625,0.43377685546875,0.0705718994140625
1769667432442641200,3.84364111328125,0.918853759765625,0.4353179931640625,0.086700439453125
1769667432452629000,3.85362890625,0.933319091796875,0.4324188232421875,0.1089019775390625
1769667432462618000,3.8636181640625,0.945281982421875,0.4012908935546875,0.1245880126953125
1769667432472606200,3.873606201171875,0.94329833984375,0.3875732421875,0.147186279296875
1769667432482595300,3.88359521484375,0.95465087890625,0.366302490234375,0.1237640380859375
1769667432492584200,3.893584228515625,0.9973297119140625,0.362274169921875,0.07501220703125
1769667432502572000,3.903572021484375,0.982818603515625,0.395172119140625,0.0200958251953125
1769667432512561200,3.91356103515625,0.9748077392578125,0.3894805908203125,-0.0197906494140625
1769667432522549200,3.92354931640625,0.9330291748046875,0.3809967041015625,-0.0213165283203125
1769667432532538000,3.9335380859375,0.907806396484375,0.3851470947265625,-0.016326904296875
1769667432542526200,3.943526123046875,0.936126708984375,0.3811798095703125,0.0047760009765625
1769667432552515300,3.953515380859375,0.945831298828125,0.3607330322265625,0.023834228515625
1769667432562503200,3.963503173828125,0.953887939453125,0.374267578125,0.0417022705078125
1769667432572492000,3.973491943359375,0.9451904296875,0.357635498046875,0.051422119140625
1769667432582481200,3.983481201171875,0.9407501220703125,0.3493499755859375,0.05047607421875
1769667432592469200,3.99346923828125,0.91912841796875,0.3608551025390625,0.0506134033203125
1769667432602458000,4.0034580078125,0.9087066650390625,0.381591796875,0.05596923828125
1769667432612446000,4.013446044921875,0.9166412353515625,0.384979248046875,0.0580291748046875
1769667432622435000,4.02343505859375,0.9226226806640625,0.3576812744140625,0.0331878662109375
1769667432632423200,4.033423095703125,0.945587158203125,0.3779296875,0.0257110595703125
1769667432642412300,4.043412353515625,0.933837890625,0.4315185546875,0.03179931640625
1769667432652401200,4.053401123046875,0.90924072265625,0.4431915283203125,0.0240631103515625
1769667432662389200,4.06338916015625,0.8912811279296875,0.455230712890625,0.00567626953125
1769667432672378000,4.073378173828125,0.9252777099609375,0.45172119140625,0.019317626953125
1769667432682366200,4.0833662109375,0.99627685546875,0.37359619140625,0.0081024169921875
1769667432692355000,4.09335498046875,1.0297393798828125,0.3819122314453125,0.035064697265625
1769667432702343200,4.10334326171875,0.875,0.371551513671875,0.005035400390625
1769667432712332300,4.113332275390625,0.8496856689453125,0.3493499755859375,-0.009063720703125
1769667432722320100,4.123320068359375,0.92559814453125,0.349700927734375,-0.03515625
1769667432732309000,4.13330908203125,0.95477294921875,0.3949432373046875,-0.036407470703125
1769667432742298000,4.143298095703125,0.928314208984375,0.4505462646484375,-0.002197265625
1769667432752286200,4.1532861328125,0.8997650146484375,0.4394378662109375,0.0402069091796875
1769667432762275300,4.163275390625,0.928741455078125,0.4327392578125,0.0081939697265625
1769667432772263200,4.17326318359375,0.9190216064453125,0.505157470703125,0.0053558349609375
1769667432782252000,4.183251953125,0.901336669921875,0.4897918701171875,0.0057525634765625
1769667432792240000,4.193240234375,0.870452880859375,0.4091339111328125,-0.0221099853515625
1769667432802229200,4.203229248046875,0.8925018310546875,0.4009857177734375,-0.034912109375
1769667432812218000,4.213218017578125,0.960601806640625,0.3587799072265625,-0.00433349609375
1769667432822206200,4.223206298828125,0.9976959228515625,0.3478546142578125,0.03729248046875
1769667432832195300,4.2331953125,0.9108734130859375,0.4280548095703125,0.107025146484375
1769667432842183200,4.24318310546875,0.8773651123046875,0.4013671875,0.1087799072265625
1769667432852172000,4.253172119140625,0.858123779296875,0.3646087646484375,0.120361328125
1769667432862160100,4.26316015625,0.828125,0.34771728515625,0.1088714599609375
1769667432872149200,4.273149169921875,0.720062255859375,0.2802276611328125,-0.029083251953125
1769667432882138400,4.283138427734375,0.7237548828125,0.256439208984375,-0.1209716796875
1769667432892126200,4.293126220703125,1.471435546875,0.28985595703125,-0.0616607666015625
1769667432902115000,4.303114990234375,1.2838592529296875,0.3320159912109375,0.1421356201171875
1769667432912103200,4.313103271484375,0.5849761962890625,0.3612213134765625,0.0478668212890625
1769667432922092300,4.32309228515625,1.0059814453125,0.399993896484375,0.0547943115234375
1769667432932080400,4.333080322265625,0.87823486328125,0.375762939453125,0.11279296875
1769667432942069200,4.3430693359375,0.808624267578125,0.29803466796875,0.04248046875
1769667432952057600,4.3530576171875,1.08563232421875,0.2621612548828125,0.074981689453125
1769667432962046700,4.363046630859375,1.0901947021484375,0.2945556640625,0.0772705078125
1769667432972035600,4.37303564453125,1.065399169921875,0.3386688232421875,0.0657196044921875
1769667432982023700,4.383023681640625,1.03704833984375,0.3759918212890625,0.0832061767578125
1769667432992012800,4.3930126953125,0.9360504150390625,0.37750244140625,0.065216064453125
1769667433002000600,4.403000732421875,0.890625,0.3561859130859375,0.057525634765625
1769667433011989500,4.412989501953125,0.9251708984375,0.337127685546875,0.0844879150390625
1769667433021977600,4.4229775390625,0.9539642333984375,0.3324737548828125,0.0251007080078125
1769667433031966700,4.432966796875,0.9527740478515625,0.3480682373046875,0.010467529296875
1769667433041955600,4.44295556640625,0.963775634765625,0.327789306640625,0.0340728759765625
1769667433051943400,4.452943359375,0.979461669921875,0.304718017578125,0.0166015625
1769667433061932500,4.4629326171875,0.975067138671875,0.3210296630859375,0.031005859375
1769667433071920600,4.472920654296875,0.9768218994140625,0.3275299072265625,0.046661376953125
1769667433081909800,4.48290966796875,0.95050048828125,0.357330322265625,0.0323944091796875
1769667433091897600,4.492897705078125,0.941497802734375,0.381927490234375,0.0613555908203125
1769667433101886700,4.50288671875,0.90643310546875,0.3572998046875,0.05633544921875
1769667433111875600,4.51287548828125,0.8559417724609375,0.3382720947265625,0.0288238525390625
1769667433121863700,4.52286376953125,0.8876953125,0.356201171875,0.040771484375
1769667433131852500,4.5328525390625,0.9663543701171875,0.3410797119140625,0.03961181640625
1769667433141840600,4.542840576171875,0.981170654296875,0.337371826171875,0.1175384521484375
1769667433151829800,4.552829833984375,0.8640899658203125,0.3402252197265625,0.190338134765625
1769667433161817600,4.562817626953125,0.8402557373046875,0.353790283203125,0.1932830810546875
1769667433171806500,4.572806396484375,0.96142578125,0.309783935546875,0.134674072265625
1769667433181795600,4.582795654296875,1.0510101318359375,0.3212890625,0.14788818359375
1769667433191783700,4.59278369140625,0.9338531494140625,0.3812255859375,0.150482177734375
1769667433201772800,4.602772705078125,0.8285064697265625,0.4131927490234375,0.166412353515625
1769667433211760600,4.6127607421875,0.806671142578125,0.4068145751953125,0.165191650390625
1769667433221749500,4.62274951171875,0.760498046875,0.350982666015625,0.088470458984375
1769667433231737600,4.632737548828125,0.8096771240234375,0.3555908203125,0.1112213134765625
1769667433241726700,4.642726806640625,0.850372314453125,0.3144378662109375,0.141571044921875
1769667433251714800,4.65271484375,0.9307403564453125,0.2414093017578125,0.1208038330078125
1769667433261703700,4.66270361328125,1.0115509033203125,0.2471466064453125,0.14495849609375
1769667433271692800,4.67269287109375,1.0349884033203125,0.2085113525390625,0.156951904296875
1769667433281680600,4.6826806640625,1.0832061767578125,0.203948974609375,0.1688690185546875
1769667433291669500,4.69266943359375,0.9967193603515625,0.2328948974609375,0.1676483154296875
1769667433301657600,4.70265771484375,0.8215179443359375,0.2043304443359375,0.154998779296875
1769667433311646700,4.712646728515625,0.8884124755859375,0.2188262939453125,0.1390533447265625
1769667433321634600,4.722634521484375,0.891357421875,0.2474365234375,0.1715545654296875
1769667433331623700,4.732623779296875,0.8947296142578125,0.269500732421875,0.1569976806640625
1769667433341612500,4.742612548828125,0.928466796875,0.305908203125,0.1857757568359375
1769667433351600600,4.7526005859375,0.8717498779296875,0.2300262451171875,0.1309814453125
1769667433361589800,4.76258984375,0.9885101318359375,0.1779937744140625,0.173828125
1769667433371577900,4.772577880859375,0.9647369384765625,0.1431121826171875,0.199676513671875
1769667433381566500,4.78256640625,0.896270751953125,0.0982513427734375,0.116302490234375
1769667433391554600,4.792554443359375,0.930206298828125,0.0852508544921875,0.0614776611328125
1769667433401543700,4.802543701171875,1.071990966796875,0.0852508544921875,0.109100341796875
1769667433411532500,4.812532470703125,1.13037109375,0.0752716064453125,0.1142578125
1769667433421520600,4.822520751953125,1.037322998046875,0.157867431640625,0.0909881591796875
1769667433431509800,4.832509765625,0.9788970947265625,0.1700439453125,0.094879150390625
1769667433441497600,4.84249755859375,0.9581451416015625,0.2021636962890625,0.09698486328125
1769667433451486500,4.852486572265625,0.9308319091796875,0.20843505859375,0.071380615234375
1769667433461474600,4.862474609375,0.989227294921875,0.208038330078125,0.10369873046875
1769667433471463700,4.872463623046875,1.0253753662109375,0.2209014892578125,0.09381103515625
1769667433481452800,4.882452880859375,1.0472259521484375,0.1981658935546875,0.1010894775390625
1769667433491440600,4.892440673828125,1.08648681640625,0.1919097900390625,0.1205291748046875
1769667433501429500,4.902429443359375,1.046051025390625,0.197723388671875,0.136383056640625
1769667433511417600,4.91241748046875,1.0192108154296875,0.2369537353515625,0.140625
1769667433521406700,4.92240673828125,1.011871337890625,0.2501678466796875,0.132843017578125
1769667433531394800,4.932394775390625,0.9707183837890625,0.222381591796875,0.1204681396484375
1769667433541383700,4.9423837890625,0.98828125,0.207275390625,0.114715576171875
1769667433551372500,4.95237255859375,1.0161895751953125,0.204498291015625,0.15350341796875
1769667433561360600,4.962360595703125,1.015106201171875,0.205352783203125,0.153533935546875
1769667433571349500,4.972349609375,1.0123748779296875,0.20025634765625,0.1580047607421875
1769667433581337600,4.982337646484375,1.0022735595703125,0.2281951904296875,0.159332275390625
1769667433591326700,4.99232666015625,1.007537841796875,0.167449951171875,0.1658782958984375
1769667433601314600,5.002314453125,0.9841766357421875,0.191680908203125,0.1502532958984375
1769667433611303700,5.0123037109375,1.00677490234375,0.2064056396484375,0.140167236328125
1769667433621292500,5.02229248046875,1.0043182373046875,0.1925048828125,0.146026611328125
1769667433631280600,5.03228076171875,1.0198974609375,0.1821746826171875,0.156463623046875
1769667433641269800,5.042269775390625,1.0003509521484375,0.2201385498046875,0.119598388671875
1769667433651257900,5.0522578125,1.014801025390625,0.1898651123046875,0.1620025634765625
1769667433661246500,5.06224658203125,0.9900970458984375,0.2057037353515625,0.139923095703125
1769667433671234600,5.072234619140625,0.9655303955078125,0.1900634765625,0.1518402099609375
1769667433681223700,5.0822236328125,0.963043212890625,0.1569671630859375,0.16729736328125
1769667433691212500,5.092212646484375,0.938262939453125,0.19952392578125,0.1746063232421875
1769667433701200600,5.10220068359375,0.918212890625,0.1866607666015625,0.2105712890625
1769667433711189800,5.112189697265625,0.9152069091796875,0.1376800537109375,0.2263641357421875
1769667433721177600,5.122177490234375,0.9019012451171875,0.14483642578125,0.2440948486328125
1769667433731166700,5.132166748046875,0.916534423828125,0.1327972412109375,0.297943115234375
1769667433741154600,5.142154541015625,0.9140625,0.1319427490234375,0.31500244140625
1769667433751143700,5.152143798828125,0.9400177001953125,0.1387481689453125,0.3205413818359375
1769667433761132800,5.1621328125,0.9155120849609375,0.1285552978515625,0.3545989990234375
1769667433771120600,5.17212060546875,0.9342803955078125,0.12506103515625,0.3563232421875
1769667433781109500,5.182109619140625,0.9703826904296875,0.1366729736328125,0.3872528076171875
1769667433791097600,5.19209765625,0.9594573974609375,0.146636962890625,0.38909912109375
1769667433801086700,5.202086669921875,0.9735565185546875,0.1476287841796875,0.350128173828125
1769667433811074800,5.21207470703125,0.9817657470703125,0.17181396484375,0.316925048828125
1769667433821063400,5.2220634765625,0.9654693603515625,0.1827850341796875,0.3234100341796875
1769667433831052500,5.232052490234375,0.9588165283203125,0.1744384765625,0.3053436279296875
1769667433841040600,5.24204052734375,0.94482421875,0.1952972412109375,0.2940216064453125
1769667433851029800,5.25202978515625,0.94256591796875,0.1837615966796875,0.3077545166015625
1769667433861017600,5.262017578125,0.9472808837890625,0.1428070068359375,0.3500823974609375
1769667433871006700,5.2720068359375,0.9314117431640625,0.1326446533203125,0.354217529296875
1769667433880994600,5.28199462890625,0.91497802734375,0.11260986328125,0.4101104736328125
1769667433890983700,5.291983642578125,0.90325927734375,0.109588623046875,0.40911865234375
1769667433900972500,5.30197265625,0.896331787109375,0.121429443359375,0.406829833984375
1769667433910960600,5.311960693359375,0.9118499755859375,0.1409149169921875,0.388946533203125
1769667433920949800,5.32194970703125,0.917205810546875,0.1784515380859375,0.3516845703125
1769667433930937600,5.3319375,0.910247802734375,0.1790313720703125,0.3609619140625
1769667433940926500,5.341926513671875,0.8968505859375,0.174652099609375,0.3474578857421875
1769667433950914600,5.35191455078125,0.8905487060546875,0.1543426513671875,0.4033966064453125
1769667433960903400,5.3619033203125,0.8922271728515625,0.1511383056640625,0.4066314697265625
1769667433970892500,5.371892578125,0.8701629638671875,0.1572723388671875,0.4427947998046875
1769667433980880400,5.38188037109375,0.868988037109375,0.1864776611328125,0.4525299072265625
1769667433990869500,5.391869384765625,0.8251495361328125,0.2135162353515625,0.4437408447265625
1769667434000857300,5.401857421875,0.826904296875,0.208282470703125,0.4485321044921875
1769667434010846500,5.411846435546875,0.83270263671875,0.1877899169921875,0.4216156005859375
1769667434020834600,5.42183447265625,0.8332061767578125,0.1981964111328125,0.4488372802734375
1769667434030823400,5.431823486328125,0.842498779296875,0.19561767578125,0.440826416015625
1769667434040812500,5.4418125,0.8309783935546875,0.22674560546875,0.4295654296875
1769667434050800400,5.45180029296875,0.821197509765625,0.239410400390625,0.4805908203125
1769667434060789200,5.461789306640625,0.7956390380859375,0.23065185546875,0.488677978515625
1769667434070777300,5.47177734375,0.792449951171875,0.2187957763671875,0.4810638427734375
1769667434080766500,5.481766357421875,0.7815399169921875,0.2222442626953125,0.525421142578125
1769667434090754600,5.491754638671875,0.7865753173828125,0.2235870361328125,0.558563232421875
1769667434100743400,5.501743408203125,0.786773681640625,0.2462921142578125,0.5461578369140625
1769667434110732300,5.511732177734375,0.8002166748046875,0.22955322265625,0.518096923828125
1769667434120720400,5.521720458984375,0.7975616455078125,0.270294189453125,0.55194091796875
1769667434130709500,5.53170947265625,0.83648681640625,0.2589569091796875,0.550872802734375
1769667434140697600,5.541697509765625,0.8091888427734375,0.2242889404296875,0.549957275390625
1769667434150686500,5.5516865234375,0.784332275390625,0.2317352294921875,0.55975341796875
1769667434160674300,5.56167431640625,0.792724609375,0.260345458984375,0.565948486328125
1769667434170663400,5.571663330078125,0.8043670654296875,0.207244873046875,0.5792236328125
1769667434180652300,5.58165234375,0.814117431640625,0.245880126953125,0.5455474853515625
1769667434190640400,5.591640380859375,0.8058319091796875,0.264556884765625,0.5553131103515625
1769667434200629500,5.60162939453125,0.787017822265625,0.2417449951171875,0.553985595703125
1769667434210617600,5.61161767578125,0.8072357177734375,0.2378387451171875,0.5558013916015625
1769667434220606200,5.621606201171875,0.8279571533203125,0.266448974609375,0.5378265380859375
1769667434230594300,5.63159423828125,0.8081817626953125,0.2623138427734375,0.526885986328125
1769667434240583400,5.64158349609375,0.787628173828125,0.2441558837890625,0.5364532470703125
1769667434250572500,5.651572509765625,0.79827880859375,0.2393341064453125,0.5204315185546875
1769667434260560600,5.661560546875,0.81072998046875,0.311065673828125,0.5308074951171875
1769667434270549500,5.671549560546875,0.8049163818359375,0.268402099609375,0.49761962890625
1769667434280537300,5.681537353515625,0.772857666015625,0.2769775390625,0.5030975341796875
1769667434290526500,5.6915263671875,0.7839202880859375,0.3061065673828125,0.4824981689453125
1769667434300514600,5.7015146484375,0.770355224609375,0.2595062255859375,0.4969940185546875
1769667434310503400,5.71150341796875,0.7765045166015625,0.2519073486328125,0.507080078125
1769667434320492500,5.721492431640625,0.7843475341796875,0.286865234375,0.489105224609375
1769667434330480400,5.73148046875,0.8083648681640625,0.2540435791015625,0.4823455810546875
1769667434340469200,5.74146923828125,0.8023223876953125,0.262451171875,0.5151214599609375
1769667434350457300,5.751457275390625,0.7998199462890625,0.2519378662109375,0.50482177734375
1769667434360446500,5.761446533203125,0.800872802734375,0.2175445556640625,0.502471923828125
1769667434370434600,5.7714345703125,0.807220458984375,0.230804443359375,0.4917144775390625
1769667434380423400,5.78142333984375,0.813018798828125,0.2600860595703125,0.4873504638671875
1769667434390412300,5.791412353515625,0.81365966796875,0.3075408935546875,0.4743499755859375
1769667434400400400,5.801400390625,0.8385009765625,0.282135009765625,0.4691314697265625
1769667434410389500,5.811389404296875,0.85760498046875,0.2545623779296875,0.4770965576171875
1769667434420377600,5.821377685546875,0.83343505859375,0.258941650390625,0.4889373779296875
1769667434430366500,5.831366455078125,0.8621826171875,0.2967071533203125,0.4875946044921875
1769667434440354300,5.841354248046875,0.867645263671875,0.2776641845703125,0.4537811279296875
1769667434450343400,5.851343505859375,0.8632965087890625,0.2703857421875,0.485321044921875
1769667434460332300,5.861332275390625,0.8632354736328125,0.33880615234375,0.48193359375
1769667434470320400,5.8713203125,0.866729736328125,0.3474578857421875,0.472015380859375
1769667434480309500,5.8813095703125,0.8446807861328125,0.2878265380859375,0.45751953125
1769667434490297300,5.89129736328125,0.8589324951171875,0.3093719482421875,0.4683990478515625
1769667434500286500,5.901286376953125,0.8533935546875,0.3015289306640625,0.4406890869140625
1769667434510274300,5.9112744140625,0.8169097900390625,0.3429718017578125,0.448150634765625
1769667434520263400,5.921263427734375,0.8226776123046875,0.34466552734375,0.4726409912109375
1769667434530252500,5.93125244140625,0.8363494873046875,0.361480712890625,0.4595184326171875
1769667434540240600,5.94124072265625,0.8253021240234375,0.439483642578125,0.4598388671875
1769667434550229200,5.951229248046875,0.817108154296875,0.42108154296875,0.498321533203125
1769667434560217300,5.96121728515625,0.8127593994140625,0.376739501953125,0.4967041015625
1769667434570206500,5.97120654296875,0.837310791015625,0.315155029296875,0.4603118896484375
1769667434580194600,5.981194580078125,0.8334197998046875,0.3314208984375,0.45355224609375
1769667434590183400,5.991183349609375,0.811004638671875,0.371063232421875,0.4624481201171875
1769667434600172500,6.001172607421875,0.7952117919921875,0.4170989990234375,0.4647369384765625
1769667434610160400,6.011160400390625,0.8325653076171875,0.365875244140625,0.418243408203125
1769667434620149200,6.021149169921875,0.8466796875,0.3358154296875,0.4409027099609375
1769667434630137300,6.031137451171875,0.8273162841796875,0.3381195068359375,0.4513397216796875
1769667434640126500,6.04112646484375,0.8501739501953125,0.3042755126953125,0.415283203125
1769667434650114600,6.051114501953125,0.8910980224609375,0.327239990234375,0.4202880859375
1769667434660103400,6.061103515625,0.904327392578125,0.33447265625,0.4000091552734375
1769667434670092300,6.07109228515625,0.876922607421875,0.3133697509765625,0.431640625
1769667434680080400,6.081080322265625,0.8802490234375,0.314605712890625,0.3848419189453125
1769667434690069500,6.091069580078125,0.8748779296875,0.3577880859375,0.3746490478515625
1769667434700057600,6.1010576171875,0.90478515625,0.324188232421875,0.3172760009765625
1769667434710046500,6.11104638671875,0.8771209716796875,0.3306884765625,0.3250885009765625
1769667434720034300,6.121034423828125,0.8851318359375,0.3227081298828125,0.316558837890625
1769667434730023400,6.1310234375,0.8924407958984375,0.3258056640625,0.3265228271484375
1769667434740012300,6.14101220703125,0.8846435546875,0.34490966796875,0.3475799560546875
1769667434750000400,6.15100048828125,0.829559326171875,0.394073486328125,0.348724365234375
1769667434759989500,6.160989501953125,0.820037841796875,0.3992462158203125,0.3340301513671875
1769667434769977300,6.170977294921875,0.8104095458984375,0.3922119140625,0.3407440185546875
1769667434779966500,6.180966552734375,0.80767822265625,0.3861541748046875,0.34765625
1769667434789955300,6.190955322265625,0.8197174072265625,0.374847412109375,0.3000946044921875
1769667434799943400,6.200943359375,0.9179229736328125,0.2559356689453125,0.1833343505859375
1769667434809932500,6.2109326171875,0.88812255859375,0.0678863525390625,0.15643310546875
1769667434819920600,6.220920654296875,0.9510040283203125,0.0367889404296875,0.155242919921875
1769667434829909200,6.2309091796875,0.9253692626953125,0.1588592529296875,0.20404052734375
1769667434839897300,6.2408974609375,0.911773681640625,0.24908447265625,0.2931671142578125
1769667434849886500,6.250886474609375,0.855377197265625,0.2420654296875,0.3128662109375
1769667434859875300,6.260875244140625,0.9243011474609375,0.2144775390625,0.245361328125
1769667434869863400,6.270863525390625,1.012969970703125,0.205047607421875,0.2423095703125
1769667434879852500,6.2808525390625,0.9891204833984375,0.264617919921875,0.256134033203125
1769667434889840400,6.29084033203125,0.9975128173828125,0.24151611328125,0.22882080078125
1769667434899829500,6.30082958984375,0.9559326171875,0.29351806640625,0.2242889404296875
1769667434909817300,6.3108173828125,0.9940185546875,0.263763427734375,0.2550048828125
1769667434919806500,6.320806396484375,0.9935150146484375,0.1908416748046875,0.1765899658203125
1769667434929795600,6.330795654296875,0.9178924560546875,0.2279052734375,0.20916748046875
1769667434939783400,6.340783447265625,0.9496917724609375,0.26336669921875,0.15118408203125
1769667434949772300,6.350772216796875,0.9698028564453125,0.2362823486328125,0.171173095703125
1769667434959760400,6.360760498046875,0.98858642578125,0.1557769775390625,0.08837890625
1769667434969749500,6.37074951171875,1.0109100341796875,0.2138214111328125,0.1238861083984375
1769667434979737600,6.380737548828125,0.9922943115234375,0.269866943359375,0.2210540771484375
1769667434989726500,6.3907265625,0.985260009765625,0.2658538818359375,0.2321929931640625
1769667434999715300,6.40071533203125,0.9808807373046875,0.222808837890625,0.20135498046875
1769667435009703400,6.410703369140625,0.9792633056640625,0.259063720703125,0.2033538818359375
1769667435019692500,6.420692626953125,0.98870849609375,0.235321044921875,0.1447296142578125
1769667435029680400,6.430680419921875,0.9697113037109375,0.238189697265625,0.2218780517578125
1769667435039669500,6.44066943359375,0.998077392578125,0.2444915771484375,0.2357025146484375
1769667435049657300,6.4506572265625,0.980621337890625,0.263458251953125,0.2019500732421875
1769667435059646500,6.460646484375,0.97119140625,0.263153076171875,0.2756805419921875
1769667435069635300,6.47063525390625,1.0062408447265625,0.2964324951171875,0.2846832275390625
1769667435079623400,6.48062353515625,0.9336395263671875,0.304656982421875,0.29302978515625
1769667435089612500,6.490612548828125,0.920928955078125,0.2992706298828125,0.258758544921875
1769667435099600400,6.500600341796875,0.9332733154296875,0.247406005859375,0.21490478515625
1769667435109589200,6.51058935546875,0.910858154296875,0.2282562255859375,0.174346923828125
1769667435119577300,6.520577392578125,0.910400390625,0.221527099609375,0.230926513671875
1769667435129566500,6.53056640625,0.8729705810546875,0.1841888427734375,0.245880126953125
1769667435139555300,6.540555419921875,0.879425048828125,0.1195526123046875,0.131317138671875
1769667435149543400,6.55054345703125,0.9194183349609375,0.0977630615234375,0.13427734375
1769667435159532500,6.560532470703125,0.94488525390625,0.0941619873046875,0.1111907958984375
1769667435169520400,6.570520263671875,0.9609527587890625,0.086395263671875,0.06146240234375
1769667435179509500,6.580509521484375,0.97943115234375,0.126312255859375,0.064422607421875
1769667435189497300,6.590497314453125,1.0720672607421875,0.1583099365234375,0.0165557861328125
1769667435199486500,6.600486572265625,1.09429931640625,0.194122314453125,0.023712158203125
1769667435209475600,6.6104755859375,1.0355072021484375,0.2035369873046875,0.0071258544921875
1769667435219463400,6.62046337890625,1.0435638427734375,0.184478759765625,-0.04058837890625
1769667435229452300,6.630452392578125,1.02606201171875,0.168304443359375,0.0211181640625
1769667435239440400,6.6404404296875,1.0181884765625,0.1581268310546875,0.0474395751953125
1769667435249429500,6.650429443359375,1.0090484619140625,0.1822662353515625,-0.006591796875
1769667435259418400,6.66041845703125,0.9857635498046875,0.1603240966796875,0.0752716064453125
1769667435269406200,6.67040625,0.9874725341796875,0.1468048095703125,0.0575103759765625
1769667435279395300,6.680395263671875,0.927642822265625,0.1407318115234375,0.0438079833984375
1769667435289383400,6.690383544921875,0.9714508056640625,0.1517791748046875,0.0357818603515625
1769667435299372500,6.70037255859375,1.0064849853515625,0.1663970947265625,-0.0004119873046875
1769667435309360400,6.7103603515625,0.9796905517578125,0.17584228515625,-0.025177001953125
1769667435319349500,6.720349609375,1.0024871826171875,0.1815338134765625,-0.0395660400390625
1769667435329338400,6.73033837890625,1.028533935546875,0.2015838623046875,-0.0578460693359375
1769667435339326500,6.740326416015625,0.9984893798828125,0.192718505859375,-0.0954132080078125
1769667435349315300,6.7503154296875,0.9817047119140625,0.183685302734375,-0.08203125
1769667435359303400,6.760303466796875,0.9915771484375,0.188690185546875,-0.0744171142578125
1769667435369292500,6.77029248046875,0.9778289794921875,0.1948394775390625,-0.091339111328125
1769667435379280400,6.7802802734375,0.977630615234375,0.205535888671875,-0.0508880615234375
1769667435389269200,6.790269287109375,0.96484375,0.20147705078125,-0.0534515380859375
1769667435399258400,6.80025830078125,0.93463134765625,0.2202606201171875,-0.062744140625
1769667435409246500,6.81024658203125,0.954071044921875,0.2291107177734375,-0.0655059814453125
1769667435419235600,6.820235595703125,0.9515380859375,0.23443603515625,-0.0762786865234375
1769667435429223400,6.830223388671875,0.956451416015625,0.2388916015625,-0.0720062255859375
1769667435439212300,6.84021240234375,0.9935150146484375,0.242584228515625,-0.0796966552734375
1769667435449200400,6.850200439453125,0.9872589111328125,0.237396240234375,-0.071990966796875
1769667435459189500,6.860189453125,1.007598876953125,0.221343994140625,-0.07061767578125
1769667435469178400,6.870178466796875,0.9968414306640625,0.2209014892578125,-0.0492706298828125
1769667435479166500,6.88016650390625,0.9718170166015625,0.2269439697265625,-0.0476837158203125
1769667435489155600,6.890155517578125,1.003570556640625,0.222625732421875,-0.042999267578125
1769667435499143400,6.900143310546875,1.0027618408203125,0.2201690673828125,-0.034149169921875
1769667435509132300,6.91013232421875,0.979461669921875,0.2486572265625,-0.0253448486328125
1769667435519120400,6.920120361328125,0.97442626953125,0.2743377685546875,-0.0077056884765625
1769667435529109500,6.930109619140625,0.9830169677734375,0.286651611328125,-0.0354766845703125
1769667435539098600,6.9400986328125,0.98870849609375,0.295867919921875,-0.0371246337890625
1769667435549086200,6.950086181640625,0.9931640625,0.321807861328125,-0.025482177734375
1769667435559075300,6.960075439453125,0.963470458984375,0.3327484130859375,-0.038421630859375
1769667435569063400,6.9700634765625,0.9471282958984375,0.3357391357421875,-0.04345703125
1769667435579052500,6.980052490234375,0.9575958251953125,0.367645263671875,-0.0544281005859375
1769667435589040600,6.99004052734375,0.95574951171875,0.414703369140625,-0.068145751953125
1769667435599029500,7.000029541015625,0.9614410400390625,0.4093017578125,-0.0976104736328125
1769667435609018400,7.010018310546875,0.92138671875,0.441436767578125,-0.110107421875
1769667435619006500,7.02000634765625,0.940185546875,0.4441070556640625,-0.119964599609375
1769667435628995300,7.029995361328125,1.0003814697265625,0.454254150390625,-0.11273193359375
1769667435638983400,7.0399833984375,1.0498199462890625,0.488525390625,-0.1336212158203125
1769667435648972500,7.04997265625,1.0490875244140625,0.5164031982421875,-0.1730194091796875
1769667435658960400,7.05996044921875,1.0516357421875,0.5455474853515625,-0.243560791015625
1769667435668949200,7.06994921875,1.0938568115234375,0.5648956298828125,-0.28619384765625
1769667435678938400,7.0799384765625,1.1128997802734375,0.57147216796875,-0.26373291015625
1769667435688926500,7.089926513671875,1.0946197509765625,0.5441436767578125,-0.2548065185546875
1769667435698915600,7.09991552734375,1.03924560546875,0.5332794189453125,-0.24700927734375
1769667435708903400,7.1099033203125,0.98907470703125,0.51123046875,-0.2118682861328125
1769667435718892300,7.119892333984375,0.934844970703125,0.4925384521484375,-0.162994384765625
1769667435728881400,7.12988134765625,0.8881378173828125,0.493499755859375,-0.132720947265625
1769667435738869500,7.139869384765625,0.8252410888671875,0.459381103515625,-0.0727691650390625
1769667435748858400,7.1498583984375,0.77789306640625,0.4496612548828125,-0.019287109375
1769667435758846500,7.159846435546875,0.76446533203125,0.4176177978515625,-0.0172576904296875
1769667435768835600,7.169835693359375,0.7480010986328125,0.3760528564453125,0.0000762939453125
1769667435778823400,7.179823486328125,0.7283477783203125,0.3536529541015625,0.0108184814453125
1769667435788812300,7.189812255859375,0.7276458740234375,0.3290252685546875,0.018402099609375
1769667435798801400,7.199801513671875,0.750885009765625,0.3195343017578125,0.0481414794921875
1769667435808789500,7.20978955078125,0.7735137939453125,0.3189239501953125,0.0595245361328125
1769667435818778600,7.219778564453125,0.80462646484375,0.3159942626953125,0.058441162109375
1769667435828766500,7.229766357421875,0.8425445556640625,0.324676513671875,0.0756988525390625
1769667435838755300,7.23975537109375,0.885406494140625,0.3352508544921875,0.047271728515625
1769667435848743400,7.249743408203125,0.9339752197265625,0.3683319091796875,0.0223388671875
1769667435858732500,7.259732666015625,0.9412994384765625,0.39080810546875,-0.0060577392578125
1769667435868721400,7.269721435546875,0.9294281005859375,0.394500732421875,-0.0500030517578125
1769667435878709200,7.279709228515625,0.9098358154296875,0.4169158935546875,-0.083221435546875
1769667435888698400,7.289698486328125,0.837158203125,0.3953399658203125,-0.1185455322265625
1769667435898686500,7.2996865234375,0.7628631591796875,0.360107421875,-0.151519775390625
1769667435908675300,7.30967529296875,0.72308349609375,0.3435821533203125,-0.1735992431640625
1769667435918663400,7.319663330078125,0.7184906005859375,0.3486328125,-0.1472930908203125
1769667435928652500,7.329652587890625,0.7907562255859375,0.3654022216796875,-0.1323394775390625
1769667435938641400,7.339641357421875,0.87908935546875,0.4083709716796875,-0.123779296875
1769667435948629500,7.34962939453125,0.85858154296875,0.440826416015625,-0.109375
1769667435958618400,7.359618408203125,0.84600830078125,0.47430419921875,-0.0809783935546875
1769667435968606500,7.3696064453125,0.8377685546875,0.4898529052734375,-0.0808258056640625
1769667435978595600,7.379595703125,0.838287353515625,0.46875,-0.108154296875
1769667435988584200,7.389584228515625,0.82177734375,0.4518280029296875,-0.1220550537109375
1769667435998572300,7.399572265625,0.78814697265625,0.424072265625,-0.1127777099609375
1769667436008561400,7.4095615234375,0.78973388671875,0.39935302734375,-0.118804931640625
1769667436018549500,7.419549560546875,0.78240966796875,0.4002685546875,-0.1090087890625
1769667436028538400,7.429538330078125,0.7459564208984375,0.3686981201171875,-0.0527191162109375
1769667436038526200,7.439526123046875,0.7795867919921875,0.356597900390625,-0.081512451171875
1769667436048515300,7.449515380859375,0.830810546875,0.386260986328125,-0.0387420654296875
1769667436058504400,7.45950439453125,0.841064453125,0.3979644775390625,-0.0227508544921875
1769667436068492300,7.4694921875,0.8873443603515625,0.3558502197265625,-0.109527587890625
1769667436078481400,7.4794814453125,0.9242095947265625,0.3397369384765625,-0.1337890625
1769667436088469500,7.489469482421875,0.9523468017578125,0.3693695068359375,-0.118011474609375
1769667436098458400,7.499458251953125,1.0370025634765625,0.3386688232421875,-0.1159515380859375
1769667436108447200,7.509447265625,1.02996826171875,0.332427978515625,-0.050994873046875
1769667436118435300,7.519435302734375,0.973419189453125,0.3446807861328125,0.0088043212890625
1769667436128424400,7.529424560546875,0.9142303466796875,0.339385986328125,-0.0435333251953125
1769667436138412500,7.53941259765625,0.9330902099609375,0.2938385009765625,-0.1094512939453125
1769667436148401400,7.5494013671875,0.9947357177734375,0.3096923828125,-0.1195831298828125
1769667436158389200,7.55938916015625,1.083526611328125,0.36981201171875,-0.0431365966796875
1769667436168378400,7.56937841796875,0.97979736328125,0.3976898193359375,-0.029327392578125
1769667436178367500,7.579367431640625,0.9477081298828125,0.3481292724609375,-0.076446533203125
1769667436188355300,7.589355224609375,1.022857666015625,0.3615264892578125,-0.0284271240234375
1769667436198344400,7.599344482421875,1.042816162109375,0.38568115234375,0.0013885498046875
1769667436208332300,7.609332275390625,0.9697418212890625,0.3231201171875,0.014739990234375
1769667436218321400,7.6193212890625,0.9001617431640625,0.290863037109375,0.0106048583984375
1769667436228309500,7.6293095703125,0.929779052734375,0.278106689453125,-0.0021820068359375
1769667436238298400,7.63929833984375,1.0223236083984375,0.2277374267578125,0.045013427734375
1769667436248287500,7.64928759765625,1.005096435546875,0.2117462158203125,0.089599609375
1769667436258275300,7.659275390625,0.945648193359375,0.24029541015625,0.0680389404296875
1769667436268264200,7.66926416015625,0.8968505859375,0.2075653076171875,0.11199951171875
1769667436278252300,7.679252197265625,0.9284820556640625,0.161895751953125,0.0893707275390625
1769667436288241400,7.689241455078125,1.0063629150390625,0.161163330078125,0.0723876953125
1769667436298229500,7.6992294921875,1.0001220703125,0.2239837646484375,0.1060638427734375
1769667436308218400,7.70921826171875,0.9555816650390625,0.26068115234375,0.1151275634765625
1769667436318207500,7.71920751953125,1.0671539306640625,0.1466827392578125,0.0818328857421875
1769667436328195300,7.7291953125,1.1903839111328125,0.1450653076171875,0.1806640625
1769667436338184400,7.739184326171875,1.123046875,0.20318603515625,0.2041778564453125
1769667436348172500,7.749172607421875,0.9935760498046875,0.193878173828125,0.1478729248046875
1769667436358161400,7.759161376953125,0.969024658203125,0.1854705810546875,0.1236572265625
1769667436368150500,7.769150634765625,0.928619384765625,0.207244873046875,0.0607757568359375
1769667436378138400,7.779138427734375,0.7979583740234375,0.2097015380859375,0.07916259765625
1769667436388127200,7.789127197265625,0.8818511962890625,0.180389404296875,0.08270263671875
1769667436398115300,7.799115234375,0.9871826171875,0.1556243896484375,0.083740234375
1769667436408104400,7.8091044921875,0.9358062744140625,0.1585693359375,0.0915069580078125
1769667436418092500,7.819092529296875,0.932403564453125,0.1653289794921875,0.0271759033203125
1769667436428081200,7.8290810546875,0.954345703125,0.172088623046875,-0.002471923828125
1769667436438070300,7.8390703125,1.0372467041015625,0.16845703125,0.037384033203125
1769667436448058400,7.849058349609375,1.0133209228515625,0.1681365966796875,0.069244384765625
1769667436458047500,7.859047607421875,1.0171356201171875,0.1865234375,0.0672760009765625
1769667436468035600,7.86903564453125,1.067474365234375,0.1720123291015625,0.0734100341796875
1769667436478024400,7.8790244140625,1.131622314453125,0.1552734375,0.0546417236328125
1769667436488013300,7.889013427734375,1.1679229736328125,0.1486663818359375,0.073455810546875
1769667436498001400,7.89900146484375,1.127349853515625,0.1869049072265625,0.068878173828125
1769667436507990300,7.908990234375,1.1270294189453125,0.2056884765625,0.038055419921875
1769667436517978400,7.918978271484375,1.1289215087890625,0.19000244140625,0.06268310546875
1769667436527967500,7.928967529296875,1.1207427978515625,0.170501708984375,0.0905609130859375
1769667436537955300,7.938955322265625,1.087860107421875,0.2006683349609375,0.0684051513671875
1769667436547944200,7.948944091796875,1.0313262939453125,0.2119140625,0.0554046630859375
1769667436557933300,7.958933349609375,1.0262603759765625,0.2179718017578125,0.053314208984375
1769667436567921400,7.96892138671875,1.0069427490234375,0.1707763671875,0.062255859375
1769667436577910500,7.97891064453125,1.0076904296875,0.1250762939453125,0.0835418701171875
1769667436587898400,7.9888984375,0.993011474609375,0.1037750244140625,0.12164306640625
1769667436597887200,7.99888720703125,0.98468017578125,0.0814971923828125,0.1392364501953125
1769667436607876400,8.00887646484375,0.98089599609375,0.060272216796875,0.1400604248046875
1769667436617864400,8.018864501953125,0.963897705078125,0.090087890625,0.1409454345703125
1769667436627853300,8.028853271484374,0.9695892333984375,0.11151123046875,0.14385986328125
1769667436637841400,8.03884130859375,0.9589996337890625,0.0988006591796875,0.1649627685546875
1769667436647830500,8.04883056640625,0.9536895751953125,0.078125,0.1846160888671875
1769667436657818400,8.058818359375,0.9273834228515625,0.0796356201171875,0.2039794921875
1769667436667807200,8.06880712890625,0.9440765380859375,0.0854339599609375,0.1863250732421875
1769667436677796400,8.07879638671875,0.954559326171875,0.0978240966796875,0.177337646484375
1769667436687784400,8.088784423828125,0.9627532958984375,0.097412109375,0.1880340576171875
1769667436697773600,8.098773681640624,0.9566650390625,0.11260986328125,0.1738433837890625
1769667436707761400,8.108761474609375,0.985809326171875,0.1123046875,0.172027587890625
1769667436717750300,8.118750244140625,0.9992828369140625,0.1292572021484375,0.160888671875
1769667436727739400,8.128739501953126,0.981903076171875,0.142120361328125,0.1525726318359375
1769667436737727500,8.1387275390625,0.9838104248046875,0.156982421875,0.1395111083984375
1769667436747716400,8.14871630859375,1.0016326904296875,0.15911865234375,0.1302947998046875
1769667436757704400,8.158704345703125,1.003082275390625,0.16571044921875,0.128997802734375
1769667436767693300,8.168693359375,1.004150390625,0.149200439453125,0.13751220703125
1769667436777681400,8.178681396484375,0.9964752197265625,0.148529052734375,0.133026123046875
1769667436787670300,8.188670166015624,0.9940032958984375,0.165679931640625,0.130523681640625
1769667436797659400,8.198659423828126,1.0123748779296875,0.1711578369140625,0.128692626953125
1769667436807647500,8.2086474609375,1.0102691650390625,0.167724609375,0.10791015625
1769667436817636600,8.21863671875,0.992218017578125,0.164520263671875,0.097686767578125
1769667436827624400,8.22862451171875,0.9765777587890625,0.166351318359375,0.0824432373046875
1769667436837613300,8.23861328125,0.9617156982421875,0.149749755859375,0.1144256591796875
1769667436847602400,8.2486025390625,0.9430999755859375,0.1270294189453125,0.16845703125
1769667436857590500,8.258590576171875,0.93670654296875,0.114288330078125,0.2068328857421875
1769667436867579400,8.268579345703126,0.9526214599609375,0.0856475830078125,0.205413818359375
1769667436877567200,8.278567138671875,0.93719482421875,0.081878662109375,0.2406158447265625
1769667436887556400,8.288556396484376,0.94586181640625,0.1151580810546875,0.211669921875
1769667436897544400,8.29854443359375,0.9600830078125,0.1455230712890625,0.1842803955078125
1769667436907533300,8.308533203125,0.950653076171875,0.1396484375,0.1998443603515625
1769667436917522400,8.3185224609375,0.95440673828125,0.1280059814453125,0.1971435546875
1769667436927510500,8.328510498046874,0.9642486572265625,0.1313629150390625,0.22125244140625
1769667436937499400,8.33849951171875,0.959259033203125,0.1452484130859375,0.219451904296875
1769667436947487200,8.3484873046875,0.9594573974609375,0.164031982421875,0.1828765869140625
1769667436957475600,8.3584755859375,0.9692840576171875,0.1827545166015625,0.1722412109375
1769667436967463700,8.368463623046875,1.0254058837890625,0.2118072509765625,0.13580322265625
1769667436977452800,8.378452880859374,1.0400543212890625,0.2403717041015625,0.0297393798828125
1769667436987441700,8.388441650390625,1.039794921875,0.26666259765625,-0.013214111328125
1769667436997429500,8.398429443359374,1.009185791015625,0.2847747802734375,-0.019287109375
1769667437007418600,8.408418701171875,1.0071563720703125,0.2616424560546875,-0.0078887939453125
1769667437017406700,8.41840673828125,1.0013580322265625,0.18719482421875,0.0577392578125
1769667437027395800,8.428395751953126,0.9334716796875,0.1636199951171875,0.1797027587890625
1769667437037384700,8.438384765625,0.8889007568359375,0.1726837158203125,0.2127838134765625
1769667437047372500,8.44837255859375,0.9580230712890625,0.1827850341796875,0.2105255126953125
1769667437057361700,8.458361572265625,0.9990234375,0.1717681884765625,0.2399444580078125
1769667437067349800,8.468349853515624,0.9405670166015625,0.174163818359375,0.27593994140625
1769667437077338600,8.478338623046875,0.93695068359375,0.1810302734375,0.270965576171875
1769667437087326700,8.48832666015625,0.9543914794921875,0.1606903076171875,0.238922119140625
1769667437097315800,8.49831591796875,0.9271392822265625,0.1525421142578125,0.3112335205078125
1769667437107304400,8.508304443359375,0.92230224609375,0.188751220703125,0.295257568359375
1769667437117292500,8.51829248046875,1.0003509521484375,0.1514129638671875,0.3116455078125
1769667437127281700,8.52828173828125,0.9621429443359375,0.04840087890625,0.4460601806640625
1769667437137269800,8.538269775390624,0.887542724609375,0.0600433349609375,0.4575653076171875
1769667437147259000,8.5482587890625,0.96710205078125,0.144989013671875,0.4017181396484375
1769667437157247700,8.558247802734375,0.9181976318359375,0.2055511474609375,0.300018310546875
1769667437167235600,8.568235595703126,0.8506622314453125,0.1643524169921875,0.3412017822265625
1769667437177224700,8.578224609375,0.8397979736328125,0.145050048828125,0.364501953125
1769667437187212800,8.588212890625,0.8728790283203125,0.186370849609375,0.375152587890625
1769667437197201700,8.59820166015625,0.8789215087890625,0.2099609375,0.37530517578125
1769667437207189500,8.608189453125,0.7543182373046875,0.1324615478515625,0.4426116943359375
1769667437217178600,8.6181787109375,0.770172119140625,0.1123809814453125,0.4773406982421875
1769667437227167500,8.62816748046875,0.9617462158203125,0.26953125,0.401092529296875
1769667437237155600,8.638155517578125,0.9724884033203125,0.2683563232421875,0.4426727294921875
1769667437247144700,8.648144775390625,0.8772125244140625,0.2078094482421875,0.3999176025390625
1769667437257132800,8.6581328125,0.875457763671875,0.1472320556640625,0.4345550537109375
1769667437267121700,8.66812158203125,0.884490966796875,0.17437744140625,0.485809326171875
1769667437277110500,8.678110595703124,0.8774261474609375,0.216888427734375,0.4241790771484375
1769667437287098600,8.6880986328125,0.8883209228515625,0.2181243896484375,0.39239501953125
1769667437297087700,8.698087646484375,0.9404144287109375,0.22528076171875,0.40826416015625
1769667437307075800,8.708075927734376,0.895660400390625,0.264312744140625,0.3765869140625
1769667437317064700,8.718064697265625,0.8845062255859375,0.280670166015625,0.422943115234375
1769667437327052500,8.728052490234376,0.90576171875,0.247161865234375,0.4474639892578125
1769667437337041700,8.738041748046875,0.8635711669921875,0.2351531982421875,0.4075927734375
1769667437347030500,8.748030517578124,0.843109130859375,0.220794677734375,0.4307861328125
1769667437357018600,8.7580185546875,0.8912200927734375,0.2325439453125,0.435028076171875
1769667437367007700,8.7680078125,0.8610382080078125,0.2423248291015625,0.4283294677734375
1769667437376995600,8.77799560546875,0.869110107421875,0.249725341796875,0.408447265625
1769667437386984700,8.787984619140625,0.8897552490234375,0.2646636962890625,0.435455322265625
1769667437396973600,8.7979736328125,0.844696044921875,0.26763916015625,0.444671630859375
1769667437406961700,8.807961669921875,0.859649658203125,0.2734222412109375,0.4451141357421875
1769667437416950800,8.81795068359375,0.9183807373046875,0.228973388671875,0.4210052490234375
1769667437426939000,8.82793896484375,0.9031829833984375,0.2408447265625,0.434661865234375
1769667437436927700,8.837927734375,0.895782470703125,0.2530059814453125,0.454376220703125
1769667437446915600,8.84791552734375,0.87506103515625,0.2417144775390625,0.452850341796875
1769667437456904700,8.85790478515625,0.8358612060546875,0.223876953125,0.46075439453125
1769667437466893600,8.8678935546875,0.82647705078125,0.2215728759765625,0.486297607421875
1769667437476881700,8.877881591796875,0.8363494873046875,0.22955322265625,0.5030059814453125
1769667437486870800,8.887870849609374,0.8296051025390625,0.2593841552734375,0.4892730712890625
1769667437496858600,8.897858642578125,0.8487701416015625,0.2509613037109375,0.5028228759765625
1769667437506847700,8.90784765625,0.8528594970703125,0.2635040283203125,0.5041351318359375
1769667437516836600,8.917836669921876,0.8446044921875,0.24945068359375,0.5179595947265625
1769667437526824700,8.92782470703125,0.8370361328125,0.28564453125,0.5030517578125
1769667437536813800,8.937813720703126,0.847991943359375,0.303619384765625,0.5130767822265625
1769667437546801700,8.9478017578125,0.8131103515625,0.293304443359375,0.5013427734375
1769667437556790500,8.95779052734375,0.806182861328125,0.313018798828125,0.48779296875
1769667437566779600,8.967779541015625,0.8074798583984375,0.3845672607421875,0.4995574951171875
1769667437576767700,8.977767822265625,0.7820587158203125,0.355926513671875,0.490386962890625
1769667437586756600,8.987756591796876,0.7766571044921875,0.3130950927734375,0.46112060546875
1769667437596744700,8.99774462890625,0.782623291015625,0.362213134765625,0.5111541748046875
1769667437606733600,9.007733642578126,0.7841796875,0.3330078125,0.5130462646484375
1769667437616721700,9.0177216796875,0.8240509033203125,0.2780609130859375,0.53778076171875
1769667437626710500,9.02771044921875,0.857269287109375,0.3172149658203125,0.529998779296875
1769667437636699600,9.03769970703125,0.7716522216796875,0.298675537109375,0.5626678466796875
1769667437646687700,9.047687744140624,0.683929443359375,0.31475830078125,0.5832672119140625
1769667437656676900,9.0576767578125,0.747283935546875,0.2267608642578125,0.5510406494140625
1769667437666664700,9.067664794921875,0.8560028076171875,0.239166259765625,0.5411834716796875
1769667437676653600,9.077653564453126,0.7907257080078125,0.3257293701171875,0.589996337890625
1769667437686641700,9.0876416015625,0.8074951171875,0.3226165771484375,0.549652099609375
1769667437696630800,9.097630859375,0.7691650390625,0.285430908203125,0.5769805908203125
1769667437706619600,9.10761962890625,0.7395172119140625,0.3079376220703125,0.5607757568359375
1769667437716607500,9.117607421875,0.705841064453125,0.2753448486328125,0.56561279296875
1769667437726596600,9.1275966796875,0.7510833740234375,0.256134033203125,0.583251953125
1769667437736584700,9.137584716796875,0.790771484375,0.2729949951171875,0.5780487060546875
1769667437746573600,9.147573486328126,0.77130126953125,0.26922607421875,0.5708160400390625
1769667437756562700,9.157562744140625,0.7483062744140625,0.275634765625,0.5355682373046875
1769667437766550800,9.16755078125,0.8180999755859375,0.2269134521484375,0.5173492431640625
1769667437776539600,9.17753955078125,0.77435302734375,0.205230712890625,0.5073394775390625
1769667437786527700,9.18752783203125,0.7256622314453125,0.209442138671875,0.4875946044921875
1769667437796516600,9.1975166015625,0.7810516357421875,0.2027435302734375,0.48236083984375
1769667437806505700,9.207505615234375,0.7877349853515625,0.2366943359375,0.5199127197265625
1769667437816493800,9.217493896484376,0.7725982666015625,0.248291015625,0.5228271484375
1769667437826482700,9.227482666015625,0.80303955078125,0.229400634765625,0.51416015625
1769667437836470500,9.237470458984374,0.801177978515625,0.2232666015625,0.478179931640625
1769667437846459600,9.247459716796875,0.7939453125,0.22564697265625,0.446929931640625
1769667437856447700,9.25744775390625,0.796478271484375,0.1865692138671875,0.432281494140625
1769667437866436600,9.2674365234375,0.8447113037109375,0.1727142333984375,0.4411773681640625
1769667437876425700,9.27742578125,0.8368988037109375,0.1467437744140625,0.4443817138671875
1769667437886413600,9.28741357421875,0.82684326171875,0.118682861328125,0.4113616943359375
1769667437896402700,9.297402587890625,0.89453125,0.12957763671875,0.443084716796875
1769667437906390800,9.307390869140624,0.85986328125,0.1790008544921875,0.4455413818359375
1769667437916379600,9.317379638671875,0.8254852294921875,0.225860595703125,0.431549072265625
1769667437926368800,9.32736865234375,0.8373870849609375,0.21636962890625,0.4176177978515625
1769667437936356900,9.33735693359375,0.85394287109375,0.220794677734375,0.42431640625
1769667437946345500,9.347345458984375,0.85162353515625,0.2376556396484375,0.42742919921875
1769667437956334300,9.357334228515626,0.88818359375,0.2072601318359375,0.40460205078125
1769667437966323500,9.367323486328125,0.924102783203125,0.1969146728515625,0.3910675048828125
1769667437976311600,9.3773115234375,0.9687652587890625,0.1944580078125,0.3619384765625
1769667437986300400,9.387300537109375,0.9624786376953125,0.1828460693359375,0.337127685546875
1769667437996289500,9.39728955078125,0.92254638671875,0.196929931640625,0.31866455078125
1769667438006277400,9.40727734375,0.96148681640625,0.1717071533203125,0.26519775390625
1769667438016266200,9.417266357421875,0.9750213623046875,0.206695556640625,0.310760498046875
1769667438026254300,9.42725439453125,0.933929443359375,0.19976806640625,0.2917633056640625
1769667438036243500,9.437243408203125,0.927093505859375,0.1785736083984375,0.267547607421875
1769667438046232600,9.447232666015625,0.9486846923828125,0.198394775390625,0.294891357421875
1769667438056220400,9.457220458984375,0.931854248046875,0.2291717529296875,0.2960205078125
1769667438066209300,9.467209228515625,0.919769287109375,0.2295379638671875,0.2779083251953125
1769667438076197400,9.477197265625,0.9405670166015625,0.227783203125,0.2630615234375
1769667438086186500,9.4871865234375,0.9418182373046875,0.229156494140625,0.272674560546875
1769667438096174600,9.497174560546876,0.9678802490234375,0.2117919921875,0.28228759765625
1769667438106163500,9.50716357421875,0.9779205322265625,0.218170166015625,0.27410888671875
1769667438116152600,9.517152587890624,0.962371826171875,0.2429656982421875,0.29254150390625
1769667438126140400,9.527140380859375,0.9189300537109375,0.22021484375,0.278900146484375
1769667438136129300,9.53712939453125,0.9544830322265625,0.182769775390625,0.257049560546875
1769667438146117400,9.547117431640626,0.9670257568359375,0.1644744873046875,0.2010498046875
1769667438156106500,9.5571064453125,0.9348907470703125,0.168243408203125,0.2325592041015625
1769667438166095600,9.567095703125,0.9670562744140625,0.1635894775390625,0.2009124755859375
1769667438176083200,9.577083251953125,0.987823486328125,0.1017608642578125,0.18280029296875
1769667438186072300,9.587072265625,1.121612548828125,0.01141357421875,0.15155029296875
1769667438196060400,9.597060302734375,1.14410400390625,0.1324310302734375,0.2094268798828125
1769667438206049500,9.607049560546875,0.98956298828125,0.1824951171875,0.2214813232421875
1769667438216037600,9.61703759765625,0.9128875732421875,0.14202880859375,0.208465576171875
1769667438226026500,9.627026611328125,0.9603729248046875,0.0716705322265625,0.1634063720703125
1769667438236015400,9.637015380859374,0.9954681396484375,0.0593414306640625,0.11199951171875
1769667438246003500,9.64700341796875,1.0525665283203125,0.11181640625,0.078216552734375
1769667438255992300,9.656992431640624,1.047119140625,0.1516265869140625,0.041717529296875
1769667438265980400,9.66698046875,0.9987335205078125,0.14483642578125,0.0419158935546875
1769667438275969500,9.676969482421875,0.9317474365234375,0.107208251953125,0.01971435546875
1769667438285958700,9.686958740234376,0.9110260009765625,0.079833984375,0.0042266845703125
1769667438295946200,9.6969462890625,0.9679412841796875,0.09625244140625,-0.0213165283203125
1769667438305935400,9.706935302734376,1.03387451171875,0.143157958984375,-0.04827880859375
1769667438315923500,9.71692333984375,1.070098876953125,0.1728057861328125,-0.089599609375
1769667438325912600,9.72691259765625,1.03802490234375,0.19232177734375,-0.07373046875
1769667438335900700,9.736900634765625,1.008697509765625,0.185760498046875,-0.050750732421875
1769667438345889300,9.74688916015625,0.9977264404296875,0.166534423828125,-0.0458221435546875
1769667438355878400,9.75687841796875,0.9935455322265625,0.1731719970703125,-0.0315704345703125
1769667438365866500,9.766866455078125,1.00518798828125,0.1779937744140625,-0.0286865234375
1769667438375855400,9.77685546875,1.009979248046875,0.1793365478515625,-0.0298919677734375
1769667438385843500,9.786843505859375,0.9974822998046875,0.1918182373046875,0.0016632080078125
1769667438395832600,9.79683251953125,0.9699859619140625,0.1975250244140625,0.0028839111328125
1769667438405821400,9.806821533203125,0.957366943359375,0.153594970703125,-0.001129150390625
1769667438415809300,9.816809326171875,0.9708709716796875,0.119415283203125,-0.085174560546875
1769667438425798400,9.82679833984375,0.9642181396484375,0.155059814453125,-0.0996551513671875
1769667438435786500,9.836786376953125,0.958282470703125,0.1695404052734375,-0.0803070068359375
1769667438445775600,9.846775634765624,0.960479736328125,0.1605224609375,-0.056640625
1769667438455763500,9.856763427734375,0.983062744140625,0.1444854736328125,-0.10308837890625
1769667438465752300,9.86675244140625,0.97222900390625,0.167694091796875,-0.0424957275390625
1769667438475741400,9.876741455078125,1.0006103515625,0.1570892333984375,-0.0421142578125
1769667438485729500,9.8867294921875,1.037109375,0.139739990234375,-0.03466796875
1769667438495718400,9.896718505859376,1.0327911376953125,0.1566314697265625,-0.0400390625
1769667438505706200,9.906706298828125,1.0137176513671875,0.1691436767578125,-0.024688720703125
1769667438515695400,9.9166953125,0.9869384765625,0.1667633056640625,-0.0087432861328125
1769667438525684500,9.9266845703125,0.992431640625,0.16357421875,-0.0049591064453125
1769667438535672300,9.93667236328125,1.0016326904296875,0.1699676513671875,-0.00177001953125
1769667438545661400,9.946661376953125,0.9803466796875,0.1884765625,0.0118560791015625
1769667438555649500,9.9566494140625,1.000396728515625,0.1748199462890625,0.0010223388671875
1769667438565638700,9.966638671875,1.0196380615234375,0.1800384521484375,0.0139617919921875
1769667438575626500,9.97662646484375,1.0237274169921875,0.17608642578125,0.0078887939453125
1769667438585615400,9.986615478515626,0.9985198974609375,0.1972808837890625,0.02978515625
1769667438595604500,9.9966044921875,0.9707794189453125,0.210296630859375,0.0538482666015625
1769667438605592600,10.006592529296874,1.0245819091796875,0.1707916259765625,0.0390167236328125
1769667438615581400,10.01658154296875,1.0456390380859375,0.1296844482421875,0.0902862548828125
1769667438625569300,10.0265693359375,1.00506591796875,0.1218719482421875,0.157623291015625
1769667438635558400,10.036558349609376,1.0026397705078125,0.137359619140625,0.18768310546875
1769667438645547300,10.04654736328125,1.0288848876953125,0.15423583984375,0.1893157958984375
1769667438655535400,10.056535400390626,1.0434417724609375,0.219329833984375,0.1276702880859375
1769667438665524500,10.0665244140625,1.0536346435546875,0.28289794921875,-0.0453948974609375
1769667438675512300,10.07651220703125,0.9727325439453125,0.2575836181640625,-0.2070770263671875
1769667438685501400,10.08650146484375,0.8999481201171875,0.209259033203125,-0.2136688232421875
1769667438695489300,10.0964892578125,0.8806610107421875,0.1729278564453125,-0.1717987060546875
1769667438705478400,10.106478515625,0.878387451171875,0.1868438720703125,-0.108123779296875
1769667438715467500,10.116467529296875,0.9179840087890625,0.2248077392578125,-0.068115234375
1769667438725455600,10.12645556640625,0.9599456787109375,0.2401275634765625,-0.0120849609375
1769667438735444500,10.136444580078125,0.98486328125,0.2202606201171875,-0.0165557861328125
1769667438745432300,10.146432373046874,0.9888153076171875,0.1783447265625,-0.0372161865234375
1769667438755421400,10.15642138671875,0.9674072265625,0.1214599609375,-0.0481109619140625
1769667438765410300,10.166410400390625,0.971099853515625,0.0493927001953125,-0.0507354736328125
1769667438775398400,10.1763984375,1.0004730224609375,0.0265655517578125,-0.0260162353515625
1769667438785387500,10.186387451171875,1.053680419921875,0.0419464111328125,-0.00274658203125
1769667438795375400,10.196375244140626,1.089202880859375,0.086151123046875,0.03607177734375
1769667438805364500,10.206364501953125,1.0795745849609375,0.0968170166015625,0.064910888671875
1769667438815352300,10.216352294921874,1.0628509521484375,0.0980377197265625,0.0845794677734375
1769667438825341400,10.226341552734375,1.0695343017578125,0.11480712890625,0.0997161865234375
1769667438835330600,10.23633056640625,1.0903778076171875,0.154876708984375,0.089385986328125
1769667438845318400,10.246318359375,1.0907135009765625,0.1864166259765625,0.1015777587890625
1769667438855307300,10.256307373046875,1.0795135498046875,0.2028961181640625,0.12042236328125
1769667438865295400,10.26629541015625,1.0464019775390625,0.2398834228515625,0.1430206298828125
1769667438875284500,10.276284423828125,1.0121307373046875,0.2285003662109375,0.1543731689453125
1769667438885273300,10.2862734375,0.9732208251953125,0.193878173828125,0.1812591552734375
1769667438895261400,10.296261474609375,0.97515869140625,0.205841064453125,0.2283935546875
1769667438905250300,10.306250244140625,1.0045318603515625,0.21429443359375,0.2267303466796875
1769667438915238400,10.31623828125,0.9926300048828125,0.2060089111328125,0.2294921875
1769667438925227500,10.3262275390625,0.9694061279296875,0.2185516357421875,0.228912353515625
1769667438935215400,10.33621533203125,0.9739990234375,0.213348388671875,0.192230224609375
1769667438945204500,10.34620458984375,1.017913818359375,0.20220947265625,0.183685302734375
1769667438955193600,10.356193603515624,1.052215576171875,0.1838226318359375,0.1879119873046875
1769667438965181400,10.366181396484375,1.0820770263671875,0.1640777587890625,0.18975830078125
1769667438975170300,10.37617041015625,1.0721282958984375,0.15509033203125,0.191131591796875
1769667438985158400,10.386158447265625,1.0512237548828125,0.1383819580078125,0.1613006591796875
1769667438995147500,10.3961474609375,1.04644775390625,0.11407470703125,0.1046295166015625
1769667439005136400,10.406136474609376,1.0100860595703125,0.1286773681640625,0.051361083984375
1769667439015124200,10.416124267578125,0.9484710693359375,0.155975341796875,0.055206298828125
1769667439025113300,10.42611328125,0.9017486572265625,0.1607818603515625,0.1140899658203125
1769667439035101400,10.436101318359375,0.9229278564453125,0.1739044189453125,0.13787841796875
1769667439045090600,10.446090576171875,0.911651611328125,0.1865081787109375,0.1593475341796875
1769667439055078100,10.456078125,0.887298583984375,0.1793365478515625,0.1886749267578125
1769667439065067300,10.4660673828125,0.85516357421875,0.1531829833984375,0.2106781005859375
1769667439075056400,10.476056396484376,0.8634796142578125,0.154571533203125,0.22027587890625
1769667439085044500,10.48604443359375,0.89617919921875,0.1508331298828125,0.2439117431640625
1769667439095033300,10.496033447265624,0.8712921142578125,0.101806640625,0.265289306640625
1769667439105021400,10.506021484375,0.869293212890625,0.0884857177734375,0.1975250244140625
1769667439115010600,10.516010498046874,0.899810791015625,0.1359100341796875,0.090118408203125
1769667439124999200,10.525999267578126,0.772613525390625,0.139892578125,0.2119140625
1769667439134987300,10.5359873046875,0.8056640625,0.2069091796875,0.264862060546875
1769667439144976400,10.545976318359376,0.8597412109375,0.2391357421875,0.2967987060546875
1769667439154964500,10.555964599609375,0.8435516357421875,0.27984619140625,0.3124542236328125
1769667439164953300,10.565953369140624,0.8263702392578125,0.2440032958984375,0.307464599609375
1769667439174941200,10.575941162109375,0.8491363525390625,0.335357666015625,0.255126953125
1769667439184930300,10.585930419921874,0.7960357666015625,0.3633575439453125,0.3032989501953125
1769667439194919400,10.59591943359375,0.8042449951171875,0.31256103515625,0.3600006103515625
1769667439204907500,10.605907470703125,0.8147125244140625,0.28070068359375,0.389556884765625
1769667439214896400,10.615896484375,0.8044891357421875,0.1920623779296875,0.41400146484375
1769667439224884200,10.62588427734375,0.871490478515625,0.1787261962890625,0.3656005859375
1769667439234873300,10.635873291015624,0.84698486328125,0.19854736328125,0.3197174072265625
1769667439244862200,10.6458623046875,0.802581787109375,0.1931610107421875,0.325958251953125
1769667439254850300,10.655850341796874,0.8480987548828125,0.22564697265625,0.33758544921875
1769667439264839400,10.66583935546875,0.891693115234375,0.24676513671875,0.340972900390625
1769667439274827500,10.67582763671875,0.94769287109375,0.281982421875,0.369354248046875
1769667439284816400,10.68581640625,0.9944305419921875,0.3120574951171875,0.4144287109375
1769667439294805200,10.69580517578125,1.037841796875,0.309173583984375,0.419830322265625
1769667439304793300,10.70579345703125,1.0319061279296875,0.29583740234375,0.4160919189453125
1769667439314782500,10.715782470703125,1.00115966796875,0.28289794921875,0.403289794921875
1769667439324770600,10.7257705078125,0.9893341064453125,0.2422027587890625,0.3818511962890625
1769667439334759400,10.735759521484376,0.9692230224609375,0.1989898681640625,0.3594970703125
1769667439344747300,10.745747314453125,0.929534912109375,0.178070068359375,0.3313446044921875
1769667439354736400,10.755736328125,0.87591552734375,0.1702728271484375,0.32232666015625
1769667439364725200,10.765725341796875,0.817779541015625,0.1766815185546875,0.334320068359375
1769667439374713300,10.77571337890625,0.79852294921875,0.1722259521484375,0.33050537109375
1769667439384702500,10.785702392578125,0.7866973876953125,0.1712799072265625,0.3515472412109375
1769667439394690300,10.795690185546874,0.8180084228515625,0.184906005859375,0.3721160888671875
1769667439404679400,10.805679443359375,0.8680419921875,0.1826171875,0.3797607421875
1769667439414668300,10.815668212890625,0.924713134765625,0.1706695556640625,0.3648681640625
1769667439424656400,10.825656494140626,0.96405029296875,0.1712493896484375,0.3613433837890625
1769667439434645500,10.8356455078125,0.944305419921875,0.169921875,0.3512420654296875
1769667439444633600,10.845633544921874,0.9129791259765625,0.1707305908203125,0.3237152099609375
1769667439454622200,10.855622314453125,0.83966064453125,0.1704254150390625,0.3379669189453125
1769667439464610300,10.8656103515625,0.827728271484375,0.1626739501953125,0.327392578125
1769667439474599400,10.875599365234375,0.8571929931640625,0.20849609375,0.3393096923828125
1769667439484588300,10.88558837890625,0.918304443359375,0.2698211669921875,0.3529815673828125
1769667439494576400,10.895576416015626,0.954254150390625,0.2732391357421875,0.3535614013671875
1769667439504565500,10.9055654296875,0.94256591796875,0.2515716552734375,0.3525390625
1769667439514553300,10.91555322265625,0.9096832275390625,0.2164459228515625,0.32257080078125
1769667439524542200,10.925542236328125,0.9084930419921875,0.22369384765625,0.302490234375
1769667439534531300,10.93553125,0.905853271484375,0.256622314453125,0.2874298095703125
1769667439544519400,10.94551953125,0.9015045166015625,0.311798095703125,0.30560302734375
1769667439554508500,10.955508544921875,0.9544830322265625,0.3642425537109375,0.3478240966796875
1769667439564496400,10.965496337890626,1.017669677734375,0.394195556640625,0.3621673583984375
1769667439574485200,10.9754853515625,1.015899658203125,0.4156494140625,0.409149169921875
1769667439584473300,10.985473388671876,1.0347137451171875,0.4600982666015625,0.4459075927734375
1769667439594462500,10.99546240234375,0.93359375,0.396240234375,0.3650360107421875
1769667439604451300,11.005451416015624,0.7895355224609375,0.277069091796875,0.31781005859375
1769667439614439400,11.015439453125,0.807708740234375,0.297637939453125,0.3985595703125
1769667439624428300,11.02542822265625,0.8192291259765625,0.36907958984375,0.475830078125
1769667439634416400,11.03541650390625,0.753662109375,0.4047698974609375,0.51806640625
1769667439644405200,11.0454052734375,0.731170654296875,0.394805908203125,0.4775848388671875
1769667439654394400,11.055394287109374,0.7578277587890625,0.4334716796875,0.4944305419921875
1769667439664382500,11.065382568359375,0.7349853515625,0.459381103515625,0.4850311279296875
1769667439674371600,11.07537158203125,0.78192138671875,0.491058349609375,0.397247314453125
1769667439684359400,11.085359375,0.9241943359375,0.47991943359375,0.3610076904296875
1769667439694348300,11.095348388671875,0.991546630859375,0.36859130859375,0.33990478515625
1769667439704337400,11.10533740234375,1.0107574462890625,0.229522705078125,0.33367919921875
1769667439714325500,11.115325439453125,1.0832366943359375,0.105377197265625,0.281280517578125
1769667439724314400,11.125314453125,1.09039306640625,0.081024169921875,0.2128448486328125
1769667439734302200,11.13530224609375,1.0456390380859375,0.1404266357421875,0.27703857421875
1769667439744291300,11.145291259765624,1.033294677734375,0.19598388671875,0.255706787109375
1769667439754279400,11.155279541015625,0.9853515625,0.205780029296875,0.266357421875
1769667439764268300,11.165268310546875,0.95751953125,0.1963348388671875,0.26092529296875
1769667439774257400,11.17525732421875,0.9111175537109375,0.2073516845703125,0.2369232177734375
1769667439784245500,11.18524560546875,0.90838623046875,0.196136474609375,0.2316436767578125
1769667439794234400,11.195234375,0.9427947998046875,0.1806182861328125,0.256744384765625
1769667439804222500,11.205222412109375,0.9559173583984375,0.190032958984375,0.271514892578125
1769667439814211300,11.21521142578125,0.9769439697265625,0.1723175048828125,0.25946044921875
1769667439824200400,11.225200439453126,0.965576171875,0.1660003662109375,0.2689666748046875
1769667439834188500,11.2351884765625,0.973236083984375,0.1597747802734375,0.2750701904296875
1769667439844177400,11.245177490234376,0.9669647216796875,0.1630859375,0.2900848388671875
1769667439854165200,11.255165283203125,0.9589691162109375,0.15594482421875,0.2787322998046875
1769667439864154400,11.265154296875,0.9557342529296875,0.142181396484375,0.2621917724609375
1769667439874142500,11.275142578125,0.9528656005859375,0.1587066650390625,0.2664031982421875
1769667439884131300,11.28513134765625,0.9441986083984375,0.1720733642578125,0.2425537109375
1769667439894120400,11.295120361328125,0.9290008544921875,0.1772308349609375,0.2317352294921875
1769667439904108300,11.3051083984375,0.9387054443359375,0.1829376220703125,0.2472381591796875
1769667439914097400,11.315097412109376,0.946868896484375,0.1837005615234375,0.256500244140625
1769667439924085500,11.32508544921875,0.941558837890625,0.1779937744140625,0.2453765869140625
1769667439934074400,11.335074462890624,0.9476470947265625,0.170013427734375,0.2488250732421875
1769667439944063500,11.3450634765625,0.956268310546875,0.1608734130859375,0.2583160400390625
1769667439954051600,11.355051513671874,0.930938720703125,0.1841888427734375,0.28997802734375
1769667439964040000,11.3650400390625,0.9412384033203125,0.1667633056640625,0.2724151611328125
1769667439974028000,11.375028076171875,0.9455413818359375,0.141632080078125,0.264129638671875
1769667439984017000,11.385016845703126,0.9424285888671875,0.1597747802734375,0.2722930908203125
1769667439994005000,11.3950048828125,0.9382171630859375,0.147979736328125,0.250030517578125
1769667440003994000,11.404994140625,0.9551239013671875,0.1563568115234375,0.266571044921875
1769667440013983000,11.41498291015625,0.959747314453125,0.130584716796875,0.2200927734375
1769667440023971000,11.42497119140625,0.9398651123046875,0.1421966552734375,0.209747314453125
1769667440033960200,11.434960205078125,0.9499969482421875,0.1500396728515625,0.23345947265625
1769667440043948000,11.444947998046874,0.9549407958984375,0.1416168212890625,0.2378387451171875
1769667440053937000,11.45493701171875,0.951446533203125,0.12701416015625,0.204681396484375
1769667440063926000,11.464926025390625,0.9470062255859375,0.1343994140625,0.1979522705078125
1769667440073914000,11.4749140625,0.9900360107421875,0.143218994140625,0.2395477294921875
1769667440083903000,11.484903076171875,1.0123138427734375,0.123138427734375,0.23468017578125
1769667440093890800,11.494890869140624,0.9723052978515625,0.12646484375,0.23199462890625
1769667440103880000,11.5048798828125,0.945770263671875,0.132965087890625,0.214935302734375
1769667440113869000,11.514869140625,0.9708404541015625,0.1233978271484375,0.2377471923828125
1769667440123857000,11.52485693359375,0.9732666015625,0.09698486328125,0.2269744873046875
1769667440133846000,11.534845947265625,0.9640350341796875,0.107086181640625,0.211212158203125
1769667440143834000,11.544834228515626,0.9775543212890625,0.118194580078125,0.2265625
1769667440153823000,11.554822998046875,1.0108795166015625,0.1107025146484375,0.2135162353515625
1769667440163811000,11.56481103515625,1.005859375,0.1054229736328125,0.227294921875
1769667440173800000,11.574800048828125,1.005828857421875,0.1008453369140625,0.19464111328125
1769667440183789000,11.5847890625,0.9976348876953125,0.1129913330078125,0.2032623291015625
1769667440193777200,11.594777099609376,0.9833221435546875,0.1114959716796875,0.177947998046875
1769667440203766000,11.60476611328125,0.9672393798828125,0.115631103515625,0.1779022216796875
1769667440213753900,11.61475390625,0.963653564453125,0.1264190673828125,0.1581878662109375
1769667440223743000,11.624742919921875,0.97100830078125,0.1255035400390625,0.1634979248046875
1769667440233732000,11.634732177734374,0.980712890625,0.1175384521484375,0.1521453857421875
1769667440243720000,11.644719970703125,0.9721832275390625,0.119964599609375,0.1688995361328125
1769667440253709000,11.654708984375,0.9718780517578125,0.115234375,0.18841552734375
1769667440263697000,11.66469677734375,0.974365234375,0.091705322265625,0.1768646240234375
1769667440273686000,11.67468603515625,0.9716949462890625,0.090362548828125,0.197509765625
1769667440283674000,11.684674072265626,0.9730987548828125,0.089935302734375,0.20050048828125
1769667440293663000,11.6946630859375,0.9676055908203125,0.0881195068359375,0.2090606689453125
1769667440303652000,11.704652099609374,0.9703216552734375,0.0950775146484375,0.2266387939453125
1769667440313640200,11.71464013671875,0.9853363037109375,0.0821075439453125,0.2193756103515625
1769667440323628800,11.72462890625,0.97015380859375,0.08172607421875,0.2198638916015625
1769667440333617000,11.734616943359375,0.9864654541015625,0.0774688720703125,0.2128753662109375
1769667440343606000,11.74460595703125,0.9874267578125,0.0674591064453125,0.194427490234375
1769667440353595100,11.75459521484375,0.9811248779296875,0.064300537109375,0.1702728271484375
1769667440363583000,11.7645830078125,0.9769287109375,0.0616607666015625,0.1595916748046875
1769667440373572000,11.774572021484374,0.98968505859375,0.057586669921875,0.1304473876953125
1769667440383560000,11.784559814453125,0.9835357666015625,0.06756591796875,0.14154052734375
1769667440393549000,11.794549072265625,0.9998626708984375,0.0728607177734375,0.12030029296875
1769667440403537200,11.804537109375,0.984100341796875,0.0899505615234375,0.1251220703125
1769667440413526000,11.814526123046875,0.9927215576171875,0.10455322265625,0.1403656005859375
1769667440423515100,11.82451513671875,0.9781951904296875,0.1078948974609375,0.1537628173828125
1769667440433503000,11.8345029296875,0.975494384765625,0.0993804931640625,0.17449951171875
1769667440443491800,11.844491943359374,0.977447509765625,0.095306396484375,0.1878509521484375
1769667440453480000,11.85447998046875,0.9694061279296875,0.0810089111328125,0.1839752197265625
1769667440463469000,11.864468994140625,0.988189697265625,0.0767974853515625,0.220977783203125
1769667440473458200,11.874458251953126,0.9852752685546875,0.0677947998046875,0.1891326904296875
1769667440483446000,11.884446044921875,0.9734344482421875,0.081146240234375,0.2021636962890625
1769667440493435000,11.894434814453126,0.9725189208984375,0.0649261474609375,0.213409423828125
1769667440503423000,11.904423095703125,0.98175048828125,0.0467376708984375,0.2321014404296875
1769667440513412000,11.914412109375,0.9820556640625,0.0234832763671875,0.227874755859375
1769667440523400200,11.924400146484375,0.980255126953125,0.0272064208984375,0.20892333984375
1769667440533389000,11.93438916015625,0.988006591796875,0.0308074951171875,0.208221435546875
1769667440543378200,11.944378173828126,0.9860992431640625,0.0299530029296875,0.20745849609375
1769667440553366000,11.954365966796875,0.974700927734375,0.045867919921875,0.184295654296875
1769667440563355000,11.96435498046875,0.980865478515625,0.0573272705078125,0.1621856689453125
1769667440573343000,11.974343017578125,0.9774169921875,0.0784759521484375,0.1495513916015625
1769667440583332000,11.98433203125,0.9974212646484375,0.098663330078125,0.14031982421875
1769667440593321000,11.994321044921875,0.996063232421875,0.0964508056640625,0.12371826171875
1769667440603308800,12.004308837890624,1.0030517578125,0.0975189208984375,0.1168365478515625
1769667440613298000,12.0142978515625,1.0001373291015625,0.088043212890625,0.1085357666015625
1769667440623286000,12.0242861328125,0.98553466796875,0.1154022216796875,0.075408935546875
1769667440633275100,12.034275146484376,0.980987548828125,0.1569061279296875,0.0428466796875
1769667440643264000,12.044263916015625,1.019073486328125,0.1865997314453125,0.0240936279296875
1769667440653252000,12.054252197265624,1.0068511962890625,0.21923828125,0.0429229736328125
1769667440663241000,12.064240966796875,0.95086669921875,0.1450653076171875,0.0279998779296875
1769667440673229000,12.07422900390625,1.00872802734375,0.1831512451171875,0.0771636962890625
1769667440683218000,12.084218017578126,1.0028076171875,0.184844970703125,0.0587310791015625
1769667440693206000,12.0942060546875,0.978118896484375,0.13836669921875,0.0436859130859375
1769667440703195100,12.104195068359376,1.01934814453125,0.1546173095703125,0.052581787109375
1769667440713184000,12.11418408203125,1.0394439697265625,0.165985107421875,0.07568359375
1769667440723171800,12.124171875,1.0360260009765625,0.1373138427734375,0.08404541015625
1769667440733161000,12.134160888671875,1.01873779296875,0.0877227783203125,0.086181640625
1769667440743149000,12.144149169921874,1.03790283203125,0.054229736328125,0.0631256103515625
1769667440753138200,12.15413818359375,1.0422210693359375,0.080535888671875,0.04833984375
1769667440763127000,12.164126953125,1.0349578857421875,0.0814971923828125,0.04498291015625
1769667440773115000,12.174114990234376,1.0258026123046875,0.0662841796875,0.0568695068359375
1769667440783104000,12.18410400390625,1.03228759765625,0.0753936767578125,0.0475616455078125
1769667440793092000,12.194092041015624,1.041656494140625,0.0673828125,0.0184173583984375
1769667440803081000,12.2040810546875,1.0606536865234375,0.0714263916015625,-0.0185699462890625
1769667440813069000,12.214069091796874,1.0689239501953125,0.0538177490234375,-0.0515289306640625
1769667440823058200,12.22405810546875,1.044158935546875,0.05126953125,-0.0441436767578125
1769667440833047000,12.234047119140625,1.0493316650390625,0.0756378173828125,-0.0326995849609375
1769667440843035000,12.244034912109376,1.05755615234375,0.08282470703125,-0.0478515625
1769667440853024000,12.25402392578125,1.02008056640625,0.102386474609375,-0.058990478515625
1769667440863012000,12.26401220703125,1.0118865966796875,0.12554931640625,-0.0774383544921875
1769667440873001200,12.274001220703125,1.0215911865234375,0.12921142578125,-0.1132659912109375
1769667440882990000,12.283989990234375,1.0042266845703125,0.109344482421875,-0.1159820556640625
1769667440892978000,12.29397802734375,0.9967803955078125,0.08538818359375,-0.1015625
1769667440902967000,12.303967041015625,1.029754638671875,0.0723876953125,-0.08843994140625
1769667440912955100,12.313955078125,1.063446044921875,0.0586090087890625,-0.103118896484375
1769667440922944000,12.323944091796875,1.0684661865234375,0.05145263671875,-0.0880889892578125
1769667440932931800,12.333931884765626,1.0705108642578125,0.05694580078125,-0.0772857666015625
1769667440942921000,12.3439208984375,1.033416748046875,0.057281494140625,-0.0794525146484375
1769667440952909800,12.353909912109375,0.9923248291015625,0.0287933349609375,-0.0856475830078125
1769667440962898000,12.36389794921875,0.9925537109375,0.02099609375,-0.0739593505859375
1769667440972887000,12.373886962890625,0.9894866943359375,0.03948974609375,-0.039825439453125
1769667440982875000,12.383875,0.9705657958984375,0.036956787109375,-0.047271728515625
1769667440992864000,12.393864013671875,0.9426116943359375,0.037750244140625,-0.085540771484375
1769667441002852900,12.403852783203124,0.9282379150390625,0.04779052734375,-0.1125335693359375
1769667441012841000,12.413841064453125,0.9107208251953125,0.0686798095703125,-0.11541748046875
1769667441022830000,12.423830078125,0.917144775390625,0.0908203125,-0.1435699462890625
1769667441032818000,12.43381787109375,0.9234161376953125,0.0999603271484375,-0.1523895263671875
1769667441042806800,12.443806884765625,0.93994140625,0.091949462890625,-0.1618804931640625
1769667441052795000,12.453794921875,0.95819091796875,0.07635498046875,-0.1747589111328125
1769667441062784000,12.463783935546875,0.9739990234375,0.095672607421875,-0.1551361083984375
1769667441072772900,12.47377294921875,0.9728240966796875,0.12274169921875,-0.165740966796875
1769667441082760700,12.4837607421875,0.9627532958984375,0.1160736083984375,-0.191558837890625
1769667441092749800,12.493749755859374,0.972503662109375,0.072021484375,-0.2068939208984375
1769667441102738000,12.503738037109375,0.9641571044921875,0.0227813720703125,-0.1805877685546875
1769667441112727000,12.51372705078125,0.948089599609375,0.0275115966796875,-0.13177490234375
1769667441122716000,12.5237158203125,0.9343109130859375,0.046478271484375,-0.090179443359375
1769667441132704000,12.5337041015625,0.929656982421875,0.03204345703125,-0.03631591796875
1769667441142693000,12.543693115234374,0.9010467529296875,0.0272979736328125,-0.0458221435546875
1769667441152681000,12.553680908203125,0.881622314453125,0.027099609375,0.0059661865234375
1769667441162669800,12.563669921875,0.9229583740234375,-0.010467529296875,0.0708770751953125
1769667441172659000,12.573658935546876,0.9811553955078125,0.015167236328125,0.12078857421875
1769667441182647000,12.58364697265625,1.0745391845703125,-0.03070068359375,0.1970672607421875
1769667441192636000,12.593635986328126,1.1182708740234375,-0.08624267578125,0.279022216796875
1769667441202623700,12.603623779296875,1.098846435546875,0.0317230224609375,0.218017578125
1769667441212612900,12.61361279296875,1.0421142578125,0.20086669921875,0.12664794921875
1769667441222601000,12.62360107421875,1.0305938720703125,0.250762939453125,0.26251220703125
1769667441232590000,12.633590087890624,0.96575927734375,0.2545166015625,0.276336669921875
1769667441242579000,12.643578857421875,0.97564697265625,0.3479766845703125,0.2277069091796875
1769667441252566800,12.65356689453125,0.9524688720703125,0.610260009765625,0.050323486328125
1769667441262556000,12.663555908203126,0.9987030029296875,0.945526123046875,-0.2873077392578125
1769667441272544000,12.6735439453125,1.0995025634765625,1.148193359375,-0.6074981689453125
1769667441282532900,12.683532958984374,1.0117034912109375,1.0589141845703125,-0.78582763671875
1769667441292522000,12.69352197265625,0.9417877197265625,0.9322662353515625,-0.66290283203125
1769667441302510000,12.703510009765624,1.0376739501953125,0.775604248046875,-0.419647216796875
1769667441312499000,12.7134990234375,1.1169891357421875,0.5437469482421875,-0.202117919921875
1769667441322486800,12.72348681640625,1.10882568359375,0.325042724609375,-0.0069580078125
1769667441332476000,12.733475830078126,1.088592529296875,0.17779541015625,0.2219390869140625
1769667441342464000,12.743464111328125,1.1248321533203125,0.065765380859375,0.3803253173828125
1769667441352453000,12.753453125,1.1280364990234375,0.0069580078125,0.443389892578125
1769667441362442000,12.76344189453125,1.053955078125,-0.0126190185546875,0.4644927978515625
1769667441372429800,12.773429931640624,0.9952239990234375,0.027740478515625,0.4603424072265625
1769667441382419000,12.7834189453125,0.90814208984375,0.0829315185546875,0.420257568359375
1769667441392407000,12.793406982421875,0.857574462890625,0.130218505859375,0.388092041015625
1769667441402396000,12.80339599609375,0.8286590576171875,0.1796417236328125,0.3036346435546875
1769667441412385000,12.813385009765625,0.815765380859375,0.241119384765625,0.2063140869140625
1769667441422372900,12.823372802734376,0.7830810546875,0.270111083984375,0.1553802490234375
1769667441432361700,12.83336181640625,0.771270751953125,0.266510009765625,0.1335906982421875
1769667441442349800,12.843349853515624,0.777099609375,0.2635498046875,0.1729888916015625
1769667441452339000,12.8533388671875,0.82684326171875,0.221160888671875,0.2304229736328125
1769667441462328000,12.863328125,0.886138916015625,0.175201416015625,0.29180908203125
1769667441472316000,12.87331591796875,0.909515380859375,0.1602935791015625,0.339202880859375
1769667441482304800,12.8833046875,0.927520751953125,0.155517578125,0.345794677734375
1769667441492292900,12.89329296875,0.9232940673828125,0.1764373779296875,0.3357086181640625
1769667441502282000,12.903281982421875,0.9252471923828125,0.1855621337890625,0.28369140625
1769667441512270000,12.91327001953125,0.92218017578125,0.2030792236328125,0.2506103515625
1769667441522259000,12.923259033203125,0.902587890625,0.2119293212890625,0.2391815185546875
1769667441532248000,12.933248046875,0.9172210693359375,0.223663330078125,0.2440948486328125
1769667441542236000,12.94323583984375,0.877197265625,0.2196807861328125,0.2407073974609375
1769667441552224800,12.953224853515625,0.8614654541015625,0.222747802734375,0.26043701171875
1769667441562212900,12.963212890625,0.886138916015625,0.213104248046875,0.3052978515625
1769667441572202000,12.973201904296875,0.9106597900390625,0.193084716796875,0.3167266845703125
1769667441582191000,12.983191162109375,0.94000244140625,0.1974945068359375,0.2796478271484375
1769667441592179000,12.993178955078125,0.928497314453125,0.2498321533203125,0.234405517578125
1769667441602167800,13.003167724609375,0.90191650390625,0.2879486083984375,0.2347412109375
1769667441612156000,13.013156005859376,0.9386138916015625,0.302215576171875,0.20526123046875
1769667441622145000,13.02314501953125,0.9486541748046875,0.3379669189453125,0.1760711669921875
1769667441632133000,13.033133056640626,0.9483184814453125,0.335479736328125,0.1695098876953125
1769667441642122000,13.0431220703125,0.9672698974609375,0.2718505859375,0.21148681640625
1769667441652110800,13.05311083984375,1.0074462890625,0.210174560546875,0.3175048828125
1769667441662099000,13.063098876953125,1.05242919921875,0.183563232421875,0.3903045654296875
1769667441672087800,13.073087890625,1.087677001953125,0.1958160400390625,0.4087371826171875
1769667441682076000,13.083075927734376,1.125244140625,0.220245361328125,0.3992462158203125
1769667441692065000,13.09306494140625,1.083465576171875,0.2752838134765625,0.3785400390625
1769667441702054100,13.10305419921875,1.013763427734375,0.3332672119140625,0.2990570068359375
1769667441712041700,13.113041748046875,0.923797607421875,0.3616943359375,0.193450927734375
1769667441722030800,13.12303076171875,0.905731201171875,0.3658599853515625,0.1663055419921875
1769667441732019000,13.13301904296875,0.8885498046875,0.3419647216796875,0.1833038330078125
1769667441742008000,13.143008056640625,0.86968994140625,0.336944580078125,0.213775634765625
1769667441751996200,13.15299609375,0.8612060546875,0.3216094970703125,0.211761474609375
