time,seconds_elapsed,acc_z,acc_y,acc_x,gyro_z,gyro_y,gyro_x
1.76967E+18,0.072958984,-0.18046675,-0.140974405,-0.029932343,0.112366192,-0.038821872,-0.128625214
1.76967E+18,0.082947021,-0.055411506,-0.14790625,-0.048262219,0.12122573,-0.014637442,-0.156125277
1.76967E+18,0.092936279,0.002833762,-0.152256262,-0.05864552,0.12341626,-0.036088087,-0.190473542
1.76967E+18,0.102924072,-0.066017656,-0.285545957,-0.035672348,0.136318475,-0.052176777,-0.216833517
1.76967E+18,0.11291333,-0.271439106,-0.373197353,-0.064806965,0.157975271,-0.050812878,-0.239820555
1.76967E+18,0.1229021,-0.368145038,-0.449184029,-0.122248369,0.168924332,-0.004893855,-0.259902686
1.76967E+18,0.132890137,-0.362227046,-0.438021999,-0.178554486,0.180175677,0.076729812,-0.266254067
1.76967E+18,0.142879395,-0.332855406,-0.706406979,-0.067930796,0.193564981,0.091551103,-0.348904997
1.76967E+18,0.152867432,0.036786301,-0.534661003,0.195382141,0.185831964,0.002828909,-0.433015347
1.76967E+18,0.162855957,-0.459384521,-0.490234417,0.319382907,0.201743022,0.134605587,-0.43413654
1.76967E+18,0.172843994,-1.008846203,-0.624358226,0.153820296,0.121773466,0.14373675,-0.469759494
1.76967E+18,0.182833252,-0.460343721,-0.279359378,0.15637188,-0.057878591,0.250560403,-0.316503882
1.76967E+18,0.192822021,-1.106497599,0.707066904,-0.155342537,-0.101684958,0.269154876,-0.491052151
1.76967E+18,0.202810059,0.191613874,-0.389298593,0.336366775,-0.056466881,0.137413889,-0.545701861
1.76967E+18,0.212799316,0.234980138,-0.488499556,0.993076095,-0.132433668,-0.055171788,-0.710118175
1.76967E+18,0.222787109,-0.087059275,-0.861897985,0.676991499,-0.175890326,-0.219559133,-0.770515501
1.76967E+18,0.232776367,-0.713458651,-0.555892008,0.052990563,-0.167429745,-0.496174693,-0.794401646
1.76967E+18,0.24276416,-0.833397866,-0.147151632,-0.185450091,-0.187375501,-0.669431388,-0.840361118
1.76967E+18,0.252753174,-0.722222972,-0.462540355,-0.217625829,-0.199906096,-0.635631084,-0.828004599
1.76967E+18,0.262742432,-0.469113888,-0.600813099,-0.215533241,-0.27787599,-0.559786379,-0.854564071
1.76967E+18,0.272730225,-0.100564069,-0.542962383,-0.383102076,-0.296246856,-0.593428493,-0.86494714
1.76967E+18,0.282718994,0.026418636,-0.230102303,-0.256102421,-0.275147974,-0.860317171,-0.877774835
1.76967E+18,0.292707031,-0.056239189,-0.060091188,-0.262264158,-0.341435075,-0.839378595,-0.692731082
1.76967E+18,0.302696289,-0.800702634,-0.563846181,-0.16441081,-0.442741185,-0.78568846,-0.57034868
1.76967E+18,0.312684326,-0.031408115,-0.988601872,-0.125291244,-0.336617053,-1.120020986,-0.573571563
1.76967E+18,0.322672852,0.984774423,0.227417594,0.220587017,-0.258798152,-1.168292165,-0.395620167
1.76967E+18,0.332661133,-0.301627324,0.033031917,-0.033512394,-0.26580441,-0.783951521,-0.246101782
1.76967E+18,0.342650146,0.012283728,0.123683078,-0.525925762,-0.23044695,-0.197691754,-0.174030244
1.76967E+18,0.352639404,1.223695407,0.410388143,-0.815954564,-0.244506568,0.452207237,-0.11232055
1.76967E+18,0.362627441,1.738627043,-0.040425534,-0.862146991,-0.192234576,1.111624837,-0.076736726
1.76967E+18,0.372616455,1.541200683,0.292246916,-1.567376158,-0.134240106,1.419078946,-0.136265039
1.76967E+18,0.382604492,1.123075224,0.637062224,-1.930538585,-0.24527581,1.355459452,-0.099603161
1.76967E+18,0.392593506,0.052090253,0.680271251,-0.821374397,-0.354667008,1.002647519,0.153316453
1.76967E+18,0.402581299,-1.255579323,1.230523792,0.331619142,-0.387100339,0.728636563,0.245179534
1.76967E+18,0.412570313,-0.808545165,0.922014307,0.418569403,-0.26861909,0.498680711,0.224818066
1.76967E+18,0.42255957,0.109734632,0.749688486,0.767263014,-0.140361518,0.41160652,0.20948039
1.76967E+18,0.432547607,0.234963187,0.142995097,0.667178253,-0.033843271,0.550106764,0.257678956
1.76967E+18,0.442536621,0.127438631,-0.148236505,0.189941411,0.065216728,0.76191783,0.384264052
1.76967E+18,0.452524414,0.346458399,-0.17362229,-0.201640763,0.096039928,1.087990046,0.564548552
1.76967E+18,0.462513428,0.663250558,-0.170910693,-0.606471856,0.081343003,1.446212292,0.754644454
1.76967E+18,0.472501465,0.557818007,0.768019677,-0.678149291,0.111634828,1.825966597,0.88511014
1.76967E+18,0.482490479,0.608069354,1.171212356,-0.292201616,0.110559978,2.108969927,0.921371758
1.76967E+18,0.492478516,0.349632353,1.50423435,-0.238572902,0.06651365,2.144479513,0.774884105
1.76967E+18,0.502467529,0.332678295,1.766081452,-0.63384297,0.090830706,2.109598637,0.609235764
1.76967E+18,0.512456543,-0.085061379,1.210335575,-0.397683852,0.110738613,2.140400648,0.555872142
1.76967E+18,0.522444336,-0.680733316,0.584280482,-0.547917668,0.06571015,2.196300507,0.548706889
1.76967E+18,0.532433594,-0.95458036,0.211622643,-0.353899947,0.078167945,2.101386547,0.57493335
1.76967E+18,0.542421631,-0.842780319,0.191778125,-0.213900525,0.108866736,2.029612064,0.642348111
1.76967E+18,0.552410645,-0.385683325,0.244274036,-0.075111063,0.042881865,2.200172663,0.624238312
1.76967E+18,0.562398438,0.16672727,0.476478279,0.217872351,-0.040835135,2.264095068,0.623739779
1.76967E+18,0.572387451,0.531743655,0.35351124,0.422279071,-0.06083652,2.263468742,0.622805178
1.76967E+18,0.582376465,0.927871509,-0.10106968,0.621129034,-0.076696977,2.28017807,0.517654836
1.76967E+18,0.592364502,1.296359953,-0.394892467,0.82723116,-0.061949685,2.325490475,0.310356677
1.76967E+18,0.602353516,1.644902465,-0.706745417,0.910370047,-0.006379101,2.072854996,0.139965773
1.76967E+18,0.612341553,1.61581841,-0.984754549,1.382238786,0.025405288,1.61431098,0.015863905
1.76967E+18,0.622330322,1.525970965,-1.364625388,1.667493359,0.003773496,1.010287881,-0.087864622
1.76967E+18,0.632318604,0.685320351,-0.902288447,2.072381736,0.037619736,0.66291672,-0.016092956
1.76967E+18,0.642307373,-0.576477992,-0.239784323,1.541921399,-0.065264836,0.586085618,0.201121122
1.76967E+18,0.65229541,-1.105270103,0.944629459,0.309496742,-0.064873762,0.744741082,0.2703982
1.76967E+18,0.662284668,-0.905396642,0.483831564,-0.219112707,0.055767164,0.954090536,0.147595048
1.76967E+18,0.672273682,-0.00518354,-0.944855085,0.214612765,0.095360063,0.875456631,-0.164785355
1.76967E+18,0.682261475,1.436937176,-0.647592971,0.442554967,0.061992519,0.606815875,-0.299013197
1.76967E+18,0.692250488,1.142648232,-0.195576348,0.950417687,0.072797485,0.327648073,-0.254074216
1.76967E+18,0.702238525,0.175094409,-0.226084884,1.252393094,0.106814578,0.323522836,-0.223757327
1.76967E+18,0.712227539,-0.048994917,-0.557799887,0.796546684,0.119056642,0.362643421,-0.233092621
1.76967E+18,0.72221582,0.244234581,-0.553543983,0.311038126,0.077312924,0.273066401,-0.231941864
1.76967E+18,0.732204346,0.20918431,-0.573588992,0.169217918,0.046188224,0.18794781,-0.199200824
1.76967E+18,0.742193359,-0.291587868,-0.371533219,0.44910132,0.015105137,0.128872499,-0.193891287
1.76967E+18,0.752181641,-0.577250437,-0.331030528,0.277208629,0.008272825,0.03638668,-0.267953545
1.76967E+18,0.76217041,-0.677099636,-0.120032739,0.086788057,0.0367034,0.135783583,-0.271514982
1.76967E+18,0.772158447,-1.251304714,-0.186902628,-0.086635496,0.096453354,0.465129197,-0.110969663
1.76967E+18,0.782147705,-1.804113953,-0.081194767,0.043755555,0.108462878,0.665831447,-0.174615487
1.76967E+18,0.792135498,-0.549107462,-0.613847937,-0.272542099,0.066121399,0.337439179,-0.12643756
1.76967E+18,0.802124268,-0.218430277,0.033996962,0.466775508,0.049483035,0.148856223,-0.045870807
1.76967E+18,0.812112549,-0.885080707,0.014148352,1.082525187,0.04503604,0.107029088,-0.010115093
1.76967E+18,0.822101563,-0.647909197,-0.236726105,0.929209772,0.035024419,0.082668088,-0.065033466
1.76967E+18,0.832090576,-0.36527299,-0.513235354,0.976279566,0.052750304,-0.03082996,-0.160691559
1.76967E+18,0.842078613,-0.57985682,-0.66922145,0.895878288,0.067278117,-0.160127774,-0.231544703
1.76967E+18,0.852067383,-1.085327385,-0.491713258,0.520936137,0.068666585,-0.294057757,-0.238053843
1.76967E+18,0.86205542,-1.301184305,0.164741065,0.218514741,0.06504868,-0.560460448,-0.250461251
1.76967E+18,0.872044678,-1.111608951,0.682807492,0.217208042,0.085316598,-0.783791244,-0.328513294
1.76967E+18,0.882032715,-0.892507058,0.658585489,0.400460623,0.121974744,-0.940365911,-0.472406
1.76967E+18,0.89202124,-0.531994415,0.206610952,0.494220272,0.078810647,-1.105425239,-0.580968976
1.76967E+18,0.902010498,-0.011404607,0.417040002,1.024974916,-0.038702402,-2.891080856,-0.639216542
1.76967E+18,0.911998535,0.005789105,-0.223150584,3.046732379,0.121144928,-4.267385483,-0.828109562
1.76967E+18,0.921987305,-0.211177237,-3.344846434,3.061968819,0.430794924,-4.445361614,-0.905030727
1.76967E+18,0.931975586,-0.98898941,-0.144069448,0.47306964,0.436084181,-1.561071754,0.242387593
1.76967E+18,0.9419646,-2.466288407,0.135651749,-0.689485362,0.336281687,0.233662546,0.971325397
1.76967E+18,0.951952393,3.894789762,2.149682125,-1.431256207,0.107779182,0.515407383,0.938221395
1.76967E+18,0.96194165,5.760007296,0.876722629,-1.640638963,-0.050959866,-0.258828133,0.278351337
1.76967E+18,0.971929443,6.135742058,0.283750306,-1.449696704,0.025807884,-0.859134734,-0.419600576
1.76967E+18,0.981918457,3.168714207,-0.10128303,-0.782969994,0.282912642,-1.596257448,-0.560769975
1.76967E+18,0.991907715,-1.631712729,-0.932673649,-0.841164409,0.481105238,-2.096412182,-0.745448768
1.76967E+18,1.001895508,0.910219532,-0.413318351,-0.216801799,0.182156608,-0.589921534,-0.893858492
1.76967E+18,1.011884277,0.459046667,-0.279739901,-3.136995126,0.123165458,-0.395309746,-0.637205124
1.76967E+18,1.021872559,-3.627265199,0.625246699,-1.754980797,0.175026774,-1.019581079,-0.252150059
1.76967E+18,1.031861572,-4.636162256,1.960377112,0.393769016,0.226619825,-1.041575313,-0.204487234
1.76967E+18,1.041849609,-2.983368161,2.671568987,-0.595484598,0.280595958,-0.915570021,-0.212461799
1.76967E+18,1.051838623,-1.291397655,2.741898661,-0.755405987,0.257558703,-0.879061997,-0.203671768
1.76967E+18,1.061826416,-0.431021181,2.074917099,-0.950986427,0.04678547,-1.12744379,-0.148252457
1.76967E+18,1.07181543,0.670751143,1.193923369,-1.017162342,-0.292424768,-1.694727659,0.020205675
1.76967E+18,1.081804688,1.073783662,0.746492321,-0.550482111,-0.565294623,-2.276458025,0.219045535
1.76967E+18,1.09179248,1.02615565,1.185243804,0.621855157,-0.590375125,-2.545743227,-0.064148761
1.76967E+18,1.101781494,6.174942434,1.201846563,3.670091365,-0.59371978,-3.449128389,-1.259755254
1.76967E+18,1.111769287,14.60671336,-0.375793799,3.776612296,-0.386933863,-2.711190939,-2.485388756
1.76967E+18,1.121758545,10.72092173,-3.133290427,2.33233411,-0.28026253,-2.034901857,-2.439599752
1.76967E+18,1.131746582,-3.154563516,-3.231563169,-0.908771818,-0.335861713,-1.942728043,-1.291775942
1.76967E+18,1.141735596,-10.71934586,-1.21948568,-3.015717356,-0.483601093,-1.042363882,-0.510045648
1.76967E+18,1.151724609,-7.025692417,0.283140065,-4.123452972,-0.484564692,-0.038199391,-0.360914141
1.76967E+18,1.161712646,-3.308396818,1.247260407,-3.313648747,-0.343731672,0.085269555,-0.43823877
1.76967E+18,1.171701416,-1.815620266,1.022895771,-1.866950933,-0.161095306,-0.467195153,-0.495333701
1.76967E+18,1.181689453,-0.056357847,0.475186486,-0.449624174,-0.115599461,-0.905446529,-0.579976439
1.76967E+18,1.191678467,0.426940633,-0.563141833,-0.253114345,-0.108783208,-0.948977768,-0.628876328
1.76967E+18,1.201666504,-0.377075071,-0.889120923,-0.001971592,-0.073460102,-0.830207944,-0.610096514
1.76967E+18,1.211655518,-1.042801664,-0.764306794,0.218383077,-0.026530566,-0.619996369,-0.546386003
1.76967E+18,1.221643311,-1.305167822,-0.833844441,-0.027394787,0.015200902,-0.5602175,-0.485210747
1.76967E+18,1.231632568,-1.058346439,-0.842549141,-0.047390404,0.050464537,-0.624187708,-0.454146713
1.76967E+18,1.241621582,-0.667722151,-0.636373073,-0.073135963,0.050199822,-0.669454753,-0.426335335
1.76967E+18,1.251609619,-0.758118461,-0.366073785,-0.188809484,-0.006221435,-0.830965757,-0.460957885
1.76967E+18,1.261598633,-0.483902292,-0.04245967,-0.258860195,-0.063638926,-1.139784336,-0.570928335
1.76967E+18,1.271586426,-0.21202421,0.403849681,-0.158988858,-0.109191611,-1.288051367,-0.626702666
1.76967E+18,1.281575439,-0.97020463,1.028663833,-0.016554829,-0.104558505,-1.415111303,-0.627248883
1.76967E+18,1.291563477,-1.183225449,0.942982861,0.068896645,-0.143624753,-1.495975375,-0.646906614
1.76967E+18,1.30155249,-1.214545886,0.964272317,-0.281041339,-0.149520993,-1.460546017,-0.662582219
1.76967E+18,1.311540527,-1.325345517,0.877761909,-0.15602051,-0.16777648,-1.350772858,-0.672516465
1.76967E+18,1.321529785,-1.30070149,0.638228345,-0.254042273,-0.168914989,-1.305335045,-0.636234879
1.76967E+18,1.331518555,-1.499642346,0.06757716,-0.224934691,-0.20355472,-1.249469042,-0.654832304
1.76967E+18,1.341506348,-1.559425491,-0.000511457,-0.286862849,-0.242103457,-1.230248213,-0.693248928
1.76967E+18,1.351495605,-1.267019585,-0.082087916,0.095212624,-0.264469206,-1.312995195,-0.740366399
1.76967E+18,1.361483398,-0.724140788,-0.239416659,0.220513805,-0.236608014,-1.394734263,-0.875544429
1.76967E+18,1.371472412,-0.286660641,-0.302317059,0.944406756,-0.208203688,-1.581142068,-1.073451638
1.76967E+18,1.381460205,0.246349088,-0.344814723,1.144423717,-0.225133404,-1.839796782,-1.278251886
1.76967E+18,1.391449463,0.119914666,-0.265206349,0.904553177,-0.206186935,-1.96386385,-1.360006571
1.76967E+18,1.401438477,-0.57115855,0.080849899,1.179133942,-0.201955184,-1.986045837,-1.298964739
1.76967E+18,1.411426514,-0.810555335,0.15806524,0.985826854,-0.268479317,-1.948995113,-1.383948922
1.76967E+18,1.421415527,0.380355992,0.46928866,0.696307683,-0.304996848,-2.053937197,-1.470727205
1.76967E+18,1.43140332,0.765437844,0.667363255,0.92540585,-0.307407886,-2.187478542,-1.434654355
1.76967E+18,1.441392334,0.685958649,0.32295945,0.348536082,-0.308847338,-2.024637699,-1.421281576
1.76967E+18,1.451380615,1.26765496,-0.101519177,0.080103976,-0.218847781,-1.677944064,-1.365115166
1.76967E+18,1.461369385,1.53712072,-0.361764689,-0.167909685,-0.127231851,-1.440106153,-1.260020137
1.76967E+18,1.471357178,1.731224073,-0.759980163,-0.5460556,-0.020955941,-1.411853909,-1.287934542
1.76967E+18,1.481346436,1.529973771,-0.855164292,-0.080310166,0.062718451,-1.271831512,-1.416084766
1.76967E+18,1.491335449,1.053493739,-0.864687908,-0.07943974,0.101244368,-1.071268201,-1.551538706
1.76967E+18,1.501323242,0.930306919,-0.464885456,-0.580073459,0.159112722,-0.923503041,-1.786981821
1.76967E+18,1.5113125,1.193557458,-0.088668464,-0.362512877,0.251408964,-0.818032086,-1.926525474
1.76967E+18,1.521300537,0.434082322,0.358802332,-0.209434485,0.2918275,-0.784165204,-1.925330997
1.76967E+18,1.531289307,0.155642397,0.815889974,-0.132870009,0.281582326,-0.99387908,-1.851639986
1.76967E+18,1.541277588,0.543225418,0.821366945,0.209661864,0.185985252,-1.159086347,-1.732115388
1.76967E+18,1.551266357,0.552237577,0.759837248,-0.051716013,0.121732004,-1.235398173,-1.644340396
1.76967E+18,1.561254395,0.391960505,0.467551753,-0.188919082,0.074314423,-1.33596468,-1.562172294
1.76967E+18,1.571243652,-0.033427053,0.336306715,-0.549165476,0.036507659,-1.316957235,-1.478236675
1.76967E+18,1.581232422,-0.503947885,0.338641295,-0.659494713,0.016487611,-1.019295216,-1.518689632
1.76967E+18,1.591220215,0.419235466,0.259931039,-0.49220864,0.033759683,-0.828643799,-1.555425167
1.76967E+18,1.601209473,0.581180763,0.345010538,-0.193986302,-0.029241119,-0.54235667,-1.331085324
1.76967E+18,1.61119751,-0.340578693,0.431111782,-0.512429882,-0.051181108,-0.33580476,-1.259013653
1.76967E+18,1.621186279,0.819026227,-0.464418423,-0.397904801,-0.020534251,-0.326622456,-1.253043413
1.76967E+18,1.631174561,-0.170745858,-0.856857068,-0.782356392,-0.009118747,-0.422741145,-1.207349181
1.76967E+18,1.64116333,-0.652929071,-0.070870357,-1.017423623,0.030848643,-0.387366116,-1.334937215
1.76967E+18,1.651152344,0.470538952,-0.388889135,-0.315950594,0.052016921,-0.163204715,-1.423484087
1.76967E+18,1.661140625,0.273151755,-0.53992287,0.105983317,0.059295073,0.171512812,-1.341835022
1.76967E+18,1.671129395,-0.364444722,-0.462820633,0.24623613,0.086952142,0.418974727,-1.202875853
1.76967E+18,1.681117432,0.379962609,-0.576376577,0.552874852,0.081239924,0.588439941,-1.156493068
1.76967E+18,1.691106689,0.752946027,-0.584774111,0.381298534,0.080990314,0.784014165,-1.061027169
1.76967E+18,1.701094482,-0.071872812,-0.545281766,0.305491306,0.112768754,0.870637476,-0.901776314
1.76967E+18,1.711083252,-0.079365213,-0.320628377,0.165704649,0.133507818,0.713750303,-0.773064673
1.76967E+18,1.721071533,0.790804341,0.410944607,-0.2066469,0.128071785,0.404216915,-0.566513896
1.76967E+18,1.731060547,1.124837558,0.691862613,-0.727844757,0.101997986,0.041924991,-0.381602347
1.76967E+18,1.741049316,1.051117073,1.042652903,-1.083064555,0.15115276,-0.143765241,-0.352741659
1.76967E+18,1.751037354,1.342266841,0.473452502,-0.611543168,0.198698431,-0.246142477,-0.355788052
1.76967E+18,1.761026367,0.545009379,0.414345502,-0.697824736,0.231180474,-0.318403363,-0.404918581
1.76967E+18,1.771014404,0.394373996,0.137581401,-0.640945057,0.207362622,-0.366664559,-0.388484746
1.76967E+18,1.781003418,0.520498623,0.543857579,-0.910731135,0.218561217,-0.432972223,-0.339011997
1.76967E+18,1.790991455,0.329385099,0.296869315,-0.430702616,0.202658474,-0.417583406,-0.366264015
1.76967E+18,1.800980469,0.112140525,0.030269758,-0.191616797,0.1160895,-0.421317965,-0.37872228
1.76967E+18,1.810968506,-0.020565818,0.65671838,-0.275403918,0.109621577,-0.349644601,-0.403259456
1.76967E+18,1.82095752,0.188283853,0.542375085,0.417832029,-0.009878715,-0.322693676,-0.365075856
1.76967E+18,1.830946289,-0.097398882,0.737856887,-0.119355278,-0.034477562,-0.375969678,-0.351879328
1.76967E+18,1.84093457,0.363255805,0.149786218,0.057785542,-0.064224273,-0.400962651,-0.297178537
1.76967E+18,1.850923584,0.041814358,0.306911109,-0.135818045,-0.039479245,-0.342959255,-0.279422432
1.76967E+18,1.860911377,-0.022017771,0.163368754,-0.012263415,-0.074316591,-0.314631224,-0.245195255
1.76967E+18,1.870900391,-0.107104284,0.060813657,-0.339486806,-0.064347513,-0.391998798,-0.256637394
1.76967E+18,1.880888428,0.16724691,0.262378871,-0.172991007,-0.044738922,-0.355583787,-0.300155044
1.76967E+18,1.890877441,0.140604987,0.407007268,-0.224127028,-0.040867399,-0.366601735,-0.315481156
1.76967E+18,1.900866455,0.284641117,0.390325013,0.050240533,-0.029231783,-0.374708921,-0.286046028
1.76967E+18,1.910854248,0.394650475,-0.128650199,-0.170473763,-0.110389568,-0.36990121,-0.242913842
1.76967E+18,1.920843262,0.246619138,-0.011624387,-0.372008728,-0.224929735,-0.367237002,-0.24775067
1.76967E+18,1.930831543,0.198549226,0.164202136,-0.104251525,-0.27685824,-0.341940135,-0.258122474
1.76967E+18,1.940820557,0.058675476,0.331177097,-0.195825939,-0.284967035,-0.320370644,-0.246312171
1.76967E+18,1.95080835,-0.007887538,-0.013415654,-0.17674919,-0.319767952,-0.304378808,-0.226104513
1.76967E+18,1.960797607,0.005272387,-0.218285462,-0.031066754,-0.351391912,-0.188184038,-0.185097679
1.76967E+18,1.9707854,-0.165280579,-0.209685537,0.360125982,-0.354400307,-0.170105711,-0.194122225
1.76967E+18,1.980774414,-0.029807109,-0.845436095,0.727552643,-0.311012596,-0.144434169,-0.212184578
1.76967E+18,1.990763428,-0.352769482,-1.305560766,1.277525781,-0.287740141,-0.118672177,-0.231567189
1.76967E+18,2.000751465,-0.276371886,-1.326869512,1.228285657,-0.277438223,-0.062307175,-0.239589155
1.76967E+18,2.010740479,-0.339063613,-0.924096667,1.088575573,-0.251798749,-0.036804501,-0.256812096
1.76967E+18,2.020728271,-0.205837045,-0.848128256,0.856653362,-0.250019759,-0.03374533,-0.254797697
1.76967E+18,2.030717285,-0.179416656,-0.810366243,0.712922644,-0.27506119,0.017472455,-0.22619532
1.76967E+18,2.040705322,-0.407325248,-0.757417912,0.494416964,-0.256543964,0.033667404,-0.229892328
1.76967E+18,2.05069458,-0.187079738,-0.904913827,0.865546278,-0.260753959,0.067754164,-0.25469929
1.76967E+18,2.060683594,-0.001055647,-0.660418258,0.820381441,-0.211972311,0.075788386,-0.250115186
1.76967E+18,2.070671387,-0.055147302,-0.63482219,0.658107643,-0.196444437,0.150785729,-0.247775704
1.76967E+18,2.0806604,-0.382006098,-0.402825014,0.56311699,-0.175406799,0.218407646,-0.246766374
1.76967E+18,2.090648438,-0.342625689,-0.294371361,0.397061628,-0.140033513,0.28368336,-0.20881018
1.76967E+18,2.100637451,-0.168975926,-0.194743258,0.250789701,-0.106985278,0.330256194,-0.156373337
1.76967E+18,2.110625488,-0.062592942,-0.137153239,0.18541765,-0.083451234,0.352028579,-0.135796055
1.76967E+18,2.120614502,0.00521452,-0.059189271,0.140727444,-0.073829234,0.382278889,-0.146418065
1.76967E+18,2.130602295,-0.00589315,-0.028455841,0.157918233,-0.076629356,0.407409549,-0.141197875
1.76967E+18,2.140591309,-0.027451486,-0.086140114,0.136280256,-0.079955645,0.432729006,-0.125845551
1.76967E+18,2.150580322,0.056471829,-0.034008653,0.126823861,-0.082041867,0.428161025,-0.104364373
1.76967E+18,2.160568359,0.119058926,0.002964841,0.070644585,-0.078418106,0.401750714,-0.080762371
1.76967E+18,2.170557617,0.165661687,-0.009054829,-0.049721332,-0.074761391,0.384884417,-0.066172376
1.76967E+18,2.180545654,0.222550864,-0.007918226,0.059862348,-0.082875244,0.394163132,-0.060955241
1.76967E+18,2.19053418,0.111066173,-0.028787849,0.156273535,-0.086746968,0.39588207,-0.053039514
1.76967E+18,2.200522217,0.05983283,-0.077870737,0.157529526,-0.096122354,0.396783292,-0.036631517
1.76967E+18,2.210511475,0.182632695,-0.06096841,0.116295014,-0.107698895,0.373975664,-0.018186077
1.76967E+18,2.220499512,0.239288064,-0.063914984,0.181919725,-0.125185475,0.327051282,-0.003978912
1.76967E+18,2.230488525,0.215579856,-0.092116704,0.140730367,-0.131348252,0.31419307,-0.013307549
1.76967E+18,2.240477539,0.32416415,-0.024352497,0.17465178,-0.147525892,0.277181804,-0.031067373
1.76967E+18,2.250465332,0.231388251,-0.00288783,0.174155959,-0.167494938,0.263643771,-0.05127624
1.76967E+18,2.260454346,0.038079848,-0.00493015,0.197483935,-0.184625998,0.268138647,-0.051677581
1.76967E+18,2.270442627,-0.082077395,-0.050477703,0.072840195,-0.198455647,0.309243679,-0.047572058
1.76967E+18,2.280431396,-0.154403211,-0.019053806,0.10513123,-0.220076516,0.320196718,-0.034598999
1.76967E+18,2.290419189,-0.229926946,-0.139901515,0.237612094,-0.24986738,0.304766774,-0.033688594
1.76967E+18,2.300408447,-0.086965751,-0.141373487,0.263866917,-0.282660484,0.331486017,-0.028991044
1.76967E+18,2.310397217,-0.191933023,-0.056338558,0.451667955,-0.341187447,0.292554468,-0.038406897
1.76967E+18,2.320385254,0.019506665,-0.290449073,0.188553318,-0.403205544,0.208660617,-0.065394573
1.76967E+18,2.330374512,0.246612123,0.017319237,0.154121179,-0.418159455,0.205618903,-0.07788375
1.76967E+18,2.340362549,-0.002823825,0.081947923,0.093449999,-0.376706809,0.249483824,-0.048708022
1.76967E+18,2.350351563,-0.03146306,-0.103671241,-0.171354492,-0.338807225,0.143244401,-0.043522589
1.76967E+18,2.3603396,0.2689771,0.125392805,-0.276621477,-0.297359914,0.113439359,-0.053539801
1.76967E+18,2.370328613,0.10406477,0.130125386,-0.36408188,-0.214480892,0.110420428,-0.052665208
1.76967E+18,2.38031665,0.014454642,0.16550898,-0.501384465,-0.177918881,0.084943831,-0.063741028
1.76967E+18,2.390305908,0.133799399,0.176320151,-0.357693494,-0.161011338,0.018790187,-0.063218117
1.76967E+18,2.400294678,0.163726919,0.041062955,-0.065869479,-0.132538423,0.008009978,-0.051628307
1.76967E+18,2.410282471,0.152684132,-0.057910191,-0.05409867,-0.100293845,-0.035128612,-0.028681332
1.76967E+18,2.420271729,0.177278475,-0.027621874,-0.227218272,-0.091519259,-0.072863474,-0.017160762
1.76967E+18,2.430259766,0.176214061,0.140105659,-0.289860898,-0.067158215,-0.129986361,-0.006906113
1.76967E+18,2.440248535,0.117107207,-0.095426706,-0.38100788,-0.046267044,-0.175533071,-0.008051005
1.76967E+18,2.450236816,0.193770175,0.18065818,-0.418848951,-0.033835884,-0.189604804,0.010477278
1.76967E+18,2.460225586,0.17902678,0.040694706,-0.30036388,-0.02828772,-0.240168378,0.023451401
1.76967E+18,2.470214355,0.226167301,0.249796599,-0.359845119,-0.019676441,-0.239931181,0.043402594
1.76967E+18,2.480202637,0.11147943,0.038187546,-0.19452304,-0.104826488,-0.334349543,0.038290922
1.76967E+18,2.49019165,0.27173429,-0.350013315,0.368120342,-0.228449702,-0.513744056,0.01458067
1.76967E+18,2.500179688,0.498645103,-0.658422115,0.890814136,-0.288220346,-0.539655566,0.054684412
1.76967E+18,2.510168701,0.26227731,-0.251377292,0.099673111,-0.252509803,-0.526717663,0.14311479
1.76967E+18,2.520156494,0.131881582,0.28181963,-0.684690091,-0.188686609,-0.621502519,0.203382388
1.76967E+18,2.530145508,0.293828633,0.335617418,-0.804519855,-0.146709159,-0.698558033,0.240215123
1.76967E+18,2.540133789,0.035771571,0.16063363,-0.57088704,-0.127826557,-0.665658951,0.236578047
1.76967E+18,2.550122803,-0.240150818,0.072135262,-0.361945599,-0.08442805,-0.609197855,0.220582202
1.76967E+18,2.560111572,-0.436991487,0.163184775,-0.400255602,-0.036802206,-0.506908536,0.235622674
1.76967E+18,2.570099609,-0.452718049,0.227047591,-0.508107197,0.017604021,-0.370067269,0.297784388
1.76967E+18,2.580088623,-0.195689745,0.130410925,-0.341195364,0.040531706,-0.405194908,0.351303279
1.76967E+18,2.59007666,0.223553904,0.032408816,-0.38551849,0.055065714,-0.479919225,0.395416021
1.76967E+18,2.600065674,0.20566052,-0.00468202,-0.398496483,0.065392919,-0.525116265,0.449596435
1.76967E+18,2.610053711,0.142567227,-0.084375589,-0.272771231,0.079415202,-0.581871808,0.472012639
1.76967E+18,2.620042725,0.264127906,-0.069282503,-0.326127851,0.112503648,-0.614026248,0.480778426
1.76967E+18,2.630030762,0.043636897,0.054953679,-0.574923163,0.143422723,-0.60061723,0.516931832
1.76967E+18,2.640019531,0.026095395,0.427602458,-0.5693591,0.138650864,-0.555375993,0.605334938
1.76967E+18,2.650008545,-0.004811784,0.749931501,-0.768679603,0.213190243,-0.576941192,0.644839942
1.76967E+18,2.659996826,0.201791569,1.172938449,-1.155170152,0.285500944,-0.509433508,0.632168353
1.76967E+18,2.66998584,-0.049327802,0.784273478,-1.420345814,0.351438969,-0.413397998,0.612186313
1.76967E+18,2.679973633,-0.290370601,0.796691499,-1.2176307,0.408641815,-0.310334474,0.62421608
1.76967E+18,2.689962646,-0.08681436,0.669388331,-0.935736836,0.360556811,-0.300612777,0.659313619
1.76967E+18,2.699950684,0.08908815,0.917406814,-1.46755677,0.321180373,-0.33107695,0.683336675
1.76967E+18,2.709939697,0.176817872,0.57213514,-1.507118381,0.374874741,-0.230549738,0.662335575
1.76967E+18,2.719928711,-0.115183545,0.789407041,-1.10022188,0.443104118,-0.09121342,0.625265718
1.76967E+18,2.729916748,-0.373747972,0.794453803,-1.007496542,0.413949013,0.002651095,0.616273046
1.76967E+18,2.739905518,-0.450909538,0.42231122,-1.418132522,0.339556813,-0.034426499,0.660083115
1.76967E+18,2.749893799,-0.283367444,0.236407248,-1.646765629,0.454215616,0.007628208,0.63904649
1.76967E+18,2.759882568,0.62676704,-0.015659926,-0.017114509,0.46565789,0.366169035,0.600269556
1.76967E+18,2.769870605,0.377536259,0.335664326,-0.097330786,0.508225799,0.605520844,0.594788671
1.76967E+18,2.779859863,-0.255322084,0.058619654,-0.179957339,0.558957696,0.649819851,0.594332159
1.76967E+18,2.789847656,-0.922051717,0.278795899,-0.049951487,0.603910923,0.742537677,0.552811682
1.76967E+18,2.79983667,-0.990804351,0.074413436,0.037764498,0.489991784,0.768040657,0.537055075
1.76967E+18,2.809825684,-0.413290294,-0.573662934,-0.584216769,0.39130047,0.641935766,0.556590021
1.76967E+18,2.819813721,0.121074357,-0.328554786,-0.345339624,0.314715922,0.717354894,0.575628698
1.76967E+18,2.829802734,-0.000461772,-0.289814428,-0.690339933,0.31546703,0.680936694,0.637946963
1.76967E+18,2.839790771,-0.12953122,-0.865803468,0.355735054,0.210602164,0.587879419,0.646528184
1.76967E+18,2.849779541,0.279325475,-1.023056515,0.644408788,0.236357659,0.448031545,0.596001744
1.76967E+18,2.859767578,0.518654456,-0.867475492,1.725501604,0.281771213,0.377979755,0.490468115
1.76967E+18,2.869756836,0.345751712,-0.737794927,1.950763481,0.219304904,0.397441268,0.384198934
1.76967E+18,2.879745605,0.164306765,-0.583695083,0.626845366,0.176280215,0.359162867,0.343461096
1.76967E+18,2.889733643,0.183901108,-0.301896788,0.171800482,0.193189353,0.272310436,0.383760422
1.76967E+18,2.8997229,0.342682972,-0.80969375,1.078181167,0.114709727,0.273872644,0.403076619
1.76967E+18,2.909710693,0.343823959,-0.556907322,0.490401298,0.123267971,0.237873524,0.418992609
1.76967E+18,2.919699463,0.201883339,-0.534012769,0.481244032,0.115385287,0.235811174,0.436561495
1.76967E+18,2.9296875,-0.053510641,-0.74545158,0.883524272,0.102016173,0.211602449,0.429792643
1.76967E+18,2.939676758,0.11239713,-0.75058865,0.945828606,0.072963215,0.207632735,0.423080951
1.76967E+18,2.949664551,0.218809924,-0.341359322,0.320625308,0.099344358,0.146106943,0.389323235
1.76967E+18,2.959653809,0.045899581,-0.803550133,0.772831316,0.099898025,0.179983154,0.349846154
1.76967E+18,2.969642578,-0.228823953,-0.913485549,0.95580844,0.076087676,0.230565771,0.358464301
1.76967E+18,2.979630615,-0.189509011,-0.7302242,0.681981855,0.069450542,0.20125182,0.336861521
1.76967E+18,2.989619873,0.139118548,-0.651275459,0.797977593,0.048042927,0.227110922,0.316203505
1.76967E+18,2.99960791,0.112300099,-0.525888207,0.735350603,0.045274835,0.206424549,0.300720692
1.76967E+18,3.009596436,0.070668696,-0.52406216,0.605725421,0.024379089,0.165794209,0.301269442
1.76967E+18,3.019584473,0.221166716,-0.546221677,0.509730706,-0.022682162,0.123907477,0.315850258
1.76967E+18,3.02957373,0.475924737,-0.370878554,0.687207188,-0.074354529,0.104788303,0.30332458
1.76967E+18,3.039561768,0.730144997,-0.113384387,0.900973857,-0.104589134,0.037646554,0.286336541
1.76967E+18,3.049550537,0.947731517,-0.015331425,0.932700244,-0.155076697,0.036258984,0.256849796
1.76967E+18,3.059539795,0.786537331,0.046149464,1.016906175,-0.189138532,-0.023940438,0.212247699
1.76967E+18,3.069527588,0.794798963,0.194924898,0.761550335,-0.180625975,-0.039016996,0.130965069
1.76967E+18,3.079516846,0.740687434,0.4280635,0.534477025,-0.131521821,-0.16316478,0.01441689
1.76967E+18,3.089504639,0.873714095,0.575099981,0.27834494,-0.083506554,-0.39391014,-0.089250252
1.76967E+18,3.099493652,0.669431877,0.339174672,-0.087727237,-0.028294168,-0.543210626,-0.20521228
1.76967E+18,3.109481689,0.190172443,0.214884567,-0.090705376,0.017746085,-0.780663848,-0.325474352
1.76967E+18,3.119470703,0.216577051,0.302092895,-0.326574572,0.089812562,-0.976367056,-0.434022397
1.76967E+18,3.129459473,0.351190104,0.011267536,-0.450493358,0.139365584,-1.172174573,-0.486775368
1.76967E+18,3.13944751,0.303244111,0.108323012,-0.562513764,0.147225901,-1.263302565,-0.48492685
1.76967E+18,3.149436768,0.075278821,-0.121681675,0.198925366,0.166472375,-1.37719965,-0.464311481
1.76967E+18,3.159424805,0.242369663,-0.349533569,0.199708626,0.187504411,-1.490888119,-0.482963711
1.76967E+18,3.169413574,0.156043964,-0.19915333,0.224162976,0.224316224,-1.436328173,-0.503853261
1.76967E+18,3.179401611,-0.333205534,-1.054783778,0.483475006,0.192724481,-1.128322124,-0.45853588
1.76967E+18,3.189390625,-1.367813955,-1.464644098,0.524045209,0.1094236,-0.71330303,-0.401500553
1.76967E+18,3.199378662,-1.778931581,-1.500666136,0.400071039,0.032670762,-0.310078621,-0.366844028
1.76967E+18,3.209367676,-1.466618028,-0.3498194,-0.090713121,0.047411174,-0.093503937,-0.330659002
1.76967E+18,3.219356689,-0.921184871,0.684616003,-0.144942432,0.092728056,0.028634751,-0.304068655
1.76967E+18,3.229344482,-0.502326422,0.572175034,-0.001099778,0.110094063,0.129031092,-0.211377233
1.76967E+18,3.23933374,-0.352009603,0.017715982,0.067573945,0.07746502,0.155804113,-0.103968479
1.76967E+18,3.249321777,0.244436533,-0.882129456,-0.003401333,0.170189828,0.229641944,-0.040052485
1.76967E+18,3.259310547,0.614465193,-0.594661006,1.013158221,0.264104337,0.319558263,0.027749734
1.76967E+18,3.269298828,-0.083737437,-0.728537562,1.322147306,0.364767909,0.391649485,0.076198086
1.76967E+18,3.279287842,-0.235126268,-1.048320135,1.163968084,0.512610376,0.419873953,0.081503369
1.76967E+18,3.289276367,0.182326406,-1.482688289,0.994213574,0.655721307,0.543559432,0.106941886
1.76967E+18,3.299264648,0.079791914,-1.326964935,0.860272429,0.860933542,0.800629318,0.103381507
1.76967E+18,3.309253662,-0.037191959,-1.335533149,1.190598316,1.018328309,1.190356493,0.202008888
1.76967E+18,3.319241699,-0.721295336,-1.36601129,1.009163306,1.131925464,1.5179708,0.180693477
1.76967E+18,3.329230713,0.192317054,-1.780174567,1.122135605,1.1129601,1.621849418,0.104343727
1.76967E+18,3.339218506,0.94587566,-3.406468193,0.98317897,1.100775838,1.56335175,0.024340769
1.76967E+18,3.34920752,0.985668741,-4.408853676,1.845861091,0.993545115,1.69573009,-0.058534019
1.76967E+18,3.359195313,0.710346072,-5.022997674,2.52244927,0.860475481,1.892751336,-0.104584865
1.76967E+18,3.369184326,0.394973131,-4.742196865,3.333657516,0.712109625,2.074403763,-0.046802644
1.76967E+18,3.379173096,0.165917707,-4.671874205,3.411172718,0.496379167,2.116561174,0.114474393
1.76967E+18,3.389161133,0.798823981,-3.978406203,2.820005983,0.358666003,2.019486189,0.341897815
1.76967E+18,3.399150146,1.775202331,-1.796905921,2.232286028,0.376562983,1.414941311,0.321894825
1.76967E+18,3.409138184,2.721738501,-0.221779003,1.794036942,0.423748136,0.595512748,0.182450503
1.76967E+18,3.419127197,1.597011418,-0.057005205,1.982596397,0.578945696,0.258873731,0.223595545
1.76967E+18,3.429115234,-0.344175256,0.174837219,1.032753148,0.798842192,0.159028813,0.197644234
1.76967E+18,3.439104248,-0.666900313,1.201199205,-0.069813249,0.988984704,0.164596424,0.087936647
1.76967E+18,3.449093262,-1.026095444,1.986530668,-1.033520333,1.08379221,0.249277607,-0.003318425
1.76967E+18,3.459081055,-1.427750245,2.077789732,-1.995371415,1.118395209,0.263052285,-0.048984714
1.76967E+18,3.469070068,-1.114229655,1.765665857,-2.190678591,1.04902184,0.292289913,0.014732464
1.76967E+18,3.47905835,-0.865142081,1.546888666,-2.52371096,0.937092841,0.348227471,0.091957211
1.76967E+18,3.489047363,-0.56718497,1.247877662,-1.97003356,0.774899662,0.441969007,0.196819037
1.76967E+18,3.499035156,-0.535462383,0.665019029,-1.138067772,0.550436735,0.564672589,0.292112529
1.76967E+18,3.50902417,-0.272927883,-0.191309338,-0.220823602,0.251740158,0.701645255,0.353299737
1.76967E+18,3.519012207,0.302105463,-1.796608984,1.041460917,-0.213149518,0.690853596,0.443822175
1.76967E+18,3.529001221,0.612159254,-3.574859889,2.224202675,-0.707195878,0.591849744,0.543685675
1.76967E+18,3.538990234,1.138458087,-3.79082933,2.758504343,-0.77761066,0.144004881,0.494327426
1.76967E+18,3.548978027,1.675821335,-1.681340683,2.923696659,-0.292423546,-0.426842362,0.305645674
1.76967E+18,3.558967041,1.763968405,-0.498276562,2.655649534,0.313925743,-0.460624814,0.257984132
1.76967E+18,3.568955078,-0.42751931,-0.309022695,0.562341622,0.799521863,0.113142654,0.266645819
1.76967E+18,3.578944092,-2.364263618,0.925252851,-0.485518641,0.989985585,0.819142878,0.410655439
1.76967E+18,3.588932129,-3.472748592,1.984557029,-2.10856554,1.079956412,1.573948979,0.633789539
1.76967E+18,3.598921387,-3.666519936,4.245646396,-2.320213172,1.226501107,1.817432404,0.610178173
1.76967E+18,3.608910156,-1.003598366,6.058496906,-2.525095108,1.226109028,1.472666383,0.589886189
1.76967E+18,3.618898193,-0.491714427,5.689516294,-2.793409945,0.901339173,0.93179214,0.735614896
1.76967E+18,3.628887207,-1.353634623,4.280540892,-3.659468264,0.553191841,0.760176182,0.873965561
1.76967E+18,3.638875244,-1.270903148,3.555769405,-3.74413626,0.403514206,1.050997376,0.930610776
1.76967E+18,3.648864258,-1.182419978,4.223992199,-2.849408311,0.175839454,1.094091892,0.923694134
1.76967E+18,3.658852051,-0.337787017,5.614829594,-3.121021604,0.225140691,0.665766776,0.777108669
1.76967E+18,3.668841064,0.456226349,4.76050146,-1.568876333,0.332302898,0.30943495,0.732765019
1.76967E+18,3.678829102,-0.38552375,1.207884967,-1.142187921,0.440803528,0.313823581,0.681309044
1.76967E+18,3.688818359,-0.624032062,-0.650602966,-0.749516053,0.537593246,0.584456027,0.551402688
1.76967E+18,3.698807129,-0.324102775,-0.373271587,-0.211448236,0.632671833,0.719972074,0.439164281
1.76967E+18,3.708795166,-0.083187986,-0.523709109,-0.379012177,0.662588775,0.726218402,0.403117478
1.76967E+18,3.71878418,-0.386633173,0.181767018,-0.56124557,0.674391925,0.67693764,0.379474998
1.76967E+18,3.728772217,-0.199925775,0.797056387,-0.561584301,0.670546949,0.642813981,0.345104754
1.76967E+18,3.73876123,-0.143942022,0.594178484,-0.365813234,0.624920845,0.620201886,0.318983138
1.76967E+18,3.748749023,-0.25131694,-0.159140176,-0.576422316,0.604498506,0.555717647,0.238732815
1.76967E+18,3.758738281,-0.327077407,0.262756033,-0.515159819,0.63119936,0.484683454,0.082804196
1.76967E+18,3.768727295,-0.224883107,0.741999686,-0.464011012,0.660188079,0.515900373,-0.060503542
1.76967E+18,3.778715088,-0.665838821,0.402225879,-0.468607838,0.66122967,0.693006694,-0.188678026
1.76967E+18,3.788704102,-0.989310313,0.024113866,-0.315808665,0.676732481,0.713706195,-0.265940189
1.76967E+18,3.798692139,-0.731098937,0.357941916,-0.18063754,0.695208967,0.659206748,-0.380236447
1.76967E+18,3.808681396,-0.206681095,0.405097343,-0.131038044,0.709879041,0.631330192,-0.427516341
1.76967E+18,3.818669434,-0.34665889,0.235276198,-0.173741935,0.709631383,0.669972658,-0.468889624
1.76967E+18,3.828657959,-0.37999768,0.431548712,0.112106951,0.658543289,0.720847607,-0.528700948
1.76967E+18,3.838645996,-0.208822199,0.475098807,0.327839404,0.595093191,0.66016078,-0.541987479
1.76967E+18,3.848635254,-0.034503743,0.562309181,0.534715656,0.487755865,0.457305819,-0.530312061
1.76967E+18,3.858624268,0.081097151,0.536478282,0.759328568,0.363034695,0.249920145,-0.505964398
1.76967E+18,3.868612061,0.160472302,0.288708805,0.922216406,0.231301934,0.179543391,-0.453962862
1.76967E+18,3.878601318,0.135942256,0.181676418,1.129489475,0.112840787,0.254357696,-0.344303459
1.76967E+18,3.888589111,0.281062674,0.008785656,0.864061154,0.040444482,0.271007895,-0.262879729
1.76967E+18,3.898578125,0.650016398,0.049106853,0.40412616,0.03078866,0.291494012,-0.176144004
1.76967E+18,3.908566406,0.473871311,0.370843191,-0.126150619,0.060331739,0.237020016,-0.141564429
1.76967E+18,3.918555176,0.386500487,0.262020705,-0.42068055,0.101509534,0.163385466,-0.110075206
1.76967E+18,3.928542969,-0.066626728,0.239264099,-0.446978263,0.135275528,0.166769728,-0.083650559
1.76967E+18,3.938532227,-0.242544436,0.282436301,-0.336808052,0.155078247,0.185608655,-0.074819513
1.76967E+18,3.948520996,0.057540335,0.209793966,-0.136951871,0.139914677,0.221126512,-0.061664432
1.76967E+18,3.958509033,0.117509943,0.059124389,0.082320245,0.128544569,0.215291798,-0.05229117
1.76967E+18,3.968498291,0.194242469,0.190526956,0.267586504,0.108361043,0.205676422,-0.032681879
1.76967E+18,3.978486328,0.089389179,2.39654E-05,0.358459291,0.085152388,0.185579151,-0.020487264
1.76967E+18,3.988474854,0.051603931,-0.056728434,0.36618773,0.07171309,0.220647871,-0.002984309
1.76967E+18,3.998463135,-0.195263629,0.087101068,0.384473036,0.060151238,0.310758322,-0.004986741
1.76967E+18,4.008452148,-0.243321265,0.288045081,0.479587132,0.058662571,0.402340978,-0.01859846
1.76967E+18,4.018441162,-0.177160986,0.279480958,0.506108059,0.050423287,0.44667837,0.003486869
1.76967E+18,4.028429199,-0.09979776,0.010045009,0.290565539,0.05103102,0.460135579,0.054939672
1.76967E+18,4.038418213,0.101816699,0.289129661,0.297537588,0.077924952,0.466775358,0.087968729
1.76967E+18,4.048406006,-0.017926117,0.769821466,0.39133061,0.111242272,0.484338343,0.111088187
1.76967E+18,4.058395264,-0.278104994,0.849178204,0.342112333,0.117150493,0.570483923,0.140691876
1.76967E+18,4.068383301,-0.393912809,0.952005249,0.221029189,0.15592593,0.577721596,0.147768289
1.76967E+18,4.07837207,-0.010600889,0.830428495,0.398206597,0.133333281,0.253593087,0.231052518
1.76967E+18,4.088361328,0.767658443,0.043002106,0.319890564,0.100633413,0.071960889,0.266898334
1.76967E+18,4.098349121,0.851808552,0.186767603,0.578149834,0.053212635,0.28883782,0.231816486
1.76967E+18,4.108337891,-0.714053109,-0.003526421,0.251160032,0.07360553,0.405239284,0.165781274
1.76967E+18,4.118326172,-0.664613079,-0.19094635,0.19889172,0.088440932,0.392986357,0.116821185
1.76967E+18,4.128315186,0.025407413,-0.188145906,-0.057020768,0.122113757,0.351457357,0.116913714
1.76967E+18,4.138303223,0.270267724,0.322566651,0.032708018,0.100491822,0.344897717,0.112806052
1.76967E+18,4.148292236,-0.059573302,0.791320181,0.383938271,0.029995136,0.266964048,0.103814177
1.76967E+18,4.158280029,-0.238294377,0.596744242,0.817234813,-0.029245814,0.17618303,0.08864747
1.76967E+18,4.168269043,0.018096213,0.665994012,0.448824695,-0.037921373,0.083100423,0.059751753
1.76967E+18,4.178258301,-0.083422964,1.316108318,0.468778957,-0.013039992,-0.002640846,-0.005893837
1.76967E+18,4.188246338,-0.272009599,1.024013962,0.451673289,0.019368196,0.031025453,-0.057209071
1.76967E+18,4.198235107,-0.59437576,0.336764103,0.170126375,0.017610509,-0.037942432,-0.077212334
1.76967E+18,4.208223145,-0.26139702,0.247369664,0.061112713,0.011860712,-0.31727311,-0.032526258
1.76967E+18,4.218212158,0.411183677,-0.200408591,0.338120085,-0.083913751,-0.678486407,-0.016797896
1.76967E+18,4.228200195,0.623864889,-0.161553375,0.746494367,-0.204621479,-0.794729173,-0.042440776
1.76967E+18,4.238189209,-0.267281986,0.612701982,1.319140525,-0.381184012,-0.973179877,-0.281187296
1.76967E+18,4.248178223,-0.554887214,0.26878187,1.171262698,-0.535286248,-1.492195368,-0.694167078
1.76967E+18,4.25816626,-0.722042355,0.068883567,1.203105477,-0.601096988,-2.170660019,-1.116353512
1.76967E+18,4.268155273,-1.155572888,-0.036303193,0.763331227,-0.640747845,-2.181257486,-1.14313066
1.76967E+18,4.278143066,-2.390951718,-0.65746613,-0.765619484,-0.527790427,-0.044202138,-0.277065963
1.76967E+18,4.28813208,-1.56487908,-0.770285577,-1.457316385,-0.44665578,1.256394506,-0.294780493
1.76967E+18,4.298120361,5.88817658,-0.378630484,-0.484027891,-0.432094395,-0.579749942,-0.590979159
1.76967E+18,4.308109375,2.13746328,0.082761578,1.196645049,-0.65593338,-1.20043087,-0.268531173
1.76967E+18,4.318098145,-3.438722403,0.364208575,0.023097309,-0.838786542,-1.252202868,-0.638332963
1.76967E+18,4.328086182,0.940042132,0.84188074,0.243738066,-0.872276902,-1.352822304,-0.723011434
1.76967E+18,4.338075195,-1.113019694,0.515619326,0.56084426,-0.94554317,-1.118096828,-0.531279802
1.76967E+18,4.348063232,-1.039487425,-0.202330791,-0.171283582,-0.935618222,-0.394127071,-0.383086503
1.76967E+18,4.358052734,1.489877323,-0.42648383,0.246233061,-0.933022439,-0.0079421,-0.090820037
1.76967E+18,4.368040527,1.278546941,-0.081170801,0.218257405,-0.974970996,-0.147534147,0.11848966
1.76967E+18,4.378029541,1.178956686,0.321213775,0.155383125,-1.02097106,-0.407477587,0.189450383
1.76967E+18,4.388017822,0.744399732,0.651425096,0.321016828,-1.096025229,-0.498833686,0.215653196
1.76967E+18,4.398006592,-0.213737443,0.572264758,0.071239665,-1.138933659,-0.512752712,0.222869292
1.76967E+18,4.407995605,-0.509516041,0.352033861,0.051105114,-1.068830848,-0.528983116,0.209683985
1.76967E+18,4.417983887,-0.168875388,0.138120769,0.24309743,-1.034440875,-0.476745725,0.158283651
1.76967E+18,4.427972412,0.119421329,0.097850426,-0.393291973,-0.992824078,-0.424299479,0.158817485
1.76967E+18,4.437960449,0.076712653,0.230941968,-0.451742628,-0.929215014,-0.350990653,0.139253095
1.76967E+18,4.447949707,0.245211609,-0.033873336,-0.233485369,-0.941827953,-0.321681321,0.126385912
1.76967E+18,4.457937744,0.344997679,-0.226147135,-0.416514005,-0.967689097,-0.331726223,0.088403374
1.76967E+18,4.467926514,0.327620428,-0.062988371,-0.255373814,-0.943408728,-0.400612116,0.043709267
1.76967E+18,4.477915771,0.316565365,-0.01212123,-0.108298243,-0.929554939,-0.40808627,0.025065809
1.76967E+18,4.487903564,0.077595865,0.311490254,-0.283632817,-0.894314826,-0.38539201,-0.02838183
1.76967E+18,4.497892578,-0.036478842,0.494693442,0.066810194,-0.948245466,-0.388833612,-0.042104565
1.76967E+18,4.507880859,-0.405935255,0.211292388,-0.131889473,-1.041232705,-0.519056976,0.030146854
1.76967E+18,4.517869629,-0.83205405,0.083302845,-0.313572321,-1.100294232,-0.785754979,0.112892598
1.76967E+18,4.527857422,-0.46027241,0.198216926,-0.289501344,-1.134570956,-0.987256467,0.103601538
1.76967E+18,4.53784668,0.390825948,0.026291795,-0.305738339,-1.105105519,-1.01926291,0.06230922
1.76967E+18,4.547835449,0.29512101,-0.00167787,0.490499644,-1.029927611,-0.983434796,0.093220755
1.76967E+18,4.557823486,-0.804446497,0.022146073,1.048924969,-0.985231996,-1.0071913,0.12512064
1.76967E+18,4.567812744,-0.870392841,0.089851828,0.948882587,-0.955319285,-1.025378942,0.066206582
1.76967E+18,4.577800781,0.454111549,-0.371766443,0.311652239,-0.894090056,-0.968612254,-0.047240082
1.76967E+18,4.587789551,1.116441485,-0.121243868,0.47381527,-0.832430363,-0.898606539,-0.066394344
1.76967E+18,4.597777588,-0.19664427,0.423116107,0.376800419,-0.745381236,-0.79303056,-0.028667204
1.76967E+18,4.607766602,-1.021632035,0.69994655,0.570414381,-0.665202677,-0.60549444,-0.021227386
1.76967E+18,4.617754639,-1.308714116,0.544420473,0.394050683,-0.678386092,-0.430852026,-0.009332377
1.76967E+18,4.627743896,-1.638638144,0.021503684,-0.322700141,-0.705510736,-0.365859509,-0.029354937
1.76967E+18,4.637732666,-1.136640808,0.115772451,0.002736293,-0.732167959,-0.32930547,-0.072419055
1.76967E+18,4.647720459,-0.710161363,-0.401942386,0.212535155,-0.773724318,-0.357620001,-0.193493679
1.76967E+18,4.657709717,0.100933486,-1.035831533,0.009199936,-0.775614679,-0.517685533,-0.339128643
1.76967E+18,4.667697754,0.826973971,-0.932030382,0.227247936,-0.73772341,-0.794248939,-0.369418263
1.76967E+18,4.677686523,1.060950484,-1.312638011,0.261020442,-0.71307981,-1.041921854,-0.482087016
1.76967E+18,4.687674805,1.486604001,-1.251165013,0.340374841,-0.761175931,-1.156233907,-0.513351023
1.76967E+18,4.697663574,0.389819986,-0.961739,0.18548034,-0.808492005,-1.057519317,-0.405134022
1.76967E+18,4.707652588,-1.13186468,-1.244326107,0.011300416,-0.861997128,-0.906243682,-0.458316803
1.76967E+18,4.717640625,-0.337187297,-0.996896238,-0.14386808,-0.860177398,-0.840173841,-0.515134573
1.76967E+18,4.727629639,-0.44412207,-0.703167851,0.072118895,-0.861650586,-0.952665746,-0.53147161
1.76967E+18,4.737617676,-0.337977571,-0.420683911,-0.0729552,-0.826706707,-0.951966643,-0.640532017
1.76967E+18,4.747606934,-0.077956515,-0.107268535,0.059789575,-0.823909402,-0.898055494,-0.658100367
1.76967E+18,4.757594727,-0.568700051,-0.861363732,-0.499501427,-0.764290571,-0.626071155,-0.920128226
1.76967E+18,4.767583496,0.599768559,-1.229399464,0.005203414,-0.63653487,-0.451928973,-1.08154273
1.76967E+18,4.777572754,0.155450089,-1.508832491,0.082222941,-0.562665701,-0.286415368,-1.130252481
1.76967E+18,4.787560791,-0.515057308,-1.827992549,-0.764176008,-0.513189852,-0.150135189,-1.117445588
1.76967E+18,4.797549561,0.041245034,-1.774585076,-1.199528203,-0.393966556,0.175427735,-1.116932154
1.76967E+18,4.807537354,1.332450381,-1.783420417,-0.624185061,-0.251799345,0.54156208,-1.128593087
1.76967E+18,4.817526611,1.682473779,-1.627313033,-0.605734627,-0.146835104,0.77060324,-1.008963823
1.76967E+18,4.827514648,0.677360332,-0.773316615,-0.749082191,-0.056528419,0.742186248,-0.873998761
1.76967E+18,4.837503662,0.165377025,-0.604858137,-0.599758622,-0.013375356,0.480600953,-0.905079424
1.76967E+18,4.847492676,-0.09102058,-0.184066235,-0.605275193,-0.02390402,0.154051527,-0.979137659
1.76967E+18,4.857480713,-0.297237564,-0.078728523,-0.791724524,0.073423594,0.226951033,-0.987241387
1.76967E+18,4.867469727,0.293207286,0.033399873,-0.450772322,0.141979247,0.326889783,-0.83578676
1.76967E+18,4.87745752,0.564060116,0.212373169,-0.554480095,0.178906366,0.205665648,-0.586548448
1.76967E+18,4.887446533,0.834765063,0.017981355,-0.430150389,0.194298401,0.028983908,-0.395097494
1.76967E+18,4.89743457,1.120844104,0.007903759,-0.26284225,0.178260848,-0.028128646,-0.272928178
1.76967E+18,4.907423828,0.678318948,0.137137457,-0.119690502,0.16592586,-0.164451152,-0.236221537
1.76967E+18,4.917412598,0.465210451,0.540976616,-0.111079033,0.16375272,-0.245712459,-0.269280165
1.76967E+18,4.927400391,0.357455009,0.658141253,-0.244062,0.17709066,-0.256863475,-0.271984905
1.76967E+18,4.937389648,-0.015593875,0.37932285,-0.388466672,0.15226467,-0.350142539,-0.26476267
1.76967E+18,4.947377686,0.213942026,0.304398688,-0.431455481,0.113739729,-0.353393734,-0.227110773
1.76967E+18,4.957366699,0.459824666,0.286407689,-0.096889326,0.06407737,-0.420993805,-0.174223602
1.76967E+18,4.967354736,0.44071723,0.311542715,-0.177408677,0.032414611,-0.513569593,-0.156645373
1.76967E+18,4.977343506,0.385368268,0.333992593,-0.171186588,0.003652471,-0.587842762,-0.124524981
1.76967E+18,4.987332764,0.355120429,0.498462878,-0.195022806,-0.016302207,-0.630271375,-0.110897042
1.76967E+18,4.997320557,0.349954424,-0.008228753,-0.254199656,-0.053589925,-0.633601964,-0.071679868
1.76967E+18,5.00730957,0.216534965,0.235721311,-0.42585693,-0.095537804,-0.679645181,-0.059852935
1.76967E+18,5.017297607,0.403160529,0.393044063,-0.595369155,-0.098349571,-0.72420305,-0.048796821
1.76967E+18,5.027286865,0.425955714,0.210423935,-0.572758679,-0.095051996,-0.73400712,-0.077059202
1.76967E+18,5.037274658,0.554386279,0.169303989,-0.600085077,-0.155469805,-0.749966383,-0.048046194
1.76967E+18,5.047263672,0.392535675,0.523499558,-0.991400855,-0.15652585,-0.760524213,-0.042944402
1.76967E+18,5.057252686,0.57077335,0.181617527,-0.612456775,-0.184114873,-0.8036834,-0.013959887
1.76967E+18,5.067240723,0.263541631,0.424260747,-1.003992626,-0.160556138,-0.781814277,0.011107833
1.76967E+18,5.077229736,0.109886024,0.116349521,-0.78731533,-0.171067625,-0.722360551,-0.011171107
1.76967E+18,5.087217529,0.058648588,-0.061476359,-0.868244723,-0.160553247,-0.690222442,-0.036796719
1.76967E+18,5.097206543,-0.163276838,0.315622239,-0.735387282,-0.103314467,-0.644842684,-0.04015816
1.76967E+18,5.10719458,-0.340948111,0.133931501,-0.438610905,-0.084989145,-0.539845586,-0.063357666
1.76967E+18,5.117183594,-0.346088397,-0.330762233,-0.363799118,-0.109756812,-0.483375072,-0.053336989
1.76967E+18,5.127172607,-0.445973835,-0.224150555,-0.199221719,-0.118359186,-0.502746522,-0.055691853
1.76967E+18,5.137160889,-0.27793782,-0.347854383,0.253660581,-0.146378562,-0.523257375,-0.050333042
1.76967E+18,5.147149658,-0.29610593,-0.367299235,0.37555999,-0.188216105,-0.601047158,-0.084399536
1.76967E+18,5.157137695,-0.042986909,-0.254604583,0.367949808,-0.176359981,-0.715224862,-0.093260676
1.76967E+18,5.167126709,-0.261458979,-0.405859267,0.612965309,-0.182171375,-0.703906,-0.115982778
1.76967E+18,5.177114746,-0.017796938,-0.396741602,0.612374358,-0.174675107,-0.754146755,-0.154031083
1.76967E+18,5.18710376,0.335293446,-0.258766818,0.795671362,-0.158519641,-0.771978438,-0.126250744
1.76967E+18,5.197092773,0.210528418,-0.190017399,0.761507227,-0.187241033,-0.770044446,-0.088528387
1.76967E+18,5.207080566,0.427703435,-0.118436264,0.22886107,-0.226412535,-0.795933425,-0.057069786
1.76967E+18,5.21706958,0.485355413,0.083524671,-0.119299456,-0.239046842,-0.894068003,-0.036515243
1.76967E+18,5.227057617,0.355844067,0.165291392,-0.069797759,-0.287719369,-0.925461054,-0.043409497
1.76967E+18,5.237046631,0.320224472,0.088038349,-0.439290412,-0.311207652,-0.933096588,-0.03209053
1.76967E+18,5.247034424,0.217634451,0.291242269,-0.515972377,-0.32650587,-0.966232061,-0.010356595
1.76967E+18,5.257023438,0.248981191,0.112097416,-0.51177288,-0.312008947,-1.026437879,-9.14405E-05
1.76967E+18,5.267012695,0.322126506,-0.29762934,-0.153474698,-0.370859385,-1.046430469,-0.022486914
1.76967E+18,5.277000732,0.18134324,-0.375889222,-0.196738378,-0.393451512,-1.039690495,-0.035837077
1.76967E+18,5.286989746,0.068081018,-0.624205227,0.299169701,-0.444520056,-1.05086422,-0.04801143
1.76967E+18,5.296977783,0.007978139,-0.60538143,0.118936761,-0.483598202,-1.051946521,-0.0346357
1.76967E+18,5.306966553,-0.018812252,-0.501405507,0.028092999,-0.508777022,-1.086994052,-0.024117576
1.76967E+18,5.31695459,0.212425776,-0.310698957,-0.299877265,-0.546291351,-1.078474045,-0.01610519
1.76967E+18,5.326943604,0.252343945,0.010926468,-0.675581925,-0.549097717,-1.096534848,-0.017044494
1.76967E+18,5.336932617,0.259051918,-0.018735534,-0.717098176,-0.562361836,-1.044647694,-0.017096691
1.76967E+18,5.346920654,0.123725164,-0.109324006,-0.818442874,-0.562341571,-1.069212556,-0.01414867
1.76967E+18,5.356909424,0.174184016,-0.323305049,-0.427741428,-0.583850861,-1.061280251,-0.000980936
1.76967E+18,5.366897217,0.17273674,-0.373199545,-0.425667545,-0.565073252,-1.058976293,0.034896635
1.76967E+18,5.37688623,0.056102411,-0.312144188,-0.156672032,-0.525803626,-0.986103296,0.04767954
1.76967E+18,5.386874512,0.018126608,-0.025682723,-0.182335758,-0.463859528,-0.858045757,0.075923279
1.76967E+18,5.396863525,-0.34951311,0.15437983,-0.284313785,-0.40706709,-0.836992383,0.086795636
1.76967E+18,5.406852295,-0.244417244,0.074653236,-0.374722078,-0.39565146,-0.695566177,0.079836279
1.76967E+18,5.416840576,-0.1856839,-0.150689305,-0.606055384,-0.396549493,-0.695290804,0.113657624
1.76967E+18,5.426829346,-0.111554249,-0.062881988,-0.406489966,-0.389024854,-0.55052495,0.109305762
1.76967E+18,5.436817383,-0.022517537,-0.106022772,-0.565080984,-0.405743927,-0.523638189,0.137609854
1.76967E+18,5.446806396,-0.106422731,0.17082623,-0.627225013,-0.376603782,-0.498144597,0.15034306
1.76967E+18,5.456794434,-0.195455352,0.256953338,-0.146844758,-0.359721482,-0.332959354,0.137167081
1.76967E+18,5.466783447,-0.418275681,0.113949474,-0.169019181,-0.350600988,-0.309774041,0.133240029
1.76967E+18,5.476772461,-0.424096934,-0.015947657,-0.18762685,-0.322213799,-0.212384388,0.13555564
1.76967E+18,5.486760254,-0.525344894,-0.011585955,0.259108617,-0.281946182,-0.206166744,0.139836758
1.76967E+18,5.496749268,-0.440500372,0.009185908,0.52584992,-0.261819601,-0.121738672,0.155111045
1.76967E+18,5.506737549,-0.425347811,0.159286307,0.374623586,-0.274177432,-0.068871759,0.159507558
1.76967E+18,5.516726563,-0.312874694,0.017264,0.091075525,-0.216266721,-0.093804002,0.196025893
1.76967E+18,5.526714355,-0.28911271,0.3959864,0.527775336,-0.213047728,-0.074262358,0.169405699
1.76967E+18,5.536703369,0.087434538,0.17060908,0.361262,-0.178605601,-0.064480565,0.172105342
1.76967E+18,5.546692383,-0.24569267,-0.155717947,0.482163923,-0.178746685,-0.094657145,0.179961801
1.76967E+18,5.55668042,-0.416029948,-0.036988691,0.490505051,-0.112952217,-0.047897093,0.175784633
1.76967E+18,5.566669434,-0.313911636,0.126009768,0.627499446,-0.093496397,-0.104613967,0.169107318
1.76967E+18,5.576657471,-0.194672677,-0.379660996,0.636048079,-0.076634064,-0.058003586,0.192430228
1.76967E+18,5.586646484,-0.108257546,0.063043316,0.401230438,-0.022200415,-0.047069192,0.190465182
1.76967E+18,5.596634521,-0.205083597,0.133718442,0.44305181,-0.004216622,-0.059492309,0.196979269
1.76967E+18,5.606623291,-0.35911739,-0.105244481,0.449304441,0.010943012,-0.046674713,0.199909285
1.76967E+18,5.616612305,-0.11727438,-0.096881288,0.431961092,0.05742529,-0.049170095,0.176918209
1.76967E+18,5.626600586,0.060097034,0.155354228,0.24697745,0.080296285,-0.045008462,0.153511658
1.76967E+18,5.6365896,-0.164217333,0.064795713,0.171273097,0.075054385,-0.036291137,0.142293096
1.76967E+18,5.646577148,-0.327490079,-0.116631991,0.233611187,0.027499553,-0.008650553,0.141155556
1.76967E+18,5.656566406,-0.236062088,-0.060130351,0.122833183,0.060848456,0.004078824,0.130131394
1.76967E+18,5.666554443,-0.061835986,0.545826248,0.157213592,-0.015951307,0.029455675,0.120775305
1.76967E+18,5.676543457,-0.199977798,0.055436348,-0.154515439,0.037696473,0.070815101,0.162276149
1.76967E+18,5.686532471,-0.469559878,0.268258138,-0.071358432,0.078566127,0.124049738,0.170141801
1.76967E+18,5.696520508,-0.365321505,0.434339804,-0.282022459,0.062619381,0.181056306,0.176112339
1.76967E+18,5.706509277,-0.514103369,-0.055503568,-0.067600541,0.038701013,0.256481588,0.196690053
1.76967E+18,5.716497559,-0.427856579,-0.040265083,-0.006382395,-0.019429136,0.307018012,0.220367417
1.76967E+18,5.726486328,-0.364343015,0.225548,-0.133408353,-0.078319632,0.373044074,0.193530217
1.76967E+18,5.736474365,-0.163038353,-0.134917297,-0.141597797,-0.014698847,0.404949546,0.196261287
1.76967E+18,5.746463623,-0.237955354,-0.02859598,0.214684661,-0.028488405,0.472631514,0.198172629
1.76967E+18,5.756452393,-0.284081146,-0.219517488,0.110663145,-0.061072983,0.519202173,0.198356122
1.76967E+18,5.766440186,-0.298117854,-0.533450459,0.135706109,-0.111928716,0.591725111,0.173112556
1.76967E+18,5.776429443,-0.239052502,-0.390151702,0.120011112,-0.131566063,0.606835902,0.164798439
1.76967E+18,5.78641748,-0.224982475,-0.075751699,0.072889587,-0.077877998,0.557226777,0.188705489
1.76967E+18,5.796406494,-0.221096574,0.304280176,0.035384033,-0.030195428,0.539990783,0.206810728
1.76967E+18,5.806394531,0.035022214,0.013060849,0.019605449,-0.050569173,0.53554976,0.179259032
1.76967E+18,5.816383301,0.138413614,-0.291896203,0.151657127,-0.032104678,0.545091331,0.18515873
1.76967E+18,5.826372314,-0.101602764,-0.163066117,0.337507031,0.01518411,0.478724152,0.191578105
1.76967E+18,5.836360596,0.228797065,0.1309066,0.27334494,0.01336171,0.476016521,0.182769701
1.76967E+18,5.846349365,0.17458266,-0.102025081,0.050086804,0.017312745,0.455583006,0.153737545
1.76967E+18,5.856337402,0.168880064,-0.110588911,0.415150827,-0.002768822,0.430358082,0.147791252
1.76967E+18,5.866326416,0.132931968,0.597021014,0.367677713,0.009298461,0.401301354,0.146830738
1.76967E+18,5.876314453,0.130292852,0.503705309,0.295753755,0.000450906,0.374584526,0.145470381
1.76967E+18,5.886303223,-0.062491235,-0.028762569,0.207061034,-0.015237855,0.359619439,0.180341706
1.76967E+18,5.89629248,0.078481416,0.18091537,0.338633112,-0.010303817,0.355573028,0.181365699
1.76967E+18,5.906280518,-0.049035541,0.120091484,0.076180738,-0.004870896,0.414876789,0.196561024
1.76967E+18,5.916269531,-0.406213487,0.501452561,0.24879882,-0.01597894,0.495442212,0.19115001
1.76967E+18,5.926257568,-0.305006445,0.457064846,0.494677076,0.004552426,0.506942511,0.19151859
1.76967E+18,5.936246338,-0.224910579,0.701764414,0.404898313,0.018806197,0.557695985,0.221078888
1.76967E+18,5.946234375,-0.351269014,1.40175568,0.509359389,0.059863199,0.602345467,0.267344415
1.76967E+18,5.956223633,-0.43500762,1.103753269,0.916020328,0.106362529,0.600812554,0.295865804
1.76967E+18,5.966212402,-0.48752282,0.628043344,0.885929725,0.117705859,0.608019233,0.289030254
1.76967E+18,5.976200195,-0.275764568,0.087506434,0.582191401,0.154338434,0.577464759,0.323696107
1.76967E+18,5.986189453,-0.295559986,0.240916542,0.611400837,0.20502387,0.609464467,0.355764538
1.76967E+18,5.99617749,-0.636104777,0.697327016,0.750291713,0.239204735,0.667343974,0.378199548
1.76967E+18,6.00616626,-0.631221682,0.941551659,0.721196259,0.301892102,0.677473545,0.402676404
1.76967E+18,6.016154541,-0.34380993,0.428320982,0.419672688,0.368423194,0.703691065,0.368214041
1.76967E+18,6.026143555,-0.265797301,0.198935888,0.665727762,0.416836679,0.73996377,0.369045973
1.76967E+18,6.036132324,-0.457528079,0.160028065,0.804844557,0.411164939,0.736585319,0.361914009
1.76967E+18,6.046120361,-0.15472236,-0.201908766,0.446609503,0.512622416,0.729279757,0.335554898
1.76967E+18,6.056109375,0.134423668,0.128333534,0.614695494,0.567489922,0.583788335,0.333519161
1.76967E+18,6.066097412,0.28817163,0.071313716,0.434170292,0.654090285,0.488204122,0.350048363
1.76967E+18,6.07608667,-0.055565235,-0.075516429,0.738502783,0.675284803,0.463627666,0.344317228
1.76967E+18,6.086075439,-0.014458733,-0.041838908,0.309428937,0.686059356,0.370725751,0.338716865
1.76967E+18,6.096063232,0.022603461,0.305746157,0.146196231,0.675560892,0.297038227,0.289226532
1.76967E+18,6.10605249,0.276408711,-0.023100013,-0.410334367,0.728091359,0.39019987,0.271272838
1.76967E+18,6.116040527,-0.049632338,0.084967271,-0.240093243,0.732820034,0.439342916,0.249098301
1.76967E+18,6.126029297,0.05957564,-0.010455928,-0.315352774,0.758121908,0.391169429,0.231898651
1.76967E+18,6.136017578,0.128221891,0.064328388,-0.191284496,0.809885502,0.439773977,0.216854453
1.76967E+18,6.146006348,-0.005191723,0.251094529,-0.014773791,0.838245869,0.54709816,0.235382169
1.76967E+18,6.155995361,-0.547841388,0.776989166,0.051344111,0.81092447,0.630336583,0.240729257
1.76967E+18,6.165983398,-0.655766925,0.759687318,-0.076546941,0.833022833,0.642675638,0.277947456
1.76967E+18,6.175972412,-0.737859517,0.720053519,0.038372401,0.842417419,0.641972005,0.353976995
1.76967E+18,6.185960449,-0.752479579,0.634555794,0.096639296,0.771961272,0.717968643,0.423256516
1.76967E+18,6.195949707,-0.639502019,0.474286614,-0.408113768,0.707109332,0.823264718,0.300057888
1.76967E+18,6.2059375,0.323671982,-0.85684187,-1.482454187,0.663975656,0.702596545,0.176426068
1.76967E+18,6.21592627,-0.009532383,-2.648137258,-1.622111372,0.563381135,0.969222128,0.006628514
1.76967E+18,6.225915527,0.59486442,-2.660564778,-1.486172039,0.472998857,1.14505744,-0.050001092
1.76967E+18,6.235903564,0.170142632,-1.359308577,-0.898804697,0.492477208,1.344310522,-0.176009089
1.76967E+18,6.245892334,0.079902973,-0.573024929,0.140170687,0.44156146,1.519104481,-0.241826445
1.76967E+18,6.255880371,-0.598149433,-0.735458009,0.215607621,0.338889927,1.470154524,-0.323958337
1.76967E+18,6.265869385,0.303461553,-0.885213686,-0.238787421,0.305712849,1.503450751,-0.367038012
1.76967E+18,6.275857422,0.926204745,-0.907539792,-0.082261519,0.314741224,1.426828146,-0.343506873
1.76967E+18,6.285846436,0.614599048,-0.310324133,0.113929454,0.297938436,1.350661278,-0.3884826
1.76967E+18,6.295835449,0.685900197,-0.429473951,-0.019209874,0.245663509,1.19656229,-0.365870774
1.76967E+18,6.305823486,0.183329445,0.044494099,0.030947804,0.238626167,1.092327952,-0.409957916
1.76967E+18,6.3158125,0.678999332,-0.296338277,0.421910823,0.170579746,1.129787922,-0.432044297
1.76967E+18,6.325800537,0.422446829,-0.885159618,-0.287860372,0.217268169,1.219057083,-0.413505018
1.76967E+18,6.335789307,-0.250156664,-0.372247212,0.17503698,0.171078563,1.11266911,-0.44620356
1.76967E+18,6.345777588,0.097217681,-0.083464465,-0.294396057,0.175600275,0.935086668,-0.430137366
1.76967E+18,6.355766602,0.212132346,-0.344650473,-0.050383595,0.124963187,0.813520849,-0.429916322
1.76967E+18,6.365755371,0.448169299,-1.118729012,-0.847935949,0.100673415,0.707997143,-0.457232088
1.76967E+18,6.375743408,0.533851441,-0.238631938,-0.179872145,0.172049597,0.610779226,-0.465870053
1.76967E+18,6.385732422,0.342556715,0.147423143,0.698574239,0.247362375,0.575933397,-0.484950662
1.76967E+18,6.395720459,0.282417012,0.129905314,0.677276307,0.322991639,0.510856152,-0.487533927
1.76967E+18,6.405709473,0.190437816,-0.136752549,0.680888945,0.3673594,0.439970642,-0.469407946
1.76967E+18,6.415697266,0.21122283,0.182137751,0.408701943,0.387584239,0.400261045,-0.464817196
1.76967E+18,6.425686279,0.214628255,0.065350716,0.176890645,0.421658486,0.391227633,-0.465275377
1.76967E+18,6.435675537,0.098052378,0.058594082,0.824281809,0.490592837,0.405707777,-0.51338619
1.76967E+18,6.445663574,0.290357157,0.285603971,1.004361897,0.489729345,0.408728898,-0.554083347
1.76967E+18,6.455652344,0.136359605,0.429396064,0.610593173,0.644501865,0.406715274,-0.565781772
1.76967E+18,6.465640625,0.035531332,0.615686843,1.6063097,0.733568549,0.4695566,-0.610867143
1.76967E+18,6.475629639,0.289964358,0.945770592,1.578902345,0.854171932,0.432789266,-0.57639122
1.76967E+18,6.485617432,-0.422636214,1.069231698,1.537762964,0.994795382,0.419218928,-0.563035369
1.76967E+18,6.495606445,-0.544734654,1.058816103,1.387284671,1.064473748,0.471318364,-0.528772473
1.76967E+18,6.505595459,-0.410554147,0.578898205,0.81408877,1.120553613,0.489023238,-0.455439955
1.76967E+18,6.515583496,-0.665065499,0.498450457,0.57683265,1.238839149,0.472432792,-0.398960441
1.76967E+18,6.52557251,-0.693546913,0.474268786,1.229290012,1.328942418,0.512398183,-0.284321308
1.76967E+18,6.535560303,-1.069910036,0.071284198,1.203310206,1.2803303,0.521135271,-0.191143185
1.76967E+18,6.545549316,-0.962411784,-0.491169652,0.141661876,1.249875307,0.576081991,-0.185380265
1.76967E+18,6.555537354,-0.533113189,-0.615717677,0.328956937,1.169444323,0.656731069,-0.181322947
1.76967E+18,6.565526367,-0.369803619,-0.676667674,0.011359818,1.037549734,0.919457257,-0.188603163
1.76967E+18,6.575515381,-0.193158766,-0.627809389,-0.243436197,0.89929384,1.215325475,-0.110928617
1.76967E+18,6.585503418,0.010700258,-0.265438989,-0.210638016,0.790815353,1.034695745,-0.031672284
1.76967E+18,6.595492432,0.965459481,0.099412853,-0.567470656,0.681448936,0.716561496,0.086643972
1.76967E+18,6.605480469,0.982801077,0.376614176,-0.405306163,0.527917087,0.627671421,0.233201355
1.76967E+18,6.615469482,0.459700163,0.460721176,-0.582859911,0.300088972,0.590318739,0.320254236
1.76967E+18,6.625458496,0.584507861,0.170754042,-0.983255396,0.193065956,0.608234227,0.380737394
1.76967E+18,6.635446533,0.368458049,0.028782589,-0.146873911,0.141971618,0.587129474,0.425800472
1.76967E+18,6.645435303,0.333795901,-0.115015788,-0.084202168,0.053408284,0.473974049,0.402370811
1.76967E+18,6.65542334,0.212521638,0.102744481,-0.383812197,0.06618347,0.464067101,0.385597974
1.76967E+18,6.665412354,0.024791911,-0.211941207,0.410132085,0.04835289,0.473442495,0.318234742
1.76967E+18,6.675400391,-0.006561258,-0.33602103,0.22097134,0.01371395,0.415811956,0.324342191
1.76967E+18,6.685389404,-0.571446135,-0.40129532,0.158884868,0.004278774,0.374756306,0.263974428
1.76967E+18,6.695378418,-0.004414309,-0.312521204,0.070262563,-0.011602454,0.373905957,0.203632787
1.76967E+18,6.705366455,0.203581375,-0.16440628,-0.224998276,-0.038413804,0.361768067,0.208912149
1.76967E+18,6.715355469,-0.020315643,-0.14162337,-0.458537695,-0.045513257,0.328647643,0.212848306
1.76967E+18,6.725343506,0.273508898,-0.0730968,-0.545786866,-0.048798669,0.279733628,0.191217393
1.76967E+18,6.73533252,0.439013349,0.092357381,-0.726560636,-0.085743107,0.299776584,0.198121637
1.76967E+18,6.745320557,0.135222125,-0.041308454,-1.010161158,-0.090812325,0.350902915,0.216493994
1.76967E+18,6.755309326,0.027488895,-0.137630793,-0.842118495,-0.074571565,0.38725397,0.21130003
1.76967E+18,6.76529834,0.101481183,-0.099874917,-0.721067737,-0.116440348,0.412968367,0.205079198
1.76967E+18,6.775286377,-0.03747136,-0.04715718,-0.848856351,-0.101435304,0.334275424,0.186693534
1.76967E+18,6.785275391,-0.004103344,0.016275135,-0.380663159,-0.126667976,0.235634372,0.168475732
1.76967E+18,6.795263672,-0.186317521,-0.017829525,-0.472388745,-0.173202991,0.168958664,0.177639127
1.76967E+18,6.805252441,-0.41581952,0.152204239,-0.493257491,-0.219568014,0.138142586,0.164822981
1.76967E+18,6.815240234,-0.209359374,0.218901986,-0.5556015,-0.263951182,0.113195427,0.194481283
1.76967E+18,6.825229492,-0.273116684,0.24128216,-0.606084391,-0.314984351,0.053358652,0.246094599
1.76967E+18,6.835218506,-0.156290632,0.267609319,-0.540052779,-0.380889595,-0.021959536,0.281318635
1.76967E+18,6.845206543,0.177823249,0.248051216,-0.661140434,-0.409755647,-0.037921458,0.334446371
1.76967E+18,6.855195557,0.10457798,0.176155316,-0.509771038,-0.449295878,-0.016935745,0.332418114
1.76967E+18,6.86518335,0.363214888,-0.016890198,-0.529144432,-0.441669881,-0.036329906,0.373485863
1.76967E+18,6.875172363,0.144763276,-0.049792059,-0.283306782,-0.451073498,-0.068853766,0.453512549
1.76967E+18,6.8851604,0.034920507,-0.027846184,-0.30083515,-0.453188777,-0.082569562,0.518223226
1.76967E+18,6.895149414,0.322960034,-0.147020845,-0.236456841,-0.428996116,-0.137801915,0.568955064
1.76967E+18,6.905138428,0.300591551,-0.192060157,-0.170114282,-0.397911549,-0.136908501,0.612172902
1.76967E+18,6.915126709,0.080040336,0.041656975,-0.036009325,-0.348711759,-0.163576603,0.650727212
1.76967E+18,6.925115234,0.078715225,0.234264391,0.051096584,-0.331730217,-0.150292307,0.65204376
1.76967E+18,6.935103271,0.171276604,0.256673791,-0.203328113,-0.312160224,-0.124471098,0.648511112
1.76967E+18,6.945092529,0.274905905,0.337013694,-0.202370611,-0.263656139,-0.064145103,0.577533662
1.76967E+18,6.955080566,0.263418881,0.492264169,-0.084557338,-0.229514703,0.061022136,0.538036585
1.76967E+18,6.96506958,0.015586861,0.577090278,-0.231450795,-0.179788753,0.275815398,0.534229755
1.76967E+18,6.975058594,-0.14795535,0.533888266,-0.20142164,-0.176102415,0.434881747,0.53368938
1.76967E+18,6.985046387,0.036344987,0.875716667,-0.305966138,-0.120567709,0.444276005,0.548887193
1.76967E+18,6.9950354,-0.014572131,1.217342823,-0.372423884,-0.080224015,0.415741324,0.570923507
1.76967E+18,7.005023438,0.043744449,1.100077503,-0.660796443,-0.110258527,0.462279558,0.65752244
1.76967E+18,7.015012451,-0.321722602,1.38969787,-0.671385934,-0.141532823,0.551218212,0.731420875
1.76967E+18,7.025001465,-0.03646949,1.283341482,-0.717882459,-0.180211291,0.518664956,0.759987354
1.76967E+18,7.034989258,0.621517449,1.368240072,-0.611563516,-0.195579335,0.401028037,0.759007871
1.76967E+18,7.044978271,1.044791377,1.638162343,-0.79246694,-0.233696461,0.314128995,0.763168395
1.76967E+18,7.054966309,1.056449666,1.842477586,-1.202469956,-0.281165183,0.276603997,0.780934334
1.76967E+18,7.064955566,1.138352289,2.047637755,-1.854164663,-0.283993185,0.206145227,0.741684437
1.76967E+18,7.074943604,1.600889721,2.159552362,-2.168212054,-0.232241571,0.201753139,0.671294689
1.76967E+18,7.084932373,1.757348695,2.134628933,-1.888475367,-0.204865843,0.281447142,0.620064735
1.76967E+18,7.094920166,1.549164209,1.804710458,-1.793863485,-0.245369866,0.39189589,0.588745952
1.76967E+18,7.104909424,1.022602926,1.661533867,-1.647013758,-0.293686271,0.578263879,0.562755406
1.76967E+18,7.114898438,0.554234303,1.374159525,-1.168497471,-0.370482266,0.76604706,0.53966099
1.76967E+18,7.124886475,0.058876552,1.177209258,-0.649706821,-0.461149216,0.841322005,0.51831609
1.76967E+18,7.134875488,-0.396910821,1.122009056,-0.216075019,-0.501466274,0.848979115,0.538533211
1.76967E+18,7.144863281,-0.976124668,0.73777067,0.472226759,-0.510883987,0.777511477,0.577412128
1.76967E+18,7.154852295,-1.37433605,0.61314125,1.036960026,-0.57312423,0.6793769,0.596592247
1.76967E+18,7.164841309,-1.448707108,0.199923145,1.112205017,-0.651812673,0.640220702,0.58970046
1.76967E+18,7.174829346,-1.605867509,-0.21077041,1.391768977,-0.737972081,0.587713838,0.587803245
1.76967E+18,7.184818604,-1.737653814,-0.477991314,1.534773427,-0.817841053,0.606806695,0.592785001
1.76967E+18,7.194806396,-1.700357226,-0.758454561,1.744583613,-0.861640453,0.647852659,0.594408154
1.76967E+18,7.20479541,-1.409586812,-0.863963393,2.126363647,-0.896571219,0.614515483,0.610994875
1.76967E+18,7.214783203,-1.157877073,-0.909950945,2.275416145,-0.933056295,0.52494967,0.61867702
1.76967E+18,7.224772461,-0.817377875,-0.970002678,2.386505553,-0.949136615,0.404116124,0.584127426
1.76967E+18,7.234761475,-0.392138785,-0.909102219,2.572778066,-0.957762063,0.174190789,0.527071297
1.76967E+18,7.244749512,0.044351767,-0.793310771,2.328288488,-0.92074573,-0.116475359,0.400709927
1.76967E+18,7.254738525,0.509780245,-0.491154162,2.077503755,-0.850332022,-0.377569288,0.269403309
1.76967E+18,7.264726318,0.539822332,-0.271934488,1.804223259,-0.807614684,-0.553296387,0.16779609
1.76967E+18,7.274715576,0.383689521,-0.272180864,1.33269778,-0.71540916,-0.727587521,0.09084779
1.76967E+18,7.284703613,0.16980244,-0.013898469,0.984908863,-0.661397159,-0.80631268,0.099282965
1.76967E+18,7.294692383,-0.632428135,-0.309063611,0.58794938,-0.668254793,-0.821483672,0.187379539
1.76967E+18,7.304681641,-1.285482878,-0.648059127,0.207588127,-0.771494389,-0.857630491,0.325830787
1.76967E+18,7.314669434,-1.670163748,-0.773754422,0.022987638,-0.86681056,-0.824681342,0.437351435
1.76967E+18,7.324658447,-1.605154977,-0.750322693,0.258991712,-0.933943391,-0.797647357,0.495702058
1.76967E+18,7.33464624,-0.851055688,-0.59559478,0.368849971,-0.932594776,-0.799467087,0.448528707
1.76967E+18,7.344635498,-0.005199907,-0.153952837,0.407343368,-0.89656812,-0.811129928,0.453272581
1.76967E+18,7.354623535,-0.360799644,0.07387363,0.534691691,-0.799140871,-0.85181129,0.415377915
1.76967E+18,7.364612305,-0.361924264,0.43472588,0.769271285,-0.704764962,-0.8396613,0.382257432
1.76967E+18,7.374601318,-0.497208932,0.471158253,0.665684215,-0.637160659,-0.831847847,0.330611795
1.76967E+18,7.384589355,-0.45792497,0.262825007,0.363428238,-0.623895884,-0.864274502,0.298357844
1.76967E+18,7.394578613,-0.676197134,0.062662792,0.198771491,-0.636037767,-0.895347416,0.297694445
1.76967E+18,7.40456665,-0.973628759,-0.232695826,0.250888047,-0.695052505,-0.922817111,0.287016004
1.76967E+18,7.414555176,-0.930054991,-0.462680932,0.114332189,-0.792416334,-0.945863843,0.247788712
1.76967E+18,7.424544434,-1.055477606,-0.456253237,0.263218098,-0.832475364,-0.920806289,0.212805137
1.76967E+18,7.434532471,-1.380479375,-0.814381323,0.684253745,-0.874864876,-1.039144397,0.157374635
1.76967E+18,7.44452124,-0.975135657,-0.864390386,0.3577792,-0.833747149,-1.065409303,0.037134521
1.76967E+18,7.454509277,-0.53838733,-0.532234069,0.780578276,-0.75274229,-1.034265757,-0.043492146
1.76967E+18,7.464498535,-0.438081036,-0.492438649,0.749029146,-0.766742289,-1.121654987,-0.035958596
1.76967E+18,7.474486328,0.016057985,-0.922494784,-0.206976863,-0.789458752,-1.165677547,-0.007294195
1.76967E+18,7.484475342,0.351354939,-0.978761446,-0.391382559,-0.821672499,-1.107571244,-0.038465437
1.76967E+18,7.494464355,0.646112377,-0.709450292,-0.312819603,-0.858656049,-1.121775985,-0.203706861
1.76967E+18,7.504452393,1.441523919,-1.006527697,-0.313529285,-0.780765355,-1.045925856,-0.360219896
1.76967E+18,7.51444165,1.248387365,-0.974931951,0.322643735,-0.601043761,-0.93763423,-0.433635533
1.76967E+18,7.524429443,0.613520021,-0.821464852,0.756549897,-0.488038838,-0.99840188,-0.393955439
1.76967E+18,7.534418213,0.089754505,-0.901260858,0.058736888,-0.470668644,-1.165871024,-0.365568548
1.76967E+18,7.544407471,0.329173502,-1.275769001,-0.62149173,-0.489961654,-1.347609639,-0.480048269
1.76967E+18,7.554395508,0.980750574,-0.990842344,-0.743658778,-0.416058391,-1.559767127,-0.710190892
1.76967E+18,7.564384277,1.645959865,-0.304750132,-0.063908829,-0.320599288,-1.662915349,-0.731190085
1.76967E+18,7.57437207,0.478520014,-0.078329148,-0.22957647,-0.297810614,-1.696197391,-0.704329193
1.76967E+18,7.584361328,0.401985056,-0.506631133,-0.778001339,-0.247650415,-1.638058782,-0.792127371
1.76967E+18,7.594349365,1.021170263,-0.187322607,-0.359980838,-0.21265541,-1.636992455,-0.946769714
1.76967E+18,7.604338379,1.142041206,0.031335342,-0.276664421,-0.141920686,-1.678355217,-0.960176706
1.76967E+18,7.614327393,0.269963188,-0.546184853,-0.302179039,-0.128370255,-1.730172873,-0.913948238
1.76967E+18,7.62431543,-0.304016849,-0.699438893,-0.506110835,-0.169297919,-1.70065105,-0.964571953
1.76967E+18,7.634304688,0.089392102,-0.765896402,-0.752306341,-0.158157378,-1.644812584,-1.1241436
1.76967E+18,7.64429248,0.892359174,-1.173503389,-0.374570176,-0.111408241,-1.581231117,-1.241890669
1.76967E+18,7.65428125,0.55865212,-1.140868655,-0.136258628,-0.111078806,-1.603046417,-1.27715075
1.76967E+18,7.664269287,0.023815175,-0.731101567,-0.52915415,0.002923189,-1.596689582,-1.18429184
1.76967E+18,7.674258545,-0.51144847,-1.061795703,-0.171235541,0.050582584,-1.246719122,-1.183165908
1.76967E+18,7.684247314,-0.02642565,-1.320189742,-0.605291852,0.104589403,-0.669293225,-1.301478863
1.76967E+18,7.694235107,0.611110037,-1.158457503,-0.704373865,0.212764069,-0.33940506,-1.326711535
1.76967E+18,7.704224365,0.419171168,-0.320422625,-0.422622478,0.310669243,-0.110532694,-1.236272693
1.76967E+18,7.714212402,0.063468556,-0.082004622,-0.407542836,0.331732184,0.01714457,-1.223967314
1.76967E+18,7.724201416,1.277310093,-1.038457644,-0.639036447,0.353160977,0.323212236,-1.340464473
1.76967E+18,7.73419043,2.269815402,-0.780361273,0.422909478,0.357610345,0.6823017,-1.337512612
1.76967E+18,7.744178223,1.367162213,-0.113168552,0.577206598,0.31446445,0.792182684,-1.149197102
1.76967E+18,7.75416748,0.14387831,-0.173338797,0.067735127,0.258469641,0.75787133,-1.026604652
1.76967E+18,7.764155518,-0.010576339,-0.110877519,-0.090314039,0.17717801,0.965731323,-0.924049854
1.76967E+18,7.774144287,-0.630348406,0.210829593,-0.562254528,0.149448112,1.46675241,-0.737537742
1.76967E+18,7.784132324,-1.780710866,0.22911183,-0.166262721,0.089756899,1.185143828,-0.583419144
1.76967E+18,7.794121582,-0.768026692,-0.021627018,-0.130027844,0.016197192,1.036880851,-0.494524986
1.76967E+18,7.804110352,0.089281042,-0.174305158,0.09668825,0.023697624,1.151554585,-0.311511338
1.76967E+18,7.814098145,-0.580370615,-0.12835823,0.144486943,0.021263495,0.907976329,-0.164688319
1.76967E+18,7.824087402,-0.403014399,-0.01782105,-0.425237117,0.071060516,0.534828067,-0.093845077
1.76967E+18,7.834075439,-0.237168588,0.016721125,-0.615114596,0.11328733,0.224517077,-0.213871077
1.76967E+18,7.844064697,0.563437601,0.025184856,-0.134327039,0.130122438,0.199929804,-0.341994286
1.76967E+18,7.854052246,0.230517898,0.061683426,0.122191707,0.122522309,0.142327756,-0.423179954
1.76967E+18,7.86404126,0.350445423,0.280479322,0.136918334,0.085242219,0.065207876,-0.408839494
1.76967E+18,7.874030518,0.859168852,0.140153882,0.12862733,0.074495301,-0.338460237,-0.384349585
1.76967E+18,7.884018555,1.531408773,0.029505934,-0.046701618,0.051989064,-0.454641551,-0.349637151
1.76967E+18,7.894007324,1.726265574,0.040245355,0.092869788,0.036529679,-0.58796519,-0.337206572
1.76967E+18,7.903995361,1.354119776,0.478363654,-0.081704908,0.022213345,-0.701849103,-0.396071494
1.76967E+18,7.913984375,1.374488026,0.635770139,-0.405761067,0.002855628,-0.759580076,-0.407030404
1.76967E+18,7.923973145,1.39862878,0.505911733,-0.214427617,-0.024511982,-0.747078359,-0.345666111
1.76967E+18,7.933961182,1.290201139,0.380413568,-0.020626316,-0.07051836,-0.734499216,-0.289516807
1.76967E+18,7.943950439,0.942674818,0.715930009,-0.390269922,-0.130381793,-0.704185009,-0.237506881
1.76967E+18,7.953938477,0.400745285,0.848324656,-0.518961257,-0.16799362,-0.664765179,-0.180134401
1.76967E+18,7.963927246,0.406591088,0.82584599,-0.597707461,-0.195091128,-0.598433852,-0.107130527
1.76967E+18,7.97391626,0.199030872,0.381808091,-0.543493641,-0.224745438,-0.551185668,-0.077802464
1.76967E+18,7.983904297,0.218711725,-0.047227323,-0.34660336,-0.257664949,-0.487323314,-0.047268935
1.76967E+18,7.993893555,0.069852704,-0.249296832,-0.042295566,-0.249979064,-0.442008555,-0.026549011
1.76967E+18,8.003881592,0.007369067,-0.458913542,0.051496378,-0.234509692,-0.424003899,-0.010978131
1.76967E+18,8.013870361,-0.025542438,-0.640667117,0.051117608,-0.209497541,-0.381946445,0.036339853
1.76967E+18,8.023858154,-0.192000828,-0.325877237,0.009110358,-0.161760688,-0.371658713,0.04105375
1.76967E+18,8.033847412,-0.120334352,-0.156022044,0.000259382,-0.151471555,-0.341361254,0.021912809
1.76967E+18,8.043836182,-0.216395849,-0.327399186,0.230009802,-0.151417628,-0.32994017,0.012760062
1.76967E+18,8.053824219,-0.295362418,-0.489313649,0.383343192,-0.14885141,-0.251487702,0.03509919
1.76967E+18,8.063813477,-0.530128036,-0.476621195,0.513520308,-0.15231441,-0.255821854,0.026728246
1.76967E+18,8.073801514,-0.315038009,-0.417224272,0.285386091,-0.13532345,-0.229572147,0.028041452
1.76967E+18,8.083790283,-0.239985983,-0.316883053,0.23171003,-0.127635613,-0.243857592,0.06742093
1.76967E+18,8.09377832,-0.17395956,-0.317467721,0.294843509,-0.113126449,-0.203129858,0.059751824
1.76967E+18,8.103767334,-0.183980603,-0.184875652,0.133893068,-0.094896019,-0.182804227,0.041216463
1.76967E+18,8.113756592,0.107224695,-0.190221689,0.115249596,-0.083037496,-0.194272324,0.058698516
1.76967E+18,8.123744629,0.21021979,-0.019907354,-0.031459114,-0.071330078,-0.164476186,0.081771247
1.76967E+18,8.133733398,0.021104747,0.085838647,-0.120846101,-0.08395879,-0.128453732,0.098242894
1.76967E+18,8.143721191,0.087762455,0.229915256,-0.274047681,-0.064513676,-0.136573762,0.130990148
1.76967E+18,8.153710449,0.263069922,0.212789495,-0.356155325,-0.056025907,-0.130133703,0.165294051
1.76967E+18,8.163699219,0.256380069,0.266841549,-0.367999346,-0.028932383,-0.143505976,0.191703245
1.76967E+18,8.173687256,0.276838919,0.057601125,-0.31174642,-0.013773404,-0.137071505,0.205103204
1.76967E+18,8.183676514,0.187063371,0.078821316,-0.375293741,-0.015022513,-0.120558247,0.223555118
1.76967E+18,8.193664307,0.218920399,0.196165254,-0.394698406,0.003842255,-0.13781473,0.231797606
1.76967E+18,8.20365332,0.385429058,0.252628315,-0.452364121,0.035156917,-0.153081894,0.252196074
1.76967E+18,8.213641357,0.347104296,0.148404263,-0.678108667,0.05196679,-0.156921118,0.283740431
1.76967E+18,8.223630371,0.171947635,0.127430302,-0.771672647,0.056073397,-0.171098754,0.287308991
1.76967E+18,8.233619629,0.039127311,0.090492172,-0.937571796,0.099037111,-0.193600878,0.265550703
1.76967E+18,8.243607666,-0.118800567,-0.105610977,-0.560124384,0.14994444,-0.128146902,0.226994365
1.76967E+18,8.253596191,-0.281523862,-0.320126418,-0.075950144,0.190181881,-0.141652867,0.177327752
1.76967E+18,8.263584229,-0.303716989,-0.479129232,0.255950883,0.142686367,-0.154976636,0.06985537
1.76967E+18,8.273573486,-0.174856216,-0.742098616,0.220406546,0.110898614,-0.159358069,0.006292907
1.76967E+18,8.283562256,-0.335678062,-0.736713123,0.556082269,0.067335784,-0.234778464,-0.034701828
1.76967E+18,8.293550293,-0.189989488,-0.378893811,0.138322137,0.094463281,-0.265624523,-0.057006601
1.76967E+18,8.303539551,-0.083101477,-0.128854051,-0.05278408,0.119159773,-0.195217922,-0.02335983
1.76967E+18,8.313527344,-0.185350722,-0.188880796,0.058184916,0.118553638,-0.181925818,-0.005847414
1.76967E+18,8.323516113,-0.109720604,-0.310207667,0.028413317,0.166406572,-0.200649679,-0.007490177
1.76967E+18,8.333504395,-0.033383214,-0.226320008,0.276635506,0.143641606,-0.147119075,-0.0299337
1.76967E+18,8.343493408,-0.089487379,-0.094259708,0.149235891,0.155829802,-0.196141526,-0.000786368
1.76967E+18,8.353482666,-0.063155837,0.094147333,-0.208448251,0.196510121,-0.22478649,0.05432855
1.76967E+18,8.363469727,0.064037296,0.283319806,-0.332987215,0.23614642,-0.313276052,0.108822457
1.76967E+18,8.373458496,0.652851914,0.562929359,-0.807630826,0.239468724,-0.419426203,0.183737442
1.76967E+18,8.383446533,0.727840812,0.824175572,-1.905113783,0.264434516,-0.479958981,0.252527773
1.76967E+18,8.393435791,0.765515586,1.061129202,-2.263354097,0.319351315,-0.439885587,0.326425165
1.76967E+18,8.403424805,0.441926606,1.200205372,-2.37850301,0.38182655,-0.287484974,0.317877203
1.76967E+18,8.413412598,0.440260718,0.862074802,-2.271438912,0.40581578,-0.404184699,0.171528518
1.76967E+18,8.423401611,0.432354475,0.124906483,-1.55923859,0.450650603,-0.683518231,-0.012715862
1.76967E+18,8.433389648,-0.351753583,0.004485036,-0.444850969,0.491745025,-0.545347035,-0.004590558
1.76967E+18,8.443378662,-0.623300241,0.122223819,-0.294931041,0.483446985,-0.323752761,0.099482596
1.76967E+18,8.453366943,0.144359371,0.156278211,-0.347912397,0.426108599,-0.453982681,0.111613296
1.76967E+18,8.463355713,0.396122301,0.09110212,-0.06663871,0.393156201,-0.647385836,0.120609842
1.76967E+18,8.473344727,-0.140678052,0.100551063,0.166833653,0.411235064,-0.639161468,0.18112804
1.76967E+18,8.483332764,-0.099800098,0.161314598,-0.010791735,0.325647533,-0.551371217,0.118544951
1.76967E+18,8.493321533,0.078521164,-0.076395842,-0.252395091,0.284554958,-0.766207337,0.01126936
1.76967E+18,8.50330957,-0.239355869,-0.062434537,0.320412396,0.33277905,-0.870379806,0.118471466
1.76967E+18,8.513298828,-0.121966338,0.220754921,-0.009543489,0.215562671,-0.782963395,0.187275037
1.76967E+18,8.523287842,0.648741556,-0.250961989,0.313914558,-0.000854009,-1.15481329,0.109913632
1.76967E+18,8.533275391,0.088496614,-1.222155776,1.363257315,-0.123961024,-1.413903952,0.198743105
1.76967E+18,8.543264648,-0.347229968,-1.012990902,1.285851419,-0.149333432,-1.413989902,0.243064016
1.76967E+18,8.553252686,0.421690458,-0.143859605,0.456537899,-0.202640057,-1.28515172,0.270005375
1.76967E+18,8.563241699,-0.138368022,0.286938581,-0.42542906,-0.294627398,-1.187712312,0.230693191
1.76967E+18,8.57322998,-0.676921941,-0.236623083,-0.137777655,-0.303542584,-0.973382413,0.219440803
1.76967E+18,8.58321875,-0.725412708,-0.283652837,0.046176645,-0.264087647,-0.973181605,0.224649295
1.76967E+18,8.59320752,-0.294629428,0.049995034,0.004606032,-0.241794869,-0.868228257,0.235152543
1.76967E+18,8.603195801,-0.362712199,0.1637522,0.006751812,-0.266437292,-0.50873822,0.379432857
1.76967E+18,8.61318457,-1.567763696,-0.680666096,0.695929424,-0.205777124,-0.336888731,0.375556618
1.76967E+18,8.623172607,-1.188712941,-0.716923989,0.799750448,-0.115193292,-0.500776291,0.470835745
1.76967E+18,8.633161865,0.888057093,0.76914912,0.154319332,-0.028895957,-0.593662024,0.361191273
1.76967E+18,8.643149658,0.565838232,0.555741493,0.435537489,0.051410608,-0.466416925,0.250289768
1.76967E+18,8.653138428,-0.185465288,-0.045441755,-0.012291326,0.043930054,-0.385169744,0.19580549
1.76967E+18,8.663127686,-0.145692081,-0.647732379,0.42238107,0.049783021,-0.399306834,0.170634285
1.76967E+18,8.673115723,-0.04698913,-0.267257729,0.76723145,0.009798321,-0.320969403,0.163520187
1.76967E+18,8.683104736,-0.114563952,0.077449004,0.013497779,0.019280527,-0.416654825,0.235142961
1.76967E+18,8.693092773,0.0841127,0.059900342,-0.174039931,0.037452072,-0.457015306,0.269812256
1.76967E+18,8.703081543,0.566545503,0.096845633,-0.081230422,0.012586617,-0.354483753,0.286177754
1.76967E+18,8.713070557,0.072323478,0.557746111,-0.441354651,0.103273638,-0.369801998,0.357688963
1.76967E+18,8.723058838,0.101343236,0.529327241,0.07847411,0.146718353,-0.37382248,0.374420702
1.76967E+18,8.733047607,0.258622879,0.224208276,0.178123401,0.16001685,-0.315513641,0.369838178
1.76967E+18,8.743035645,-0.172449155,0.084141634,-0.238588976,0.185800478,-0.322756439,0.366084039
1.76967E+18,8.753024902,-0.230627788,-0.083442692,0.0068278,0.202811688,-0.273298085,0.365882427
1.76967E+18,8.763013672,0.205576349,0.047898939,-0.002374912,0.190392777,-0.185697287,0.38162902
1.76967E+18,8.773001465,-0.111694534,0.083348584,-0.096562432,0.187125072,-0.164014101,0.407176733
1.76967E+18,8.782990723,0.054590837,0.162622611,-0.28866292,0.232423633,-0.155880749,0.451960534
1.76967E+18,8.79297876,0.221437935,0.242381208,-0.031684594,0.244966328,-0.073866032,0.514969885
1.76967E+18,8.802967773,-0.221976279,0.279689048,0.034019174,0.274526447,-0.064013436,0.599431872
1.76967E+18,8.812955811,0.052284899,0.211017078,0.0139955,0.332562566,0.05215551,0.618861258
1.76967E+18,8.82294458,0.576042815,-0.219831376,-0.224475695,0.330958843,0.096094429,0.636221647
1.76967E+18,8.832933594,0.400277667,-0.107163028,-0.046972764,0.328600347,0.052826047,0.664637566
1.76967E+18,8.842921875,0.363357511,-0.055990183,0.116607441,0.338692605,0.075671218,0.656432927
1.76967E+18,8.852910645,0.12658406,-0.253552736,0.121568278,0.318054169,0.034133896,0.61061883
1.76967E+18,8.862898438,-0.227410579,-0.403741836,0.166549576,0.306464106,-0.062349766,0.527621686
1.76967E+18,8.872887695,-0.254548762,-0.459635865,0.423108508,0.263473749,-0.162793025,0.463125795
1.76967E+18,8.882876709,-0.139367554,-0.391923388,0.535941691,0.1992798,-0.215632409,0.453305215
1.76967E+18,8.892864502,-0.18891163,-0.141510411,0.363278309,0.193404332,-0.313129395,0.427407593
1.76967E+18,8.90285376,0.035534255,-0.245605284,0.498851147,0.182067528,-0.416686147,0.383802593
1.76967E+18,8.912841797,0.095904845,-0.171726394,0.435888787,0.199680611,-0.449450999,0.323300093
1.76967E+18,8.922830811,0.029475685,-0.302315598,0.550611437,0.207581982,-0.552602053,0.283424467
1.76967E+18,8.932818848,0.017394787,0.089398239,0.306836875,0.226024359,-0.588807464,0.233063027
1.76967E+18,8.942807617,0.122050509,0.178125447,0.407893111,0.238466159,-0.557496846,0.226417616
1.76967E+18,8.952796631,-0.194386262,0.094139004,0.15424539,0.274480075,-0.475313038,0.207328349
1.76967E+18,8.962784912,-0.218372117,0.369605758,0.053225979,0.322679788,-0.48693043,0.224047989
1.76967E+18,8.972773682,-0.178823951,1.031422192,0.116221656,0.369310141,-0.391141057,0.224951327
1.76967E+18,8.982761475,-0.405752884,0.590045914,-0.084763565,0.399912566,-0.298585147,0.210847721
1.76967E+18,8.992750732,-0.445986695,0.341053033,-0.311322788,0.472303689,-0.276201546,0.206072137
1.76967E+18,9.002739502,-0.302509367,0.776583215,0.138871295,0.479623169,-0.170579523,0.184925437
1.76967E+18,9.012727539,-0.345983767,0.427397145,0.102061614,0.560392618,-0.245607957,0.199911565
1.76967E+18,9.022716797,0.190460028,-0.028161972,0.336655967,0.566095769,-0.378231019,0.204332605
1.76967E+18,9.03270459,0.367011942,0.413573787,0.147797529,0.614447355,-0.313317806,0.206531301
1.76967E+18,9.042693604,-0.498988217,0.1767828,0.5567571,0.661205411,0.12563701,0.095943496
1.76967E+18,9.052681641,-1.345184775,0.37776656,0.645468234,0.699955463,-0.069813713,0.111595429
1.76967E+18,9.062670654,-0.351371305,-0.548087471,0.25643969,0.683787405,-0.118535899,0.153082192
1.76967E+18,9.072659668,0.369030881,-0.196496678,0.251039877,0.681830287,-0.149074897,0.243186519
1.76967E+18,9.082647949,-0.144976042,0.600797317,0.657322922,0.658107221,-0.200153559,0.265703529
1.76967E+18,9.092636475,-0.020018706,0.510095594,0.178871297,0.761131108,-0.114259414,0.233877957
1.76967E+18,9.102624512,-0.38840895,0.177201026,0.487638556,0.787593365,-0.007601801,0.21235922
1.76967E+18,9.11261377,-0.703820469,0.484794272,0.264705998,0.760814726,0.104066677,0.236982808
1.76967E+18,9.122602539,-0.952043535,0.054025605,0.338399011,0.748378038,0.217028558,0.259207428
1.76967E+18,9.132590576,-0.458757913,0.017363223,0.512431636,0.743311107,0.219187856,0.278669804
1.76967E+18,9.142579834,-0.121098907,0.132617203,0.408278603,0.759059787,0.130151451,0.337174237
1.76967E+18,9.152567627,-0.411586412,0.157244864,0.337934316,0.733889699,0.127691224,0.430264503
1.76967E+18,9.162556641,-0.487687655,0.161514212,-0.026783378,0.725561082,0.39097032,0.367753834
1.76967E+18,9.172544678,0.126658295,-0.336964594,-0.173620537,0.720151663,0.538825035,0.322039068
1.76967E+18,9.182533691,-0.462211269,-0.447911233,-0.204682615,0.664226234,0.650751293,0.35095638
1.76967E+18,9.192522705,-0.80149057,-0.453596585,-0.41842298,0.64902544,0.763086379,0.312451065
1.76967E+18,9.202510742,-0.29667467,-0.438053271,-0.316388255,0.667866886,0.782242358,0.254945159
1.76967E+18,9.212499512,-0.342675958,-0.111376262,0.068751465,0.657783389,0.953455091,0.239750758
1.76967E+18,9.222487549,-0.467995697,-0.015817893,0.128108494,0.630333006,1.039379239,0.229528993
1.76967E+18,9.232476807,-0.247422855,-0.203653125,0.117639706,0.574733377,1.008144021,0.236453742
1.76967E+18,9.242465576,-0.305730667,-0.237274094,-0.221157364,0.503745854,1.081386447,0.245725587
1.76967E+18,9.252453613,-0.46491819,-0.226760591,-0.408325073,0.468065858,1.152353644,0.231152505
1.76967E+18,9.262442627,-0.396880426,-0.630212504,-0.448148841,0.477122933,1.268404126,0.13869445
1.76967E+18,9.272430664,-0.022107787,-0.714086281,-0.208923905,0.465265453,1.30065012,0.063357353
1.76967E+18,9.282419678,-0.220890238,-0.988354912,-0.190171566,0.398690552,1.310955644,0.017367775
1.76967E+18,9.292407715,-0.263136557,-1.21641884,-0.333432036,0.368469,1.38004601,-0.082292773
1.76967E+18,9.302396729,0.28722412,-1.024223659,0.11432576,0.346072257,1.358086944,-0.133233041
1.76967E+18,9.312385742,-0.211440857,-0.488799562,0.179816469,0.316484004,1.339986205,-0.147792011
1.76967E+18,9.322373779,-0.537542696,-0.054515288,0.17222879,0.288804203,1.431771278,-0.160897717
1.76967E+18,9.332362549,-0.452457937,-0.172743754,0.147469028,0.289794087,1.563550949,-0.188629478
1.76967E+18,9.342350586,-0.386854122,-0.029439007,0.374875515,0.298229933,1.610357642,-0.17673333
1.76967E+18,9.352339844,-0.45793666,0.120279846,0.510642414,0.311416566,1.625067115,-0.164216474
1.76967E+18,9.362329346,-0.101372462,-0.202845608,0.394909126,0.321189791,1.583969355,-0.173544973
1.76967E+18,9.372317383,0.129629419,-0.19083646,0.433802628,0.320738673,1.503680706,-0.237832084
1.76967E+18,9.382306396,0.563116114,-0.245473913,0.249051333,0.317134172,1.353849053,-0.222748965
1.76967E+18,9.392294434,0.349155967,-0.287614726,0.097928752,0.352903873,1.182419538,-0.141008303
1.76967E+18,9.402283447,-0.038511225,-0.15750936,-0.003825111,0.319417566,1.085925937,-0.147434756
1.76967E+18,9.412271484,0.379141356,-0.341738531,-0.361209393,0.36099565,0.885078609,-0.145457625
1.76967E+18,9.422260498,0.382295436,0.031466713,0.153919811,0.376355022,0.842281282,-0.126365975
1.76967E+18,9.432249512,-0.052374915,-0.090134444,-0.038639235,0.384597778,0.846283197,-0.133939207
1.76967E+18,9.442237305,-0.055762219,-0.212368931,-0.157015731,0.445841372,0.893607736,-0.15875335
1.76967E+18,9.452226318,0.058149407,0.037911359,0.241362532,0.480594277,1.017151713,-0.191370949
1.76967E+18,9.462214355,-0.142297178,0.359493968,0.245355401,0.483504772,1.101762772,-0.209907472
1.76967E+18,9.472203613,-0.25052842,0.35180692,0.167860074,0.476607978,1.17253089,-0.251418978
1.76967E+18,9.482192383,-0.092922614,0.397907139,0.178875535,0.479973346,1.228475213,-0.257779986
1.76967E+18,9.492180176,-0.115658177,0.43024742,0.38634968,0.510434031,1.139846802,-0.257054001
1.76967E+18,9.502169434,0.144696056,0.281519771,0.520007186,0.541323781,1.065001607,-0.276389718
1.76967E+18,9.512157471,0.15330957,0.464754816,0.591570055,0.620580554,1.021682143,-0.296144247
1.76967E+18,9.522146484,-0.030464112,0.668567808,0.803233468,0.69237107,1.056130052,-0.256663561
1.76967E+18,9.532135498,-0.495217466,0.459711561,0.799477038,0.711605191,1.183232069,-0.285922915
1.76967E+18,9.542123535,-0.043781859,0.133426912,0.582836129,0.681483924,1.412503123,-0.301739782
1.76967E+18,9.552112305,-0.116409872,0.049239247,0.28202582,0.723266244,1.480259061,-0.269008726
1.76967E+18,9.562100342,-0.357366162,0.108762865,0.686706399,0.745776057,1.517341852,-0.27055192
1.76967E+18,9.572089355,-0.070149641,0.097608726,0.490876076,0.762135327,1.441616774,-0.093825348
1.76967E+18,9.582077393,0.177619836,-0.68037705,0.405255748,0.777872443,1.234507322,0.098076046
1.76967E+18,9.59206665,1.535337929,-1.319554074,0.260575621,0.795021832,1.074162364,0.051011063
1.76967E+18,9.60205542,1.481179638,-0.077505557,0.976423724,0.735109746,0.987951577,0.061213642
1.76967E+18,9.612043213,-0.134716513,0.310793357,1.092958026,0.658412337,0.970685244,0.101988241
1.76967E+18,9.622032471,-0.634939241,-0.199214558,1.054596878,0.563666523,1.033076048,0.134049341
1.76967E+18,9.632020508,-0.22373569,-0.837435013,0.644153205,0.42773819,1.026227474,0.158581048
1.76967E+18,9.642009521,0.186921917,-0.91548929,0.261777032,0.320198864,0.915215075,0.159836888
1.76967E+18,9.651998535,0.692769498,-0.360225351,-0.017512787,0.342003763,0.859167755,0.158733279
1.76967E+18,9.661986328,0.54843117,-0.030540392,-0.238405436,0.432351857,0.827216506,0.133507922
1.76967E+18,9.671975342,0.066041621,-0.174508718,-0.199316594,0.48680073,0.848985732,0.068988048
1.76967E+18,9.681963379,-0.597889905,-0.553579201,-0.31318091,0.492250353,0.919395149,0.014155437
1.76967E+18,9.691952393,-0.678337653,-0.775975897,-0.364589282,0.432887703,0.982124865,-0.049884267
1.76967E+18,9.70194043,-0.10922376,-0.510553713,-0.588656505,0.352873206,0.892452538,-0.152742863
1.76967E+18,9.711929688,0.477477227,-0.065270637,-0.771775888,0.24761577,0.565641642,-0.168559641
1.76967E+18,9.721918213,0.840866887,0.210755505,-1.099582413,0.168851703,0.345796674,-0.079295821
1.76967E+18,9.73190625,0.397905678,0.407333139,-0.910705197,0.130428687,0.326034427,-0.006766226
1.76967E+18,9.741895508,0.185635969,0.294964651,-0.597284779,0.028324079,0.346581757,0.064156033
1.76967E+18,9.751883545,0.066596332,0.105503717,-0.586905935,-0.007739117,0.343563616,0.139141589
1.76967E+18,9.761872559,0.073216043,0.201885385,-0.363909665,-0.060079057,0.318101853,0.189816862
1.76967E+18,9.771860352,0.192163909,0.179187377,-0.34901181,-0.15110378,0.277493447,0.181100875
1.76967E+18,9.781849365,0.202687641,0.21749475,-0.276916752,-0.251580209,0.073888689,0.133868933
1.76967E+18,9.791838379,0.098183311,0.314886618,-0.013711559,-0.337463707,-0.108705886,0.094409406
1.76967E+18,9.801826416,-0.224919347,0.347000397,0.0016903,-0.344516337,-0.169798195,0.063551486
1.76967E+18,9.81181543,-0.258711726,-0.159463124,-0.140317366,-0.340614527,-0.071082808,0.064635396
1.76967E+18,9.821803467,-0.166214645,-0.400381858,-0.938868192,-0.343650669,-0.158977091,0.087525524
1.76967E+18,9.83179248,-0.210645322,-0.047389382,-1.041303608,-0.312644273,-0.310641706,0.103390776
1.76967E+18,9.84178125,-0.292908595,0.057500149,-0.833707517,-0.278271586,-0.182961896,0.102704003
1.76967E+18,9.851769287,-0.235243173,-0.075928663,-0.664566536,-0.304301053,-0.044618137,0.073060364
1.76967E+18,9.861758545,0.004671499,-0.206717189,-1.112298467,-0.252494931,-0.040605392,0.082928367
1.76967E+18,9.871746582,-0.156326872,0.033319355,-0.44331985,-0.280841887,-0.042799834,0.070823498
1.76967E+18,9.881735596,0.232635036,-0.147176767,-0.537159323,-0.279913783,-0.124446101,0.05844862
1.76967E+18,9.891723389,0.504376924,-0.270600609,-0.442551533,-0.277920663,-0.179119989,0.050133701
1.76967E+18,9.901712402,0.450008205,-0.084010993,-0.510115139,-0.271638662,-0.25447765,0.065330215
1.76967E+18,9.911701416,0.228642751,-0.005101707,-0.36284178,-0.275436342,-0.33273676,0.119501837
1.76967E+18,9.921689453,0.00980477,-0.046050096,-0.247781551,-0.279074788,-0.391344666,0.173646167
1.76967E+18,9.931678467,0.096676413,-0.109012456,-0.270593741,-0.275205493,-0.393830717,0.207486957
1.76967E+18,9.94166626,0.146458974,-0.01773381,-0.23477276,-0.269510567,-0.363452196,0.26283887
1.76967E+18,9.951655518,-0.026880993,0.084826401,-0.167005923,-0.277304322,-0.387205184,0.304946899
1.76967E+18,9.961644287,0.204612472,-0.061791855,-0.291184365,-0.262254387,-0.396464705,0.327500105
1.76967E+18,9.971632568,0.371897376,-0.048397536,-0.182874322,-0.259051144,-0.320249826,0.319528997
1.76967E+18,9.981621582,0.415123939,-0.11731705,-0.303911854,-0.237680927,-0.222776935,0.344715685
1.76967E+18,9.991609375,0.108006201,0.100376729,-0.015938779,-0.247743413,-0.211727485,0.403250635
1.76967E+18,10.00159839,-0.058999301,0.113467681,0.1064357,-0.318013817,-0.395503581,0.415769041
1.76967E+18,10.0115874,0.521257917,-0.334655295,-0.026228411,-0.384916157,-0.683274388,0.356907576
1.76967E+18,10.02157544,0.625737113,-0.771746005,0.465221776,-0.451559186,-0.865133643,0.302257806
1.76967E+18,10.03156445,0.248575532,-0.81071301,1.012775652,-0.586002707,-1.093674779,0.24062562
1.76967E+18,10.04155249,0.298567352,-0.689367289,1.150347993,-0.709678888,-1.368814707,0.171750247
1.76967E+18,10.0515415,0.556285975,-0.50725891,1.005383715,-0.654177308,-1.589342237,0.13184385
1.76967E+18,10.0615293,0.726129332,0.17232889,0.118316802,-0.451381803,-1.723891497,0.100412838
1.76967E+18,10.07151831,0.77590254,0.68921239,-1.818955256,-0.268464178,-1.486331344,0.130739853
1.76967E+18,10.08150732,-0.084819387,0.350647667,-3.337622913,-0.055058897,-1.014363408,0.178444922
1.76967E+18,10.09149561,-0.70433251,-0.133225544,-3.376211294,0.154567838,-0.555531621,0.162309632
1.76967E+18,10.10148462,-0.847806915,-0.464564262,-2.975094253,0.252810508,-0.204918176,0.161411881
1.76967E+18,10.11147241,-0.819968476,-0.26078108,-2.356533316,0.237652078,0.012280184,0.175980702
1.76967E+18,10.12146143,-0.404869087,0.063049015,-1.97013439,0.23192282,-0.039089266,0.183974177
1.76967E+18,10.13144946,0.017488895,0.171439247,-1.482728913,0.200486332,-0.217224643,0.203314587
1.76967E+18,10.14143848,0.199967277,-0.08626564,-1.608425084,0.155587137,-0.319944859,0.217175037
1.76967E+18,10.15142749,0.259310277,-0.537936664,-1.844337973,0.123644926,-0.263383329,0.264276236
1.76967E+18,10.16141528,0.015388123,-1.149754703,-1.941008833,0.083244503,-0.181933224,0.326652795
1.76967E+18,10.1714043,0.133304893,-1.845343643,-1.983231772,0.063542701,-0.107297592,0.391094893
1.76967E+18,10.18139233,0.459753354,-2.05588682,-1.711451305,0.048312012,0.012656134,0.37458697
1.76967E+18,10.19138135,1.000230935,-1.894199152,-1.484939867,0.057707112,0.039831828,0.284068793
1.76967E+18,10.20137036,1.294182317,-1.496343304,-1.084430729,0.036843643,0.084261604,0.204478875
1.76967E+18,10.21135864,1.168189793,-1.446356892,-0.81965678,-0.012951879,0.203279868,0.146060571
1.76967E+18,10.22134741,1.022167457,-1.426902396,-0.583460544,-0.039952174,0.359023213,0.098914742
1.76967E+18,10.23133545,1.119523085,-1.240374593,-0.429819404,-0.05867473,0.445857167,0.025761971
1.76967E+18,10.24132446,1.292417646,-0.821223444,-0.490048978,-0.061864212,0.475061744,-0.054824274
1.76967E+18,10.2513125,1.274548811,-0.555342411,-0.285368555,-0.094723091,0.403147072,-0.165738538
1.76967E+18,10.26130151,1.123774897,-0.35212037,-0.08798618,-0.181902751,0.352970958,-0.27881822
1.76967E+18,10.27129053,0.788168147,0.029887189,0.186596777,-0.331614196,0.347901613,-0.342391074
1.76967E+18,10.28127832,0.418397262,-0.138090666,0.326210342,-0.462279797,0.260674864,-0.320811212
1.76967E+18,10.29126733,0.059798927,-0.4053614,0.657466787,-0.538917303,0.060400374,-0.28837657
1.76967E+18,10.30125537,0.126691612,-0.234315682,1.10846773,-0.592616379,-0.27793619,-0.290448278
1.76967E+18,10.31124438,0.388013814,-0.176447577,1.007109442,-0.574068248,-0.599647939,-0.268150419
1.76967E+18,10.3212334,0.236892693,-0.198477184,1.012834396,-0.55183506,-0.770814538,-0.253272146
1.76967E+18,10.33122119,0.018644495,-0.096243137,0.893842544,-0.578369439,-0.904541194,-0.22136189
1.76967E+18,10.34121045,0.151238025,-0.116862877,0.45924029,-0.617859244,-1.006549597,-0.20940271
1.76967E+18,10.35119849,0.593097995,-0.236285814,0.320924583,-0.649385989,-1.114446759,-0.198701054
1.76967E+18,10.3611875,0.924026232,-0.424878294,0.278455999,-0.641387284,-1.226354122,-0.199311048
1.76967E+18,10.37117651,1.228050095,-0.59291504,0.177072139,-0.554678738,-1.162010312,-0.165051609
1.76967E+18,10.38116431,1.055100589,-0.666997052,0.09255758,-0.436154634,-0.954993188,-0.199488133
1.76967E+18,10.39115332,0.940474678,-0.839604466,-0.332051103,-0.357680351,-0.806490779,-0.280080706
1.76967E+18,10.40114136,0.834445914,-1.031910999,-0.939948462,-0.341006517,-0.788033962,-0.357708126
1.76967E+18,10.41113037,0.489991841,-0.808883749,-1.527404359,-0.407022566,-0.909143627,-0.36526379
1.76967E+18,10.42111841,-0.161232764,-0.543784952,-1.444284762,-0.480240226,-1.081670046,-0.33115986
1.76967E+18,10.43110742,-0.465625461,-0.485323995,-1.000607952,-0.576219738,-1.258288264,-0.319861412
1.76967E+18,10.44109619,-0.26924598,-0.321462636,-0.887081964,-0.670025826,-1.386937976,-0.272926509
1.76967E+18,10.45108447,-0.359177011,-0.215315068,-0.792115131,-0.744297624,-1.35233748,-0.21355851
1.76967E+18,10.46107349,-0.608096827,-0.329106721,-0.6051371,-0.761803806,-1.252800465,-0.137646988
1.76967E+18,10.47106152,-0.859866771,-0.580789717,-0.507439819,-0.71222055,-1.325865984,-0.101796843
1.76967E+18,10.48105054,-0.681402886,-0.530137096,-0.539714487,-0.654231429,-1.303241134,-0.166427895
1.76967E+18,10.49103955,-0.378080449,-0.640214697,-0.36428544,-0.522358894,-0.965453267,-0.180022001
1.76967E+18,10.50102734,-0.664741089,-1.125169128,-0.238388485,-0.246966019,-0.064431146,-0.173488885
1.76967E+18,10.51101636,-0.546598109,-1.110748096,-1.063740407,-0.330851316,0.350187063,-0.313629717
1.76967E+18,10.52100439,-0.501830162,-0.710294195,-1.81998343,-0.360761195,0.388047427,-0.216053545
1.76967E+18,10.53099341,-1.662362719,-0.584455108,-0.549069468,-0.397799104,0.213272944,-0.148109913
1.76967E+18,10.5409812,-1.224637656,0.055902651,-0.066575874,-0.443752944,-0.092941858,-0.142692208
1.76967E+18,10.55097021,-0.736592274,0.384950334,0.184441206,-0.533688664,-0.370067716,-0.108966999
1.76967E+18,10.56095923,-0.985851697,0.687692341,0.360768664,-0.557521939,-0.31178692,0.018842079
1.76967E+18,10.57094751,-1.003906409,0.364588953,0.147706343,-0.780411482,-0.16996026,0.109662533
1.76967E+18,10.58093652,-0.913523542,1.313674807,-0.210066061,-0.968217611,-0.159909815,0.261306643
1.76967E+18,10.59092432,-1.379208625,1.349771664,0.289166486,-0.983233809,-0.210348487,0.370306373
1.76967E+18,10.60091357,-1.232680678,0.802012256,0.821934223,-0.912975311,-0.32684955,0.389583886
1.76967E+18,10.61090234,-1.148331831,0.415870227,1.072673071,-0.628864527,-0.363967091,0.388785452
1.76967E+18,10.62089038,-1.184041442,-0.54067851,1.251287178,-0.185422033,-0.371166766,0.213018477
1.76967E+18,10.63087939,-0.499772061,-0.505732431,0.679312051,0.035437383,-0.328776985,0.023097016
1.76967E+18,10.64086743,-0.874019215,-0.413480556,0.260557939,0.112698756,-0.241484746,-0.066459246
1.76967E+18,10.65085645,-1.180311023,-0.370014485,0.332201033,0.07456176,-0.180962026,-0.106602937
1.76967E+18,10.66084424,-0.707100806,-0.063209905,0.424471028,-0.032978363,-0.202133894,-0.085473798
1.76967E+18,10.67083325,-0.269493233,0.147604052,0.449727927,-0.135305792,-0.294697404,-0.058676008
1.76967E+18,10.68082227,0.281922506,0.514376925,0.742187609,-0.206350252,-0.393621296,-0.046520565
1.76967E+18,10.69081055,0.75526541,0.770232385,1.102877655,-0.281398952,-0.51585108,-0.05954795
1.76967E+18,10.70079956,1.150989067,0.711832511,1.111847436,-0.360813558,-0.634662569,-0.079449065
1.76967E+18,10.71078735,1.060963928,0.577366611,0.992187622,-0.432513833,-0.706968188,-0.086081669
1.76967E+18,10.72077637,0.795436092,0.419780825,0.803049782,-0.491026878,-0.721362948,-0.108778052
1.76967E+18,10.73076538,0.716809715,-0.009844372,0.539390078,-0.524910867,-0.728488505,-0.130647942
1.76967E+18,10.74075342,0.506439118,-0.40945773,0.248897019,-0.556700885,-0.778062463,-0.145749003
1.76967E+18,10.75074243,0.114953244,-0.608327128,-0.06985475,-0.581111729,-0.833340883,-0.148131192
1.76967E+18,10.76073047,-0.403311921,-0.673142569,-0.185489838,-0.55969131,-0.854590118,-0.134318843
1.76967E+18,10.77071948,-0.92456633,-0.602573533,-0.137749598,-0.544419408,-0.806768239,-0.137781754
1.76967E+18,10.7807085,-1.02182142,-0.670283234,-0.223480546,-0.487451047,-0.703259051,-0.10346505
1.76967E+18,10.79069629,-1.148576161,-0.663737027,-0.045976446,-0.413340867,-0.583739042,-0.139677122
1.76967E+18,10.8006853,-0.726986825,-0.526250464,0.105763975,-0.348867208,-0.389587134,-0.228881851
1.76967E+18,10.81067358,-0.269486803,-0.546508093,0.14359014,-0.294450045,-0.262874216,-0.330367476
1.76967E+18,10.8206626,0.319275208,-0.674678692,-0.023677813,-0.273484141,-0.184321508,-0.38085407
1.76967E+18,10.83065039,0.615039778,-0.601949702,-0.051249418,-0.293034941,-0.145950943,-0.389935464
1.76967E+18,10.8406394,0.38828737,-0.615534721,-0.193815768,-0.357164294,-0.158049196,-0.355942547
1.76967E+18,10.85062842,0.049554012,-0.571576337,-0.427038541,-0.393292487,-0.081932314,-0.25661996
1.76967E+18,10.86061646,-0.67007719,-0.601858517,-0.281677007,-0.426947117,0.000932253,-0.207253218
1.76967E+18,10.87060547,-0.697452688,-0.633567076,-0.383373002,-0.40261355,0.000206009,-0.206947759
1.76967E+18,10.88059326,-0.392870022,-0.105088852,-0.219608673,-0.366813213,0.098622814,-0.240661502
1.76967E+18,10.89058228,0.221957575,0.440259111,-0.07790157,-0.329252511,0.19520849,-0.229863986
1.76967E+18,10.90057129,0.484801286,0.436869907,-0.064843936,-0.291103661,0.245388225,-0.210030109
1.76967E+18,10.91055933,0.323461554,0.199478178,-0.067798986,-0.289320141,0.218990967,-0.145809576
1.76967E+18,10.92054834,0.000958616,-0.117513596,-0.343711731,-0.322187066,0.142923713,-0.083992153
1.76967E+18,10.93053662,0.025992519,0.002572627,-0.515464136,-0.385584414,0.077411011,-0.03595192
1.76967E+18,10.94052539,-0.051475336,0.323184199,-0.630860155,-0.440365851,-0.002613811,-0.040105797
1.76967E+18,10.95051318,-0.013848493,0.895104381,-0.394419589,-0.437061399,-0.130320102,-0.135617673
1.76967E+18,10.96050244,0.533459226,1.373197402,-0.016165537,-0.410052776,-0.282233357,-0.344870567
1.76967E+18,10.97049146,1.122794069,1.682367542,0.115201666,-0.322325855,-0.380572438,-0.530745864
1.76967E+18,10.98047949,1.055929441,1.953682875,0.613655045,-0.238648728,-0.189647973,-0.709032595
1.76967E+18,10.99046851,1.218904666,2.417088176,0.798969819,-0.230120763,-0.027413266,-0.714019656
1.76967E+18,11.0004563,-0.002637363,1.636524367,-0.014010405,-0.255675822,-0.022296514,-0.584230781
1.76967E+18,11.01044531,-1.241743105,0.641974254,-0.340113706,-0.210872918,0.005777998,-0.555600703
1.76967E+18,11.02043433,-0.988878935,1.031884257,0.552415564,-0.122291625,0.201146215,-0.639565468
1.76967E+18,11.03042236,-0.990116953,1.757738132,1.28210288,-0.015932962,0.380948722,-0.662768543
1.76967E+18,11.04041138,-1.693808827,2.135456031,1.679714835,-0.015364123,0.567070961,-0.654086053
1.76967E+18,11.05039941,-1.83981655,2.054455764,1.259936933,-0.025362961,0.776958406,-0.649375975
1.76967E+18,11.06038843,-1.647477284,2.574509712,1.651319347,-0.049398083,1.101582527,-0.589309514
1.76967E+18,11.07037622,-1.931243372,2.826589453,1.490663213,-0.070253029,1.265578389,-0.533371687
1.76967E+18,11.08036548,-1.365927118,3.195289202,0.794695211,-0.050131392,1.361150265,-0.542414725
1.76967E+18,11.09035449,-0.008619944,3.010420418,0.620694735,-0.032434151,1.343102574,-0.486369282
1.76967E+18,11.10034253,0.458537549,1.897048403,0.504393583,-0.00171411,1.139153004,-0.360906571
1.76967E+18,11.1103313,0.693331808,0.534629147,0.586236877,-0.055358965,0.848290861,-0.254662961
1.76967E+18,11.12031934,1.354562259,-0.588901128,-0.018012334,-0.188383922,0.577539325,-0.13816072
1.76967E+18,11.13030835,1.308710609,-0.668559917,-0.450315956,-0.231806219,0.317949295,-0.020964857
1.76967E+18,11.14029736,0.888252323,-0.088750297,0.168459793,-0.241365403,0.135618314,0.013796421
1.76967E+18,11.1502854,0.746579415,0.441502535,-0.051026131,-0.212249339,0.05491627,0.002010068
1.76967E+18,11.16027441,0.260295781,0.459286467,0.082873806,-0.219640493,0.035207801,-0.052487113
1.76967E+18,11.17026245,0.007170915,0.379485055,-0.007208324,-0.255856842,0.081983827,-0.053967033
1.76967E+18,11.18025146,-0.468366869,0.493041437,-0.220051449,-0.27694574,0.170740888,-0.05006228
1.76967E+18,11.19023926,-0.398281525,0.351899129,-0.207317639,-0.269894511,0.204214424,-0.056561992
1.76967E+18,11.20022852,-0.096038116,0.235359639,0.0805553,-0.275105625,0.150753528,-0.04904284
1.76967E+18,11.21021753,0.035972646,0.311201062,0.194301798,-0.293770134,0.139617249,-0.0424635
1.76967E+18,11.22020532,0.209106861,0.115465139,0.097862701,-0.313629538,0.080776937,-0.014468458
1.76967E+18,11.23019434,0.090131522,0.070911127,0.224357329,-0.352086931,0.001176654,-0.002911138
1.76967E+18,11.24018237,0.180357736,-0.005832944,0.284931479,-0.376069874,-0.020643048,0.018988041
1.76967E+18,11.25017139,0.089808281,0.022824703,0.430653809,-0.422564685,-0.045212571,0.036304183
1.76967E+18,11.2601604,0.048747957,-0.07970219,0.27084757,-0.440213174,-0.078337677,0.042686161
1.76967E+18,11.27014844,-0.006512158,-0.217260503,0.146152392,-0.430908084,-0.121354654,0.029444123
1.76967E+18,11.28013721,-0.010252514,-0.02096417,0.171111331,-0.426778376,-0.024594523,-0.009127097
1.76967E+18,11.29012549,-0.138735101,0.068169427,-0.060115592,-0.408694714,0.082877874,-0.043958582
1.76967E+18,11.3001145,-0.255078338,0.112068482,-0.118070791,-0.363568306,0.098610491,-0.069258787
1.76967E+18,11.31010229,-0.159786073,0.168550394,0.054283671,-0.338105023,0.123887345,-0.094099954
1.76967E+18,11.32009155,-0.08826982,0.174547296,0.139387136,-0.340268254,0.151421517,-0.085671134
1.76967E+18,11.33008057,-0.161277773,0.102364834,0.047486997,-0.345300317,0.192299977,-0.081646301
1.76967E+18,11.34006836,-0.07606851,0.028539281,0.147443455,-0.365202576,0.218545139,-0.115723185
1.76967E+18,11.35005737,-0.042190205,-0.046387073,0.272471079,-0.358708739,0.165900037,-0.110486612
1.76967E+18,11.36004492,-0.278705882,0.198831697,0.566374239,-0.375824898,0.169347882,-0.135001436
1.76967E+18,11.37003394,-0.158876557,-0.033199382,0.39179567,-0.387638688,0.137591556,-0.176390946
1.76967E+18,11.38002319,-0.152961195,-0.191638424,0.392659301,-0.398085058,0.079643272,-0.217575684
1.76967E+18,11.39001099,-0.180311559,-0.040336102,0.414798506,-0.431426495,0.007957364,-0.246505067
1.76967E+18,11.4,-0.215744691,-0.114652215,0.242033563,-0.411290258,-0.032889467,-0.285248429
1.76967E+18,11.40998779,-0.043898763,-0.054115329,0.368905793,-0.408586323,-0.006423242,-0.330413759
1.76967E+18,11.41997705,-0.042249242,-0.266127994,-0.107522655,-0.393075556,-0.010012118,-0.338814706
1.76967E+18,11.42996582,-0.237090262,-0.094279435,-0.10964184,-0.353568882,-0.08866778,-0.343237162
1.76967E+18,11.4399541,-0.100437227,-0.019572715,0.098255792,-0.349665314,-0.239144877,-0.331586927
1.76967E+18,11.44994312,-0.048039516,-0.107408089,0.066275138,-0.355980754,-0.08032833,-0.355759919
1.76967E+18,11.45993115,-0.147416421,-0.195422327,-0.252272049,-0.345813125,0.160094023,-0.369247109
1.76967E+18,11.46991992,-0.125945178,-0.066329206,-0.217259188,-0.327842116,0.194407523,-0.372137725
1.76967E+18,11.47990796,0.299143106,-0.000329524,0.184635267,-0.33193174,0.091777012,-0.381087363
1.76967E+18,11.48989697,0.452788191,-0.161421711,0.124406424,-0.29566589,0.131552905,-0.352312177
1.76967E+18,11.49988599,-0.007686463,-0.088325057,0.109886754,-0.288544506,0.19880937,-0.314370811
1.76967E+18,11.50987402,-0.185570502,-0.010213497,-0.030885114,-0.284329772,0.115476131,-0.314063489
1.76967E+18,11.51986304,0.037393034,-0.099761666,0.238614549,-0.289808571,0.037164312,-0.332048923
1.76967E+18,11.52985083,0.038638066,-0.314130977,0.07534531,-0.283639908,0.233550861,-0.3293477
1.76967E+18,11.53984009,-0.05577391,-0.152685301,0.012352117,-0.245162517,0.237053961,-0.301022619
1.76967E+18,11.54982886,0.114736971,-0.047212929,0.153776019,-0.235470206,0.176115766,-0.2955589
1.76967E+18,11.55981714,0.402661932,-0.10437084,0.071293404,-0.205511227,0.152794957,-0.281749129
1.76967E+18,11.56980615,0.331985052,-0.14515359,0.193087308,-0.209571213,0.119717173,-0.274943411
1.76967E+18,11.57979395,0.335025151,-0.1376834,-0.113652537,-0.191698536,0.05952128,-0.270343482
1.76967E+18,11.58978296,0.224334241,0.000125307,-0.020380817,-0.182662964,0.040268492,-0.267267287
1.76967E+18,11.599771,0.086859953,-0.004269275,-0.243428379,-0.170874074,0.046872269,-0.262394756
1.76967E+18,11.60976001,-0.062846625,0.067862772,-0.276572962,-0.148356512,0.122045852,-0.275120944
1.76967E+18,11.61974902,-0.086448449,0.186603645,-0.413977691,-0.108479537,0.120653391,-0.266715735
1.76967E+18,11.62973706,-0.017985739,0.2013325,-0.369133757,-0.073819026,0.183773771,-0.250163943
1.76967E+18,11.63972583,0.051186582,0.140579779,-0.460821568,-0.040485431,0.194721639,-0.216831267
1.76967E+18,11.64971387,-0.040459436,0.198497715,-0.210668557,-0.014963825,0.186827242,-0.181638405
1.76967E+18,11.65970313,-0.037238136,0.121559218,-0.074555767,-0.013800902,0.228114337,-0.157495037
1.76967E+18,11.66969189,-0.022114801,-0.079930373,-0.121614309,-0.034060102,0.187472373,-0.120915458
1.76967E+18,11.67968018,-0.055582186,-0.050663508,0.096564477,-0.04809799,0.18322666,-0.091898285
1.76967E+18,11.68966919,-0.031448447,-0.080626392,0.105005558,-0.040918376,0.192990348,-0.065550297
1.76967E+18,11.69965698,-0.118016139,-0.060465282,0.241825327,-0.024602413,0.15892002,-0.051050685
1.76967E+18,11.709646,-0.032829087,-0.010873276,0.417081503,-0.013053083,0.166969955,-0.048730008
1.76967E+18,11.71963501,0.047023617,-0.140378485,0.344034387,0.008858723,0.144928351,-0.022550583
1.76967E+18,11.72962305,-0.080962711,-0.128018769,0.376115578,0.037726857,0.150468528,-0.015025556
1.76967E+18,11.73961206,0.088559742,-0.187133149,0.302855842,0.052565236,0.091071963,-0.003458695
1.76967E+18,11.74959985,0.075012863,-0.2691206,0.103683662,0.06650342,0.10476061,0.015726184
1.76967E+18,11.75958887,-0.00329495,-0.301104103,-0.096019265,0.081871904,0.105482586,0.034084573
1.76967E+18,11.7695769,-0.008223638,-0.335554216,-0.215565097,0.096981354,0.13640216,0.042489242
1.76967E+18,11.77956616,0.088560912,-0.366713105,-0.465624438,0.137580708,0.099256158,0.071402907
1.76967E+18,11.78955493,0.052096098,-0.255932617,-0.327946737,0.159690276,0.119426146,0.059603769
1.76967E+18,11.79954321,0.18514497,-0.206116082,-0.554212968,0.199131683,0.122213848,0.055759519
1.76967E+18,11.80953198,0.037750762,-0.032369215,-0.456374525,0.265782058,0.108760089,0.048515987
1.76967E+18,11.81952002,0.120563485,0.102396325,-0.307277458,0.344826847,0.169525206,0.070253491
1.76967E+18,11.82950903,-0.039181087,0.101060108,-0.139315386,0.418501079,0.191952765,0.092253871
1.76967E+18,11.83949805,-0.038998716,0.029493075,0.073982205,0.46897164,0.207163051,0.100499123
1.76967E+18,11.84948608,-0.057388359,-0.033158246,0.176393947,0.505752563,0.250205308,0.109763995
1.76967E+18,11.8594751,-0.092331078,-0.158240816,0.199421041,0.558535933,0.230451986,0.098957032
1.76967E+18,11.86946289,0.067575407,-0.207328307,0.554742837,0.586162806,0.251210809,0.085916601
1.76967E+18,11.8794519,0.012390695,-0.262464211,0.242531576,0.632736146,0.267929912,0.103927195
1.76967E+18,11.88944019,-0.094408468,-0.161395262,0.438362337,0.651829422,0.301243126,0.130452275
1.76967E+18,11.8994292,-0.093899934,-0.338022798,0.560651185,0.66812849,0.299166024,0.142324314
1.76967E+18,11.90941797,-4.09165E-05,-0.535194307,0.744992145,0.650566757,0.257050008,0.146937713
1.76967E+18,11.91940601,-0.017174422,-0.743854227,0.738901427,0.604328752,0.227950454,0.14960824
1.76967E+18,11.92939502,-0.018080431,-0.685955142,0.507360324,0.588839233,0.185375541,0.163056135
1.76967E+18,11.93938306,0.053843818,-0.667418053,0.557574846,0.588160992,0.14889428,0.175490692
1.76967E+18,11.94937207,0.024645781,-0.673509648,0.560533111,0.578418076,0.144773573,0.201793671
1.76967E+18,11.95936108,-0.090280575,-0.528262169,0.303516791,0.556114316,0.140337497,0.215043709
1.76967E+18,11.96934912,-0.025253684,-0.435299077,0.099892453,0.538682342,0.147854269,0.233877048
1.76967E+18,11.97933789,-0.055762219,-0.206579023,0.006754297,0.535678387,0.175548807,0.237313256
1.76967E+18,11.98932593,0.148265146,-0.071228961,-0.096887718,0.529956818,0.162124351,0.254375339
1.76967E+18,11.99931494,0.134378075,-0.100991719,-0.219694014,0.541397989,0.221143708,0.266007811
1.76967E+18,12.00930322,0.197153388,-0.125364967,-0.256747148,0.552436769,0.255703807,0.273187965
1.76967E+18,12.01929199,0.147716865,-0.236862152,-0.366153572,0.529159606,0.288552612,0.301098377
1.76967E+18,12.02928101,-0.002737901,0.093279245,-0.685678663,0.462178409,0.296852618,0.328301758
1.76967E+18,12.03926904,0.006123451,0.422977064,-0.941071767,0.361236811,0.27579841,0.298332036
1.76967E+18,12.04925806,0.376128146,0.723068118,-1.057499029,0.308450013,0.33554244,0.256985664
1.76967E+18,12.05924609,0.1633651,0.91378497,-0.891326762,0.243560225,0.395642489,0.307953775
1.76967E+18,12.06923511,-0.355209276,0.152272994,-0.933182767,0.279504359,0.402886808,0.273783296
1.76967E+18,12.07922412,0.319472777,0.64125953,-0.448170615,0.31755659,0.479841739,0.253294438
1.76967E+18,12.08921191,0.11005495,0.493356203,-0.62563526,0.340032339,0.556606352,0.267358035
1.76967E+18,12.09920093,-0.02928104,0.06548048,-0.696612584,0.356394768,0.578955948,0.25145191
1.76967E+18,12.10918896,0.373961907,0.255303525,-0.521870569,0.382090271,0.576930881,0.209756136
1.76967E+18,12.11917798,0.531845946,0.306833076,-0.251805893,0.410980642,0.594654977,0.176400289
1.76967E+18,12.12916626,0.468371545,-0.038050768,-0.137029394,0.439869285,0.615337312,0.207609862
1.76967E+18,12.13915503,0.312822671,-0.550151856,-0.077556629,0.448215932,0.641942739,0.206958428
1.76967E+18,12.1491438,0.53776423,-0.818826466,-0.255614053,0.450444192,0.691096187,0.200659528
1.76967E+18,12.15913208,0.534597875,-0.558805557,-0.314990371,0.469548255,0.786241949,0.202022463
1.76967E+18,12.16912109,0.459773228,-0.616026304,-0.262493875,0.520442843,0.909029603,0.211792797
1.76967E+18,12.17910913,0.375029244,-0.758370975,-0.057604559,0.572303057,1.016751409,0.213074431
1.76967E+18,12.18909814,0.438038366,-0.679880791,-0.099187483,0.613383114,1.061808586,0.241944954
1.76967E+18,12.19908716,0.540410361,-0.79708196,-0.29232126,0.663779914,1.031521082,0.309398174
1.76967E+18,12.20907495,0.738280373,-0.776679077,-0.588496492,0.72595197,1.001813054,0.36415115
1.76967E+18,12.21906396,0.767455614,-1.001632911,-0.773632841,0.808449566,1.057541966,0.435749829
1.76967E+18,12.229052,0.544679709,-1.051073818,-0.58048551,0.919900477,1.240248084,0.466584176
1.76967E+18,12.23904102,0.645692105,-0.817586695,-0.366643182,1.010299563,1.490915418,0.46589148
1.76967E+18,12.24903027,0.664375179,-0.828734112,-0.408476537,1.102949023,1.728918314,0.490766466
