time,seconds_elapsed,z,y,x
1769667428661970200,0.06297021484375,0.10900158435106277,-0.0748894214630127,-0.12043853104114532
1769667428671959000,0.072958984375,0.11390073597431183,-0.04107792675495148,-0.13167200982570648
1769667428681947100,0.082947021484375,0.12276027351617813,-0.016893496736884117,-0.15917207300662994
1769667428691936300,0.092936279296875,0.12495151907205582,-0.03834499046206474,-0.19351886212825775
1769667428701924000,0.102924072265625,0.137853741645813,-0.054433681070804596,-0.21987883746623993
1769667428711913200,0.112913330078125,0.15950949490070343,-0.05306854471564293,-0.24286803603172302
1769667428721902000,0.122902099609375,0.17045855522155762,-0.007149522192776203,-0.2629501521587372
1769667428731890200,0.13289013671875,0.18171094357967377,0.07447290420532227,-0.26929938793182373
1769667428741879300,0.14287939453125,0.19510024785995483,0.0892941951751709,-0.3519503176212311
1769667428751867400,0.152867431640625,0.18736696243286133,0.0005723133217543364,-0.43606120347976685
1769667428761856000,0.16285595703125,0.20327802002429962,0.13234898447990417,-0.43718239665031433
1769667428771844000,0.172843994140625,0.12330755591392517,0.14148123562335968,-0.47280722856521606
1769667428781833200,0.182833251953125,-0.056344497948884964,0.24830488860607147,-0.31955161690711975
1769667428791822000,0.192822021484375,-0.10014950484037399,0.2668977379798889,-0.4940970838069916
1769667428801810200,0.20281005859375,-0.05493142455816269,0.1351567506790161,-0.5487467646598816
1769667428811799300,0.21279931640625,-0.13089729845523834,-0.057430002838373184,-0.7131612300872803
1769667428821787100,0.222787109375,-0.1743539571762085,-0.22181734442710876,-0.7735585570335388
1769667428831776300,0.2327763671875,-0.16589468717575073,-0.49843135476112366,-0.7974473834037781
1769667428841764000,0.24276416015625,-0.18584044277668,-0.6716880798339844,-0.8434068560600281
1769667428851753200,0.252753173828125,-0.19837167859077454,-0.6378870010375977,-0.8310516476631165
1769667428861742300,0.262742431640625,-0.27634158730506897,-0.5620422959327698,-0.8576111197471619
1769667428871730200,0.272730224609375,-0.29471153020858765,-0.5956854820251465,-0.8679923415184021
1769667428881719000,0.282718994140625,-0.2736126482486725,-0.8625741600990295,-0.8808200359344482
1769667428891707100,0.29270703125,-0.3399008512496948,-0.8416342735290527,-0.6957785487174988
1769667428901696300,0.3026962890625,-0.4412069618701935,-0.7879441380500793,-0.5733961462974548
1769667428911684400,0.312684326171875,-0.3350818455219269,-1.122277855873108,-0.5766170024871826
1769667428921673000,0.3226728515625,-0.2572629451751709,-1.1705490350723267,-0.3986656367778778
1769667428931661000,0.3326611328125,-0.26426947116851807,-0.7862080335617065,-0.24914777278900146
1769667428941650200,0.342650146484375,-0.22891201078891754,-0.1999482661485672,-0.17707623541355133
1769667428951639300,0.352639404296875,-0.24297137558460236,0.4499503970146179,-0.11536600440740585
1769667428961627400,0.36262744140625,-0.19069938361644745,1.1093679666519165,-0.07978218048810959
1769667428971616500,0.372616455078125,-0.13270477950572968,1.4168219566345215,-0.13931022584438324
1769667428981604600,0.3826044921875,-0.2437404841184616,1.35320246219635,-0.10264834761619568
1769667428991593500,0.392593505859375,-0.3531319499015808,1.000390887260437,0.1502707302570343
1769667429001581300,0.402581298828125,-0.38556528091430664,0.7263798713684082,0.24213381111621857
1769667429011570400,0.4125703125,-0.26708388328552246,0.4964238703250885,0.22177261114120483
1769667429021559600,0.4225595703125,-0.13882632553577423,0.4093496799468994,0.2064349353313446
1769667429031547600,0.432547607421875,-0.03230840340256691,0.5478503108024597,0.254632830619812
1769667429041536500,0.44253662109375,0.06675159931182861,0.7596613764762878,0.38121792674064636
1769667429051524400,0.4525244140625,0.09757662564516068,1.0857313871383667,0.5615062117576599
1769667429061513500,0.462513427734375,0.0828796997666359,1.4439536333084106,0.7516021132469177
1769667429071501600,0.47250146484375,0.11316996067762375,1.8237098455429077,0.8820645213127136
1769667429081490400,0.482490478515625,0.11209511011838913,2.10671329498291,0.9183261394500732
1769667429091478500,0.492478515625,0.06804962456226349,2.142221689224243,0.7718402743339539
1769667429101467600,0.502467529296875,0.09236668050289154,2.1073408126831055,0.6061919331550598
1769667429111456500,0.51245654296875,0.11227354407310486,2.138144016265869,0.5528261661529541
1769667429121444400,0.5224443359375,0.06724508106708527,2.1940438747406006,0.5456609129905701
1769667429131433500,0.53243359375,0.07970281690359116,2.099130153656006,0.571887195110321
1769667429141421600,0.542421630859375,0.11040160804986954,2.027355670928955,0.6393019556999207
1769667429151410700,0.55241064453125,0.04441673308610916,2.197916269302368,0.6211921572685242
1769667429161398500,0.5623984375,-0.03930026665329933,2.261838674545288,0.6206936240196228
1769667429171387400,0.572387451171875,-0.059300608932971954,2.2612111568450928,0.6197612285614014
1769667429181376500,0.58237646484375,-0.07516106218099594,2.2779204845428467,0.5146108865737915
1769667429191364600,0.592364501953125,-0.06041514128446579,2.3232343196868896,0.3073098659515381
1769667429201353500,0.602353515625,-0.004844556096941233,2.070598840713501,0.13691897690296173
1769667429211341600,0.612341552734375,0.026941070333123207,1.6120535135269165,0.012819658033549786
1769667429221330400,0.622330322265625,0.005309277679771185,1.0080304145812988,-0.09090887010097504
1769667429231318500,0.632318603515625,0.03915512561798096,0.660659670829773,-0.01913800835609436
1769667429241307400,0.642307373046875,-0.06372944265604019,0.5838285684585571,0.198076069355011
1769667429251295500,0.65229541015625,-0.06333902478218079,0.7424848079681396,0.26735180616378784
1769667429261284600,0.66228466796875,0.05730190500617027,0.9518342614173889,0.14454865455627441
1769667429271273700,0.672273681640625,0.09689538925886154,0.8731996417045593,-0.16783054172992706
1769667429281261600,0.682261474609375,0.06352784484624863,0.6045588850975037,-0.3020583987236023
1769667429291250400,0.69225048828125,0.07433255016803741,0.32539141178131104,-0.25711995363235474
1769667429301238500,0.702238525390625,0.10834964364767075,0.32126617431640625,-0.22680304944515228
1769667429311227600,0.7122275390625,0.12059086561203003,0.36038774251937866,-0.23614010214805603
1769667429321215700,0.7222158203125,0.07884714752435684,0.27081072330474854,-0.23498934507369995
1769667429331204400,0.732204345703125,0.04772225022315979,0.18569236993789673,-0.2022487074136734
1769667429341193500,0.742193359375,0.016639163717627525,0.12661705911159515,-0.19693917036056519
1769667429351181600,0.752181640625,0.009807889349758625,0.03413000702857971,-0.2709992825984955
1769667429361170400,0.76217041015625,0.038238465785980225,0.13352690637111664,-0.27456071972846985
1769667429371158500,0.772158447265625,0.09798861294984818,0.46287229657173157,-0.11401498317718506
1769667429381147600,0.782147705078125,0.10999813675880432,0.6635745167732239,-0.17766080796718597
1769667429391135500,0.792135498046875,0.067656010389328,0.3351830542087555,-0.12948422133922577
1769667429401124400,0.802124267578125,0.0510176457464695,0.14660009741783142,-0.04891747608780861
1769667429411112400,0.812112548828125,0.04657149687409401,0.10477194935083389,-0.013160010799765587
1769667429421101600,0.8221015625,0.036559876054525375,0.08041094988584518,-0.06807838380336761
1769667429431090700,0.832090576171875,0.05428667366504669,-0.03308817744255066,-0.16373459994792938
1769667429441078500,0.84207861328125,0.0688144862651825,-0.1623859852552414,-0.23458774387836456
1769667429451067400,0.8520673828125,0.07020145654678345,-0.29631420969963074,-0.24109996855258942
1769667429461055500,0.862055419921875,0.066583551466465,-0.5627169013023376,-0.2535073757171631
1769667429471044600,0.872044677734375,0.08685127645730972,-0.7860474586486816,-0.33155983686447144
1769667429481032700,0.88203271484375,0.12350942194461823,-0.9426221251487732,-0.4754525423049927
1769667429491021300,0.892021240234375,0.08034597337245941,-1.107682228088379,-0.5840141773223877
1769667429501010400,0.902010498046875,-0.03716707602143288,-2.8933377265930176,-0.6422617435455322
1769667429510998500,0.91199853515625,0.12268064171075821,-4.2696428298950195,-0.831153929233551
1769667429520987400,0.9219873046875,0.4323306381702423,-4.4476189613342285,-0.9080750942230225
1769667429530975500,0.9319755859375,0.43762022256851196,-1.5633295774459839,0.23934388160705566
1769667429540964600,0.941964599609375,0.3378177285194397,0.23140472173690796,0.9682816863059998
1769667429550952400,0.951952392578125,0.10931450873613358,0.5131503939628601,0.9351761937141418
1769667429560941600,0.961941650390625,-0.049424540251493454,-0.2610851228237152,0.2753061354160309
1769667429570929400,0.971929443359375,0.027343207970261574,-0.8613917231559753,-0.42264577746391296
1769667429580918500,0.98191845703125,0.28444796800613403,-1.598514437675476,-0.563815176486969
1769667429590907600,0.99190771484375,0.48264068365097046,-2.0986692905426025,-0.7484936714172363
1769667429600895500,1.0018955078125,0.183692067861557,-0.5921786427497864,-0.896903395652771
1769667429610884400,1.01188427734375,0.1247003898024559,-0.3975662589073181,-0.640251100063324
1769667429620872400,1.02187255859375,0.17656171321868896,-1.021837592124939,-0.25519606471061707
1769667429630861600,1.031861572265625,0.22815540432929993,-1.0438326597213745,-0.2075318843126297
1769667429640849700,1.041849609375,0.282131552696228,-0.917827308177948,-0.215506449341774
1769667429650838500,1.051838623046875,0.25909414887428284,-0.8813191056251526,-0.20671668648719788
1769667429660826400,1.061826416015625,0.04832092672586441,-1.1297008991241455,-0.15129737555980682
1769667429670815500,1.0718154296875,-0.2908898890018463,-1.696984052658081,0.01715954579412937
1769667429680804600,1.0818046875,-0.5637597441673279,-2.278714418411255,0.21599940955638885
1769667429690792400,1.09179248046875,-0.5888398289680481,-2.5480000972747803,-0.06719394773244858
1769667429700781600,1.101781494140625,-0.5921844840049744,-3.451385259628296,-1.2628004550933838
1769667429710769400,1.111769287109375,-0.3853977620601654,-2.7134487628936768,-2.4884324073791504
1769667429720758500,1.121758544921875,-0.2787264287471771,-2.0371596813201904,-2.442643404006958
1769667429730746600,1.13174658203125,-0.3343265950679779,-1.944984793663025,-1.2948215007781982
1769667429740735500,1.141735595703125,-0.48206597566604614,-1.0446206331253052,-0.5130912661552429
1769667429750724600,1.151724609375,-0.48302870988845825,-0.040457144379615784,-0.3639579713344574
1769667429760712700,1.161712646484375,-0.34219568967819214,0.08301179856061935,-0.44128260016441345
1769667429770701300,1.171701416015625,-0.15956063568592072,-0.469451367855072,-0.49838024377822876
1769667429780689400,1.181689453125,-0.1140647828578949,-0.9077027440071106,-0.583022952079773
1769667429790678500,1.191678466796875,-0.10724736005067825,-0.9512353539466858,-0.6319204568862915
1769667429800666600,1.20166650390625,-0.07192425429821014,-0.8324655294418335,-0.6131406426429749
1769667429810655500,1.211655517578125,-0.024995630607008934,-0.622252881526947,-0.5494319796562195
1769667429820643300,1.221643310546875,0.01673583686351776,-0.5624740123748779,-0.4882567524909973
1769667429830632400,1.231632568359375,0.05199901759624481,-0.6264436841011047,-0.45719364285469055
1769667429840621600,1.24162158203125,0.05173430219292641,-0.671710729598999,-0.4293822646141052
1769667429850609700,1.251609619140625,-0.004686630796641111,-0.8332221508026123,-0.46400415897369385
1769667429860598500,1.2615986328125,-0.06210411712527275,-1.142040729522705,-0.573974609375
1769667429870586400,1.27158642578125,-0.10765615850687027,-1.2903084754943848,-0.6297475695610046
1769667429880575500,1.281575439453125,-0.10302305221557617,-1.4173684120178223,-0.6302937865257263
1769667429890563600,1.2915634765625,-0.14208923280239105,-1.4982326030731201,-0.6499513983726501
1769667429900552400,1.301552490234375,-0.14798547327518463,-1.4628032445907593,-0.6656270027160645
1769667429910540500,1.31154052734375,-0.1662406325340271,-1.3530304431915283,-0.6755605936050415
1769667429920529700,1.32152978515625,-0.16737914085388184,-1.3075926303863525,-0.6392790079116821
1769667429930518500,1.3315185546875,-0.202018603682518,-1.2517269849777222,-0.6578758955001831
1769667429940506400,1.34150634765625,-0.24056734144687653,-1.2325061559677124,-0.696292519569397
1769667429950495500,1.35149560546875,-0.26293256878852844,-1.315253734588623,-0.7434089183807373
1769667429960483300,1.3614833984375,-0.23507137596607208,-1.396992802619934,-0.8785869479179382
1769667429970472400,1.371472412109375,-0.20666822791099548,-1.5833991765975952,-1.0764966011047363
1769667429980460300,1.381460205078125,-0.2235979437828064,-1.8420538902282715,-1.2812968492507935
1769667429990449400,1.391449462890625,-0.20465193688869476,-1.9661204814910889,-1.363052487373352
1769667430000438500,1.4014384765625,-0.20042018592357635,-1.98830246925354,-1.3020106554031372
1769667430010426600,1.411426513671875,-0.2669435441493988,-1.9512525796890259,-1.386993169784546
1769667430020415500,1.42141552734375,-0.30346107482910156,-2.05619478225708,-1.4737714529037476
1769667430030403300,1.4314033203125,-0.3058722913265228,-2.1897358894348145,-1.4376989603042603
1769667430040392400,1.441392333984375,-0.3073117434978485,-2.026895046234131,-1.4243261814117432
1769667430050380500,1.451380615234375,-0.21731127798557281,-1.6802024841308594,-1.368157982826233
1769667430060369400,1.461369384765625,-0.1256953477859497,-1.4423645734786987,-1.2630629539489746
1769667430070357200,1.471357177734375,-0.019419504329562187,-1.4141122102737427,-1.2909774780273438
1769667430080346400,1.481346435546875,0.06425488740205765,-1.2740898132324219,-1.4191277027130127
1769667430090335500,1.49133544921875,0.1027788445353508,-1.0735242366790771,-1.5545856952667236
1769667430100323300,1.5013232421875,0.1606471985578537,-0.9257590174674988,-1.7900288105010986
1769667430110312400,1.5113125,0.25294357538223267,-0.8202882409095764,-1.9295721054077148
1769667430120300500,1.521300537109375,0.2933621108531952,-0.7864213585853577,-1.928377628326416
1769667430130289400,1.531289306640625,0.28311824798583984,-0.9961367845535278,-1.8546839952468872
1769667430140277500,1.541277587890625,0.18752115964889526,-1.161344051361084,-1.7351593971252441
1769667430150266400,1.551266357421875,0.1232668086886406,-1.2376545667648315,-1.6473866701126099
1769667430160254500,1.56125439453125,0.07584922760725021,-1.3382210731506348,-1.5652185678482056
1769667430170243600,1.57124365234375,0.03804272413253784,-1.3192138671875,-1.481282353401184
1769667430180232400,1.581232421875,0.018022676929831505,-1.0215518474578857,-1.5217353105545044
1769667430190220300,1.59122021484375,0.035295139998197556,-0.8309009075164795,-1.5584701299667358
1769667430200209400,1.60120947265625,-0.027705663815140724,-0.544613778591156,-1.3341302871704102
1769667430210197500,1.611197509765625,-0.04964584857225418,-0.338061660528183,-1.262058973312378
1769667430220186400,1.621186279296875,-0.018998991698026657,-0.32887935638427734,-1.2560887336730957
1769667430230174500,1.631174560546875,-0.007583617232739925,-0.42499789595603943,-1.2103947401046753
1769667430240163300,1.641163330078125,0.03238377347588539,-0.38962286710739136,-1.3379827737808228
1769667430250152400,1.65115234375,0.05355244129896164,-0.165461927652359,-1.4265289306640625
1769667430260140500,1.661140625,0.06083059310913086,0.1692555993795395,-1.3448798656463623
1769667430270129400,1.67112939453125,0.08848805725574493,0.4167170524597168,-1.205919861793518
1769667430280117500,1.681117431640625,0.08277583867311478,0.5861822366714478,-1.1595370769500732
1769667430290106600,1.691106689453125,0.08252576738595963,0.7817570567131042,-1.0640721321105957
1769667430300094500,1.701094482421875,0.11430420726537704,0.8683803677558899,-0.9048212170600891
1769667430310083300,1.711083251953125,0.1350422352552414,0.7114943861961365,-0.7761117219924927
1769667430320071400,1.721071533203125,0.1296062022447586,0.4019610285758972,-0.5695609450340271
1769667430330060500,1.731060546875,0.1035330519080162,0.03966831788420677,-0.38464808464050293
1769667430340049400,1.74104931640625,0.15268781781196594,-0.14602191746234894,-0.35578739643096924
1769667430350037200,1.751037353515625,0.20023348927497864,-0.24839915335178375,-0.35883378982543945
1769667430360026400,1.7610263671875,0.23271553218364716,-0.3206600248813629,-0.4079643189907074
1769667430370014500,1.771014404296875,0.20889729261398315,-0.36892077326774597,-0.3915312886238098
1769667430380003300,1.78100341796875,0.22009588778018951,-0.4352284371852875,-0.34205853939056396
1769667430389991400,1.790991455078125,0.2041936069726944,-0.41984015703201294,-0.36930960416793823
1769667430399980500,1.80098046875,0.11762463301420212,-0.4235747158527374,-0.3817678689956665
1769667430409968400,1.810968505859375,0.11115847527980804,-0.35190343856811523,-0.40630143880844116
1769667430419957500,1.82095751953125,-0.008341819047927856,-0.32495251297950745,-0.3681178390979767
1769667430429946400,1.8309462890625,-0.032942235469818115,-0.3782266676425934,-0.3549245297908783
1769667430439934500,1.8409345703125,-0.06268894672393799,-0.40321964025497437,-0.3002237379550934
1769667430449923600,1.850923583984375,-0.037943918257951736,-0.3452162444591522,-0.28246763348579407
1769667430459911400,1.860911376953125,-0.0727812647819519,-0.3168882131576538,-0.24824044108390808
1769667430469900300,1.870900390625,-0.06281225383281708,-0.39425569772720337,-0.25968271493911743
1769667430479888400,1.880888427734375,-0.04320366308093071,-0.3578406870365143,-0.303200364112854
1769667430489877500,1.89087744140625,-0.039331160485744476,-0.36885979771614075,-0.31852445006370544
1769667430499866400,1.900866455078125,-0.027695544064044952,-0.3769669830799103,-0.2890893220901489
1769667430509854200,1.910854248046875,-0.10885430872440338,-0.37215811014175415,-0.24595916271209717
1769667430519843300,1.92084326171875,-0.2233944684267044,-0.36949390172958374,-0.25079599022865295
1769667430529831400,1.93083154296875,-0.27532318234443665,-0.34419679641723633,-0.2611682116985321
1769667430539820500,1.940820556640625,-0.2834319770336151,-0.32262730598449707,-0.2493578940629959
1769667430549808400,1.950808349609375,-0.31823283433914185,-0.3066355586051941,-0.22915010154247284
1769667430559797500,1.960797607421875,-0.34985679388046265,-0.19044078886508942,-0.1881432682275772
1769667430569785300,1.970785400390625,-0.3528640568256378,-0.1723637729883194,-0.19716553390026093
1769667430579774500,1.9807744140625,-0.3094763457775116,-0.14669223129749298,-0.2152278870344162
1769667430589763300,1.990763427734375,-0.28620487451553345,-0.12092908471822739,-0.23461250960826874
1769667430599751400,2.00075146484375,-0.27590295672416687,-0.06456407904624939,-0.24263447523117065
1769667430609740500,2.010740478515625,-0.2502628266811371,-0.03906217962503433,-0.25985607504844666
1769667430619728400,2.020728271484375,-0.24848385155200958,-0.03600300848484039,-0.25784167647361755
1769667430629717200,2.03071728515625,-0.27352607250213623,0.015215704217553139,-0.22924090921878815
1769667430639705300,2.040705322265625,-0.25500884652137756,0.03141065314412117,-0.23293791711330414
1769667430649694500,2.050694580078125,-0.2592182457447052,0.06549672037363052,-0.2577436566352844
1769667430659683600,2.06068359375,-0.2104365974664688,0.07353094220161438,-0.2531595528125763
1769667430669671400,2.07067138671875,-0.19490957260131836,0.1485292911529541,-0.2508218288421631
1769667430679660300,2.080660400390625,-0.1738719344139099,0.21615120768547058,-0.24981249868869781
1769667430689648400,2.0906484375,-0.13849928975105286,0.28142768144607544,-0.2118576616048813
1769667430699637500,2.100637451171875,-0.1054510548710823,0.3280005156993866,-0.15942081809043884
1769667430709625600,2.11062548828125,-0.08191590756177902,0.3497715890407562,-0.13884124159812927
1769667430719614500,2.120614501953125,-0.07229390740394592,0.3800218999385834,-0.1494632512331009
1769667430729602300,2.130602294921875,-0.07509448379278183,0.4051530957221985,-0.1442440003156662
1769667430739591400,2.14059130859375,-0.07842077314853668,0.43047255277633667,-0.12889167666435242
1769667430749580300,2.150580322265625,-0.08050575852394104,0.4259031116962433,-0.10740794986486435
1769667430759568400,2.160568359375,-0.07688199728727341,0.3994928002357483,-0.08380594849586487
1769667430769557500,2.1705576171875,-0.0732254758477211,0.3826267421245575,-0.06921635568141937
1769667430779545600,2.180545654296875,-0.08133932948112488,0.39190545678138733,-0.0639992207288742
1769667430789534200,2.1905341796875,-0.08521183580160141,0.39362531900405884,-0.05608510598540306
1769667430799522300,2.200522216796875,-0.09458722174167633,0.39452654123306274,-0.039677105844020844
1769667430809511400,2.210511474609375,-0.1061629205942154,0.3717179000377655,-0.021229920908808708
1769667430819499500,2.22049951171875,-0.12364950031042099,0.3247935175895691,-0.007022755686193705
1769667430829488600,2.230488525390625,-0.12981311976909637,0.31193631887435913,-0.016353139653801918
1769667430839477500,2.2404775390625,-0.1459907591342926,0.2749250531196594,-0.03411296382546425
1769667430849465300,2.25046533203125,-0.1659596711397171,0.2613868713378906,-0.05432156100869179
1769667430859454500,2.260454345703125,-0.18309073150157928,0.26588174700737,-0.054722901433706284
1769667430869442600,2.270442626953125,-0.1969199925661087,0.3069863021373749,-0.05061657354235649
1769667430879431400,2.280431396484375,-0.21854086220264435,0.3179393410682678,-0.037643514573574066
1769667430889419300,2.290419189453125,-0.24833205342292786,0.30250978469848633,-0.036733780056238174
1769667430899408400,2.300408447265625,-0.28112515807151794,0.3292290270328522,-0.032036229968070984
1769667430909397200,2.310397216796875,-0.3396528959274292,0.2902984023094177,-0.04145370051264763
1769667430919385300,2.32038525390625,-0.40167099237442017,0.20640456676483154,-0.06844137609004974
1769667430929374500,2.33037451171875,-0.41662412881851196,0.20336191356182098,-0.08092893660068512
1769667430939362600,2.340362548828125,-0.3751714825630188,0.24722683429718018,-0.0517532080411911
1769667430949351700,2.3503515625,-0.337271511554718,0.14098694920539856,-0.04656697064638138
1769667430959339500,2.360339599609375,-0.29582419991493225,0.11118191480636597,-0.056584183126688004
1769667430969328600,2.37032861328125,-0.2129458338022232,0.1081637516617775,-0.05571093410253525
1769667430979316700,2.380316650390625,-0.1763838231563568,0.08268715441226959,-0.0667867511510849
1769667430989305900,2.390305908203125,-0.15947620570659637,0.016533436253666878,-0.06626370549201965
1769667430999294700,2.400294677734375,-0.13100329041481018,0.0057532270438969135,-0.054673898965120316
1769667431009282600,2.410282470703125,-0.09875773638486862,-0.03738652169704437,-0.03172490745782852
1769667431019271700,2.420271728515625,-0.08998315036296844,-0.07512138038873672,-0.020204337313771248
1769667431029259800,2.430259765625,-0.0656229555606842,-0.13224326074123383,-0.009951434098184109
1769667431039248600,2.44024853515625,-0.044731784611940384,-0.17778997123241425,-0.011096326634287834
1769667431049236700,2.45023681640625,-0.03230094909667969,-0.1918613165616989,0.00743128452450037
1769667431059225600,2.4602255859375,-0.026752784848213196,-0.2424248903989792,0.02040540613234043
1769667431069214500,2.47021435546875,-0.018140921369194984,-0.24218839406967163,0.0403578095138073
1769667431079202600,2.48020263671875,-0.10329096764326096,-0.3366067707538605,0.03524613752961159
1769667431089191700,2.490191650390625,-0.22691437602043152,-0.5160010457038879,0.011535482481122017
1769667431099179800,2.5001796875,-0.2866850197315216,-0.5419125556945801,0.05163922533392906
1769667431109168600,2.510168701171875,-0.2509733736515045,-0.5289759635925293,0.14007188379764557
1769667431119156500,2.520156494140625,-0.18715018033981323,-0.6237608194351196,0.20033948123455048
1769667431129145600,2.5301455078125,-0.14517396688461304,-0.7008148431777954,0.23716966807842255
1769667431139133700,2.5401337890625,-0.12629136443138123,-0.6679157614707947,0.2335325926542282
1769667431149122800,2.550122802734375,-0.08289408683776855,-0.6114532351493835,0.21753418445587158
1769667431159111700,2.560111572265625,-0.03526824340224266,-0.5091639161109924,0.23257465660572052
1769667431169099500,2.570099609375,0.0191396065056324,-0.37232455611228943,0.2947397530078888
1769667431179088600,2.580088623046875,0.04206729307770729,-0.40745219588279724,0.3482586443424225
1769667431189076700,2.59007666015625,0.056601494550704956,-0.4821767508983612,0.3923717737197876
1769667431199065600,2.600065673828125,0.06692869961261749,-0.5273737907409668,0.44655218720436096
1769667431209053700,2.6100537109375,0.08095157146453857,-0.584130048751831,0.4689696133136749
1769667431219042800,2.620042724609375,0.11404001712799072,-0.6162844896316528,0.47773540019989014
1769667431229030700,2.63003076171875,0.1449579894542694,-0.6028741598129272,0.5138865113258362
1769667431239019500,2.64001953125,0.1401861310005188,-0.5576329231262207,0.602289617061615
1769667431249008600,2.650008544921875,0.21472641825675964,-0.5791991949081421,0.6417965292930603
1769667431258996700,2.659996826171875,0.28703710436820984,-0.5116915106773376,0.6291249394416809
1769667431268985900,2.66998583984375,0.3529742956161499,-0.4156549870967865,0.6091411113739014
1769667431278973700,2.6799736328125,0.4101771414279938,-0.31259146332740784,0.6211708784103394
1769667431288962600,2.689962646484375,0.3620910942554474,-0.302868515253067,0.6562662720680237
1769667431298950700,2.69995068359375,0.3227146565914154,-0.33333268761634827,0.6802893280982971
1769667431308939800,2.709939697265625,0.37641066312789917,-0.23280741274356842,0.6592916250228882
1769667431318928600,2.7199287109375,0.44464004039764404,-0.09347109496593475,0.6222217679023743
1769667431328916700,2.729916748046875,0.41548454761505127,0.0003938815207220614,0.6132282614707947
1769667431338905600,2.739905517578125,0.3410923480987549,-0.036683712154626846,0.6570383310317993
1769667431348893700,2.749893798828125,0.45575153827667236,0.005370530765503645,0.6360025405883789
1769667431358882600,2.759882568359375,0.4671938121318817,0.36391136050224304,0.5972256064414978
1769667431368870700,2.76987060546875,0.5097607374191284,0.603264331817627,0.5917426943778992
1769667431378859800,2.77985986328125,0.5604926347732544,0.6475633382797241,0.5912861824035645
1769667431388847600,2.78984765625,0.6054459810256958,0.7402809858322144,0.549765944480896
1769667431398836700,2.799836669921875,0.49152684211730957,0.765783965587616,0.5340093374252319
1769667431408825600,2.80982568359375,0.39283624291419983,0.6396782398223877,0.5535457730293274
1769667431418813700,2.819813720703125,0.3162516951560974,0.7150973677635193,0.5725844502449036
1769667431428802800,2.829802734375,0.31700190901756287,0.6786802411079407,0.6349008083343506
1769667431438790700,2.839790771484375,0.21213702857494354,0.5856229662895203,0.6434820294380188
1769667431448779500,2.849779541015625,0.2378929853439331,0.44577455520629883,0.59295654296875
1769667431458767600,2.859767578125,0.2833065390586853,0.3757227659225464,0.487422913312912
1769667431468756700,2.8697568359375,0.2208399623632431,0.39518460631370544,0.3811531960964203
1769667431478745600,2.87974560546875,0.1778152734041214,0.3569062054157257,0.340415358543396
1769667431488733700,2.889733642578125,0.19472500681877136,0.27005305886268616,0.38071590662002563
1769667431498722800,2.899722900390625,0.11624538153409958,0.27161526679992676,0.400032103061676
1769667431508710700,2.909710693359375,0.12480264902114868,0.23561730980873108,0.4159460663795471
1769667431518699500,2.919699462890625,0.11691996455192566,0.23355495929718018,0.43351495265960693
1769667431528687600,2.9296875,0.10355169326066971,0.2093452364206314,0.4267478585243225
1769667431538676700,2.9396767578125,0.0744987353682518,0.2053755223751068,0.4200361669063568
1769667431548664600,2.94966455078125,0.10088001191616058,0.14384958148002625,0.3862787187099457
1769667431558653700,2.95965380859375,0.10143367946147919,0.17772579193115234,0.34680163860321045
1769667431568642600,2.969642578125,0.07762209326028824,0.22830986976623535,0.3554172217845917
1769667431578630700,2.979630615234375,0.07098495960235596,0.1989959180355072,0.33381444215774536
1769667431588619800,2.989619873046875,0.04957740753889084,0.2248549461364746,0.3131565749645233
1769667431598608000,2.99960791015625,0.04680931568145752,0.20416857302188873,0.297673761844635
1769667431608596500,3.009596435546875,0.025914154946804047,0.16353753209114075,0.29822370409965515
1769667431618584600,3.01958447265625,-0.021147096529603004,0.1216508001089096,0.31280452013015747
1769667431628573700,3.02957373046875,-0.07281907647848129,0.10253116488456726,0.3002796769142151
1769667431638561800,3.039561767578125,-0.10305368155241013,0.03538941591978073,0.28329163789749146
1769667431648550700,3.049550537109375,-0.1535424143075943,0.03400323912501335,0.25380244851112366
1769667431658539800,3.059539794921875,-0.18760424852371216,-0.026196183636784554,0.20920035243034363
1769667431668527600,3.069527587890625,-0.17909091711044312,-0.04127366840839386,0.12791934609413147
1769667431678516700,3.079516845703125,-0.12998676300048828,-0.16542145609855652,0.01137116551399231
1769667431688504600,3.089504638671875,-0.08197129517793655,-0.3961670398712158,-0.0922955721616745
1769667431698493700,3.09949365234375,-0.026758909225463867,-0.5454675555229187,-0.20825760066509247
1769667431708481800,3.109481689453125,0.019281020388007164,-0.7829203605651855,-0.32852035760879517
1769667431718470700,3.119470703125,0.09134749323129654,-0.9786235690116882,-0.4370684027671814
1769667431728459500,3.12945947265625,0.1409001350402832,-1.1744306087493896,-0.4898221790790558
1769667431738447600,3.139447509765625,0.14876045286655426,-1.2655586004257202,-0.4879736602306366
1769667431748436700,3.149436767578125,0.16800712049007416,-1.3794559240341187,-0.467357873916626
1769667431758424800,3.1594248046875,0.18903915584087372,-1.4931443929672241,-0.4860101044178009
1769667431768413700,3.16941357421875,0.22585070133209229,-1.4385842084884644,-0.5069001913070679
1769667431778401500,3.179401611328125,0.19425895810127258,-1.1305781602859497,-0.46158280968666077
1769667431788390700,3.189390625,0.11095821112394333,-0.715559184551239,-0.40454721450805664
1769667431798378800,3.199378662109375,0.034205373376607895,-0.31233474612236023,-0.3698906898498535
1769667431808367600,3.20936767578125,0.04894623905420303,-0.09576061367988586,-0.33370473980903625
1769667431818356700,3.219356689453125,0.09426312148571014,0.026378078386187553,-0.3071143925189972
1769667431828344600,3.229344482421875,0.11162932217121124,0.12677419185638428,-0.2144225537776947
1769667431838333700,3.239333740234375,0.07900027930736542,0.15354721248149872,-0.10701379925012589
1769667431848321800,3.24932177734375,0.17172515392303467,0.22738495469093323,-0.04309767112135887
1769667431858310700,3.259310546875,0.26563966274261475,0.31730127334594727,0.024704547598958015
1769667431868298800,3.269298828125,0.3663036823272705,0.3893919587135315,0.07315383851528168
1769667431878288000,3.279287841796875,0.5141461491584778,0.41761642694473267,0.07845912128686905
1769667431888276500,3.2892763671875,0.6572567224502563,0.5413023829460144,0.10389683395624161
1769667431898264600,3.2992646484375,0.862468957901001,0.7983722686767578,0.100336454808712
1769667431908253700,3.309253662109375,1.0198631286621094,1.1881000995635986,0.19896262884140015
1769667431918241800,3.31924169921875,1.133460283279419,1.515714406967163,0.17764721810817719
1769667431928230700,3.329230712890625,1.114494800567627,1.6195931434631348,0.10129732638597488
1769667431938218500,3.339218505859375,1.1023105382919312,1.5610954761505127,0.02129437029361725
1769667431948207600,3.34920751953125,0.995080292224884,1.693473219871521,-0.061579473316669464
1769667431958195200,3.3591953125,0.862010657787323,1.890494465827942,-0.10763031989336014
1769667431968184300,3.369184326171875,0.7136440873146057,2.072147846221924,-0.049849580973386765
1769667431978173200,3.379173095703125,0.497913658618927,2.114305257797241,0.11142745614051819
1769667431988161000,3.3891611328125,0.36020106077194214,2.0172295570373535,0.33885207772254944
1769667431998150100,3.399150146484375,0.3780980408191681,1.412684679031372,0.3188490867614746
1769667432008138200,3.40913818359375,0.42528313398361206,0.5932561755180359,0.17940464615821838
1769667432018127000,3.419127197265625,0.580480694770813,0.25661712884902954,0.22054968774318695
1769667432028115200,3.429115234375,0.8003771305084229,0.15677230060100555,0.1945982426404953
1769667432038104300,3.439104248046875,0.990519642829895,0.16233991086483002,0.08489065617322922
1769667432048093200,3.44909326171875,1.0853270292282104,0.24702124297618866,-0.006364688742905855
1769667432058081000,3.4590810546875,1.1199300289154053,0.260795921087265,-0.05203097686171532
1769667432068070100,3.469070068359375,1.0505573749542236,0.29003262519836426,0.011687815189361572
1769667432078058200,3.479058349609375,0.9386284351348877,0.34597018361091614,0.08891256153583527
1769667432088047400,3.48904736328125,0.7764355540275574,0.439711332321167,0.19377505779266357
1769667432098035200,3.49903515625,0.5519726276397705,0.5624148845672607,0.2890685498714447
1769667432108024000,3.509024169921875,0.2532748878002167,0.6993889808654785,0.3502533435821533
1769667432118012200,3.51901220703125,-0.21161477267742157,0.6885973215103149,0.4407757818698883
1769667432128001300,3.529001220703125,-0.7056604623794556,0.589592695236206,0.5406405925750732
1769667432137990100,3.538990234375,-0.7760752439498901,0.14174781739711761,0.4912823736667633
1769667432147978000,3.54897802734375,-0.29088881611824036,-0.42909863591194153,0.3025992810726166
1769667432157967000,3.558967041015625,0.3154604732990265,-0.46288108825683594,0.2549377381801605
1769667432167955200,3.568955078125,0.8010562062263489,0.1108868345618248,0.26359862089157104
1769667432177944000,3.578944091796875,0.9915199279785156,0.8168870806694031,0.4076082408428192
1769667432187932200,3.58893212890625,1.0814896821975708,1.5716943740844727,0.6307401657104492
1769667432197921300,3.59892138671875,1.2280343770980835,1.8151777982711792,0.6071287989616394
1769667432207910100,3.60891015625,1.2276434898376465,1.4704103469848633,0.5868392586708069
1769667432217898200,3.618898193359375,0.9028736352920532,0.9295361638069153,0.7325679659843445
1769667432227887000,3.62888720703125,0.5547263026237488,0.7579202055931091,0.8709186315536499
1769667432237875200,3.638875244140625,0.4050486981868744,1.048741340637207,0.9275638461112976
1769667432247864300,3.6488642578125,0.17737451195716858,1.0918352603912354,0.9206483960151672
1769667432257852200,3.65885205078125,0.22667574882507324,0.6635100841522217,0.7740629315376282
1769667432267841000,3.668841064453125,0.33383816480636597,0.3071780502796173,0.7297196984291077
1769667432277829000,3.6788291015625,0.4423387944698334,0.31156668066978455,0.6782637238502502
1769667432287818200,3.688818359375,0.5391297936439514,0.5821976065635681,0.5483600497245789
1769667432297807000,3.69880712890625,0.6342083811759949,0.7177136540412903,0.4361216425895691
1769667432307795200,3.708795166015625,0.6641247272491455,0.7239606380462646,0.4000736474990845
1769667432317784000,3.7187841796875,0.6759278774261475,0.6746798753738403,0.3764311671257019
1769667432327772200,3.728772216796875,0.67208331823349,0.640555739402771,0.34206172823905945
1769667432337761300,3.73876123046875,0.6264572143554688,0.6179436445236206,0.31594011187553406
1769667432347749000,3.7487490234375,0.606033980846405,0.5534605383872986,0.23568789660930634
1769667432357738200,3.75873828125,0.6327348351478577,0.48242631554603577,0.07975927740335464
1769667432367727400,3.768727294921875,0.6617225408554077,0.5136443972587585,-0.06355047971010208
1769667432377715200,3.778715087890625,0.6627641320228577,0.6907507181167603,-0.191724956035614
1769667432387704000,3.7887041015625,0.6782679557800293,0.7114490866661072,-0.2689851224422455
1769667432397692200,3.798692138671875,0.696744441986084,0.6569496393203735,-0.3832813501358032
1769667432407681300,3.808681396484375,0.7114147543907166,0.6290727257728577,-0.4305607080459595
1769667432417669400,3.81866943359375,0.7111670970916748,0.6677151918411255,-0.4719339907169342
1769667432427658000,3.828657958984375,0.6600783467292786,0.7185909152030945,-0.5317466855049133
1769667432437646000,3.83864599609375,0.5966282486915588,0.6579040884971619,-0.5450332164764404
1769667432447635200,3.84863525390625,0.48929059505462646,0.4550495445728302,-0.5333584547042847
1769667432457624300,3.858624267578125,0.36456942558288574,0.24766385555267334,-0.5090107917785645
1769667432467612200,3.868612060546875,0.23283751308918,0.17728610336780548,-0.457007497549057
1769667432477601300,3.878601318359375,0.11437637358903885,0.25210040807724,-0.34734809398651123
1769667432487589000,3.888589111328125,0.04197993874549866,0.26875075697898865,-0.2659246325492859
1769667432497578200,3.898578125,0.03232411667704582,0.2892368733882904,-0.17918892204761505
1769667432507566300,3.90856640625,0.06186576560139656,0.23476457595825195,-0.14461231231689453
1769667432517555200,3.91855517578125,0.1030435636639595,0.16113002598285675,-0.1131230890750885
1769667432527543000,3.92854296875,0.13681058585643768,0.16451305150985718,-0.08669628202915192
1769667432537532200,3.9385322265625,0.1566133052110672,0.18335197865962982,-0.07786523550748825
1769667432547521000,3.94852099609375,0.14144980907440186,0.21886976063251495,-0.06471002101898193
1769667432557509000,3.958509033203125,0.1300797015428543,0.21303504705429077,-0.055336758494377136
1769667432567498200,3.968498291015625,0.10989481210708618,0.20342129468917847,-0.03573030233383179
1769667432577486300,3.978486328125,0.0866861566901207,0.18332402408123016,-0.02353568561375141
1769667432587475000,3.988474853515625,0.07324705272912979,0.2183925211429596,-0.0060323262587189674
1769667432597463000,3.998463134765625,0.06168520078063011,0.3085029721260071,-0.00803475733846426
1769667432607452200,4.0084521484375,0.060198090970516205,0.4000837504863739,-0.021643243730068207
1769667432617441300,4.018441162109375,0.051958806812763214,0.4444211423397064,0.0004420847399160266
1769667432627429000,4.02842919921875,0.052566539496183395,0.45787835121154785,0.051894888281822205
1769667432637418200,4.038418212890625,0.07946047186851501,0.46451812982559204,0.08492394536733627
1769667432647406000,4.048406005859375,0.11277688294649124,0.48208221793174744,0.10804151743650436
1769667432657395200,4.058395263671875,0.11868510395288467,0.5682277679443359,0.13764521479606628
1769667432667383300,4.06838330078125,0.1574612557888031,0.5754646062850952,0.1447231024503708
1769667432677372200,4.0783720703125,0.13486860692501068,0.25133609771728516,0.22800733149051666
1769667432687361300,4.088361328125,0.10216711461544037,0.06970584392547607,0.26384976506233215
1769667432697349000,4.09834912109375,0.05474633723497391,0.2865827679634094,0.22876793146133423
1769667432707338000,4.108337890625,0.07513949275016785,0.4029839336872101,0.162733256816864
1769667432717326000,4.118326171875,0.08997489511966705,0.39073100686073303,0.1137731671333313
1769667432727315200,4.128315185546875,0.12364843487739563,0.34920114278793335,0.11386717855930328
1769667432737303300,4.13830322265625,0.10202649980783463,0.3426415026187897,0.10975951701402664
1769667432747292200,4.148292236328125,0.03152916207909584,0.26470860838890076,0.10076629370450974
1769667432757280000,4.158280029296875,-0.027711788192391396,0.17392759025096893,0.08559958636760712
1769667432767269000,4.16826904296875,-0.036386504769325256,0.080843985080719,0.056705623865127563
1769667432777258200,4.17825830078125,-0.011505122296512127,-0.004897287115454674,-0.00893996562808752
1769667432787246300,4.188246337890625,0.020902352407574654,0.02876986190676689,-0.060256682336330414
1769667432797235200,4.198235107421875,0.019144665449857712,-0.04019802063703537,-0.08025994896888733
1769667432807223000,4.20822314453125,0.013396232388913631,-0.31953033804893494,-0.03557104244828224
1769667432817212200,4.218212158203125,-0.08237823098897934,-0.6807436347007751,-0.019842680543661118
1769667432827200300,4.2282001953125,-0.20308732986450195,-0.7969847917556763,-0.0454883873462677
1769667432837189000,4.238189208984375,-0.3796498477458954,-0.9754354953765869,-0.2842349112033844
1769667432847178200,4.24817822265625,-0.5337507128715515,-1.4944525957107544,-0.6972118616104126
1769667432857166300,4.258166259765625,-0.5995614528656006,-2.172917127609253,-1.1193982362747192
1769667432867155200,4.2681552734375,-0.639212965965271,-2.183513879776001,-1.146176815032959
1769667432877143000,4.27814306640625,-0.5262555480003357,-0.04645857959985733,-0.280112087726593
1769667432887132200,4.288132080078125,-0.44512128829956055,1.254138469696045,-0.29782742261886597
1769667432897120300,4.298120361328125,-0.430559903383255,-0.5820059180259705,-0.5940260887145996
1769667432907109400,4.308109375,-0.6543980836868286,-1.2026878595352173,-0.2715763747692108
1769667432917098200,4.31809814453125,-0.8372512459754944,-1.2544598579406738,-0.6413781642913818
1769667432927086000,4.328086181640625,-0.8707423210144043,-1.3550784587860107,-0.7260581254959106
1769667432937075200,4.3380751953125,-0.9440085887908936,-1.1203529834747314,-0.5343264937400818
1769667432947063300,4.348063232421875,-0.9340835213661194,-0.39638328552246094,-0.3861330449581146
1769667432957052700,4.358052734375,-0.9314877390861511,-0.01019830908626318,-0.09386657178401947
1769667432967040500,4.36804052734375,-0.9734370112419128,-0.149789497256279,0.11544164270162582
1769667432977029600,4.378029541015625,-1.0194370746612549,-0.4097329378128052,0.1864023655653
1769667432987017700,4.388017822265625,-1.0944901704788208,-0.5010902881622314,0.21260733902454376
1769667432997006600,4.398006591796875,-1.137398600578308,-0.5150092840194702,0.2198234349489212
1769667433006995700,4.40799560546875,-1.0672961473464966,-0.53123939037323,0.20663759112358093
1769667433016983800,4.41798388671875,-1.032906174659729,-0.4790019989013672,0.15523725748062134
1769667433026972400,4.427972412109375,-0.9912892580032349,-0.4265558421611786,0.15577122569084167
1769667433036960500,4.43796044921875,-0.9276801943778992,-0.3532470166683197,0.13620683550834656
1769667433046949600,4.44794970703125,-0.9402931928634644,-0.3239375948905945,0.12333951145410538
1769667433056937700,4.457937744140625,-0.9661543369293213,-0.3339824974536896,0.08535697311162949
1769667433066926600,4.467926513671875,-0.9418737888336182,-0.4028686285018921,0.04066327214241028
1769667433076915700,4.477915771484375,-0.9280200004577637,-0.4103427827358246,0.02201981469988823
1769667433086903600,4.487903564453125,-0.8927802443504333,-0.3876481354236603,-0.0314284972846508
1769667433096892700,4.497892578125,-0.9467108845710754,-0.3910897374153137,-0.0451512336730957
1769667433106880800,4.507880859375,-1.0396977663040161,-0.521313488483429,0.027100859209895134
1769667433116869600,4.51786962890625,-1.0987592935562134,-0.7880114912986755,0.10984660685062408
1769667433126857500,4.527857421875,-1.1330373287200928,-0.9895113706588745,0.10055270791053772
1769667433136846600,4.5378466796875,-1.103571891784668,-1.0215177536010742,0.05926039442420006
1769667433146835500,4.54783544921875,-1.0283924341201782,-0.9856915473937988,0.09017516672611237
1769667433156823600,4.557823486328125,-0.9836968779563904,-1.0094480514526367,0.12207504361867905
1769667433166812700,4.567812744140625,-0.9537842273712158,-1.0276355743408203,0.06316085904836655
1769667433176800800,4.57780078125,-0.8925549983978271,-0.9708689451217651,-0.050285808742046356
1769667433186789600,4.58778955078125,-0.8308950662612915,-0.900863528251648,-0.06943953037261963
1769667433196777500,4.597777587890625,-0.7438459396362305,-0.795287549495697,-0.03171239048242569
1769667433206766600,4.6077666015625,-0.6636677384376526,-0.6077509522438049,-0.024273380637168884
1769667433216754700,4.617754638671875,-0.6768511533737183,-0.43310853838920593,-0.012378372251987457
1769667433226743800,4.627743896484375,-0.7039765119552612,-0.3681151866912842,-0.032402414828538895
1769667433236732700,4.637732666015625,-0.7306337356567383,-0.3315611481666565,-0.07546652853488922
1769667433246720500,4.647720458984375,-0.7721899151802063,-0.35987588763237,-0.19654075801372528
1769667433256709600,4.657709716796875,-0.7740802764892578,-0.5199414491653442,-0.3421757221221924
1769667433266697700,4.66769775390625,-0.7361882925033569,-0.7965056896209717,-0.3724638521671295
1769667433276686600,4.6776865234375,-0.7115446925163269,-1.0441786050796509,-0.4851326048374176
1769667433286674700,4.6876748046875,-0.7596414089202881,-1.1584899425506592,-0.5163978338241577
1769667433296663600,4.69766357421875,-0.806957483291626,-1.0597753524780273,-0.408180832862854
1769667433306652700,4.707652587890625,-0.8604636192321777,-0.9084985256195068,-0.4613657593727112
1769667433316640500,4.717640625,-0.8586438894271851,-0.8424286842346191,-0.5181835293769836
1769667433326629600,4.727629638671875,-0.8601163625717163,-0.9549214243888855,-0.5345190763473511
1769667433336617700,4.73761767578125,-0.825172483921051,-0.9542223215103149,-0.6435794830322266
1769667433346606800,4.74760693359375,-0.8223745226860046,-0.9003119468688965,-0.6611465215682983
1769667433356594700,4.7575947265625,-0.7627556920051575,-0.6283276081085205,-0.9231743812561035
1769667433366583600,4.76758349609375,-0.6350011825561523,-0.45418402552604675,-1.084591269493103
1769667433376572700,4.77757275390625,-0.56113201379776,-0.2886704206466675,-1.133301019668579
1769667433386560800,4.787560791015625,-0.5116547346115112,-0.1523919403553009,-1.1204911470413208
1769667433396549600,4.797549560546875,-0.39243143796920776,0.17317098379135132,-1.1199777126312256
1769667433406537500,4.807537353515625,-0.25026577711105347,0.539307177066803,-1.1316418647766113
1769667433416526600,4.817526611328125,-0.14530153572559357,0.7683483362197876,-1.0120126008987427
1769667433426514700,4.8275146484375,-0.05499374493956566,0.7399300336837769,-0.8770452737808228
1769667433436503600,4.837503662109375,-0.011840680614113808,0.47834473848342896,-0.9081259369850159
1769667433446492700,4.84749267578125,-0.022368954494595528,0.15179485082626343,-0.9821833968162537
1769667433456480800,4.857480712890625,0.07495865970849991,0.2246943563222885,-0.9902871251106262
1769667433466469600,4.8674697265625,0.14351269602775574,0.3246350586414337,-0.8388358354568481
1769667433476457500,4.87745751953125,0.1804398149251938,0.20341090857982635,-0.5895975232124329
1769667433486446600,4.887446533203125,0.19583235681056976,0.026728549972176552,-0.39814549684524536
1769667433496434700,4.8974345703125,0.1797948032617569,-0.03038400411605835,-0.27597618103027344
1769667433506423800,4.907423828125,0.16745930910110474,-0.1667058914899826,-0.2392706423997879
1769667433516412700,4.91741259765625,0.16528616845607758,-0.2479671984910965,-0.27232927083969116
1769667433526400500,4.927400390625,0.17862513661384583,-0.25911945104599,-0.27503183484077454
1769667433536389600,4.9373896484375,0.1537991464138031,-0.35239851474761963,-0.26780959963798523
1769667433546377700,4.947377685546875,0.11527466028928757,-0.35565024614334106,-0.2301567643880844
1769667433556366600,4.95736669921875,0.0656123012304306,-0.42325031757354736,-0.1772695928812027
1769667433566354700,4.967354736328125,0.0339483805000782,-0.5158247351646423,-0.15969379246234894
1769667433576343600,4.977343505859375,0.0051862397231161594,-0.5900979042053223,-0.1275734007358551
1769667433586332700,4.987332763671875,-0.014768825843930244,-0.6325260400772095,-0.11394627392292023
1769667433596320500,4.997320556640625,-0.05205654352903366,-0.6358566284179688,-0.07472909986972809
1769667433606309600,5.0073095703125,-0.09400319308042526,-0.6819013357162476,-0.06289960443973541
1769667433616297700,5.017297607421875,-0.09681496024131775,-0.7264592051506042,-0.051843490451574326
1769667433626286800,5.027286865234375,-0.09351796656847,-0.7362625598907471,-0.08010708540678024
1769667433636274700,5.037274658203125,-0.1539357751607895,-0.7522218227386475,-0.05109407752752304
1769667433646263600,5.047263671875,-0.15499091148376465,-0.7627807259559631,-0.04599039629101753
1769667433656252700,5.057252685546875,-0.18257993459701538,-0.8059399127960205,-0.017005881294608116
1769667433666240800,5.06724072265625,-0.15902294218540192,-0.7840687036514282,0.008058193139731884
1769667433676229600,5.077229736328125,-0.16953442990779877,-0.7246149778366089,-0.014220747165381908
1769667433686217500,5.087217529296875,-0.15901973843574524,-0.692477285861969,-0.03984568268060684
1769667433696206600,5.09720654296875,-0.1017809584736824,-0.6470975279808044,-0.04320712387561798
1769667433706194700,5.107194580078125,-0.08345414698123932,-0.5421021580696106,-0.06640352308750153
1769667433716183600,5.11718359375,-0.10822181403636932,-0.48563167452812195,-0.05638284981250763
1769667433726172700,5.127172607421875,-0.1168254166841507,-0.5050016641616821,-0.0587402768433094
1769667433736160800,5.137160888671875,-0.14484480023384094,-0.5255125164985657,-0.05338146537542343
1769667433746149600,5.147149658203125,-0.18668226897716522,-0.6033023595809937,-0.08744782209396362
1769667433756137700,5.1571376953125,-0.17482614517211914,-0.7174800634384155,-0.09630896151065826
1769667433766126600,5.167126708984375,-0.1806371510028839,-0.7061616778373718,-0.11903025209903717
1769667433776114700,5.17711474609375,-0.17314088344573975,-0.7564024329185486,-0.1570785641670227
1769667433786103800,5.187103759765625,-0.1569850891828537,-0.7742344737052917,-0.12929753959178925
1769667433796092700,5.1970927734375,-0.1857064813375473,-0.7723004817962646,-0.09157519042491913
1769667433806080500,5.20708056640625,-0.22487838566303253,-0.7981890439987183,-0.06011739745736122
1769667433816069600,5.217069580078125,-0.23751269280910492,-0.8963236212730408,-0.039562854915857315
1769667433826057700,5.2270576171875,-0.2861854135990143,-0.9277164340019226,-0.04645751416683197
1769667433836046600,5.237046630859375,-0.3096736967563629,-0.9353519678115845,-0.03513854742050171
1769667433846034400,5.247034423828125,-0.3249722421169281,-0.968487024307251,-0.013405287638306618
1769667433856023600,5.2570234375,-0.31047531962394714,-1.0286928415298462,-0.0031401331070810556
1769667433866012700,5.2670126953125,-0.36932504177093506,-1.0486862659454346,-0.025534121319651604
1769667433876000800,5.277000732421875,-0.3919171690940857,-1.041946291923523,-0.03888428211212158
1769667433885989600,5.28698974609375,-0.44298648834228516,-1.0531190633773804,-0.051060255616903305
1769667433895977700,5.296977783203125,-0.4820646345615387,-1.054201364517212,-0.03768452629446983
1769667433905966600,5.306966552734375,-0.5072424411773682,-1.0892502069473267,-0.027164243161678314
1769667433915954700,5.31695458984375,-0.5447567701339722,-1.0807301998138428,-0.019151857122778893
1769667433925943600,5.326943603515625,-0.5475627183914185,-1.098791480064392,-0.02009035460650921
1769667433935932700,5.3369326171875,-0.56082683801651,-1.0469043254852295,-0.020142551511526108
1769667433945920800,5.346920654296875,-0.5608079433441162,-1.0714675188064575,-0.017197363078594208
1769667433955909400,5.356909423828125,-0.5823172330856323,-1.063535213470459,-0.004029628820717335
1769667433965897200,5.366897216796875,-0.5635395050048828,-1.0612313747406006,0.03184821084141731
1769667433975886300,5.37688623046875,-0.5242698788642883,-0.9883584380149841,0.04463111609220505
1769667433985874400,5.38687451171875,-0.4623253047466278,-0.8603014349937439,0.07287580519914627
1769667433995863600,5.396863525390625,-0.4055328667163849,-0.8392480611801147,0.08374816179275513
1769667434005852400,5.406852294921875,-0.3941177427768707,-0.6978211998939514,0.07678772509098053
1769667434015840500,5.416840576171875,-0.39501577615737915,-0.6975458264350891,0.11060906946659088
1769667434025829400,5.426829345703125,-0.38749152421951294,-0.5527795553207397,0.1062563955783844
1769667434035817500,5.4368173828125,-0.4042105972766876,-0.5258927941322327,0.1345604807138443
1769667434045806300,5.446806396484375,-0.3750700056552887,-0.5003997087478638,0.14729464054107666
1769667434055794400,5.45679443359375,-0.3581877052783966,-0.3352144658565521,0.13411866128444672
1769667434065783600,5.466783447265625,-0.3490682542324066,-0.3120279312133789,0.1301894336938858
1769667434075772400,5.4767724609375,-0.32068106532096863,-0.21463826298713684,0.13250504434108734
1769667434085760300,5.48676025390625,-0.2804116904735565,-0.2084227204322815,0.13678981363773346
1769667434095749400,5.496749267578125,-0.2602851092815399,-0.12399464845657349,0.15206409990787506
1769667434105737500,5.506737548828125,-0.2726443111896515,-0.07112611085176468,0.156457781791687
1769667434115726600,5.5167265625,-0.21473360061645508,-0.09605835378170013,0.19297611713409424
1769667434125714400,5.52671435546875,-0.21151357889175415,-0.07651794701814651,0.166358083486557
1769667434135703300,5.536703369140625,-0.1770714521408081,-0.06673615425825119,0.1690577268600464
1769667434145692400,5.5466923828125,-0.17721232771873474,-0.09691296517848969,0.17691458761692047
1769667434155680500,5.556680419921875,-0.11141786724328995,-0.050152916461229324,0.17273741960525513
1769667434165669400,5.56666943359375,-0.09196320921182632,-0.10686839371919632,0.16605767607688904
1769667434175657500,5.576657470703125,-0.07510087639093399,-0.060258012264966965,0.18938058614730835
1769667434185646600,5.586646484375,-0.020666129887104034,-0.04932493716478348,0.18741783499717712
1769667434195634400,5.596634521484375,-0.0026823359075933695,-0.06174805387854576,0.1939319223165512
1769667434205623300,5.606623291015625,0.012476909905672073,-0.04892999306321144,0.196861132979393
1769667434215612400,5.6166123046875,0.05895918980240822,-0.051425375044345856,0.1738700568675995
1769667434225600500,5.6266005859375,0.08183121681213379,-0.047264982014894485,0.15046566724777222
1769667434235589600,5.636589599609375,0.07658931612968445,-0.03854765743017197,0.1392471045255661
1769667434245577200,5.6465771484375,0.029033515602350235,-0.010905911214649677,0.1381075382232666
1769667434255566300,5.65656640625,0.06238241866230965,0.001823466387577355,0.12708337604999542
1769667434265554400,5.666554443359375,-0.014417022466659546,0.02719992958009243,0.11772796511650085
1769667434275543600,5.67654345703125,0.03923076018691063,0.06855935603380203,0.15922880172729492
1769667434285532400,5.686532470703125,0.08009989559650421,0.12179461121559143,0.16709338128566742
1769667434295520500,5.6965205078125,0.06415314972400665,0.17880117893218994,0.17306391894817352
1769667434305509400,5.70650927734375,0.040235038846731186,0.2542261481285095,0.19364216923713684
1769667434315497500,5.71649755859375,-0.017895109951496124,0.3047625720500946,0.2173195332288742
1769667434325486300,5.726486328125,-0.07678612321615219,0.3707892596721649,0.1904812604188919
1769667434335474400,5.736474365234375,-0.013165337033569813,0.4026947319507599,0.1932123303413391
1769667434345463600,5.746463623046875,-0.02695412002503872,0.47037577629089355,0.1951252818107605
1769667434355452400,5.756452392578125,-0.059538695961236954,0.5169464349746704,0.19530877470970154
1769667434365440300,5.766440185546875,-0.110394686460495,0.5894696712493896,0.17006467282772064
1769667434375429400,5.776429443359375,-0.1300320327281952,0.6045804619789124,0.16175055503845215
1769667434385417500,5.78641748046875,-0.07634377479553223,0.5549710988998413,0.18565800786018372
1769667434395406600,5.796406494140625,-0.028661206364631653,0.537735104560852,0.20376324653625488
1769667434405394400,5.80639453125,-0.04903598502278328,0.5332953333854675,0.17620939016342163
1769667434415383300,5.81638330078125,-0.03057149052619934,0.5428369045257568,0.18210908770561218
1769667434425372400,5.826372314453125,0.01671852543950081,0.4764682650566101,0.1885310262441635
1769667434435360500,5.836360595703125,0.01489612553268671,0.4737606346607208,0.1797226220369339
1769667434445349400,5.846349365234375,0.01884612627327442,0.45332834124565125,0.1506883054971695
1769667434455337500,5.85633740234375,-0.0012354403734207153,0.42810341715812683,0.14474201202392578
1769667434465326300,5.866326416015625,0.010832940228283405,0.3990453779697418,0.1437837928533554
1769667434475314400,5.876314453125,0.0019853864796459675,0.3723285496234894,0.14242345094680786
1769667434485303300,5.88630322265625,-0.013703827746212482,0.3573639988899231,0.1772938221693039
1769667434495292400,5.89629248046875,-0.008769789710640907,0.35331758856773376,0.1783178150653839
1769667434505280500,5.906280517578125,-0.0033366745337843895,0.4126211106777191,0.19351354241371155
1769667434515269600,5.91626953125,-0.014444719068706036,0.4931865334510803,0.18810252845287323
1769667434525257500,5.926257568359375,0.006086388137191534,0.5046871304512024,0.18847057223320007
1769667434535246300,5.936246337890625,0.02034015953540802,0.5554406046867371,0.2180308699607849
1769667434545234400,5.946234375,0.0613965168595314,0.6000908613204956,0.2642950415611267
1769667434555223600,5.9562236328125,0.10789584368467331,0.5985579490661621,0.2928164303302765
1769667434565212400,5.96621240234375,0.11923930794000626,0.6057645082473755,0.285981148481369
1769667434575200300,5.9762001953125,0.15587188303470612,0.5752100348472595,0.3206470012664795
1769667434585189400,5.986189453125,0.20655770599842072,0.6072092652320862,0.35271623730659485
1769667434595177500,5.996177490234375,0.24073857069015503,0.6650887727737427,0.37515124678611755
1769667434605166300,6.006166259765625,0.303425669670105,0.6752186417579651,0.39962756633758545
1769667434615154400,6.016154541015625,0.36995676159858704,0.7014361619949341,0.36516520380973816
1769667434625143600,6.0261435546875,0.41837063431739807,0.7377083897590637,0.36599797010421753
1769667434635132400,6.03613232421875,0.412698894739151,0.7343299388885498,0.35886600613594055
1769667434645120300,6.046120361328125,0.5141559839248657,0.7270248532295227,0.33250606060028076
1769667434655109400,6.056109375,0.5690234899520874,0.5815334320068359,0.33047032356262207
1769667434665097500,6.066097412109375,0.6556228399276733,0.4859504699707031,0.34699738025665283
1769667434675086600,6.076086669921875,0.6768173575401306,0.4613740146160126,0.3412662446498871
1769667434685075500,6.086075439453125,0.6875930428504944,0.368470698595047,0.33566829562187195
1769667434695063300,6.096063232421875,0.677094578742981,0.29478317499160767,0.28617796301841736
1769667434705052400,6.106052490234375,0.7296243906021118,0.38794559240341187,0.2682229280471802
1769667434715040500,6.11604052734375,0.7343530654907227,0.43708863854408264,0.24604839086532593
1769667434725029400,6.126029296875,0.7596555352210999,0.38891446590423584,0.22884996235370636
1769667434735017500,6.136017578125,0.8114191293716431,0.43751901388168335,0.21380576491355896
1769667434745006300,6.14600634765625,0.8397804498672485,0.544842004776001,0.23233550786972046
1769667434754995500,6.155995361328125,0.8124590516090393,0.628080427646637,0.23768259584903717
1769667434764983300,6.1659833984375,0.8345579504966736,0.6404188871383667,0.2749018669128418
1769667434774972400,6.175972412109375,0.8439525365829468,0.6397152543067932,0.35093140602111816
1769667434784960500,6.18596044921875,0.7734940648078918,0.715714693069458,0.42020606994628906
1769667434794949600,6.19594970703125,0.7086421251296997,0.8210107684135437,0.2970074415206909
1769667434804937500,6.2059375,0.6655092835426331,0.7003415822982788,0.1733773797750473
1769667434814926300,6.21592626953125,0.5649147629737854,0.9669671654701233,0.003579821204766631
1769667434824915500,6.22591552734375,0.47453296184539795,1.1428018808364868,-0.053048837929964066
1769667434834903600,6.235903564453125,0.4940113127231598,1.3420549631118774,-0.17905683815479279
1769667434844892400,6.245892333984375,0.4430954158306122,1.516849160194397,-0.24487446248531342
1769667434854880300,6.25588037109375,0.3404238820075989,1.467899203300476,-0.32700634002685547
1769667434864869400,6.265869384765625,0.30724623799324036,1.5011961460113525,-0.37008723616600037
1769667434874857500,6.275857421875,0.31627461314201355,1.424573540687561,-0.3465560972690582
1769667434884846300,6.285846435546875,0.299472451210022,1.3484058380126953,-0.39153048396110535
1769667434894835500,6.29583544921875,0.24719753861427307,1.1943068504333496,-0.36891865730285645
1769667434904823600,6.305823486328125,0.24015986919403076,1.0900728702545166,-0.4130064845085144
1769667434914812400,6.3158125,0.17211344838142395,1.1275328397750854,-0.43509286642074585
1769667434924800500,6.325800537109375,0.21880212426185608,1.2168017625808716,-0.4165530204772949
1769667434934789400,6.335789306640625,0.1726125180721283,1.1104137897491455,-0.44925156235694885
1769667434944777500,6.345777587890625,0.17713403701782227,0.9328315258026123,-0.43318578600883484
1769667434954766600,6.3557666015625,0.12649695575237274,0.8112657070159912,-0.4329647421836853
1769667434964755500,6.36575537109375,0.10220679640769958,0.7057424783706665,-0.4602813124656677
1769667434974743300,6.375743408203125,0.17358297109603882,0.6085245609283447,-0.4689192771911621
1769667434984732400,6.385732421875,0.2488955706357956,0.5736789703369141,-0.4880003035068512
1769667434994720500,6.395720458984375,0.32452481985092163,0.508601725101471,-0.4905835688114166
1769667435004709400,6.40570947265625,0.3688933551311493,0.4377152919769287,-0.4724559485912323
1769667435014697200,6.415697265625,0.3891181945800781,0.3980056941509247,-0.4678651988506317
1769667435024686300,6.425686279296875,0.42319226264953613,0.38897252082824707,-0.46832379698753357
1769667435034675500,6.435675537109375,0.49212661385536194,0.40345266461372375,-0.5164346098899841
1769667435044663600,6.44566357421875,0.4912640154361725,0.40647268295288086,-0.5571298599243164
1769667435054652400,6.45565234375,0.6460365653038025,0.40445905923843384,-0.568828284740448
1769667435064640500,6.465640625,0.7351019382476807,0.4673019349575043,-0.6139163970947266
1769667435074629600,6.475629638671875,0.8557053208351135,0.43053460121154785,-0.5794404745101929
1769667435084617500,6.485617431640625,0.9963303804397583,0.41696232557296753,-0.5660812258720398
1769667435094606300,6.4956064453125,1.0660088062286377,0.4690617620944977,-0.5318183302879333
1769667435104595500,6.505595458984375,1.122088074684143,0.4867672622203827,-0.4584868848323822
1769667435114583600,6.51558349609375,1.2403736114501953,0.4701768159866333,-0.4020073711872101
1769667435124572400,6.525572509765625,1.330477237701416,0.5101417899131775,-0.287367582321167
1769667435134560300,6.535560302734375,1.281865119934082,0.5188788771629333,-0.19418944418430328
1769667435144549400,6.54554931640625,1.2514071464538574,0.573829174041748,-0.1884327530860901
1769667435154537500,6.555537353515625,1.170976161956787,0.6544782519340515,-0.18437543511390686
1769667435164526300,6.5655263671875,1.039083480834961,0.9172022342681885,-0.19165171682834625
1769667435174515500,6.575515380859375,0.9008275270462036,1.2130703926086426,-0.11397717148065567
1769667435184503300,6.58550341796875,0.7923495173454285,1.032440185546875,-0.03471989557147026
1769667435194492400,6.595492431640625,0.6829831004142761,0.7143058776855469,0.0835963562130928
1769667435204480500,6.60548046875,0.5294502973556519,0.6254169940948486,0.2301517128944397
1769667435214469400,6.615469482421875,0.3016221523284912,0.5880643129348755,0.3172045946121216
1769667435224458500,6.62545849609375,0.19460010528564453,0.6059786081314087,0.37768977880477905
1769667435234446600,6.635446533203125,0.1435057669878006,0.5848738551139832,0.42275285720825195
1769667435244435200,6.645435302734375,0.05494127795100212,0.4717198610305786,0.3993207514286041
1769667435254423300,6.65542333984375,0.06771646440029144,0.46181291341781616,0.38254791498184204
1769667435264412400,6.665412353515625,0.04988633468747139,0.4711877703666687,0.31518563628196716
1769667435274400500,6.675400390625,0.015247396193444729,0.413557231426239,0.32129308581352234
1769667435284389400,6.685389404296875,0.005812349263578653,0.372501403093338,0.2609255909919739
1769667435294378500,6.69537841796875,-0.010068879462778568,0.3716510534286499,0.20058396458625793
1769667435304366300,6.705366455078125,-0.03688132017850876,0.3595145046710968,0.20586101710796356
1769667435314355500,6.71535546875,-0.04398077353835106,0.32639408111572266,0.20979717373847961
1769667435324343600,6.725343505859375,-0.047264449298381805,0.2774779498577118,0.1881699115037918
1769667435334332400,6.73533251953125,-0.0842088833451271,0.2975209057331085,0.1950741559267044
1769667435344320500,6.745320556640625,-0.08927875012159348,0.3486480116844177,0.21344517171382904
1769667435354309400,6.755309326171875,-0.07303798943758011,0.3849990665912628,0.2082512080669403
1769667435364298200,6.76529833984375,-0.11490767449140549,0.4107145667076111,0.20202846825122833
1769667435374286300,6.775286376953125,-0.09990262985229492,0.3320216238498688,0.18364280462265015
1769667435384275500,6.785275390625,-0.1251339465379715,0.23337893187999725,0.16542784869670868
1769667435394263600,6.795263671875,-0.17166896164417267,0.1667032241821289,0.17459124326705933
1769667435404252400,6.80525244140625,-0.21803539991378784,0.13588885962963104,0.16177211701869965
1769667435414240300,6.815240234375,-0.26241856813430786,0.11094170063734055,0.19143041968345642
1769667435424229400,6.8252294921875,-0.31344980001449585,0.05110259726643562,0.2430478036403656
1769667435434218500,6.835218505859375,-0.3793550431728363,-0.024215590208768845,0.2782718241214752
1769667435444206600,6.84520654296875,-0.40822264552116394,-0.040175650268793106,0.33139631152153015
1769667435454195500,6.855195556640625,-0.4477628767490387,-0.01918993890285492,0.32936805486679077
1769667435464183300,6.865183349609375,-0.4401366412639618,-0.03858441114425659,0.3704363703727722
1769667435474172400,6.87517236328125,-0.44954025745391846,-0.07110826671123505,0.45046305656433105
1769667435484160500,6.885160400390625,-0.4516550600528717,-0.08482460677623749,0.5151746869087219
1769667435494149400,6.8951494140625,-0.4274623990058899,-0.14005696773529053,0.5659065246582031
1769667435504138500,6.905138427734375,-0.39637744426727295,-0.1391640156507492,0.6091251373291016
1769667435514126600,6.915126708984375,-0.347177654504776,-0.16583211719989777,0.6476794481277466
1769667435524115200,6.925115234375,-0.3301970958709717,-0.15254665911197662,0.648993968963623
1769667435534103300,6.935103271484375,-0.3106271028518677,-0.1267254501581192,0.6454613208770752
1769667435544092400,6.945092529296875,-0.2621229588985443,-0.06639952957630157,0.5744840502738953
1769667435554080500,6.95508056640625,-0.22798150777816772,0.058767709881067276,0.5349869728088379
1769667435564069600,6.965069580078125,-0.17825601994991302,0.2735615074634552,0.5311791896820068
1769667435574058500,6.97505859375,-0.17456968128681183,0.4326278567314148,0.5306388139724731
1769667435584046300,6.98504638671875,-0.1190347746014595,0.4420218765735626,0.5458369851112366
1769667435594035500,6.995035400390625,-0.07869108021259308,0.41348719596862793,0.5678732991218567
1769667435604023600,7.0050234375,-0.10872488468885422,0.4600245952606201,0.6544737219810486
1769667435614012400,7.015012451171875,-0.1399991810321808,0.5489632487297058,0.7283721566200256
1769667435624001500,7.02500146484375,-0.17867733538150787,0.5164095759391785,0.7569393515586853
1769667435633989400,7.0349892578125,-0.19404537975788116,0.3987726867198944,0.7559598684310913
1769667435643978200,7.044978271484375,-0.2321634590625763,0.3118748068809509,0.7601183652877808
1769667435653966300,7.05496630859375,-0.27963218092918396,0.27434980869293213,0.777884304523468
1769667435663955500,7.06495556640625,-0.28246045112609863,0.2038913518190384,0.7386338710784912
1769667435673943600,7.074943603515625,-0.23070883750915527,0.19949926435947418,0.6682441234588623
1769667435683932400,7.084932373046875,-0.2033318132162094,0.2791917026042938,0.6170168519020081
1769667435693920300,7.094920166015625,-0.24383583664894104,0.3896404504776001,0.5856980681419373
1769667435703909400,7.104909423828125,-0.2921524941921234,0.5760087370872498,0.55970698595047
1769667435713898500,7.1148984375,-0.36894848942756653,0.7637919187545776,0.5366125702857971
1769667435723886600,7.124886474609375,-0.45961660146713257,0.8390682935714722,0.5152652263641357
1769667435733875500,7.13487548828125,-0.499933660030365,0.8467254042625427,0.5354823470115662
1769667435743863300,7.14486328125,-0.5093508362770081,0.7752571105957031,0.5743623375892639
1769667435753852400,7.154852294921875,-0.5715910792350769,0.6771225333213806,0.5935424566268921
1769667435763841300,7.16484130859375,-0.6502789258956909,0.6379655599594116,0.5866520404815674
1769667435773829400,7.174829345703125,-0.7364383339881897,0.5854586958885193,0.5847548246383667
1769667435783818500,7.184818603515625,-0.8163086771965027,0.6045532822608948,0.5897336006164551
1769667435793806300,7.194806396484375,-0.8601080775260925,0.6455992460250854,0.5913567543029785
1769667435803795500,7.20479541015625,-0.8950386047363281,0.6122617721557617,0.6079440116882324
1769667435813783300,7.214783203125,-0.9315236806869507,0.5226959586143494,0.6156261563301086
1769667435823772400,7.2247724609375,-0.9476025104522705,0.40186062455177307,0.5810796618461609
1769667435833761500,7.234761474609375,-0.9562279582023621,0.1719352751970291,0.5240235328674316
1769667435843749600,7.24474951171875,-0.9192129373550415,-0.11872931569814682,0.3976594805717468
1769667435853738500,7.254738525390625,-0.8487992286682129,-0.379823237657547,0.2663528621196747
1769667435863726300,7.264726318359375,-0.8060810565948486,-0.5555513501167297,0.16474740207195282
1769667435873715500,7.274715576171875,-0.7138755321502686,-0.729842483997345,0.08779909461736679
1769667435883703600,7.28470361328125,-0.6598639488220215,-0.8085671067237854,0.0962333232164383
1769667435893692400,7.2946923828125,-0.6667215824127197,-0.8237380981445312,0.18432989716529846
1769667435903681500,7.304681640625,-0.7699616551399231,-0.8598843812942505,0.32278019189834595
1769667435913669400,7.31466943359375,-0.8652778267860413,-0.8269352316856384,0.43430083990097046
1769667435923658500,7.324658447265625,-0.9324102401733398,-0.7999017238616943,0.4926522970199585
1769667435933646300,7.334646240234375,-0.9310616254806519,-0.801721453666687,0.4454789459705353
1769667435943635500,7.344635498046875,-0.8950343728065491,-0.8133850693702698,0.4502241611480713
1769667435953623600,7.35462353515625,-0.7976071238517761,-0.8540664315223694,0.4123294949531555
1769667435963612400,7.3646123046875,-0.7032321691513062,-0.8419152498245239,0.37920698523521423
1769667435973601300,7.374601318359375,-0.6356278657913208,-0.8341017961502075,0.3275613486766815
1769667435983589400,7.38458935546875,-0.6223626136779785,-0.8665289878845215,0.29530835151672363
1769667435993578500,7.39457861328125,-0.634504497051239,-0.8976019024848938,0.29464495182037354
1769667436003566600,7.404566650390625,-0.6935198903083801,-0.9250708222389221,0.283965140581131
1769667436013555200,7.41455517578125,-0.7908837199211121,-0.9481175541877747,0.24473784863948822
1769667436023544300,7.42454443359375,-0.8309422135353088,-0.9230606555938721,0.20975536108016968
1769667436033532400,7.434532470703125,-0.8733317255973816,-1.0413987636566162,0.15432485938072205
1769667436043521300,7.444521240234375,-0.8322144150733948,-1.0676631927490234,0.034083932638168335
1769667436053509400,7.45450927734375,-0.751209557056427,-1.0365196466445923,-0.046542733907699585
1769667436063498500,7.46449853515625,-0.7652095556259155,-1.1239088773727417,-0.03900918364524841
1769667436073486300,7.474486328125,-0.7879260182380676,-1.1679314374923706,-0.01034478284418583
1769667436083475500,7.484475341796875,-0.8201396465301514,-1.1098252534866333,-0.04151575267314911
1769667436093464300,7.49446435546875,-0.8571231961250305,-1.1240299940109253,-0.20675717294216156
1769667436103452400,7.504452392578125,-0.7792321443557739,-1.0481802225112915,-0.36326953768730164
1769667436113441500,7.514441650390625,-0.5995105504989624,-0.9398886561393738,-0.436685174703598
1769667436123429400,7.524429443359375,-0.4865070581436157,-1.0006545782089233,-0.3970080614089966
1769667436133418200,7.534418212890625,-0.4691368639469147,-1.168123722076416,-0.36862117052078247
1769667436143407400,7.544407470703125,-0.48842987418174744,-1.3498623371124268,-0.48310089111328125
1769667436153395500,7.5543955078125,-0.4145266115665436,-1.5620198249816895,-0.7132435441017151
1769667436163384300,7.56438427734375,-0.3190666735172272,-1.6651691198349,-0.7342409491539001
1769667436173372200,7.5743720703125,-0.2962779998779297,-1.6984511613845825,-0.7073800563812256
1769667436183361300,7.584361328125,-0.24611710011959076,-1.6403133869171143,-0.7951767444610596
1769667436193349400,7.594349365234375,-0.21112209558486938,-1.6392470598220825,-0.9498190879821777
1769667436203338500,7.60433837890625,-0.1403864026069641,-1.68061101436615,-0.9632240533828735
1769667436213327400,7.614327392578125,-0.12683597207069397,-1.7324286699295044,-0.9169955849647522
1769667436223315500,7.6243154296875,-0.1677653044462204,-1.7029048204421997,-0.9676228165626526
1769667436233304600,7.6343046875,-0.15662476420402527,-1.647066354751587,-1.1271944046020508
1769667436243292400,7.64429248046875,-0.1098756343126297,-1.5834848880767822,-1.2449414730072021
1769667436253281300,7.65428125,-0.10954619944095612,-1.6053001880645752,-1.2802015542984009
1769667436263269400,7.664269287109375,0.004455734975636005,-1.5989432334899902,-1.187342882156372
1769667436273258500,7.674258544921875,0.05211513116955757,-1.248972773551941,-1.186216950416565
1769667436283247400,7.684247314453125,0.10612137615680695,-0.6715461611747742,-1.3045310974121094
1769667436293235200,7.694235107421875,0.21429604291915894,-0.34165799617767334,-1.3297637701034546
1769667436303224300,7.704224365234375,0.3122020959854126,-0.11278673261404037,-1.2393230199813843
1769667436313212400,7.71421240234375,0.3332650363445282,0.014890532940626144,-1.2270176410675049
1769667436323201500,7.724201416015625,0.3546944260597229,0.3209575116634369,-1.3435136079788208
1769667436333190400,7.7341904296875,0.35914379358291626,0.6800469756126404,-1.3405617475509644
1769667436343178200,7.74417822265625,0.3159981667995453,0.7899276614189148,-1.1522456407546997
1769667436353167400,7.75416748046875,0.26000335812568665,0.755616307258606,-1.0296531915664673
1769667436363155500,7.764155517578125,0.17871062457561493,0.963477611541748,-0.9271007180213928
1769667436373144300,7.774144287109375,0.15098072588443756,1.4644986391067505,-0.7405886054039001
1769667436383132400,7.78413232421875,0.0912896990776062,1.1828898191452026,-0.5864695906639099
1769667436393121500,7.79412158203125,0.017729993909597397,1.034626841545105,-0.49757543206214905
1769667436403110400,7.8041103515625,0.025229722261428833,1.149301528930664,-0.3145632743835449
1769667436413098200,7.81409814453125,0.02279559336602688,0.9057232141494751,-0.16774027049541473
1769667436423087400,7.82408740234375,0.07259351015090942,0.5325738787651062,-0.09689512103796005
1769667436433075500,7.834075439453125,0.11482032388448715,0.2222628891468048,-0.2169211208820343
1769667436443064600,7.844064697265625,0.1316554993391037,0.19767552614212036,-0.34504419565200806
1769667436453052200,7.85405224609375,0.12405537068843842,0.1400734782218933,-0.426229864358902
1769667436463041300,7.864041259765625,0.08677457273006439,0.06295446306467056,-0.4118908941745758
1769667436473030400,7.874030517578125,0.07602765411138535,-0.34071364998817444,-0.3874009847640991
1769667436483018500,7.8840185546875,0.053521547466516495,-0.456895112991333,-0.3526882827281952
1769667436493007400,7.89400732421875,0.038062162697315216,-0.5902187824249268,-0.3402577042579651
1769667436502995500,7.903995361328125,0.023746341466903687,-0.7041032910346985,-0.39912155270576477
1769667436512984300,7.913984375,0.004388622939586639,-0.7618342638015747,-0.4100804626941681
1769667436522973200,7.92397314453125,-0.02297988347709179,-0.7493314743041992,-0.3487180471420288
1769667436532961300,7.933961181640625,-0.06898625940084457,-0.7367523312568665,-0.29256874322891235
1769667436542950400,7.943950439453125,-0.128849059343338,-0.7064388990402222,-0.2405574768781662
1769667436552938500,7.9539384765625,-0.16646088659763336,-0.6670190691947937,-0.18318499624729156
1769667436562927400,7.96392724609375,-0.193558007478714,-0.6006882190704346,-0.11018030345439911
1769667436572916200,7.973916259765625,-0.2232123166322708,-0.5534400343894958,-0.08085224032402039
1769667436582904300,7.983904296875,-0.2561313807964325,-0.4895782172679901,-0.05031776428222656
1769667436592893400,7.9938935546875,-0.24844549596309662,-0.4442634582519531,-0.02959783934056759
1769667436602881500,8.003881591796874,-0.23297733068466187,-0.42625731229782104,-0.014029532670974731
1769667436612870400,8.013870361328125,-0.2079651802778244,-0.384199857711792,0.03328844904899597
1769667436622858200,8.023858154296875,-0.16022749245166779,-0.37391313910484314,0.038004107773303986
1769667436632847400,8.033847412109376,-0.14993835985660553,-0.34361568093299866,0.018863169476389885
1769667436642836200,8.043836181640625,-0.14988456666469574,-0.332194447517395,0.009710151702165604
1769667436652824300,8.05382421875,-0.14731834828853607,-0.253741979598999,0.032049279659986496
1769667436662813400,8.0638134765625,-0.15078231692314148,-0.25807496905326843,0.023676300421357155
1769667436672801500,8.073801513671874,-0.13379135727882385,-0.23182524740695953,0.024989506229758263
1769667436682790400,8.083790283203125,-0.12610307335853577,-0.24611124396324158,0.06436993181705475
1769667436692778200,8.0937783203125,-0.11159390211105347,-0.2053835093975067,0.05670082941651344
1769667436702767400,8.103767333984376,-0.0933627039194107,-0.1850588023662567,0.03816709294915199
1769667436712756500,8.113756591796875,-0.08150418102741241,-0.196526899933815,0.05564914643764496
1769667436722744600,8.12374462890625,-0.06979772448539734,-0.16672959923744202,0.0787198469042778
1769667436732733400,8.1337333984375,-0.08242643624544144,-0.13070714473724365,0.09519149363040924
1769667436742721300,8.14372119140625,-0.0629800334572792,-0.13882872462272644,0.12794145941734314
1769667436752710400,8.15371044921875,-0.054492268711328506,-0.1323886662721634,0.16224536299705505
1769667436762699300,8.16369921875,-0.027400732040405273,-0.14575853943824768,0.18865033984184265
1769667436772687400,8.173687255859376,-0.012241752818226814,-0.13932406902313232,0.20205029845237732
1769667436782676500,8.183676513671875,-0.013489710167050362,-0.12281220406293869,0.22050467133522034
1769667436792664300,8.193664306640626,0.005375057924538851,-0.14006869494915009,0.22874715924263
1769667436802653400,8.2036533203125,0.03669010475277901,-0.15533632040023804,0.2491464465856552
1769667436812641300,8.213641357421874,0.0534999780356884,-0.1591755449771881,0.2806907892227173
1769667436822630400,8.22363037109375,0.05760524049401283,-0.17335154116153717,0.2842564880847931
1769667436832619500,8.23361962890625,0.10056895017623901,-0.19585366547107697,0.2624981999397278
1769667436842607600,8.243607666015626,0.15147660672664642,-0.13040007650852203,0.22394254803657532
1769667436852596200,8.25359619140625,0.19171404838562012,-0.14390604197978973,0.1742759346961975
1769667436862584300,8.263584228515626,0.14421789348125458,-0.15722903609275818,0.06680219620466232
1769667436872573400,8.273573486328125,0.112430140376091,-0.1616104692220688,0.003239735495299101
1769667436882562300,8.283562255859374,0.0688680112361908,-0.2370317280292511,-0.037753503769636154
1769667436892550400,8.29355029296875,0.09599550813436508,-0.2678777873516083,-0.06005827710032463
1769667436902539500,8.30353955078125,0.12069205939769745,-0.1974712610244751,-0.02641136758029461
1769667436912527400,8.31352734375,0.12008592486381531,-0.1841791570186615,-0.008898952975869179
1769667436922516200,8.32351611328125,0.16793866455554962,-0.20290277898311615,-0.010542122647166252
1769667436932504300,8.33350439453125,0.14517369866371155,-0.1493721753358841,-0.03298564627766609
1769667436942493400,8.343493408203125,0.15736272931098938,-0.19839563965797424,-0.0038365498185157776
1769667436952482600,8.353482666015625,0.19804304838180542,-0.2270406037569046,0.05127836763858795
1769667436962469600,8.3634697265625,0.23767833411693573,-0.315528929233551,0.10577010363340378
1769667436972458500,8.37345849609375,0.24100063741207123,-0.4216790795326233,0.18068508803844452
1769667436982446600,8.383446533203125,0.2659680247306824,-0.4822137951850891,0.2494788020849228
1769667436992435700,8.393435791015625,0.3208848237991333,-0.4421404004096985,0.32337620854377747
1769667437002424800,8.4034248046875,0.3833601772785187,-0.2897399365901947,0.3148285150527954
1769667437012412700,8.41341259765625,0.4073494076728821,-0.4064396619796753,0.1684798300266266
1769667437022401500,8.423401611328124,0.45218345522880554,-0.6857722401618958,-0.01576617918908596
1769667437032389600,8.4333896484375,0.4932778775691986,-0.547601044178009,-0.007640875410288572
1769667437042378800,8.443378662109374,0.4849794805049896,-0.32600632309913635,0.09643146395683289
1769667437052366800,8.453366943359375,0.4276410937309265,-0.45623624324798584,0.1085621640086174
1769667437062355700,8.463355712890625,0.39468899369239807,-0.6496397852897644,0.11755938827991486
1769667437072344800,8.4733447265625,0.41276785731315613,-0.6414154171943665,0.1780775934457779
1769667437082332700,8.483332763671875,0.32718053460121155,-0.5536254048347473,0.11549490690231323
1769667437092321500,8.493321533203124,0.2860879600048065,-0.7684615254402161,0.008219313807785511
1769667437102309600,8.5033095703125,0.3343113958835602,-0.8726332187652588,0.11542006582021713
1769667437112298800,8.513298828125,0.2170950323343277,-0.7852168083190918,0.18422363698482513
1769667437122287900,8.523287841796876,0.0006793724023737013,-1.157067894935608,0.10686440020799637
1769667437132275500,8.533275390625,-0.12242764234542847,-1.4161585569381714,0.19569386541843414
1769667437142264600,8.5432646484375,-0.1478017121553421,-1.4162424802780151,0.24001125991344452
1769667437152252700,8.553252685546875,-0.20110833644866943,-1.2874042987823486,0.26695260405540466
1769667437162241800,8.56324169921875,-0.2930944561958313,-1.1899664402008057,0.22764301300048828
1769667437172230000,8.57322998046875,-0.302009642124176,-0.9756365418434143,0.21639062464237213
1769667437182218800,8.58321875,-0.26255491375923157,-0.9754354953765869,0.22159869968891144
1769667437192207600,8.59320751953125,-0.24026213586330414,-0.8704821467399597,0.2321019470691681
1769667437202195700,8.60319580078125,-0.26490384340286255,-0.5109929442405701,0.3763837516307831
1769667437212184600,8.6131845703125,-0.20424367487430573,-0.33914345502853394,0.3725075125694275
1769667437222172700,8.623172607421875,-0.11365971714258194,-0.5030311942100525,0.46778690814971924
1769667437232161800,8.633161865234374,-0.027362382039427757,-0.5959169268608093,0.3581424355506897
1769667437242149600,8.643149658203125,0.05294444039463997,-0.46867212653160095,0.24724148213863373
1769667437252138500,8.653138427734374,0.045463886111974716,-0.38742494583129883,0.19275720417499542
1769667437262127600,8.663127685546876,0.05131511762738228,-0.4015599489212036,0.16758233308792114
1769667437272115700,8.67311572265625,0.011330419220030308,-0.3232225179672241,0.1604682356119156
1769667437282104800,8.683104736328126,0.02081313729286194,-0.41890856623649597,0.23209209740161896
1769667437292092700,8.6930927734375,0.03898468241095543,-0.45926904678344727,0.2667613923549652
1769667437302081500,8.70308154296875,0.014119547791779041,-0.35673788189888,0.2831275761127472
1769667437312070700,8.713070556640625,0.1048065721988678,-0.37205612659454346,0.3546387851238251
1769667437322058800,8.723058837890624,0.14825071394443512,-0.3760758936405182,0.37136930227279663
1769667437332047600,8.733047607421875,0.16154921054840088,-0.31776705384254456,0.36678677797317505
1769667437342035700,8.74303564453125,0.18733340501785278,-0.3250105679035187,0.36303386092185974
1769667437352024800,8.75302490234375,0.20434461534023285,-0.2755522131919861,0.362832248210907
1769667437362013700,8.763013671875,0.1919260323047638,-0.18795178830623627,0.3785795271396637
1769667437372001500,8.77300146484375,0.18865832686424255,-0.16626860201358795,0.40412724018096924
1769667437381990700,8.78299072265625,0.23395496606826782,-0.1581329107284546,0.44890695810317993
1769667437391978800,8.792978759765624,0.24649766087532043,-0.07611820101737976,0.5119162797927856
1769667437401967900,8.8029677734375,0.2760579586029053,-0.06626583635807037,0.5963786840438843
1769667437411955700,8.812955810546875,0.3340940773487091,0.049903109669685364,0.6158080697059631
1769667437421944600,8.822944580078126,0.33249273896217346,0.0938391461968422,0.6331734657287598
1769667437431933700,8.83293359375,0.33013424277305603,0.0505707673728466,0.6615893840789795
1769667437441921800,8.842921875,0.3402252197265625,0.07341749221086502,0.6533820629119873
1769667437451910700,8.85291064453125,0.31958678364753723,0.03188017010688782,0.6075679659843445
1769667437461898500,8.8628984375,0.3079967200756073,-0.06460349261760712,0.5245708227157593
1769667437471887600,8.8728876953125,0.2650063633918762,-0.16504675149917603,0.46007493138313293
1769667437481876700,8.882876708984375,0.20081272721290588,-0.2178865224123001,0.45025503635406494
1769667437491864600,8.892864501953126,0.19493725895881653,-0.31538352370262146,0.42435741424560547
1769667437501853700,8.902853759765625,0.18360045552253723,-0.4189402759075165,0.38075241446495056
1769667437511841800,8.912841796875,0.201213538646698,-0.45170512795448303,0.32024991512298584
1769667437521831000,8.922830810546875,0.20911434292793274,-0.554855465888977,0.28037306666374207
1769667437531818800,8.93281884765625,0.2275567203760147,-0.5910608768463135,0.23001162707805634
1769667437541807600,8.9428076171875,0.23999927937984467,-0.5597512125968933,0.223367840051651
1769667437551796700,8.952796630859375,0.27601319551467896,-0.4775673747062683,0.20427857339382172
1769667437561784800,8.962784912109376,0.32421189546585083,-0.48918354511260986,0.22099603712558746
1769667437571773700,8.972773681640625,0.37084224820137024,-0.3933941721916199,0.2218993753194809
1769667437581761500,8.982761474609376,0.4014454185962677,-0.3008391857147217,0.20779740810394287
1769667437591750700,8.992750732421875,0.4738365411758423,-0.27845558524131775,0.2030218243598938
1769667437601739500,9.002739501953124,0.48115649819374084,-0.1728340983390808,0.1818760633468628
1769667437611727600,9.0127275390625,0.5619259476661682,-0.2478625327348709,0.19686219096183777
1769667437621716700,9.022716796875,0.5676277279853821,-0.3804839551448822,0.2012803852558136
1769667437631704600,9.03270458984375,0.6159793138504028,-0.31557074189186096,0.2034790813922882
1769667437641693700,9.042693603515625,0.662738561630249,0.12338265776634216,0.09289371967315674
1769667437651681500,9.052681640625,0.7014886140823364,-0.07206806540489197,0.10854565352201462
1769667437661670700,9.062670654296875,0.6853194832801819,-0.12078899890184402,0.1500302404165268
1769667437671659800,9.07265966796875,0.6833623647689819,-0.15132799744606018,0.2401345670223236
1769667437681647900,9.08264794921875,0.6596399545669556,-0.20240743458271027,0.2626529335975647
1769667437691636500,9.092636474609375,0.7626638412475586,-0.11651329696178436,0.23082736134529114
1769667437701624600,9.10262451171875,0.7891258001327515,-0.009855293668806553,0.2093079537153244
1769667437711613700,9.11261376953125,0.7623471617698669,0.1018131822347641,0.2339315414428711
1769667437721602600,9.1226025390625,0.7499099373817444,0.2147756814956665,0.2561550736427307
1769667437731590700,9.132590576171875,0.7448430061340332,0.21693497896194458,0.27561745047569275
1769667437741579800,9.142579833984374,0.7605921626091003,0.12789803743362427,0.33412283658981323
1769667437751567600,9.152567626953125,0.7354220747947693,0.12543781101703644,0.4272131025791168
1769667437761556700,9.162556640625,0.7270941138267517,0.38871604204177856,0.3647039234638214
1769667437771544600,9.172544677734376,0.7216846942901611,0.5365707874298096,0.3189891576766968
1769667437781533700,9.18253369140625,0.6657590866088867,0.6484972834587097,0.34790605306625366
1769667437791522800,9.192522705078124,0.6505582928657532,0.7608323693275452,0.309400737285614
1769667437801510700,9.2025107421875,0.6693993806838989,0.7799887657165527,0.2518940269947052
1769667437811499500,9.21249951171875,0.6593158841133118,0.9512014985084534,0.23669962584972382
1769667437821487600,9.222487548828125,0.6318658590316772,1.0371252298355103,0.2264786809682846
1769667437831476700,9.232476806640625,0.5762662291526794,1.0058900117874146,0.23340342938899994
1769667437841465600,9.242465576171876,0.5052775740623474,1.0791338682174683,0.24267283082008362
1769667437851453700,9.25245361328125,0.46959757804870605,1.1501010656356812,0.2280997484922409
1769667437861442600,9.262442626953124,0.47865527868270874,1.266150712966919,0.13564305007457733
1769667437871430700,9.2724306640625,0.466797798871994,1.2983967065811157,0.06030594930052757
1769667437881419800,9.282419677734374,0.400222510099411,1.3087027072906494,0.014315555803477764
1769667437891407600,9.29240771484375,0.370000958442688,1.3777930736541748,-0.08534499257802963
1769667437901396700,9.302396728515625,0.34760403633117676,1.3558342456817627,-0.136285662651062
1769667437911385900,9.3123857421875,0.31801578402519226,1.337733507156372,-0.15084463357925415
1769667437921373700,9.322373779296875,0.2903364896774292,1.4295179843902588,-0.16394925117492676
1769667437931362600,9.332362548828126,0.2913263738155365,1.5612976551055908,-0.19168101251125336
1769667437941350700,9.3423505859375,0.299763560295105,1.6081026792526245,-0.17978201806545258
1769667437951339800,9.35233984375,0.3129501938819885,1.6228121519088745,-0.1672651618719101
1769667437961329400,9.362329345703126,0.3227229118347168,1.5817149877548218,-0.17659474909305573
1769667437971317500,9.3723173828125,0.32227179408073425,1.501426339149475,-0.24088186025619507
1769667437981306400,9.382306396484376,0.31866639852523804,1.3515957593917847,-0.22580063343048096
1769667437991294500,9.39229443359375,0.35443609952926636,1.180166244506836,-0.14405997097492218
1769667438001283300,9.402283447265624,0.320949524641037,1.0836730003356934,-0.15048697590827942
1769667438011271400,9.412271484375,0.36252760887145996,0.8828256726264954,-0.14850984513759613
1769667438021260500,9.422260498046874,0.3778873682022095,0.8400278687477112,-0.12941737473011017
1769667438031249400,9.43224951171875,0.38613012433052063,0.8440297842025757,-0.13699060678482056
1769667438041237200,9.4422373046875,0.44737404584884644,0.8913539052009583,-0.16180408000946045
1769667438051226400,9.452226318359376,0.48212695121765137,1.0148979425430298,-0.1944216787815094
1769667438061214500,9.46221435546875,0.48503726720809937,1.0995092391967773,-0.21295860409736633
1769667438071203600,9.47220361328125,0.4781404733657837,1.1702773571014404,-0.2544701099395752
1769667438081192400,9.4821923828125,0.48150697350502014,1.2262202501296997,-0.2608286738395691
1769667438091180300,9.49218017578125,0.511967658996582,1.13759183883667,-0.26010268926620483
1769667438101169400,9.50216943359375,0.5428563356399536,1.0627479553222656,-0.279440701007843
1769667438111157500,9.512157470703125,0.6221131086349487,1.0194284915924072,-0.29919523000717163
1769667438121146400,9.522146484375,0.693904459476471,1.05387544631958,-0.2597127854824066
1769667438131135500,9.532135498046875,0.7131385803222656,1.180977463722229,-0.2889721393585205
1769667438141123600,9.54212353515625,0.6830155849456787,1.4102505445480347,-0.3047926723957062
1769667438151112200,9.5521123046875,0.7247979044914246,1.4780064821243286,-0.27206161618232727
1769667438161100300,9.562100341796874,0.7473085522651672,1.5150883197784424,-0.27360305190086365
1769667438171089400,9.57208935546875,0.7636678218841553,1.4393632411956787,-0.09687647968530655
1769667438181077500,9.582077392578125,0.7794049978256226,1.2322536706924438,0.09502504765987396
1769667438191066600,9.592066650390626,0.7965543866157532,1.071908712387085,0.0479600690305233
1769667438201055500,9.602055419921875,0.736642062664032,0.9856982231140137,0.058162104338407516
1769667438211043300,9.612043212890624,0.6599446535110474,0.9684318900108337,0.09893669933080673
1769667438221032400,9.622032470703125,0.5651994943618774,1.0308218002319336,0.13099929690361023
1769667438231020500,9.6320205078125,0.4292711913585663,1.0239732265472412,0.15553100407123566
1769667438241009400,9.642009521484376,0.3217311501502991,0.9129617214202881,0.15678535401821136
1769667438250998500,9.65199853515625,0.34353604912757874,0.8569144010543823,0.15568174421787262
1769667438260986400,9.661986328125,0.433884859085083,0.824962317943573,0.13045787811279297
1769667438270975200,9.671975341796875,0.48833373188972473,0.8467315435409546,0.06593800336122513
1769667438280963300,9.68196337890625,0.4937830865383148,0.9171412587165833,0.01110484916716814
1769667438290952400,9.691952392578125,0.4344204366207123,0.9798709750175476,-0.052934855222702026
1769667438300940500,9.7019404296875,0.3544057607650757,0.8901988863945007,-0.15579386055469513
1769667438310929700,9.7119296875,0.24914830923080444,0.5633879899978638,-0.17161063849925995
1769667438320918300,9.721918212890625,0.1703845113515854,0.3435427248477936,-0.08234627544879913
1769667438330906400,9.73190625,0.13196149468421936,0.32378047704696655,-0.009816678240895271
1769667438340895500,9.7418955078125,0.029856432229280472,0.3443283438682556,0.061104632914066315
1769667438350883600,9.751883544921874,-0.0062067629769444466,0.34131020307540894,0.13609018921852112
1769667438360872400,9.76187255859375,-0.05854586884379387,0.3158474266529083,0.18676722049713135
1769667438370860300,9.7718603515625,-0.14957058429718018,0.2752390205860138,0.17805123329162598
1769667438380849400,9.781849365234375,-0.2500476539134979,0.07163503766059875,0.1308179348707199
1769667438390838300,9.79183837890625,-0.3359311521053314,-0.11095953732728958,0.09135840833187103
1769667438400826400,9.801826416015626,-0.3429837226867676,-0.17205192148685455,0.060500629246234894
1769667438410815500,9.8118154296875,-0.33908191323280334,-0.07333653420209885,0.061584535986185074
1769667438420803600,9.821803466796876,-0.34211793541908264,-0.16123096644878387,0.08447493612766266
1769667438430792400,9.83179248046875,-0.31111153960227966,-0.31289559602737427,0.10034018754959106
1769667438440781300,9.84178125,-0.27674025297164917,-0.1852140575647354,0.09965042769908905
1769667438450769400,9.851769287109375,-0.3027697205543518,-0.04687030240893364,0.07000678032636642
1769667438460758500,9.861758544921875,-0.25096192955970764,-0.04285958409309387,0.0798783227801323
1769667438470746600,9.87174658203125,-0.27930888533592224,-0.04505402594804764,0.06777345389127731
1769667438480735500,9.881735595703125,-0.2783815562725067,-0.12669935822486877,0.05539694428443909
1769667438490723300,9.891723388671876,-0.2763884365558624,-0.1813732534646988,0.047082025557756424
1769667438500712400,9.90171240234375,-0.2701060473918915,-0.25673139095306396,0.0622793547809124
1769667438510701300,9.911701416015624,-0.2739037275314331,-0.3349905014038086,0.11645098030567169
1769667438520689400,9.921689453125,-0.277542382478714,-0.39359816908836365,0.17059490084648132
1769667438530678500,9.931678466796875,-0.27367308735847473,-0.3960842192173004,0.20443569123744965
1769667438540666400,9.941666259765626,-0.26797738671302795,-0.3657066226005554,0.25978922843933105
1769667438550655500,9.951655517578125,-0.2757711410522461,-0.38945960998535156,0.301897257566452
1769667438560644400,9.961644287109374,-0.26072293519973755,-0.3987170159816742,0.32444679737091064
1769667438570632400,9.971632568359375,-0.2575196921825409,-0.32250213623046875,0.31647568941116333
1769667438580621600,9.98162158203125,-0.2361491471529007,-0.22502964735031128,0.34166306257247925
1769667438590609400,9.991609375,-0.24621163308620453,-0.21398019790649414,0.4001980125904083
1769667438600598300,10.001598388671875,-0.31648126244544983,-0.39775723218917847,0.4127180576324463
1769667438610587400,10.01158740234375,-0.3833836019039154,-0.685528039932251,0.3538565933704376
1769667438620575500,10.021575439453125,-0.45002707839012146,-0.8673867583274841,0.29920586943626404
1769667438630564400,10.031564453125,-0.5844706296920776,-1.0959278345108032,0.23757366836071014
1769667438640552400,10.041552490234375,-0.7081459760665894,-1.3710688352584839,0.16870006918907166
1769667438650541600,10.05154150390625,-0.6526443958282471,-1.5915963649749756,0.12879367172718048
1769667438660529400,10.061529296875,-0.4498494565486908,-1.7261449098587036,0.09736143797636032
1769667438670518300,10.071518310546875,-0.26693183183670044,-1.4885847568511963,0.1276884526014328
1769667438680507400,10.08150732421875,-0.053526606410741806,-1.016616702079773,0.17539338767528534
1769667438690495500,10.09149560546875,0.15610012412071228,-0.5577849745750427,0.15925809741020203
1769667438700484600,10.101484619140624,0.25434306263923645,-0.20717182755470276,0.15836088359355927
1769667438710472400,10.111472412109375,0.23918461799621582,0.010026535019278526,0.17292970418930054
1769667438720461300,10.12146142578125,0.2334553599357605,-0.04134291410446167,0.18092317879199982
1769667438730449400,10.131449462890625,0.2020188719034195,-0.2194782942533493,0.2002635896205902
1769667438740438500,10.1414384765625,0.1571190506219864,-0.32219773530960083,0.2141226828098297
1769667438750427400,10.151427490234376,0.1251768320798874,-0.2656362056732178,0.2612238824367523
1769667438760415200,10.161415283203125,0.08477640897035599,-0.18418608605861664,0.3236004412174225
1769667438770404400,10.171404296875,0.0650746077299118,-0.10955046117305756,0.38804253935813904
1769667438780392400,10.181392333984375,0.04984558746218681,0.010401241481304169,0.3715381324291229
1769667438790381300,10.19138134765625,0.059240687638521194,0.037576936185359955,0.2810199558734894
1769667438800370400,10.201370361328125,0.03837721794843674,0.08200671523809433,0.2014300525188446
1769667438810358500,10.211358642578125,-0.011418303474783897,0.20102497935295105,0.14301174879074097
1769667438820347400,10.221347412109376,-0.038421157747507095,0.35677143931388855,0.09586048126220703
1769667438830335500,10.23133544921875,-0.057143714278936386,0.4436053931713104,0.022707710042595863
1769667438840324400,10.241324462890624,-0.0603320486843586,0.4728085696697235,-0.05787608399987221
1769667438850312400,10.2513125,-0.09319093078374863,0.400893896818161,-0.16879035532474518
1769667438860301600,10.261301513671874,-0.18037083745002747,0.35071808099746704,-0.281870573759079
1769667438870290400,10.27129052734375,-0.3300822973251343,0.34564873576164246,-0.3454434275627136
1769667438880278300,10.2812783203125,-0.460747629404068,0.2584216892719269,-0.32386302947998047
1769667438890267400,10.291267333984376,-0.5373851656913757,0.05814719200134277,-0.2914283871650696
1769667438900255500,10.30125537109375,-0.591083824634552,-0.2801898419857025,-0.29349926114082336
1769667438910244400,10.311244384765626,-0.5725356936454773,-0.6019015908241272,-0.27120140194892883
1769667438920233500,10.3212333984375,-0.5503020286560059,-0.7730687856674194,-0.25632205605506897
1769667438930221300,10.33122119140625,-0.5768364071846008,-0.9067954421043396,-0.22441180050373077
1769667438940210400,10.34121044921875,-0.6163257956504822,-1.0088043212890625,-0.21245181560516357
1769667438950198500,10.351198486328125,-0.6478525400161743,-1.1167014837265015,-0.20175015926361084
1769667438960187400,10.3611875,-0.6398540139198303,-1.2286086082458496,-0.20236055552959442
1769667438970176500,10.371176513671875,-0.5531454682350159,-1.1642647981643677,-0.16810111701488495
1769667438980164400,10.381164306640626,-0.43462201952934265,-0.9572468996047974,-0.20253899693489075
1769667438990153200,10.3911533203125,-0.35614773631095886,-0.808744490146637,-0.28313156962394714
1769667439000141300,10.401141357421874,-0.3394736647605896,-0.790287971496582,-0.3607584536075592
1769667439010130400,10.41113037109375,-0.4054897129535675,-0.9113976359367371,-0.36831411719322205
1769667439020118500,10.421118408203125,-0.4787077307701111,-1.083923578262329,-0.33421099185943604
1769667439030107400,10.431107421875,-0.5746872425079346,-1.2605417966842651,-0.3229125440120697
1769667439040096300,10.44109619140625,-0.668493926525116,-1.3891907930374146,-0.27597886323928833
1769667439050084400,10.45108447265625,-0.7427657246589661,-1.3545902967453003,-0.2166108638048172
1769667439060073500,10.461073486328125,-0.7602714896202087,-1.2550537586212158,-0.14069852232933044
1769667439070061600,10.4710615234375,-0.7106882333755493,-1.3281192779541016,-0.10484838485717773
1769667439080050400,10.481050537109375,-0.6526994705200195,-1.3054940700531006,-0.1694801151752472
1769667439090039600,10.49103955078125,-0.5208269357681274,-0.9677062034606934,-0.1830742210149765
1769667439100027400,10.50102734375,-0.2454337328672409,-0.06668448448181152,-0.17654041945934296
1769667439110016300,10.511016357421875,-0.329319030046463,0.34793373942375183,-0.31668126583099365
1769667439120004400,10.52100439453125,-0.3592281937599182,0.3857932388782501,-0.2191035896539688
1769667439129993500,10.530993408203125,-0.3962661027908325,0.21101875603199005,-0.15115995705127716
1769667439139981300,10.540981201171874,-0.4422208368778229,-0.09519495815038681,-0.14574415981769562
1769667439149970200,10.55097021484375,-0.5321565866470337,-0.37232083082199097,-0.11201894283294678
1769667439159959300,10.560959228515625,-0.5559894442558289,-0.31404048204421997,0.015790946781635284
1769667439169947400,10.570947509765626,-0.7788789868354797,-0.1722138375043869,0.10661140084266663
1769667439179936500,10.5809365234375,-0.96668541431427,-0.16216307878494263,0.2582549750804901
1769667439189924400,10.59092431640625,-0.9817016124725342,-0.21260175108909607,0.36725470423698425
1769667439199913500,10.60091357421875,-0.9114415645599365,-0.3291046619415283,0.3865354657173157
1769667439209902300,10.61090234375,-0.6273307800292969,-0.36622220277786255,0.38573703169822693
1769667439219890400,10.620890380859375,-0.18388967216014862,-0.37342017889022827,0.20996707677841187
1769667439229879300,10.63087939453125,0.036969736218452454,-0.33103039860725403,0.02004561387002468
1769667439239867400,10.640867431640626,0.11423149704933167,-0.24373862147331238,-0.0695098340511322
1769667439249856500,10.6508564453125,0.07609450072050095,-0.1832159012556076,-0.1096535250544548
1769667439259844400,10.66084423828125,-0.031446073204278946,-0.20438723266124725,-0.08852533996105194
1769667439269833200,10.670833251953125,-0.13377350568771362,-0.29695072770118713,-0.06172754615545273
1769667439279822300,10.680822265625,-0.20481732487678528,-0.3958754241466522,-0.04957074671983719
1769667439289810400,10.690810546875,-0.2798660099506378,-0.5181052088737488,-0.06259813159704208
1769667439299799600,10.700799560546875,-0.3592812120914459,-0.6369159817695618,-0.08250046521425247
1769667439309787400,10.710787353515625,-0.43098148703575134,-0.709221601486206,-0.08913306891918182
1769667439319776300,10.7207763671875,-0.48949459195137024,-0.7236163020133972,-0.11182959377765656
1769667439329765400,10.730765380859374,-0.5233785510063171,-0.7307418584823608,-0.1336994767189026
1769667439339753500,10.74075341796875,-0.5551683902740479,-0.7803160548210144,-0.14880013465881348
1769667439349742300,10.750742431640624,-0.57957923412323,-0.8355944752693176,-0.15118232369422913
1769667439359730400,10.76073046875,-0.5581588745117188,-0.8568435907363892,-0.13737010955810547
1769667439369719600,10.770719482421875,-0.5428869724273682,-0.8090217113494873,-0.1408330202102661
1769667439379708400,10.78070849609375,-0.4859187602996826,-0.7055124044418335,-0.10651659220457077
1769667439389696300,10.7906962890625,-0.411808580160141,-0.5859923958778381,-0.14272865653038025
1769667439399685400,10.800685302734376,-0.34733426570892334,-0.39184126257896423,-0.23193202912807465
1769667439409673500,10.810673583984375,-0.2929171025753021,-0.26512834429740906,-0.3334176540374756
1769667439419662600,10.82066259765625,-0.2719513475894928,-0.18657547235488892,-0.38390451669692993
1769667439429650400,10.830650390625,-0.2915021479129791,-0.14820490777492523,-0.39298591017723083
1769667439439639300,10.840639404296875,-0.35563239455223083,-0.1603020578622818,-0.35899490118026733
1769667439449628400,10.85062841796875,-0.39176058769226074,-0.08418518304824829,-0.2596723139286041
1769667439459616500,10.860616455078125,-0.42541494965553284,-0.001320927869528532,-0.21030503511428833
1769667439469605400,10.87060546875,-0.401081383228302,-0.0020471718162298203,-0.20999957621097565
1769667439479593200,10.88059326171875,-0.3652813136577606,0.09636994451284409,-0.2437138557434082
1769667439489582300,10.890582275390624,-0.32772061228752136,0.1929556131362915,-0.23291634023189545
1769667439499571200,10.9005712890625,-0.2895713746547699,0.24313488602638245,-0.21308164298534393
1769667439509559300,10.910559326171875,-0.28778785467147827,0.21673762798309326,-0.1488611102104187
1769667439519548400,10.92054833984375,-0.3206547200679779,0.1406702995300293,-0.08704355359077454
1769667439529536500,10.93053662109375,-0.3840520679950714,0.07515759766101837,-0.03900332376360893
1769667439539525400,10.940525390625,-0.4388332962989807,-0.004867459647357464,-0.04315679147839546
1769667439549513200,10.95051318359375,-0.43552884459495544,-0.13257375359535217,-0.13866867125034332
1769667439559502300,10.96050244140625,-0.408521443605423,-0.28448551893234253,-0.347924143075943
1769667439569491500,10.970491455078125,-0.3207945227622986,-0.3828245997428894,-0.5337994694709778
1769667439579479600,10.9804794921875,-0.23711560666561127,-0.19190232455730438,-0.7120823860168457
1769667439589468400,10.990468505859376,-0.22858764231204987,-0.02966761402785778,-0.7170694470405579
1769667439599456300,11.000456298828125,-0.2541433274745941,-0.02455008402466774,-0.5872818827629089
1769667439609445400,11.0104453125,-0.209340438246727,0.0035244273021817207,-0.5586518049240112
1769667439619434200,11.020434326171875,-0.12075997143983841,0.19889365136623383,-0.6426183581352234
1769667439629422300,11.03042236328125,-0.014401310123503208,0.37869617342948914,-0.6658214330673218
1769667439639411500,11.040411376953125,-0.013831127434968948,0.5648167729377747,-0.657136082649231
1769667439649399300,11.0503994140625,-0.02382996492087841,0.7747042179107666,-0.65242600440979
1769667439659388400,11.060388427734376,-0.047865793108940125,1.0993292331695557,-0.5923610329627991
1769667439669376300,11.070376220703125,-0.068720743060112,1.2633250951766968,-0.5364232063293457
1769667439679365400,11.080365478515626,-0.048599228262901306,1.358897089958191,-0.5454665422439575
1769667439689354500,11.0903544921875,-0.030901988968253136,1.3408493995666504,-0.4894210994243622
1769667439699342600,11.100342529296874,-0.0001816275907913223,1.136899471282959,-0.3639577031135559
1769667439709331200,11.110331298828125,-0.053826481103897095,0.8460372686386108,-0.25771409273147583
1769667439719319300,11.1203193359375,-0.1868513822555542,0.5752856731414795,-0.14121171832084656
1769667439729308400,11.130308349609376,-0.23027367889881134,0.3156956434249878,-0.02401585318148136
1769667439739297300,11.14029736328125,-0.23983202874660492,0.13336364924907684,0.010747186839580536
1769667439749285400,11.150285400390626,-0.21071596443653107,0.05266161262989044,-0.0010391654213890433
1769667439759274500,11.1602744140625,-0.21810756623744965,0.03295368701219559,-0.05553729459643364
1769667439769262300,11.170262451171874,-0.25432389974594116,0.07972971349954605,-0.057017214596271515
1769667439779251500,11.18025146484375,-0.275413453578949,0.168487548828125,-0.05311381816864014
1769667439789239300,11.1902392578125,-0.26836222410202026,0.20196108520030975,-0.05961352959275246
1769667439799228400,11.200228515625,-0.2735729515552521,0.1484997272491455,-0.05209356173872948
1769667439809217500,11.210217529296875,-0.29223746061325073,0.13736344873905182,-0.045514222234487534
1769667439819205400,11.220205322265626,-0.312097430229187,0.07852383702993393,-0.017520403489470482
1769667439829194200,11.2301943359375,-0.35055482387542725,-0.0010764497565105557,-0.0059630838222801685
1769667439839182300,11.240182373046874,-0.3745379149913788,-0.022895995527505875,0.015935823321342468
1769667439849171500,11.25017138671875,-0.42103272676467896,-0.04746551811695099,0.033251963555812836
1769667439859160300,11.260160400390625,-0.4386806786060333,-0.08059124648571014,0.039635028690099716
1769667439869148400,11.2701484375,-0.4293755888938904,-0.12360822409391403,0.026392990723252296
1769667439879137300,11.28013720703125,-0.42524608969688416,-0.02684785984456539,-0.012178635224699974
1769667439889125400,11.29012548828125,-0.4071624279022217,0.0806245356798172,-0.04701012000441551
1769667439899114500,11.300114501953125,-0.3620349168777466,0.09635583311319351,-0.0723080188035965
1769667439909102300,11.310102294921874,-0.3365716338157654,0.12163268774747849,-0.09714918583631516
1769667439919091500,11.320091552734375,-0.338735967874527,0.14916817843914032,-0.08872267603874207
1769667439929080600,11.33008056640625,-0.34376803040504456,0.19004663825035095,-0.08469784259796143
1769667439939068400,11.340068359375,-0.36367008090019226,0.21629156172275543,-0.11877431720495224
1769667439949057300,11.350057373046875,-0.3571762442588806,0.16364645957946777,-0.1135377436876297
1769667439959044900,11.360044921875,-0.3742921054363251,0.1670939177274704,-0.13805188238620758
1769667439969034000,11.370033935546875,-0.38610589504241943,0.13533759117126465,-0.1794413924217224
1769667439979023000,11.380023193359374,-0.39655160903930664,0.07738853245973587,-0.22062478959560394
1769667439989011000,11.390010986328125,-0.42989304661750793,0.005702626891434193,-0.24955417215824127
1769667439999000000,11.4,-0.40975797176361084,-0.03514280542731285,-0.2882999777793884
1769667440008988000,11.40998779296875,-0.40705403685569763,-0.008676579222083092,-0.3334653079509735
1769667440018977000,11.41997705078125,-0.39154326915740967,-0.012265454977750778,-0.34186625480651855
1769667440028966000,11.4299658203125,-0.35203659534454346,-0.09092111885547638,-0.3462887108325958
1769667440038954000,11.4399541015625,-0.3481321334838867,-0.24139930307865143,-0.3346365690231323
1769667440048943000,11.449943115234374,-0.3544475734233856,-0.0825827568769455,-0.35880956053733826
1769667440058931200,11.45993115234375,-0.34427934885025024,0.15783889591693878,-0.3722955286502838
1769667440068919800,11.469919921875,-0.32630833983421326,0.19215239584445953,-0.37518614530563354
1769667440078908000,11.479907958984375,-0.33039841055870056,0.08952242881059647,-0.38413673639297485
1769667440088897000,11.48989697265625,-0.2941325604915619,0.12929832935333252,-0.35536155104637146
1769667440098886000,11.499885986328126,-0.2870112657546997,0.19655486941337585,-0.3174203038215637
1769667440108874000,11.5098740234375,-0.2827965319156647,0.11322163045406342,-0.3171129822731018
1769667440118863000,11.519863037109374,-0.2882770597934723,0.03491191193461418,-0.3351020812988281
1769667440128851000,11.529850830078125,-0.2821083962917328,0.23129846155643463,-0.3324008584022522
1769667440138840000,11.539840087890624,-0.24362970888614655,0.23479999601840973,-0.3040730655193329
1769667440148829000,11.549828857421875,-0.23393739759922028,0.1738618016242981,-0.29860934615135193
1769667440158817000,11.559817138671875,-0.2039797604084015,0.15054263174533844,-0.2848024368286133
1769667440168806100,11.56980615234375,-0.20803974568843842,0.11746484786272049,-0.2779967188835144
1769667440178794000,11.5797939453125,-0.19016700983047485,0.05726888030767441,-0.27339664101600647
1769667440188782800,11.589782958984374,-0.18113143742084503,0.03801609203219414,-0.27032044529914856
1769667440198771000,11.59977099609375,-0.16934216022491455,0.044619400054216385,-0.26544710993766785
1769667440208760000,11.609760009765624,-0.14682459831237793,0.11979298293590546,-0.2781732976436615
1769667440218749000,11.6197490234375,-0.10694775730371475,0.1184006780385971,-0.2697683572769165
1769667440228737000,11.629737060546875,-0.07228724658489227,0.18152105808258057,-0.25321656465530396
1769667440238726000,11.639725830078126,-0.038953524082899094,0.1924687772989273,-0.21988362073898315
1769667440248714000,11.6497138671875,-0.013431918807327747,0.18457436561584473,-0.18469075858592987
1769667440258703000,11.659703125,-0.012267584912478924,0.22585976123809814,-0.16054441034793854
1769667440268692000,11.66969189453125,-0.032526783645153046,0.18521779775619507,-0.123964823782444
1769667440278680000,11.67968017578125,-0.04656563699245453,0.18097324669361115,-0.09494968503713608
1769667440288669200,11.689669189453125,-0.039386022835969925,0.19073693454265594,-0.06860169768333435
1769667440298657000,11.699656982421875,-0.023070698603987694,0.15666738152503967,-0.05410344898700714
1769667440308646000,11.70964599609375,-0.011521367356181145,0.16471731662750244,-0.051782771944999695
1769667440318635000,11.719635009765625,0.010390056297183037,0.1426761895418167,-0.025604162365198135
1769667440328623000,11.729623046875,0.039258189499378204,0.1482163667678833,-0.018079135566949844
1769667440338612000,11.739612060546875,0.05409758910536766,0.08881855010986328,-0.0065100970678031445
1769667440348599800,11.749599853515624,0.06803577393293381,0.10250719636678696,0.012674782425165176
1769667440358589000,11.7595888671875,0.0834038108587265,0.10322971642017365,0.031032217666506767
1769667440368577000,11.769576904296875,0.09851326048374176,0.13414928317070007,0.039436887949705124
1769667440378566100,11.779566162109376,0.13911287486553192,0.09700297564268112,0.06835109740495682
1769667440388555000,11.789554931640625,0.161222442984581,0.1171729639172554,0.05655195936560631
1769667440398543000,11.799543212890624,0.20066332817077637,0.11996129155158997,0.05270662158727646
1769667440408532000,11.809531982421875,0.26731371879577637,0.10650753229856491,0.045463088899850845
1769667440418520000,11.81952001953125,0.3463587462902069,0.16727234423160553,0.06720113754272461
1769667440428509000,11.829509033203125,0.42003297805786133,0.18969988822937012,0.08920151740312576
1769667440438498000,11.839498046875,0.47050413489341736,0.20490947365760803,0.09744799137115479
1769667440448486100,11.849486083984376,0.5072850584983826,0.24795174598693848,0.10671286284923553
1769667440458475000,11.85947509765625,0.5600680708885193,0.2281988114118576,0.09590522199869156
1769667440468462800,11.869462890625,0.5876949429512024,0.24895761907100677,0.08286479115486145
1769667440478452000,11.879451904296875,0.6342675089836121,0.2656777501106262,0.10087361931800842
1769667440488440000,11.889440185546874,0.6533607840538025,0.29899096488952637,0.12739869952201843
1769667440498429200,11.89942919921875,0.6696614623069763,0.2969118356704712,0.13927426934242249
1769667440508418000,11.90941796875,0.6520997285842896,0.2547958195209503,0.14388766884803772
1769667440518406000,11.919406005859376,0.6058606505393982,0.2256975769996643,0.14655588567256927
1769667440528395000,11.92939501953125,0.5903711318969727,0.1831226795911789,0.16000378131866455
1769667440538383000,11.939383056640626,0.5896931290626526,0.1466411054134369,0.1724388748407364
1769667440548372000,11.9493720703125,0.579950213432312,0.14252039790153503,0.1987418532371521
1769667440558361000,11.959361083984374,0.5576462149620056,0.13808463513851166,0.2119913548231125
1769667440568349200,11.96934912109375,0.5402142405509949,0.14560140669345856,0.23082469403743744
1769667440578337800,11.979337890625,0.537212073802948,0.17329375445842743,0.23426470160484314
1769667440588326000,11.989325927734376,0.5314905047416687,0.15986929833889008,0.2513267695903778
1769667440598315000,11.99931494140625,0.5429301261901855,0.21889053285121918,0.26295599341392517
1769667440608303000,12.00930322265625,0.5539689064025879,0.2534506320953369,0.27013614773750305
1769667440618292000,12.0192919921875,0.5306926369667053,0.28629833459854126,0.2980484664440155
1769667440628281000,12.029281005859374,0.4637114703655243,0.2945983409881592,0.32525184750556946
1769667440638269000,12.03926904296875,0.36276915669441223,0.2735449969768524,0.2952806353569031
1769667440648258000,12.049258056640625,0.3099823594093323,0.3332890272140503,0.25393426418304443
1769667440658246100,12.05924609375,0.24509231746196747,0.39338937401771545,0.3049018383026123
1769667440668235000,12.069235107421875,0.28103646636009216,0.40063369274139404,0.2707313597202301
1769667440678224100,12.07922412109375,0.31908825039863586,0.4775891900062561,0.25024154782295227
1769667440688212000,12.0892119140625,0.34156399965286255,0.5543537735939026,0.26430514454841614
1769667440698200800,12.099200927734374,0.35792672634124756,0.5767030119895935,0.24839968979358673
1769667440708189000,12.10918896484375,0.3836222290992737,0.5746779441833496,0.20670391619205475
1769667440718178000,12.119177978515625,0.41251298785209656,0.5924015641212463,0.17334888875484467
1769667440728166100,12.129166259765626,0.4414016306400299,0.6130838990211487,0.20455846190452576
1769667440738155000,12.139155029296875,0.44974905252456665,0.6396883726119995,0.20390865206718445
1769667440748143900,12.149143798828124,0.45197731256484985,0.6888418197631836,0.19760975241661072
1769667440758132000,12.159132080078125,0.47107991576194763,0.7839893698692322,0.19896955788135529
1769667440768121000,12.16912109375,0.521974503993988,0.906777024269104,0.20873989164829254
1769667440778109200,12.179109130859375,0.573835015296936,1.0144984722137451,0.2100222110748291
1769667440788098000,12.18909814453125,0.6149150729179382,1.0595556497573853,0.23889273405075073
1769667440798087200,12.199087158203126,0.6653122305870056,1.0292677879333496,0.3063466250896454
1769667440808075000,12.209074951171875,0.7274842858314514,0.9995597004890442,0.36109960079193115
1769667440818064000,12.21906396484375,0.8099815249443054,1.0552890300750732,0.4326976239681244
1769667440828052000,12.229052001953125,0.9214324355125427,1.2379951477050781,0.4635319709777832
1769667440838041000,12.239041015625,1.011832356452942,1.488661527633667,0.46284088492393494
1769667440848030200,12.2490302734375,1.104481816291809,1.726664423942566,0.48771587014198303
1769667440858018000,12.25901806640625,1.1680054664611816,1.801751732826233,0.4937375485897064
1769667440868007000,12.2690068359375,1.1822125911712646,1.749437928199768,0.4531448483467102
1769667440877995000,12.2789951171875,1.1860816478729248,1.7114304304122925,0.434628963470459
1769667440887984000,12.288984130859374,1.2057126760482788,1.743362545967102,0.4322507381439209
1769667440897972200,12.29897216796875,1.229646921157837,1.74936044216156,0.3880438804626465
1769667440907961000,12.308961181640624,1.238977313041687,1.699653148651123,0.31429001688957214
1769667440917950000,12.318949951171875,1.2668070793151855,1.5872306823730469,0.22458304464817047
1769667440927938000,12.32893798828125,1.298283338546753,1.4448496103286743,0.11389647424221039
1769667440937927000,12.338927001953126,1.297481656074524,1.328780174255371,0.0067657604813575745
1769667440947915000,12.3489150390625,1.2698040008544922,1.2137188911437988,-0.06724588572978973
1769667440957904100,12.358904052734376,1.254432201385498,1.06831955909729,-0.1549387127161026
1769667440967893000,12.36889306640625,1.2902237176895142,0.8475520610809326,-0.235958993434906
1769667440977880800,12.378880859375,1.3309406042099,0.5889434218406677,-0.28090038895606995
1769667440987870000,12.388869873046875,1.343626856803894,0.3517865240573883,-0.2895713746547699
1769667440997858000,12.398858154296875,1.3427764177322388,0.2367241233587265,-0.3061812222003937
