time,seconds_elapsed,z,y,x
1769667271325171000,0.0761708984375,0.16937456988692282,-0.13141630289256573,0.05333477288968861
1769667271335160000,0.08616015625,0.13651216472685337,-0.04604045116305351,0.047350145522132514
1769667271345149000,0.09614892578125,0.018739771783351896,0.039594343763589855,0.0765139153599739
1769667271355137800,0.1061376953125,-0.05535363843142986,0.09850129076242446,0.060088192672654986
1769667271365126000,0.1161259765625,-0.06754851861596108,0.04596329427361488,0.0047408378515392535
1769667271375115000,0.126114990234375,0.004376899909973145,-0.06753975078761577,-0.018145093825832008
1769667271385104000,0.136103759765625,0.10676000054180622,-0.11551672297120094,0.05464541709683835
1769667271395093000,0.146093017578125,0.1373556298136711,-0.1345721365749836,0.12470548014231025
1769667271405082000,0.15608203125,0.028356325912475583,-0.11380582740008831,0.0515714164789766
1769667271415071000,0.166071044921875,-0.10870879652202128,-0.0371481196552515,-0.10070924913547932
1769667271425058800,0.176058837890625,-0.2740022345751524,-0.03400982162952423,-0.21439320372156798
1769667271435048000,0.1860478515625,-0.36004210317134855,0.027810966989398,-0.06217931973300874
1769667271445036800,0.196036865234375,-0.19681144286692143,-0.20636136150062084,-0.09294343743957578
1769667271455026000,0.20602587890625,-0.18145722186863422,-0.15131225897371767,-0.06777268276065587
1769667271465015000,0.21601513671875,-0.15574585750699044,-0.0922948373377323,0.004227262306213378
1769667271475004000,0.22600390625,-0.06468553040027618,-0.24620178897976874,-0.010791954584047197
1769667271484993000,0.235992919921875,-0.12572832038402557,-0.4233300417333841,-0.04017535852193832
1769667271494980900,0.24598095703125,-0.08084580708444118,-0.6920008521527051,-0.24664967887774109
1769667271504969700,0.2559697265625,-0.28857436528503894,-0.7225783612459897,-0.13025456563681365
1769667271514958800,0.265958740234375,-0.2867237689822912,-1.1597007814884186,-0.1265060998234898
1769667271524948000,0.275947998046875,-0.2037088011652231,-1.5467320138722658,-0.25367234405614436
1769667271534936800,0.285936767578125,-0.23913024315834044,-1.8815204333215951,-0.46697146893069147
1769667271544926000,0.295926025390625,-0.1848310822159052,-1.3962111975371836,-0.21086970577053724
1769667271554914000,0.3059140625,0.0032189620465040204,-1.30050567497313,0.03556238483376801
1769667271564903000,0.31590283203125,0.44030338836610317,-0.9736252521693706,0.12591675562821328
1769667271574891800,0.325891845703125,0.4248024523735046,-0.450316832858324,-0.053238217180036004
1769667271584881000,0.335880859375,0.5540139386981725,-0.36150574598312374,-0.12079206955824047
1769667271594869800,0.345869873046875,0.3590466623932123,-0.09677578214406966,0.2677152632601559
1769667271604859000,0.35585888671875,0.1209428396731615,-0.04568330828845501,-0.014026132465992122
1769667271614848000,0.365847900390625,-0.5005056358724832,0.12115852825045585,-0.09462757286792621
1769667271624836000,0.375836181640625,-0.5522615420728921,0.24244915844798087,-0.1436278054183349
1769667271634825000,0.385824951171875,-0.8720388548731803,0.2712748554378748,0.07634542692527174
1769667271644814000,0.39581396484375,-0.8623141641944646,-0.18018705580234526,0.24322065427713094
1769667271654802700,0.405802734375,-0.9112368927955626,0.2318821717262268,0.3975641341729089
1769667271664791800,0.415791748046875,-1.2813240046411751,1.0097615644335747,1.3659239035621284
1769667271674781000,0.425781005859375,-1.0028747275292873,0.25057927341163155,1.0137516569830476
1769667271684769000,0.43576904296875,-1.3718810584008694,-0.42319384813308714,-0.028002032582089303
1769667271694758000,0.4457578125,-1.4241945984840392,-0.22112930704355238,-0.40326990806646645
1769667271704747000,0.4557470703125,-1.1254466297090053,0.10457973389327525,-0.6496542140062898
1769667271714735900,0.46573583984375,-0.8711790231734514,0.07872107001543045,-0.7783142039280384
1769667271724725000,0.47572509765625,0.08932546613812446,-0.03707271633148193,0.39986557951569557
1769667271734714000,0.485714111328125,0.48706280145347114,-0.7473994987696408,0.030416765573620795
1769667271744702700,0.49570263671875,-0.1264677405744791,-0.5706231281936168,-0.9280920929413289
1769667271754690800,0.50569091796875,-0.18601883069574832,0.35783728660345077,-0.5569447314530611
1769667271764680000,0.515679931640625,0.36060032157599925,1.5592320144832132,0.555284981547296
1769667271774669000,0.5256689453125,1.1539233671307563,2.3647797508388755,1.167596868500486
1769667271784658000,0.535657958984375,0.6939899801433086,2.4893337667465207,0.5308353807497769
1769667271794645800,0.545645751953125,0.1750268965601921,2.0582266612708566,0.1727287756856531
1769667271804635000,0.555634765625,-0.6677659900844096,1.2340659943819046,-0.5280653315145521
1769667271814623700,0.565623779296875,-1.0249965429663657,0.968374492034316,-0.6653835519272834
1769667271824611800,0.57561181640625,-0.3600742518752813,1.0032225180536507,0.060325581625103944
1769667271834601000,0.58560107421875,-0.10370412010252475,0.22448095555901526,0.6040670595686882
1769667271844589800,0.59558984375,0.06359715064167976,0.04668810141682624,0.3614647929182276
1769667271854579000,0.605578857421875,-0.1558124930024147,-0.1432645615965128,0.09943532020952552
1769667271864568000,0.615568115234375,0.001939443629980087,-0.2126326968550682,-0.11790825775023549
1769667271874556700,0.625556640625,0.622758973622322,0.17660159853100776,0.4202712386846542
1769667271884544800,0.635544677734375,1.4284312131404875,0.24579087009131906,0.5774586367694661
1769667271894534000,0.645533935546875,1.8355998091459274,0.3757423611283302,0.5026639464175329
1769667271904523000,0.65552294921875,1.2851742503285408,0.2676759541630745,0.5404549305535853
1769667271914512000,0.665511962890625,0.7657540706276893,-0.05073942263424396,0.11092129407287575
1769667271924501000,0.6755009765625,0.3085270199894905,-0.47275019846260546,-0.5104952610976994
1769667271934489900,0.68548974609375,-0.1847597705453634,-0.842035346275568,-0.759647716576606
1769667271944479000,0.69547900390625,-0.3857750948429107,-0.8579653213351964,-0.8252107604637742
1769667271954466800,0.705466796875,-0.18826865544915197,-0.4092541701078415,-0.25388850755747405
1769667271964456000,0.7154560546875,0.10722235735654831,0.17631109115183352,-0.3144283895203844
1769667271974444800,0.72544482421875,-0.19984218886494634,0.7217506782501936,-0.25761972997505217
1769667271984434000,0.735433837890625,-0.15681144091188906,0.3492307862997055,-0.23762148256320506
1769667271994423000,0.745423095703125,-0.028813422030210492,0.06339607511162758,-0.39807471404355016
1769667272004412000,0.755411865234375,0.2685340322971344,0.40336978824436664,-0.18446904397048056
1769667272014399700,0.765399658203125,0.6289589973062276,0.6534229919552803,0.1727632624771446
1769667272024388900,0.775388916015625,0.7221750411421061,0.38416298347115513,0.5524443512938917
1769667272034377700,0.785377685546875,1.0579273371875286,-0.008798223483562469,0.4105133033234626
1769667272044366800,0.795366943359375,0.9852940626531839,-0.20890403172075747,0.4720775598980486
1769667272054356000,0.80535595703125,0.8286135546445846,-0.10305763889253139,0.30586963734850287
1769667272064344800,0.8153447265625,0.6569032352864742,0.09043371964097023,-0.04688789830524474
1769667272074334000,0.825333984375,0.2943611319929361,0.0977022493392229,-0.40098581571727987
1769667272084322000,0.835322021484375,-0.13474340148866176,-0.13929156631231307,-0.5452568144099786
1769667272094310700,0.845310546875,0.3928922333717346,-0.05013385795652866,-0.16856285164523868
1769667272104299800,0.8552998046875,0.5134738385170697,0.008956628915667533,0.07865026980154216
1769667272114289000,0.865288818359375,0.7521440629482269,0.00970657050013542,0.2833711706187576
1769667272124277800,0.87527783203125,0.8868529776453972,0.038974166038632393,0.05927877598591148
1769667272134267000,0.885266845703125,0.2867208463728428,0.0690805504888296,-0.24109485776219516
1769667272144256000,0.895256103515625,-0.1967167503207922,-0.11420096419751644,-0.45592502812892194
1769667272154243800,0.905243896484375,-0.08396715397536754,-0.43831192228794097,-0.2727002120658755
1769667272164233000,0.91523291015625,0.24219255333840845,-0.18394786964058876,-0.13199793870542198
1769667272174222000,0.92522216796875,-0.08314180906713009,0.024745149677991865,-0.23725867713280022
1769667272184210700,0.935210693359375,-0.07398936531841754,-0.22872166186869142,-0.39964137883838263
1769667272194199800,0.94519970703125,0.02812251715660095,-0.1893617113828659,0.17592534323725847
1769667272204189000,0.95518896484375,0.927042364692688,-0.17475100222826004,0.4137002993291244
1769667272214176800,0.9651767578125,1.329008715879917,0.10169979454278945,0.8229306867025792
1769667272224166000,0.975165771484375,0.7884346889913082,0.5271598340421915,1.0317171564582734
1769667272234155000,0.985155029296875,-0.2674970904648304,0.4640945983201265,0.4293852135865018
1769667272244143900,0.995143798828125,-0.8710942674994469,0.29300854834020135,0.462634316509217
1769667272254133000,1.005133056640625,-0.8590531165719032,-0.032575404912233354,0.5991601079026236
1769667272264121900,1.015121826171875,-0.783039551949501,0.020504443368315695,0.6815745160106569
1769667272274110700,1.02511083984375,-0.9917015916079283,0.017111878320574758,0.16639829402249307
1769667272284098800,1.035098876953125,-1.1548948425114154,0.06774491797089577,-0.09918598509095608
1769667272294088000,1.045087890625,-1.0479951412379742,0.10086918893754482,-0.19991857856940476
1769667272304076800,1.055076904296875,-0.581581744581461,-0.046773441612720484,-0.3735345488857478
1769667272314066000,1.06506591796875,0.20188217025995253,-0.08307517357170581,-0.34183694972135126
1769667272324055000,1.075054931640625,0.36192777078747745,-0.3435235145688057,-0.21977294226484373
1769667272334044000,1.0850439453125,0.2749433148175478,-0.4618248998224735,-0.2472540014464408
1769667272344031700,1.09503173828125,0.0025368250012397764,-0.24192776492238044,-0.5784731841068714
1769667272354020900,1.105020751953125,0.2803618327349424,-0.18817454742491244,-1.0077915064696221
1769667272364010000,1.115010009765625,-0.10040332499146461,-0.1993921070098877,-1.040790616686642
1769667272373998800,1.124998779296875,0.05321604188084602,-0.16532850936651228,-1.0452036108233034
1769667272383988000,1.134988037109375,-0.26921149316728116,-0.0986000749617815,-0.5595768700549378
1769667272393976800,1.144976806640625,0.2648626503080129,-0.5915589487165213,0.6784013658672571
1769667272403966000,1.154966064453125,2.1194974147915837,0.08982815496325493,1.2265303381800652
1769667272413953800,1.164953857421875,1.0450514890015126,-0.12160451845228672,1.0832619041260332
1769667272423943000,1.17494287109375,0.3490121751129627,-0.09401917691230774,0.02772590078813955
1769667272433931800,1.184931884765625,0.3801122467756271,-0.06144903269708156,-0.7787557371504604
1769667272443921000,1.1949208984375,0.14570260239839553,-0.1910778676509857,-0.6135379946820437
1769667272453909800,1.20490966796875,-0.659255351370573,-0.0967132383018732,-0.25894241167986765
1769667272463899000,1.21489892578125,-1.3233458678126335,-0.017812720066308973,-0.16607271532993761
1769667272473887000,1.224886962890625,-1.17180155364871,0.051416298982501024,0.1871767868255265
1769667272483876000,1.2348759765625,-0.7819196080088615,-0.0251531459569931,0.37232517309598623
1769667272493864700,1.24486474609375,-0.7833844198644161,0.04244797962903976,-0.022147863193787632
1769667272503853800,1.254853759765625,-1.3296043436855076,-0.18121464528441428,-0.08029730635620654
1769667272513843000,1.264843017578125,-1.9828689302086828,-0.1747352201372385,-0.27991841808268797
1769667272523831800,1.274831787109375,-2.2791630760908124,-0.3945727338045835,-0.10738469004509969
1769667272533821000,1.284821044921875,-1.4254735323786736,-0.3174965083867311,-0.17668228081809356
1769667272543809000,1.29480908203125,-0.2956079171836376,-0.029338322687149046,-0.611003580833599
1769667272553798000,1.3047978515625,0.5709183117479085,-0.18569442104697226,-0.15016957347830756
1769667272563787000,1.314787109375,0.8210381509542465,-0.48122810395061966,0.09129619995551183
1769667272573776000,1.32477587890625,1.0526730699211357,0.027237551015615463,0.04908259533792734
1769667272583764700,1.3347646484375,0.3278156578272581,0.7261474519044161,0.06968443466611206
1769667272593753900,1.34475390625,0.03177344087958336,0.834886643564701,-0.011821388963330537
1769667272603742000,1.354741943359375,0.26476620419621466,0.3529904310941696,0.07244882134553045
1769667272613730800,1.364730712890625,0.5519301181614399,-0.36631519209146496,0.32448965520970524
1769667272623720000,1.374719970703125,0.2909218051940203,-0.75292147706151,0.5701201105749234
1769667272633709000,1.384708984375,0.05418576369583607,-0.8961287555128336,0.3738513597499579
1769667272643698000,1.394697998046875,0.11800561717748641,-0.5008367675229907,0.227103376484476
1769667272653686800,1.404686767578125,0.4692401445150375,0.22207594024389982,0.13114795254627243
1769667272663676000,1.414676025390625,0.35786651269793507,1.0007666493341325,-0.3700081283252686
1769667272673663700,1.424663818359375,-0.3389940544456243,1.3145911912098527,-0.5790574137356131
1769667272683652900,1.43465283203125,-0.72556176097095,-0.07148878067433834,-0.11033981352364644
1769667272693642000,1.44464208984375,0.686598116326332,-0.5320534513026476,-0.34739958881717176
1769667272703630800,1.454630859375,0.21065292121469972,-0.11940554710328578,0.04946691848039627
1769667272713620000,1.464619873046875,0.0012993921607732772,0.3112465080812573,0.26640432679206133
1769667272723609000,1.474609130859375,-0.09868366159200667,0.4756359830319881,0.548301917726919
1769667272733597000,1.484596923828125,-0.45965749265551564,0.16275719757378102,0.5463840283416211
1769667272743585800,1.494585693359375,-1.0283166272997855,0.17862696687877178,0.49308140415586527
1769667272753575000,1.504574951171875,-1.048332994890213,0.21649346393644808,0.37561829635724425
1769667272763563800,1.514563720703125,-1.1301660594463347,0.3056874126493931,0.492906632110849
1769667272773553000,1.524552978515625,-1.3264432493060827,0.37599925849884747,0.4955354827770963
1769667272783542000,1.5345419921875,-1.536740781211853,0.26573095757514237,0.27222090411633254
1769667272793531000,1.54453076171875,-1.3960299957513809,0.1590501597493887,-0.05082052504643798
1769667272803518500,1.5545185546875,-0.8192623734533786,-0.059498775412142275,-0.41578211057186126
1769667272813507600,1.564507568359375,-0.4294762894034385,-0.3635845980837941,-0.30102102827355265
1769667272823496700,1.57449658203125,-0.21120295631289482,-0.11277239269912243,-0.28970132348835465
1769667272833485600,1.584485595703125,0.048097968214750285,0.07677636568844318,-0.6005068098038434
1769667272843474700,1.594474609375,0.2081926685810089,0.16974398772120475,-0.9443073877483605
1769667272853463600,1.604463623046875,0.024646365478634833,0.40892333071827885,-0.6849211230248212
1769667272863451400,1.614451416015625,1.0630687917292116,0.2043812935993075,0.030209260302782058
1769667272873440500,1.6244404296875,3.0656916391998528,-0.3533244853541255,0.4716629877477884
1769667272883429600,1.6344296875,2.5586750139981507,-0.5900175644934177,1.1658493672460317
1769667272893418500,1.64441845703125,2.027974146348238,-0.3653688511520624,0.8427002399250865
1769667272903407600,1.65440771484375,1.2593290304541587,0.0017690554991364477,0.3500993858277798
1769667272913396500,1.664396484375,0.4169166675597429,-0.08863163865506649,0.031246056004613637
1769667272923385600,1.674385498046875,-0.707532767805457,0.09841302795708179,-0.3381082115218043
1769667272933373400,1.68437353515625,-1.3599462904572486,0.04265957655310631,-0.49490518551692364
1769667272943362600,1.694362548828125,-0.8040157044827938,-0.32620471549928187,-0.12064736385792493
1769667272953351400,1.704351318359375,-0.9738380181372165,0.1672235293328762,0.04668108715415001
1769667272963340500,1.714340576171875,-0.6106827513813972,0.3717845634132623,0.26423911158218977
1769667272973329700,1.72432958984375,0.13438158243894577,0.04135784630477428,0.1435239431850612
1769667272983318500,1.734318603515625,0.2764893752157688,-0.2766971727475524,-0.09658040570244192
1769667272993306600,1.744306640625,0.5292120903968811,-0.1276741937547922,0.10023805142715572
1769667273003295700,1.754295654296875,0.3181038266301155,-0.2926172109350562,0.25378303788900375
1769667273013284400,1.764284423828125,0.4011597109794616,0.08571984286159276,0.3012891776904464
1769667273023273500,1.7742734375,0.2732254049837589,-0.03333966728299856,0.34386684811376034
1769667273033262600,1.7842626953125,-0.8330430615246296,0.4303051414430141,0.2685648292941972
1769667273043251500,1.79425146484375,-1.5276199016451835,0.21073972271531818,0.0766738551620394
1769667273053239600,1.804239501953125,0.40585575984120364,0.037922903420031066,0.2387853935097344
1769667273063228700,1.814228759765625,0.667196665763855,0.04342325440198183,0.4132204433903098
1769667273073217500,1.824217529296875,0.5372177021980286,0.08895049534589052,0.3440578041085973
1769667273083206700,1.83420654296875,0.4514940599441528,0.1373711196437478,-0.10947616416532546
1769667273093195500,1.844195556640625,0.06736497874259949,0.1365820150926709,-0.03278685570582747
1769667273103184400,1.854184326171875,0.1581646090865135,-0.01798456950187683,-0.20549356569014487
1769667273113173500,1.864173583984375,0.5458528440743684,-0.05006166950315237,0.15128120624832808
1769667273123161600,1.87416162109375,0.5442009852141142,0.16627426578402518,0.12697718793395907
1769667273133150500,1.884150390625,-0.2508686117470264,-0.09861498026996851,0.22034444027617572
1769667273143139600,1.8941396484375,0.7111223167300224,0.013225392276048659,-0.15134236185103653
1769667273153128700,1.904128662109375,-2.239282901123166,0.042891924004256725,-0.40934783974066374
1769667273163117600,1.91411767578125,0.04678863918185234,0.07894114250689745,-0.0950903132751584
1769667273173106400,1.9241064453125,-0.3114525520473718,-0.0020648235753178597,-0.10504903190545738
1769667273183094500,1.934094482421875,0.41919454936385153,0.14203706562817095,-0.10108845771141349
1769667273193083600,1.944083740234375,0.2192722810000181,0.07025923887938261,0.01547134457193315
1769667273203072500,1.954072509765625,0.27438275832533837,0.13059037346243857,0.008010141845792532
1769667273213061600,1.9640615234375,0.5841875431656837,0.09956512060165405,-0.0850605021700263
1769667273223050500,1.974050537109375,0.5068038592338562,0.12702771254479883,-0.09452544593401253
1769667273233039600,1.98403955078125,0.46221360687911506,0.10312018273472785,0.03233794289454817
1769667273243028700,1.99402880859375,0.5305237575173377,0.09630904141515492,0.01668853834196925
1769667273253016600,2.0040166015625,0.6910586028665304,0.14169424353986979,-0.14912249384447931
1769667273263005400,2.01400537109375,0.6161936237573623,0.17411591919511554,-0.18518669072054325
1769667273272994600,2.02399462890625,0.6127016899883747,0.3672314301535487,-0.29783187684342266
1769667273282983400,2.0339833984375,0.4308464087128639,0.28974165549874303,-0.4736142679460346
1769667273292972500,2.04397265625,0.16354922473430633,0.19077450079023836,-0.3628283728890121
1769667273302961700,2.053961669921875,0.002485387074947357,-0.050912733374536036,-0.17506774002723394
1769667273312949800,2.06394970703125,-0.07385434076189995,0.019411387434601784,-0.25291809162274004
1769667273322938400,2.0739384765625,-0.2739589799553156,0.260227976244688,-0.3035231472875923
1769667273332927500,2.083927490234375,-0.2632218973636627,0.045785015097260476,0.020694887906499204
1769667273342916600,2.09391650390625,0.0022848960667848587,-0.011869301491975784,0.07496434783041477
1769667273352905500,2.103905517578125,0.010043255108594894,0.11736644249111414,0.08343388734888285
1769667273362894600,2.11389453125,-0.03753858027756214,0.029504034642875192,0.1563107248481363
1769667273372882700,2.123882568359375,0.08061901259124278,0.06136340024024248,0.15437095242459326
1769667273382871600,2.13387158203125,0.24782559078931807,0.034819968968629836,0.14300028463713824
1769667273392860700,2.143860595703125,0.17944646656811236,-0.07189706921428442,0.19629618682116268
1769667273402849500,2.153849609375,0.014609540110826491,-0.14963234306275844,0.3575324949705973
1769667273412838400,2.16383837890625,-0.018871873730421065,-0.08500088093727827,0.35456096834652123
1769667273422827500,2.17382763671875,-0.0430301634311676,-0.22235884883850812,0.30884156583137806
1769667273432815600,2.183815673828125,0.331215821659565,-0.37429420814663167,0.04317103320658207
1769667273442804500,2.193804443359375,0.694871439152956,-0.22548896355777978,0.11309658315218984
1769667273452793600,2.203793701171875,0.5273813678383827,-0.023712299498915672,0.0017170695835724472
1769667273462782700,2.21378271484375,0.46797874627709385,0.08531360014826059,-0.2879184586595744
1769667273472771600,2.223771484375,0.697728582149744,0.011837737309932707,-0.4563100088585168
1769667273482760400,2.233760498046875,0.5227028546333312,0.01833791298419237,-0.5068007904939353
1769667273492749600,2.24374951171875,0.12049568042755127,-0.1308212596088648,-0.33641996617391706
1769667273502737400,2.2537373046875,0.12406360204219817,-0.308889715822041,-0.058509855706337835
1769667273512726500,2.2637265625,-0.07528817295730114,-0.25333733994811775,-0.06971196199385449
1769667273522715600,2.273715576171875,-0.15608371115922928,-0.04029313968271017,-0.05790012631015852
1769667273532704500,2.28370458984375,0.05683072524666786,0.2989835310965776,-0.8388434914316981
1769667273542693600,2.293693603515625,0.19506138432919978,0.2675315772563219,-0.6971971056215465
1769667273552682800,2.303682861328125,0.26671733826398847,-0.09554887069761753,-0.2381139787878841
1769667273562670600,2.313670654296875,0.07494622765183448,0.05179126977473497,-0.3063855875140056
1769667273572659500,2.323659423828125,-0.45611061382889745,-0.13290566466748713,-0.2066780445006676
1769667273582648600,2.333648681640625,-2.866303623843193,0.5559554281547665,-0.7244196782637387
1769667273592637400,2.343637451171875,-2.1837866393506524,0.3380471289843321,0.4821099282864481
1769667273602626600,2.35362646484375,2.462279755604267,-0.867619577126205,1.7034990311205387
1769667273612615700,2.36361572265625,2.2775579789817333,-0.8574629247710108,1.7452648737043142
1769667273622604500,2.3736044921875,0.7103589311420917,-0.021502806755900383,-0.005006471084360965
1769667273632592400,2.38359228515625,-0.7996107475221157,0.01445668763667345,-0.4533307738520205
1769667273642581500,2.39358154296875,-1.1112310573518276,-0.17254560113847256,0.37168183369114993
1769667273652570400,2.4035703125,-0.34509354036450385,-0.25022329958081246,0.8936132655605673
1769667273662559500,2.4135595703125,0.2403869652211666,-0.2645420400515199,0.9048723261997104
1769667273672548600,2.423548583984375,0.39212300256490706,-0.06225888777524233,0.2829650557695888
1769667273682537500,2.433537353515625,0.12319500251412391,-0.10806786826997995,0.029317818755237385
1769667273692525600,2.443525634765625,-0.032035891208052635,-0.040482817035913464,0.15043334811418316
1769667273702514700,2.4535146484375,0.05078092368841171,0.14848609563708304,0.11337942781471647
1769667273712503600,2.463503662109375,0.1603343543410301,0.09873539177924394,0.18502072303649036
1769667273722492400,2.473492431640625,0.0052495910912752144,0.0890948722526431,0.16286069448087365
1769667273732481500,2.4834814453125,-0.18776012140512466,0.05801584337800741,0.08119735133531503
1769667273742470400,2.493470458984375,-0.09219897574782371,0.13383183960169553,0.05901866831157822
1769667273752459500,2.50345947265625,0.00034720600247383117,0.11411620852351188,0.1776872566095553
1769667273762447600,2.513447509765625,-0.10950666890144348,0.018655892892181874,0.2163510597910732
1769667273772436700,2.523436767578125,-0.18054536772072313,0.03560498186647892,0.2222203171506524
1769667273782425600,2.533425537109375,-0.11986264322102069,0.3012462153315544,0.4330139985429123
1769667273792414500,2.54341455078125,-0.04443827666342258,0.45564211953431366,0.8620164964221417
1769667273802403300,2.5534033203125,-0.32909809885323044,0.09989391416460275,0.768732721112296
1769667273812392400,2.563392333984375,-0.22675123857855795,0.13178513620495796,0.547974074012041
1769667273822380500,2.573380615234375,-0.41504269038140773,-0.06620587183535098,0.3366875310689211
1769667273832369700,2.58336962890625,-0.2162713456183672,-0.16149842968434094,0.136186083710799
1769667273842358500,2.593358642578125,-0.02985971621274948,0.028129239158332348,0.07833844563970342
1769667273852347600,2.60334765625,-0.2005857007086277,0.13784399785250426,-0.21999018347840754
1769667273862336500,2.61333642578125,-0.0044049569606781,0.45849107922464605,-0.21713234636187553
1769667273872325600,2.62332568359375,-0.23863749120533465,-0.32382015845030543,-0.19543841921435667
1769667273882313500,2.6333134765625,0.022781156128644942,0.22661738306581972,-0.23727508027832953
1769667273892302600,2.643302490234375,-0.3258323750555515,-0.21400983042716978,-0.189659105160553
1769667273902291500,2.65329150390625,0.073337623411417,-0.07212941666543483,-0.32305403291601686
1769667273912280600,2.663280517578125,0.2533843939602375,0.18609511080235241,-0.28779611092153934
1769667273922269700,2.673269775390625,0.17081132469177246,-0.22952041103094814,-0.35601408976428206
1769667273932258600,2.683258544921875,0.0328694194227457,-0.16182678485587237,-0.6368037194572389
1769667273942247700,2.69324755859375,0.1011883378893137,-0.034353228239715095,-0.7915542092513292
1769667273952235500,2.703235595703125,0.23078151700794697,-0.015653057814389467,-0.5454959569280967
1769667273962224400,2.713224365234375,0.06473404571712017,0.05622092278525233,-0.19862240127902478
1769667273972213500,2.723213623046875,-0.0741477707505226,-0.01910509796440601,-0.06545750115346163
1769667273982202600,2.73320263671875,-0.05715922654867172,-0.06374430402740835,0.07664081140896305
1769667273992191500,2.74319140625,-0.08603460789918899,-0.021982553096860646,-0.09672808881113305
1769667274002180600,2.7531806640625,-0.0021264906346797944,0.029880905131250617,-0.17808343458659945
1769667274012168700,2.763168701171875,0.004682604858279228,0.001850304041802883,-0.19524127094075083
1769667274022157300,2.7731572265625,0.011698036578297615,0.006075958912819624,-0.217858231217321
1769667274032146400,2.783146484375,-0.09655483286976814,0.021663842536509034,-0.18066073772870003
1769667274042135600,2.793135498046875,-0.3692956692069769,0.07156944469511509,-0.17240920660877598
1769667274052124400,2.80312451171875,-0.5798375312626362,0.035422464906424284,-0.12971808413993566
1769667274062113500,2.813113525390625,-0.5641664994001389,-0.015229863966256378,0.006666362554021179
1769667274072102700,2.8231025390625,-0.28375848943591114,0.054529170306026935,0.01760389962121844
1769667274082090500,2.833090576171875,-0.02252981171607971,0.12876330416575074,-0.07481746843932197
1769667274092079600,2.84307958984375,0.19668693970441817,0.16326368579119444,-0.07358323220293969
1769667274102068500,2.853068359375,0.21451719542741773,0.16618074228167534,-0.14194206255478783
1769667274112057300,2.863057373046875,0.4254553633242845,0.1305567634537816,-0.12060938820140435
1769667274122046500,2.87304638671875,0.49748073509335516,0.13925766404271125,-0.023940436565829438
1769667274132035600,2.88303564453125,0.32853578879535195,0.1855555970981717,-0.12202104509761556
1769667274142023700,2.893023681640625,0.03490998533964157,0.27874168418720363,-0.1622232002949342
1769667274152012500,2.903012451171875,0.42105332897305486,0.3243661018952727,-0.07755410859528929
1769667274162001700,2.913001708984375,0.5468973846912384,0.14033493788540363,-0.09143341646911576
1769667274171990500,2.922990478515625,0.1637596526145935,0.1805086889721453,-0.18116771913645788
1769667274181979600,2.932979736328125,-0.235018716186285,0.10115794275104999,0.02327120010133367
1769667274191968500,2.942968505859375,-0.3774363055646419,-0.11080635332316159,0.2405971921720542
1769667274201957400,2.952957275390625,-0.10792495266795157,-0.23403730393350122,0.29720064800148827
1769667274211945500,2.962945556640625,0.07562778017520905,-0.2348540271438658,0.29061980830645184
1769667274221934600,2.9729345703125,-0.1394727680981159,-0.08467968615889548,0.11907920122575014
1769667274231923500,2.98292333984375,-0.1120586914718151,-0.11856821949630975,0.10116061876532621
1769667274241912600,2.99291259765625,0.1012707554757595,-0.14602189748063682,0.2522750444788486
1769667274251901700,3.002901611328125,0.18056582598686216,0.05644245658144355,0.12045439856909215
1769667274261890600,3.012890625,-0.22079612956643102,0.16572364616394042,-0.05180587368882261
1769667274271878400,3.02287841796875,-0.025193477967381476,0.05719561303630471,-0.043270584590919314
1769667274281867500,3.032867431640625,0.2564279994398355,-0.40323607886210083,0.3059494611190632
1769667274291856600,3.042856689453125,0.3869061446994543,-0.34819428285881876,0.24415031807636842
1769667274301845500,3.052845458984375,0.19690905802249908,0.1230349896468222,0.10567131938911042
1769667274311834600,3.062834716796875,0.02705342662036419,0.10636647117957472,-0.02183386534117162
1769667274321823500,3.072823486328125,0.1722515866279602,0.04517798911482095,-0.049682059068419035
1769667274331811300,3.082811279296875,0.21035189244151115,0.04540142260715365,-0.014005856862943618
1769667274341800400,3.092800537109375,0.11976385902166366,-0.2265489940047264,0.12149422647822647
1769667274351789600,3.10278955078125,0.03312485548853874,-0.2080589591987431,0.02064651872012764
1769667274361778400,3.1127783203125,0.14978957945108412,-0.023116233301907776,0.05458842621259391
1769667274371767600,3.122767578125,0.5296422985076904,-0.11266864006370306,0.10176611951095983
1769667274381756700,3.132756591796875,0.40405660146474837,-0.06467310931012034,-0.1294716898971237
1769667274391745500,3.14274560546875,0.2773392700433731,-0.03158449417874217,-0.10427368188509717
1769667274401733600,3.152733642578125,0.25746494127213954,-0.09322934170886873,-0.007183390431758016
1769667274411722800,3.16272265625,0.032685295027494427,-0.11737608710229396,-0.10922940459633246
1769667274421711400,3.17271142578125,-0.12758008573055266,-0.16629443178921938,0.05175787896178662
1769667274431700500,3.182700439453125,0.3088344785034656,-0.09102817840278148,0.18837361366096883
1769667274441689600,3.192689697265625,0.2019008749604225,-0.04460135827064514,0.15711424151705577
1769667274451678500,3.202678466796875,0.16722469837665557,0.04470423412322998,-0.15997390526449307
1769667274461666600,3.21266650390625,0.34981998436450956,0.19135478489622473,-0.21246753288861364
1769667274471655700,3.22265576171875,0.38184593870043754,0.10681216912046074,-0.018858046134468166
1769667274481644500,3.23264453125,0.18936288042664526,-0.10951412155553698,-0.06558003155458718
1769667274491633700,3.242633544921875,0.0305079509884119,0.27733357095494865,-0.08730477396547794
1769667274501622500,3.25262255859375,-0.13890110569000244,0.19056568034514784,-0.06761398506760596
1769667274511611400,3.262611328125,-0.26914544219374653,-0.033548633858561515,-0.02856217808234505
1769667274521600500,3.2726005859375,-0.1600906087130308,-0.22753829730302094,0.06349877743427641
1769667274531588600,3.282588623046875,-0.055956280499696726,-0.303005626219511,0.05007157897581346
1769667274541577500,3.292577392578125,-0.3892740428745746,-0.15527809386476873,0.06711068432112224
1769667274551566600,3.302566650390625,-0.3190583508759737,-0.35268721036389467,-0.13488978768941015
1769667274561555700,3.3125556640625,-0.34691841770410536,-0.3992588457942009,0.11090426987283862
1769667274571544600,3.322544677734375,-0.2814180637896061,-0.2901248095974326,0.5258084559658542
1769667274581533400,3.332533447265625,0.07683774048686028,-0.8225184526398778,0.0940202728908509
1769667274591521500,3.342521484375,0.140384622246027,-0.6431785151861608,0.5243498181227594
1769667274601510400,3.352510498046875,-0.6515536909520626,0.5274370435483753,1.116661996359378
1769667274611499500,3.36249951171875,-0.5285498270958662,0.4977418702475726,1.4687624928764997
1769667274621488600,3.372488525390625,0.21241408566832543,-0.15583105157241225,1.7143234997346997
1769667274631477500,3.3824775390625,0.21066168904304503,0.1725203205667436,1.985110571655631
1769667274641466600,3.392466552734375,0.29159166727960106,0.37002266830727454,2.010750624346733
1769667274651455700,3.402455810546875,0.28592005138397214,0.07043094218447804,2.30498929900378
1769667274661443600,3.412443603515625,-0.28176293170452116,-0.3889766673631966,2.5130428513750434
1769667274671432400,3.422432373046875,-0.5469727880150079,0.015453735850006341,2.7875153338104486
1769667274681421600,3.432421630859375,0.289338919916749,-0.09066855131015181,2.3892057515650986
1769667274691410400,3.442410400390625,0.3590355564773082,0.09078077951297163,2.0370242987662555
1769667274701399600,3.452399658203125,0.7991922298491001,0.3699371819809079,1.9320121648050843
1769667274711388700,3.462388671875,0.48262335770130155,-0.09031155456602573,1.4855547838538885
1769667274721376800,3.472376708984375,-0.0939636473327875,-0.5197056455787271,1.2535036853015422
1769667274731365400,3.482365478515625,0.5186573786348104,-1.0674226030245422,1.2670647392727434
1769667274741354500,3.4923544921875,0.8950584959328174,-1.268722589482367,0.7144217236015945
1769667274751343600,3.502343505859375,-0.18665654407739637,-0.6319870398905127,0.5728134778447449
1769667274761332500,3.51233251953125,-0.2833691978573799,0.40558417635820804,-0.029274025279283522
1769667274771321600,3.522321533203125,0.9955378087699412,-0.6640797758523375,-0.34443821826092896
1769667274781309700,3.532309814453125,-0.17863281209766863,-1.3171739011794328,-0.5740392202474176
1769667274791298600,3.542298583984375,-1.543269890719652,-0.752816116990894,-1.069636114355549
1769667274801287700,3.55228759765625,-0.5069172564804554,-0.3343019511066377,-0.8927722846917807
1769667274811276800,3.56227685546875,1.1000035608947276,0.393316230937466,-0.5007493815004825
1769667274821265700,3.572265625,0.8928858280688524,0.8977911357671022,-0.24079021225981412
1769667274831254800,3.5822548828125,-0.0968570306867361,1.1207820719640702,-0.4918010089565068
1769667274841243600,3.59224365234375,-0.3671428750872612,0.7267801237847655,-0.91564784110561
1769667274851231700,3.602231689453125,0.25265841777324677,0.5297611756470054,-1.6244231563180684
1769667274861220900,3.612220947265625,0.08111819428503513,0.5028404354956001,-1.3004628587447107
1769667274871210000,3.6222099609375,0.14291326394081114,0.13149338671676813,-0.6866967543952167
1769667274881198600,3.632198486328125,0.6082961485058069,0.060722033596783874,-0.6235818343125283
1769667274891187700,3.642187744140625,0.2319908927977085,0.2003784146334976,-0.7373112354755401
1769667274901176600,3.652176513671875,0.025486323434114454,0.10602890978828072,-0.6976466029547155
1769667274911164700,3.66216455078125,0.2775958751529455,-0.6667587858032434,-0.4539547509692609
1769667274921153800,3.67215380859375,0.7511854470491409,-2.5184973173886536,0.21038842505961655
1769667274931143000,3.682142822265625,0.560680410850048,-5.006833305269479,0.5306548365511
1769667274941131800,3.6921318359375,0.1673801811993122,-7.327097622555494,0.7867764003902673
1769667274951121000,3.702120849609375,-0.6520832677841186,-6.240288474276661,-0.2237608245909214
1769667274961109800,3.71210986328125,-0.03738602006435394,-5.035566063278913,-0.09931421458050609
1769667274971098600,3.7220986328125,0.45750937471091746,-2.634558230239153,-0.16886852006092667
1769667274981086700,3.732086669921875,0.3670353230595588,-0.4722172606296837,0.29281287963762875
1769667274991075800,3.742075927734375,0.5679062704503536,0.7984851044930518,0.44108708608970043
1769667275001064700,3.752064697265625,-0.170621939599514,9.5465360055238,-0.10830357672199606
1769667275011053800,3.7620537109375,-2.174011095267534,9.894539880377053,-0.5777795758195221
1769667275021043000,3.77204296875,-2.954820111685991,8.682012348586321,-1.3115173367224633
1769667275031031800,3.78203173828125,-2.969346649688482,6.528537260869145,-3.377065573053062
1769667275041019600,3.79201953125,-0.19988310539722443,2.913621839857101,-3.953492126828432
1769667275051008800,3.8020087890625,0.16964286543428897,1.6616332352936267,-3.370170260581374
1769667275060997600,3.81199755859375,1.3451660699546337,-2.8590812713742255,-0.5548704093970358
1769667275070986800,3.82198681640625,2.6009289323598144,-4.01891941550672,0.4846745911426842
1769667275080976000,3.831975830078125,1.3398381529301404,-1.6832355569012463,0.7340741532504558
1769667275090964700,3.84196484375,0.5327542930483817,-0.7456169262018054,0.15134046215489505
1769667275100953900,3.851953857421875,-1.2458265748023987,1.0998094265621154,-0.6288619666725397
1769667275110941700,3.861941650390625,-1.2812287275731562,2.9274621491611,-0.7160092119887471
1769667275120930600,3.8719306640625,-0.5573129802435636,3.1613802106291056,-0.2742905499972403
1769667275130919700,3.881919677734375,0.3250584680736065,1.4906436314254998,-0.5253638905361294
1769667275140908800,3.89190869140625,-0.028681320083141327,0.05045563725680113,-0.4717202708929777
1769667275150897700,3.901897705078125,-0.6306365751296281,-0.39928441862687464,-0.9679561204917728
1769667275160886800,3.91188671875,-0.6026110886067152,-0.35921442017555233,-0.5239125226840377
1769667275170875000,3.921875,-0.08375731061697006,0.32383513682372866,-0.6185718971960246
1769667275180863700,3.93186376953125,-0.2542740362763405,0.5311891626235097,-0.6840560306280851
1769667275190852600,3.9418525390625,-0.5132493821114301,0.3131253075651824,-0.3710274614356458
1769667275200841700,3.951841796875,-0.4609726669073105,0.38175051550194616,0.1179582709044218
1769667275210830600,3.96183056640625,-0.08617138602137565,0.5092938494186848,0.34972543794885275
1769667275220819700,3.97181982421875,-0.3156593560874462,0.7380582544505596,0.6076395842932164
1769667275230808800,3.981808837890625,-0.6509621547996998,0.5861999059014023,0.6787292826473712
1769667275240797000,3.991796875,-0.730813690149784,0.6852832343354821,1.0211544805854558
1769667275250785800,4.001785888671875,-0.45181379341781136,2.2884324242174623,2.2615292197227475
1769667275260775000,4.01177490234375,-0.9802274269133806,1.4430556585595011,2.7273393897891043
1769667275270763500,4.021763427734375,-0.6095446872621775,-1.36103920026049,1.8848175751708447
1769667275280752600,4.031752685546875,0.9961445424914359,-1.5693262691266834,-0.46913639187961814
1769667275290741800,4.04174169921875,1.8177344821095465,-0.9153225546739995,-1.2820539263509214
1769667275300729900,4.051729736328125,0.9074795860886573,-0.01365413908213377,-0.3294121332384646
1769667275310718700,4.06171875,-0.17042787833213804,0.393680826466158,-0.0206928055472672
1769667275320707800,4.071707763671875,-0.8037456553697585,0.5785362394057214,0.2235090417869389
1769667275330696700,4.08169677734375,-0.4182762654751539,0.6900385391037911,0.4285262952022254
1769667275340685800,4.091685791015625,0.05083411518037319,0.6772215084329247,0.5558832397013902
1769667275350675000,4.101675048828125,0.2899929999113083,0.3762939305964857,0.6923999344728887
1769667275360663600,4.11166357421875,0.5697007526516914,0.3451073496941477,0.6934798386640846
1769667275370651600,4.121651611328125,1.1501906103432178,0.3761020612861961,0.6300422624982893
1769667275380640800,4.131640869140625,1.1513666683852672,0.6468914712946862,0.5412869974635541
1769667275390630000,4.1416298828125,0.4414215787410736,0.9324646089371293,0.5455765113510191
1769667275400618800,4.15161865234375,-0.41962534199655055,1.1508370915532111,1.1139354940049349
1769667275410607900,4.16160791015625,0.4052010953247547,0.3036089258749038,1.1471113490283489
1769667275420596700,4.1715966796875,1.4301836097657679,0.17827384259216486,0.8277588375113903
1769667275430584600,4.18158447265625,1.0419856716901064,0.5024233791273087,0.27560645490139724
1769667275440573700,4.19157373046875,0.3742529993534088,0.6981395741034299,0.23606252615079282
1769667275450562800,4.201562744140625,0.4893360070824623,0.9393354445546865,0.07178308744579553
1769667275460551700,4.2115517578125,1.017463224852085,1.0926524674795568,-0.02601853061467409
1769667275470540800,4.221540771484375,1.4281202474951744,1.05431104638651,-0.47670448904633517
1769667275480529700,4.23152978515625,1.2636778733134268,1.343523855705559,-0.9073365243561565
1769667275490518800,4.241518798828125,0.5364554856538772,1.9197317982941864,-0.32771387795321644
1769667275500506600,4.251506591796875,0.2116822642624378,2.1474428218156096,0.8618976923480629
1769667275510495700,4.261495849609375,0.16954758836627007,1.5635621526420116,0.6548541207369416
1769667275520484600,4.271484619140625,0.10666939964890479,1.2708873663008213,0.7912666244816035
1769667275530473700,4.2814736328125,0.048269817650318146,1.9239241354174912,1.0260835344854742
1769667275540462800,4.291462890625,-0.6686790132761001,1.5642077570691704,0.6634815907634795
1769667275550451700,4.30145166015625,-1.3080080134272574,1.1170371863473205,0.4676683651536703
1769667275560439800,4.311439697265625,-0.5751239467442035,1.9335620245955882,1.0465105287034064
1769667275570429000,4.321428955078125,-0.21622516838908193,1.154594544390589,1.171857960011065
1769667275580417500,4.33141748046875,-0.5370552051126957,-0.01988163529485464,0.8725782224468887
1769667275590406700,4.34140673828125,0.4222930999010801,-0.18782967950999735,0.5745704775799065
1769667275600395800,4.351395751953125,0.4648801957398653,-0.6033008244365453,0.49795887399911876
1769667275610384600,4.361384521484375,-0.07296645201146602,-0.882858355051279,0.6912623818103224
1769667275620373800,4.371373779296875,-0.21494038927555084,-0.817239927715063,0.9694455553319304
1769667275630361900,4.38136181640625,-0.7911246587276458,-1.1120169470325112,1.4982177199415863
1769667275640350700,4.391350830078125,-1.3696797489643096,-1.9629364415094255,1.2518097408652304
1769667275650339800,4.40133984375,-1.3171324001252651,-2.440590632496029,0.4325475135423243
1769667275660329000,4.411328857421875,-0.6764011319607496,-2.0044163067586718,0.4038983421631157
1769667275670317600,4.421317626953125,-0.5217793100476265,-1.4337262508086859,0.681774495562166
1769667275680306700,4.431306640625,0.09350421312749385,-0.8611772691190243,0.7486217340409755
1769667275690294800,4.441294677734375,0.7602946361780166,-0.46538376134783027,0.6302399770274758
1769667275700283600,4.45128369140625,1.3915245010256767,0.16244944679886103,0.7344950820762663
1769667275710272800,4.461272705078125,1.0532646060734987,0.5752376362517476,0.8465579382665455
1769667275720262000,4.471261962890625,0.819955616414547,0.8050532308369874,0.39869039825648067
1769667275730250800,4.481250732421875,0.6958885072410106,1.0732665067471563,-0.04959080058839172
1769667275740240000,4.491239990234375,0.2968506107211113,1.3364511408403514,-0.5713013927813619
1769667275750228700,4.501228759765625,-0.26405308749079703,0.9456298685237765,-0.8977982961602509
1769667275760216800,4.511216796875,-0.526959343034029,1.1571996123224497,-0.8794907783143222
1769667275770205700,4.521205810546875,-0.9940081149846315,1.0278647918790578,-1.0079902439121156
1769667275780194800,4.53119482421875,-1.647462086600065,0.8325129001706838,-1.1636332986317575
1769667275790183700,4.54118359375,-1.9878625007122754,0.8168914065383375,-0.9113942753143608
1769667275800172500,4.551172607421875,-2.125694515866041,0.6396284214891493,-0.899928366991505
1769667275810161700,4.56116162109375,-1.8465970039784907,0.43307036837264895,-1.1012629133060574
1769667275820149500,4.5711494140625,-1.1937936052262783,-0.2283224334180355,-1.231279432403296
1769667275830138400,4.581138427734375,0.4751660274326801,-0.37084801321551203,-1.1781239616032688
1769667275840127500,4.59112744140625,0.8995704203993081,-0.7480480258062482,-0.04669531660890206
1769667275850116600,4.60111669921875,1.116955864739418,-0.7151600478135048,0.30830760508514937
1769667275860105500,4.61110546875,1.0375286922812461,-0.6734151018872857,0.27580855334475635
1769667275870094600,4.621094482421875,0.4746493100821972,-0.9472763205565512,0.21885785498023033
1769667275880083500,4.63108349609375,-0.35485271783471106,-0.9054754066593944,0.16791227878201753
1769667275890071300,4.6410712890625,-0.7078185990095138,-0.9342277461521327,0.4268486808462068
1769667275900060400,4.651060302734375,-0.5434919601619244,-1.616483741620928,0.0814015412710607
1769667275910049500,4.661049560546875,-0.8862637795805931,-1.1518270524386316,-0.3360605217443779
1769667275920038400,4.671038330078125,0.2009346602767706,-1.4062332637272774,0.7375134800493717
1769667275930027500,4.681027587890625,0.6562333732008934,-1.0707255170274526,0.5247729389056563
1769667275940016400,4.691016357421875,0.2106190189450979,-0.6695410369329154,0.7338407828859984
1769667275950004500,4.70100439453125,0.37806758920550343,-0.5132569078307598,0.26518059368338437
1769667275959993600,4.71099365234375,-0.4017939172297716,-0.7952757870577275,0.10927359079793095
1769667275969982500,4.720982421875,-0.538913984721899,-1.3847063454434274,0.1705551945062354
1769667275979971300,4.730971435546875,0.23300445375442502,-1.9970657978653907,0.12457606334267184
1769667275989960400,4.74096044921875,0.7431950328171253,-2.5252412386909127,0.5325090861156583
1769667275999949600,4.750949462890625,1.1817243972480296,-2.487416242687404,0.6859824686460196
1769667276009937400,4.7609375,1.1744681425094603,-2.014415284334123,0.25351671510301527
1769667276019926500,4.770926513671875,0.4071779483556747,-1.3137198152028022,-0.10161080108508468
1769667276029915600,4.78091552734375,-0.918299086266756,-1.5520233982786535,-0.18375579940089956
1769667276039904500,4.790904541015625,-1.0865665716946125,-1.1924863950852305,0.23888200401831416
1769667276049893600,4.8008935546875,0.08261515484452248,-0.9032091422278433,-0.2985701279900968
1769667276059882500,4.810882568359375,0.512455016863346,-0.6896786928154528,-0.555009416008927
1769667276069871400,4.820871337890625,-0.3318611338257789,-0.8156112305346875,0.11803849653378129
1769667276079859500,4.830859375,-0.7619745520889759,-1.2087168143961577,0.15571137071549893
1769667276089848600,4.8408486328125,0.16361001501083372,-0.8954409193791448,0.21606559391319752
1769667276099837400,4.85083740234375,0.9565116202831268,-0.6649675915375352,0.26558855342976745
1769667276109826600,4.86082666015625,1.0138567247927188,-0.45088469587415453,-0.08919212208203971
1769667276119815700,4.870815673828125,0.5184422745794057,0.042240401292964816,-0.12173384392037986
1769667276129804500,4.880804443359375,0.18028876261115073,0.11875395132675766,-0.14237733043320477
1769667276139793400,4.89079345703125,0.16284195324778555,-0.07555076941624284,-0.12196166132688521
1769667276149781500,4.900781494140625,-0.018887655821442605,0.07562558821812272,-0.006890782427042722
1769667276159770400,4.910770263671875,0.020239070430397986,-0.11834047515504062,0.10805910044163465
1769667276169759500,4.920759521484375,-0.664417848700285,-0.022156594489514826,0.028372984786331653
1769667276179748600,4.93074853515625,-0.4961024324774742,-0.0020624124225229025,0.12948460417762397
1769667276189737500,4.940737548828125,-0.13860124596059323,0.08794007619433104,0.10960428405702113
1769667276199726600,4.9507265625,0.08789338750839233,0.04643712233044207,0.0014562632229179143
1769667276209714400,4.96071435546875,0.40681437574028967,-0.03459061719216406,-0.09163673875518143
1769667276219703600,4.97070361328125,0.511796845215559,0.05965944586656987,-0.18730974728912114
1769667276229692400,4.9806923828125,0.2442997547507286,0.16020371369868516,-0.2734890243560076
1769667276239681500,4.990681640625,0.13293898241519927,-0.07785173983499408,-0.3557515663705766
1769667276249670400,5.00067041015625,-1.2731810301959514,0.23774653371497986,-0.000902903656475246
1769667276259659500,5.010659423828125,0.36270869203209877,-0.09287431772612034,-0.09803582867514342
1769667276269648600,5.020648681640625,1.4617068752765654,0.27727511876598,-0.11272040678355842
1769667276279636500,5.030636474609375,0.9988274979650974,0.1842965369477868,-0.041121735993959005
1769667276289625300,5.040625244140625,0.5135808060228825,0.07479059869870543,-0.2965272970508784
1769667276299614500,5.050614501953125,0.2757692442476749,0.049520840624719856,-0.11951353752240539
1769667276309603300,5.060603271484375,0.3935644335448742,-0.035748920381814236,0.05722809053380042
1769667276319592400,5.070592529296875,0.4329939421355724,-0.08103738413378596,0.10690382945928723
1769667276329581600,5.08058154296875,0.12817805162370205,-0.06646919894665479,0.10846441157320513
1769667276339569700,5.090569580078125,0.05386135404706001,-0.06790478470772504,0.2215491216245107
1769667276349558500,5.10055859375,0.1399485689163208,-0.031972908974438906,0.13265711500020697
1769667276359547600,5.110547607421875,-0.12356792747974395,0.008608838391304016,0.10694293762696906
1769667276369536500,5.12053662109375,-0.15557459259331224,0.02964505054876208,0.12118254844686016
1769667276379525400,5.130525390625,-0.16813070730566979,0.027679303433746097,0.054803621599543835
1769667276389514500,5.140514404296875,-0.19993278975784778,-0.0020639467924833295,0.08870537974471226
1769667276399503400,5.15050341796875,-0.10678513498306273,-0.02610708568096161,0.1532941352396272
1769667276409491500,5.160491455078125,-0.04239420361518859,-0.044375440560281275,0.13267238563457504
1769667276419480600,5.17048046875,-0.098076927870512,-0.009387567678838967,0.11143365490864962
1769667276429469700,5.1804697265625,-0.05956628769040107,-0.04149053277373314,0.0723047001671046
1769667276439458600,5.19045849609375,0.1822989333897829,-0.05841638700291514,0.06498129847645759
1769667276449447400,5.200447509765625,0.4459913708746433,-0.017339841857552527,0.04057820370178669
1769667276459436500,5.2104365234375,0.448026676094532,0.007170914542675018,-0.026272962033469228
1769667276469424400,5.22042431640625,0.25719781476855275,0.020778730265051126,-0.049629324234183876
1769667276479413500,5.23041357421875,0.25181787529587746,0.023452625649422406,-0.0043446598744951185
1769667276489402600,5.240402587890625,0.15176292535066604,0.04130538546517491,-0.040802112118154765
1769667276499391500,5.2503916015625,0.062274962127208705,0.046037382423132656,-0.0858524562653154
1769667276509380600,5.260380615234375,0.007895721685886382,0.06571297375187278,-0.017583258691988884
1769667276519369700,5.27036962890625,-0.08226268814504147,0.028963498025387523,-0.07285594084169715
1769667276529358300,5.2803583984375,-0.04506722221672535,0.024414018027484417,-0.07254340429380536
1769667276539346400,5.290346435546875,0.0543757333099842,0.04535977542251348,-0.029052089624293148
1769667276549335600,5.30033544921875,0.12871405819654463,0.03043956192731857,-0.009111965607851743
1769667276559324400,5.310324462890625,0.19256722942590712,0.031923370744287964,-0.030726160316355524
1769667276569313500,5.3203134765625,0.06678630207180976,0.030094840142875907,-0.06044076896999031
1769667276579302700,5.330302734375,-0.07157353634834289,0.03937237157598138,-0.037080315116047854
1769667276589291500,5.34029150390625,0.04641337612867355,0.08882233892157673,-0.12383052393868565
1769667276599279400,5.350279296875,0.0812719235420227,0.07774433393776416,-0.08748425871822983
1769667276609268500,5.3602685546875,0.09966098219156265,-0.020529431679099798,-0.05815539797917008
1769667276619257300,5.37025732421875,0.12843348768949508,0.1481327521547675,-0.23221951392181217
1769667276629246500,5.38024658203125,-0.0641314036488533,0.10082841853573918,-0.2040658709745854
1769667276639235600,5.390235595703125,-0.059473933231830596,-0.043809038849174975,-0.08151333108246325
1769667276649224400,5.400224365234375,-0.1957669022500515,-0.10715309151262044,0.027975473368726668
1769667276659212500,5.410212646484375,-0.1963549312710762,-0.21841376447454094,0.21500896099973468
1769667276669201700,5.42020166015625,-0.12587328181266783,-0.2273765308700502,0.2798211499869823
1769667276679190300,5.430190185546875,-0.12633388506174087,-0.08632920693159103,0.03919727073740214
1769667276689179400,5.440179443359375,-0.09975099856257438,0.005753595090657472,-0.0759906952034682
1769667276699168500,5.45016845703125,-0.0038134208083152768,0.06472659306302667,-0.05102291575074196
1769667276709157400,5.460157470703125,-0.03700608083605766,0.06153700324147939,-0.07332637136504054
1769667276719146500,5.470146484375,-0.14488310270905494,0.06331964887455105,-0.159282470667921
1769667276729134600,5.480134521484375,0.04436287333965301,0.13398133107498286,-0.2772275167645886
1769667276739123500,5.49012353515625,0.25498481489419933,0.12858970116451382,-0.3025362916747108
1769667276749112600,5.500112548828125,0.2626782920062542,0.07693783986046909,-0.22050098254475742
1769667276759101400,5.510101318359375,0.29031214886307716,0.16065817946791647,-0.40776203185394405
1769667276769090300,5.52009033203125,0.23300679184198378,0.14048720583766697,-0.6075514676183462
1769667276779079400,5.530079345703125,0.06836275760829448,0.14100757644996045,-0.7126330866191536
1769667276789067500,5.540067626953125,0.13450316299200057,0.06891133140176534,-0.5345510768046602
1769667276799056600,5.550056640625,0.12073767248988151,-0.0587077711649239,-0.010930522804521024
1769667276809045200,5.560045166015625,0.12782909205555915,-0.04744359595924615,-0.03232683697864413
1769667276819034400,5.570034423828125,0.18622049074769018,-0.1432363584153354,-0.07014414286604151
1769667276829023500,5.5800234375,0.25754209816157814,-0.14559797298014163,0.24791041952855883
1769667276839012000,5.59001220703125,0.0366951151907444,-0.05868731289878487,0.0622344109211117
1769667276849001200,5.600001220703125,-0.14430208795070648,-0.09853826177194713,-0.41037290847208346
1769667276858989300,5.6099892578125,-0.4615583578407764,0.05125599385425448,-0.3451627696758136
1769667276868978200,5.619978271484375,-0.4908604401707649,0.051514937051385636,-0.6702116296708583
1769667276878967300,5.62996728515625,0.15205051012039184,0.019111527705192564,-0.6541857930213213
1769667276888956400,5.639956298828125,0.2734738267868757,-0.27500673544257875,-0.6215740016214549
1769667276898945300,5.6499453125,-0.16815993340015412,0.11303498915806412,-0.6433716996707022
1769667276908934400,5.659934326171875,-0.013124854511022566,-0.26818215011954305,-0.1343433327877894
1769667276918922200,5.669922119140625,0.5312590860545635,-1.0826093585014342,0.5296692230472341
1769667276928911000,5.6799111328125,-0.10515548795461654,-0.3910930749952793,0.04498367211911827
1769667276938900200,5.689900146484375,-0.2312678392201662,0.2581478089697659,-0.38080713370461017
1769667276948889300,5.699889404296875,0.005398644173145294,0.037144028002023696,-0.7726858426522463
1769667276958878200,5.709878173828125,-0.14613631764054297,-0.1464348621957004,-0.9824684838384389
1769667276968867300,5.719867431640625,-0.21735738728940485,0.2519492465905845,-1.09280473543182
1769667276978855200,5.729855224609375,-0.4004588692337274,0.4086966823555529,-0.8225331387523561
1769667276988844000,5.739843994140625,-0.4295265582859516,0.37177404201924796,-0.4821342590101063
1769667276998833200,5.749833251953125,-0.21659809335470198,-0.04512845088467002,0.09231953338757157
1769667277008822300,5.759822265625,0.12498773114979267,-0.22669906999990344,0.5598679984886199
1769667277018811100,5.76981103515625,0.08492167822122573,-0.13223390288576484,0.686889573553577
1769667277028800300,5.77980029296875,-0.04146247572302818,-0.12546616231650112,1.17326336982958
1769667277038789400,5.789789306640625,-0.39726094997525213,-0.3925317294962704,0.3849569103278219
1769667277048777200,5.799777099609375,0.009415478599071502,0.06837664000317453,0.9186578365765511
1769667277058766300,5.809766357421875,0.3827238905787468,-0.4163214781455695,0.9416028049647808
1769667277068755200,5.819755126953125,0.4441501269221306,-0.4564674644425511,0.7655091559559106
1769667277078744000,5.829744140625,0.2815571799993515,-0.6219480956308543,0.6385083314180374
1769667277088733200,5.839733154296875,0.2837169883817434,-0.31188115272298456,0.5977646714888513
1769667277098722300,5.849722412109375,0.40211365070343014,-0.16601313062980771,0.2291858818469569
1769667277108710400,5.85971044921875,0.3788204533994198,0.006507189936935901,0.0036345205774530767
1769667277118699300,5.86969921875,0.2770505162298679,0.021985621836781502,-0.12884119170755148
1769667277128688400,5.8796884765625,0.5450339289069175,-0.016880846043676137,-0.22395104993339626
1769667277138677200,5.88967724609375,0.31776948010921474,-0.16453312120512126,-0.2866203086078167
1769667277148666000,5.899666015625,0.1949906571805477,-0.26508652219176293,-0.10227953065950422
1769667277158655200,5.9096552734375,0.11855623679757117,0.1311151279889047,0.19170648441072552
1769667277168643300,5.919643310546875,-0.06618892070055007,0.053693888525664805,0.06862226706100627
1769667277178632200,5.929632080078125,0.11923720479905604,-0.2600248548880219,0.2738035519315861
1769667277188621300,5.939621337890625,0.21206454157829283,-0.05525865362435579,0.42746473038531835
1769667277198610400,5.9496103515625,0.1785655920803547,-0.3819166658490896,0.023486290457006544
1769667277208599300,5.959599365234375,0.0222340436398983,-0.11063859554082155,-0.09412674720631911
1769667277218588400,5.96958837890625,-0.35778351058959956,0.32922961627840996,0.25799877415420486
1769667277228577000,5.979576904296875,-0.43706104544401164,0.07222995443046093,-0.017027250510733574
1769667277238565000,5.989565185546875,0.22209902885854244,0.22939210847616195,0.19398706962857395
1769667277248554200,5.99955419921875,0.5845476086497307,0.3304787395566702,0.10402473035901784
1769667277258543400,6.00954345703125,0.4856581953525543,0.09879705883860587,0.26668506169589234
1769667277268532200,6.0195322265625,0.25549217989444734,0.14203823467195034,-0.05369962871328462
1769667277278521300,6.029521240234375,0.05528992554545402,0.10542787515521049,-0.060001436837809154
1769667277288510200,6.03951025390625,0.1489332548826933,0.18728811997920275,0.15314676265818997
1769667277298498000,6.049498046875,0.1771791061580181,-0.032952713792026044,0.3463368184238672
1769667277308487200,6.059487060546875,0.2319219192147255,-0.4840979602985084,0.09740779643729329
1769667277318476300,6.069476318359375,0.27392975386083124,-0.9204670779556036,0.37946846897937353
1769667277328465200,6.079465087890625,-0.02580021168887615,-0.8378700432896613,0.361192880641669
1769667277338454300,6.089454345703125,-0.10509995837509631,-0.9203352682694792,0.22674663546867668
1769667277348443400,6.099443359375,-0.16102467469274998,-0.9077715547725558,0.07281250355876982
1769667277358431200,6.10943115234375,-0.3149614369511604,-0.45247254958748817,-0.2914213156813755
1769667277368420400,6.11942041015625,-0.18182488613724707,-0.3377249112926423,0.10082564205676317
1769667277378409200,6.1294091796875,0.46503392499685287,-0.11716814344003795,-0.3748875343972817
1769667277388398000,6.139398193359375,-0.02166705740690231,-0.152177059109509,-0.2143054523728788
1769667277398387200,6.14938720703125,-0.4002952031046152,0.4003035325415432,-0.12148578744344413
1769667277408376300,6.159376220703125,-0.1103378590285778,0.1211466916821897,0.7307728466827422
1769667277418365200,6.169365234375,0.05144494055509567,-0.0637000264942646,1.1961428717661649
1769667277428353300,6.179353271484375,-0.1861059244573116,-0.04041442797482014,1.0130518381506204
1769667277438342400,6.18934228515625,0.31901684982180595,-0.33966377040073276,1.1575608468502758
1769667277448331300,6.199331298828125,0.8160229531407356,-0.7246070905946195,0.8224248560722917
1769667277458320100,6.209320068359375,0.12828268104195595,-0.775959092169255,0.6378066128894686
1769667277468309200,6.219309326171875,-0.752285517245531,-0.34393984028473495,0.44941060473360117
1769667277478298000,6.229298095703125,-0.5084627323567867,0.02345043369233608,1.4473317284435032
1769667277488286200,6.2392861328125,0.1670972726047039,-0.27741671919375654,2.1346426692143083
1769667277498275300,6.249275390625,0.1971697547852993,-0.5374905277900397,2.142833574454486
1769667277508264200,6.25926416015625,0.03987725235819816,-0.854910463809222,2.181057506647706
1769667277518253300,6.26925341796875,0.6965887644648552,-1.2582888737514615,1.5159478762909768
1769667277528242400,6.279242431640625,0.680367112982273,-0.8251990700259805,0.4447708891689777
1769667277538231000,6.28923095703125,0.9982043976306915,-1.1416630204945801,-0.4008266796328127
1769667277548220200,6.29922021484375,0.10116554153561591,-0.9355639631919562,-0.6785454505130648
1769667277558208300,6.309208251953125,-1.7022025615692138,-0.09551438390612602,-0.7499804551735519
1769667277568197400,6.319197265625,-1.68188107355237,0.13840440821424127,-0.3381498587064445
1769667277578186200,6.329186279296875,-0.5853039799749851,0.0454908544562757,-0.23552933258954434
1769667277588175400,6.33917529296875,-0.13621522760689259,-0.004876081603765487,-1.1744207962363957
1769667277598164200,6.349164306640625,0.2755354354918003,-0.051371583057940005,-0.8938759350847453
1769667277608153300,6.3591533203125,0.7252607321977615,-0.583836245509982,-0.38843434064742177
1769667277618141200,6.36914111328125,1.1805611986875533,-1.3792628392152488,-0.13861523795332759
1769667277628130300,6.37913037109375,1.6800637949973345,-3.37789880900681,0.7920033412583172
1769667277638119200,6.389119140625,0.00045709611773490905,-3.4284827488183973,0.9734028415903448
1769667277648108300,6.3991083984375,0.47992345109283924,-3.3943028313189743,1.8317200451031326
1769667277658097200,6.40909716796875,3.0114520994901657,-2.616238145172596,2.120492124917358
1769667277668086300,6.419086181640625,0.5853495726823806,-0.9533448268152773,0.44683973133228716
1769667277678075400,6.429075439453125,-0.8801637091398239,-0.15367942649647592,0.5195304351422936
1769667277688063200,6.439063232421875,-0.8222165470838546,-1.0175962035819888,0.3128190911602229
1769667277698052000,6.449052001953125,-0.599905336779356,-1.5067683984048663,-0.10778861293718218
1769667277708041200,6.459041259765625,-0.6611141309797763,0.012420067242532968,-1.0784373335137962
1769667277718030300,6.4690302734375,-0.5787310313254594,-0.2276196919761598,-2.1618949794076383
1769667277728019200,6.479019287109375,-1.197915653592348,0.438236372833699,-1.27104357977584
1769667277738008300,6.48900830078125,-2.2700316751301286,0.42254575948789713,-0.3509510342210531
1769667277747996400,6.498996337890625,-2.0701485697329045,-0.019806670362502336,-0.23003215994536874
1769667277757985300,6.5089853515625,-1.8887199894368647,0.5311527030706406,-1.2750254890188575
1769667277767974100,6.51897412109375,-1.964313867342472,1.557521557303518,-1.7663306042172013
1769667277777963300,6.52896337890625,-0.8918646683275699,2.3744278691500424,-1.4584452431321144
1769667277787952000,6.5389521484375,-0.41449791598021984,3.938019540147483,-1.3153925707206129
1769667277797941200,6.548941162109375,1.2084551677852868,5.259869908705354,0.3073261197671294
1769667277807929600,6.5589296875,2.067822172611952,4.528848713284731,0.17455942517891526
1769667277817918500,6.56891845703125,0.41787236084938045,5.056537539637088,-1.7203046199709175
1769667277827907600,6.578907470703125,-0.6844505829036236,5.27380841768682,-1.9644880548655985
1769667277837896700,6.588896728515625,-0.4047422456413507,4.43243854958266,-1.6160114479340613
1769667277847885600,6.598885498046875,-0.004364040428400039,2.35946557007879,-0.8962328004091977
1769667277857874400,6.60887451171875,0.13907353964745997,1.0619194024983794,-0.13156352934353052
1769667277867863300,6.61886328125,-0.17783610876202582,1.1816225443087518,0.19275595693103967
1769667277877851400,6.628851318359375,0.278980607509613,0.6121902333348989,0.4572041081540286
1769667277887840500,6.638840576171875,0.6182002874046564,-0.05464863196723163,0.6654220573067665
1769667277897829600,6.64882958984375,0.8639566707044839,-0.1769509234253317,0.7068886246830225
1769667277907818500,6.658818603515625,0.6563041003495454,0.009404226552695035,0.43619478400349615
1769667277917807600,6.6688076171875,-0.025777415335178373,0.2890466589719057,-0.08053889655973762
1769667277927796500,6.67879638671875,-0.29890345159769055,0.2548954561103135,-0.014872173102386295
1769667277937784300,6.688784423828125,-0.14970657734274864,0.036899113330245016,0.4650178506448865
1769667277947773400,6.6987734375,-0.10120645806789398,-0.006732303929701447,0.6228443138182163
1769667277957762600,6.708762451171875,-0.1902408323049545,0.14508929280564187,0.3280523891925812
1769667277967751400,6.71875146484375,-0.1545662923336029,0.4193375380311161,0.011526698599383234
1769667277977740500,6.728740478515625,-0.09245032016038894,0.5038916250489652,-0.09044080696888268
1769667277987729700,6.738729736328125,-0.1151788693189621,0.5121854061417281,-0.30092684718407686
1769667277997718500,6.748718505859375,0.035145547661185265,0.7468592544130981,-0.30467361423065886
1769667278007706400,6.758706298828125,-0.07768763531446457,0.8164610522970557,-0.36508002427332104
1769667278017695500,6.768695556640625,-0.34889877786636353,0.7834511284250766,-0.5621793441709131
1769667278027684400,6.778684326171875,-0.08693477160930634,0.6502227346092462,-0.3331313729573041
1769667278037673500,6.788673583984375,0.27969372421503064,0.3506464983165264,-0.009043023990909569
1769667278047662600,6.79866259765625,0.442968808183074,0.2096650061558932,-0.09041748089222237
1769667278057651500,6.8086513671875,0.19469196649491785,0.30396489970572294,-0.38449627054613084
1769667278067639600,6.8186396484375,0.11257131716907023,-0.018741525349020956,-0.03995504856845364
1769667278077628700,6.828628662109375,0.363840326410532,0.11156740082353353,-0.17751546197291462
1769667278087617300,6.8386171875,-0.05415419951379299,-0.12376776090078055,0.06392303072833455
1769667278097606400,6.8486064453125,0.3536521098732948,0.00019179624505341052,0.057514013069402424
1769667278107595500,6.858595458984375,0.25442367388010023,-0.1368978761088103,0.22966887959092855
1769667278117584400,6.86858447265625,0.07080547458529472,-0.18201792449131607,0.20692670376580208
1769667278127572500,6.878572509765625,-0.08805939172506332,-0.10601919211186468,0.1773174917154014
1769667278137561600,6.8885615234375,0.030209260302782058,0.07848032006211578,0.2631215787943452
1769667278147550500,6.898550537109375,-0.3564800267755985,0.23576178963854907,-0.013148198853991926
1769667278157539600,6.90853955078125,0.020244331127405167,-0.27968349508196116,0.1391236989321187
1769667278167528400,6.918528564453125,0.4374672881573438,0.21287198550365863,0.150576948702801
1769667278177517300,6.928517333984375,0.26691899831593036,0.3231359025131911,0.057357753928611054
1769667278187506400,6.93850634765625,0.2207376773774624,0.5103125249419361,-0.1408375262458343
1769667278197494500,6.94849462890625,0.4707657466471195,0.44794338172525167,-0.13729703149423003
1769667278207483600,6.958483642578125,0.08316518994271754,0.2015369370188564,-0.17611878345012663
1769667278217472500,6.968472412109375,-0.20765023226737975,-0.09004245530106127,0.3026037126214243
1769667278227461600,6.978461669921875,-0.05312953264117241,-0.19385485808365047,0.3440146956192329
1769667278237450500,6.988450439453125,-0.2606254511296749,0.10653254846148193,0.03257560127505567
1769667278247439400,6.998439453125,-0.6346627619057893,-0.5899695606332271,0.5622984770385548
1769667278257427500,7.008427490234375,0.19950199712514877,-1.1130131915282457,0.19760169819546863
1769667278267416600,7.01841650390625,0.26805121721625325,-0.6295446882396936,0.48756220234297215
1769667278277405400,7.028405517578125,-0.22731354863643644,-0.3505846120614558,0.0795370260408148
1769667278287394600,7.03839453125,0.20567922445535658,0.35169133119434115,-0.028168004832719452
1769667278297383400,7.048383544921875,0.02262450426220894,-0.17042517491839826,0.32928014088924973
1769667278307372500,7.05837255859375,0.5470505294263363,-0.5638198048543185,0.0923294885260053
1769667278317360400,7.0683603515625,0.029056583136320112,-0.3295567293409258,0.290800754363928
1769667278327349500,7.078349609375,0.05608545983731746,-0.4152260841242969,0.2936587376109324
1769667278337338400,7.08833837890625,-0.054366965481638906,0.03498597318530083,-0.17620142023228108
1769667278347327500,7.098327392578125,-0.764266462418437,0.20205694230496882,0.4362529804641381
1769667278357316600,7.108316650390625,-0.1535071386694908,-0.10358875009454786,0.2023728398537263
1769667278367305500,7.118305419921875,0.2165185983777046,-0.2877951245408505,0.2717834260145202
1769667278377294600,7.128294677734375,0.14475918406844138,-0.18674290718659758,-0.0057121191526646724
1769667278387282700,7.13828271484375,-0.2578933958172798,0.05308773932605981,0.027184396056272087
1769667278397271300,7.148271240234375,-0.19741350041329858,-0.21481157526411115,0.054563433335232545
1769667278407260400,7.158260498046875,-0.7902993138194083,-0.1868639032177627,0.10532016786388121
1769667278417249500,7.16824951171875,-0.9455021504908799,-0.768555976305902,0.3769991562563926
1769667278427238400,7.17823828125,0.4542927507519722,-0.9026364569064229,0.027768013763660563
1769667278437227500,7.1882275390625,0.4204010025441646,-1.0786760376404971,-0.21739841341953722
1769667278447215600,7.198215576171875,-0.14632628725469113,-0.7630294679693878,-0.4201000103035942
1769667278457204500,7.20820458984375,0.1549240197300911,-0.4394659146286547,-0.4602965577440336
1769667278467193600,7.218193603515625,0.2327367427289486,-0.16689977727122604,-0.17552417855784297
1769667278477182500,7.228182373046875,0.004102174621820449,0.014493293320015073,0.06551240967847406
1769667278487171300,7.23817138671875,0.1264285776078701,0.07356091077327728,0.16326043438818305
1769667278497160400,7.248160400390625,0.34913200210034845,-0.15484123681746423,0.23676627223966643
1769667278507148500,7.2581484375,0.060167760714888566,-0.10539024655856191,0.03178116752831265
1769667278517137400,7.268137451171875,-0.02874211035966873,-0.15113463738448918,0.086955969660962
1769667278527126500,7.27812646484375,-0.11207038190960883,-0.21249606486335396,0.02463232782012783
1769667278537115600,7.28811572265625,-0.17913666996657848,-0.27366788805425163,-0.07398178936673794
1769667278547104500,7.2981044921875,0.1725081917375326,-0.12240355987548827,-0.05255931783805135
1769667278557093600,7.30809375,0.19302783267498017,-0.14538929866552353,0.041457128261053
1769667278567082500,7.31808251953125,0.14397709378004073,-0.12281053324118256,0.07329765672720968
1769667278577070600,7.328070556640625,-0.12240472891926765,0.10790639409795402,0.1352418251306284
1769667278587059500,7.3380595703125,-0.07287818920612335,0.024487667785584925,0.11003410857534035
1769667278597048600,7.348048583984375,0.08964929126501082,-0.14849340216070414,0.043763012316939416
1769667278607037400,7.358037353515625,0.10768997486829757,-0.15520269054099917,-0.02047515105846105
1769667278617026600,7.368026611328125,0.09549392563998699,-0.21701792620196939,-0.215327561962232
1769667278627015700,7.378015625,0.0827753138422966,-0.09273600523397325,-0.152205655016331
1769667278637003500,7.38800341796875,-0.029913492226600644,0.05192658659219741,-0.02655679764326196
1769667278646992400,7.397992431640625,-0.3121253367424011,0.10607552540898323,0.19858499187808482
1769667278656981500,7.4079814453125,-0.4197685498595237,0.15842048354372382,0.19145813567284495
1769667278666970400,7.417970458984375,-0.45937633762657637,0.15673866793662308,0.15884015199420973
1769667278676959500,7.42795947265625,-0.2770990315467119,0.24735271258056163,0.14945531512857413
1769667278686948600,7.437948486328125,-0.47088265102505683,0.019465601839870214,0.3202498987480998
1769667278696937500,7.4479375,0.022281389912962912,-0.1960311061441898,0.1908799339260906
1769667278706925300,7.45792529296875,0.010029226583242417,0.05502776747792959,-0.09456579621070996
1769667278716914400,7.46791455078125,-0.3498796055972576,0.09312164355069398,0.03099564317381009
1769667278726903600,7.477903564453125,-0.13605799121856688,0.07229410570785402,0.05711352424342185
1769667278736892400,7.487892333984375,0.06505319466888904,0.07471738733202218,0.204337783251144
1769667278746881500,7.497881591796875,-0.14681611659824848,0.02089008168503642,0.19901235044468193
1769667278756870400,7.507870361328125,-0.06303659414947033,0.006475479624420404,0.21274755540639162
1769667278766858500,7.5178583984375,-0.12063128950595856,0.4199034282855689,0.44371575409285724
1769667278776847600,7.52784765625,0.23020225581526754,-0.1705550118431449,-0.06606467326637357
1769667278786836500,7.53783642578125,0.08525251761078834,0.15292276291027665,-0.03431786466538906
1769667278796825300,7.547825439453125,0.2889724246919155,0.12838204976320267,0.41016872766949236
1769667278806814500,7.557814453125,0.3408265305697918,-0.021104747349023817,0.4768420343535021
1769667278816803300,7.56780322265625,-0.21210019741356373,0.01218508944287896,0.3489848487146199
1769667278826791400,7.57779150390625,-0.14483517191410064,-0.4932864982739091,0.29569325737953184
1769667278836780500,7.587780517578125,0.2501952425301075,-0.02903407904356718,-0.03222834504023194
1769667278846769700,7.597769775390625,-0.0939069487094879,-0.022724895896762607,0.05646963684931397
1769667278856758500,7.607758544921875,-0.1834358284652233,0.01000467666387558,0.06448416260927915
1769667278866747600,7.61774755859375,0.21239070479273794,0.06749883425533772,-0.009215791308507323
1769667278876736500,7.627736572265625,0.4174398146510124,0.09563757189437747,-0.05647694337293505
1769667278886724400,7.637724365234375,0.23520342510342596,-0.20872633706629276,0.2857528781235218
1769667278896713500,7.64771337890625,0.04144494006633758,-0.4384736887209117,-0.3217020703177899
1769667278906702600,7.65770263671875,-0.052502925175428386,-0.2560214644655585,-0.3189556942190975
1769667278916691500,7.66769140625,0.1287678342103958,-0.17431027272343635,-0.3064617580227554
1769667278926680600,7.6776806640625,0.3509504496991634,-0.019169395372271535,-0.15873400647230446
1769667278936669700,7.687669677734375,0.2492529932439327,0.10292582920640707,0.06835691238939762
1769667278946657500,7.697657470703125,-0.030404490613937376,-0.10107990907877683,-0.15311996598280966
1769667278956646400,7.707646484375,-0.0206610952347517,-0.2709109905615449,-0.21998320574834943
1769667278966635500,7.717635498046875,0.05261690694391727,0.025946196030825375,-0.20008220816589892
1769667278976624400,7.727624267578125,0.005929390048980712,-0.3420221700951457,-0.08272782143875956
1769667278986613500,7.737613525390625,0.09456745844483375,-0.16438085325285792,-0.30519568360969423
1769667278996602600,7.7476025390625,0.18325930285453795,-0.12437851321026683,-0.15027911653369663
1769667279006591500,7.757591552734375,0.294738148611784,-0.012185381703823803,-0.08744389017522335
1769667279016579300,7.767579345703125,0.30293139193952084,0.05864332762658596,-0.20597258137874305
1769667279026568400,7.777568359375,0.4744739535152912,0.08016425456106663,-0.2650014011915773
1769667279036557300,7.787557373046875,0.5716811128139495,0.0956188671939075,-0.22808168346472082
1769667279046546400,7.79754638671875,0.5000538004517555,0.10997618610933423,-0.224261832915619
1769667279056535600,7.80753564453125,0.31833179016709323,0.2018077898494899,-0.09656557345949113
1769667279066524400,7.8175244140625,0.018938509225845335,0.09285290961191058,-0.06000972060896456
1769667279076512500,7.827512451171875,-0.07719955953657627,0.01336670044288039,-0.0543682806558907
1769667279086501600,7.837501708984375,0.07329612235724925,0.03582856148928404,-0.05214271356090903
1769667279096490500,7.847490478515625,0.15369301663041113,-0.05664791602566838,-0.03131502958759665
1769667279106479400,7.857479248046875,0.23039748612642286,-0.045845366982370614,-0.06736994717866182
1769667279116468500,7.867468505859375,0.1704524282515049,0.011282149253785609,-0.09627871934212744
1769667279126457300,7.877457275390625,0.05948796175718307,0.0666974547445774,-0.06388385862857103
1769667279136445400,7.887445556640625,-0.05021101484596729,0.001248246495425701,-0.002648614812642336
1769667279146434600,7.8974345703125,-0.08696867387890815,0.0009134615831077099,0.016082316077128053
1769667279156423700,7.907423583984375,-0.039275194811820985,0.018321400240808725,0.021635054833441972
1769667279166412500,7.91741259765625,0.04088496809601783,0.03474149690493941,-0.00757058138474822
1769667279176401700,7.927401611328125,0.1051437975168228,0.06671864366307854,-0.03373042016625404
1769667279186390300,7.937390380859375,0.1818634645819664,0.1141271683089435,-0.00005691781900823116
1769667279196378400,7.94737841796875,0.16083470507860181,-0.057220309086143964,-0.03205284234285354
1769667279206367500,7.957367431640625,-0.008391396248340606,-0.027090251499414443,0.006441577354818582
1769667279216356600,7.967356689453125,-0.007500584888458252,-0.040606297285109755,0.013873846247419714
1769667279226345500,7.977345458984375,-0.005692074161767959,-0.04667670323997736,0.009377484676241873
1769667279236334600,7.98733447265625,-0.007141688448190689,-0.047011195891350506,0.012183482007682322
1769667279246323700,7.99732373046875,-0.07120178042650223,-0.058897886909544464,0.026617373290657994
1769667279256311300,8.007311279296875,-0.08028641963601112,-0.06563654751479625,0.035315132074430586
1769667279266300400,8.017300537109374,0.025065467673540114,-0.08180807624533772,0.020119024247303604
1769667279276289500,8.02728955078125,0.11885901913642882,-0.07269172672331332,-0.0019326485630124805
1769667279286278400,8.0372783203125,0.11286591620147228,-0.029925621055811643,-0.0013094751633703709
1769667279296267500,8.047267578125,0.10802198330163955,0.0027118893072009087,-0.009578487141057848
1769667279306256600,8.057256591796875,0.0835024590730667,0.030602497404068705,-0.04487703340686858
1769667279316244500,8.067244384765624,0.07286416068077087,0.061099634737521405,-0.03715316115655005
1769667279326233300,8.0772333984375,0.07024667165875434,0.13466317585930226,-0.05034691618531942
1769667279336222500,8.087222412109375,0.01890343791246414,0.17218422048017382,-0.07213708851523697
1769667279346211300,8.09721142578125,0.05872925234436988,0.0875016117118299,-0.06712430185452103
1769667279356200400,8.107200439453125,0.16059037492871284,0.054837067211419344,-0.05539623546414077
1769667279366189600,8.117189453125,0.22106267154812811,0.09104629858136176,-0.06977284360192716
1769667279376177700,8.127177734375,0.13167115443646907,0.13657909248322248,-0.06781564511954784
1769667279386166500,8.13716650390625,0.018126023799180983,0.09054638623520732,-0.05139956704340875
1769667279396155600,8.14715576171875,-0.022354455149173735,0.08914207239523529,-0.05761420377455651
1769667279406144500,8.15714453125,0.05111059403419494,0.07152808977141976,-0.08208492042534053
1769667279416133400,8.16713330078125,0.0568681346476078,0.1236107437081635,-0.08688983648903667
1769667279426122500,8.17712255859375,0.04427753314375877,0.09850815889462829,-0.07183569441586732
1769667279436111400,8.187111328125,-0.059033203727006905,0.08476064244061708,-0.08922902002632617
1769667279446099500,8.197099365234376,-0.08615735749602317,0.04633505019545555,-0.08854695604629814
1769667279456088600,8.207088623046875,-0.09831775088906287,-0.016177666210383176,-0.04455846897698939
1769667279466077400,8.217077392578124,-0.21775778478384017,0.0001204115092754364,-0.04802205343432724
1769667279476066600,8.227066650390626,-0.1776402939289808,0.1557530179001391,-0.08116020679585635
1769667279486055700,8.2370556640625,-0.044460488495230675,0.1617640948832035,-0.06945095470380037
1769667279496044300,8.247044189453124,0.040924715584516526,0.13867299602255223,-0.12183978851288556
1769667279506032400,8.257032470703125,-0.026573534148931502,-0.025857202573120592,-0.10606555200424045
1769667279516021500,8.267021484375,-0.0868839182049036,-0.2685835705272853,0.008590206756070256
1769667279526010600,8.2770107421875,-0.12385083607435225,-0.15981456825062632,-0.025542072209343313
1769667279535999500,8.28699951171875,0.026213468664884564,-0.014198182830959558,-0.053092342435941096
1769667279545988600,8.296988525390624,0.19645663807988165,-0.01640519135594368,-0.06534041411243378
1769667279555977500,8.3069775390625,0.008735679641366005,0.09658552026897668,-0.11463117230832576
1769667279565965300,8.31696533203125,-0.11236907259523868,-0.028411709361523388,-0.037238062961027024
1769667279575954400,8.326954345703125,0.045806642407178876,-0.08300079316124319,-0.030052279642783102
1769667279585943600,8.336943603515625,-0.019742811346054077,-0.0015828852772712706,-0.042663412478007375
1769667279595932400,8.346932373046876,-0.06292962664365769,0.014000322171300648,-0.07513594153765589
1769667279605921500,8.356921630859375,-0.0014016834914684295,-0.04076572563052177,-0.0029957112172618507
1769667279615910700,8.36691064453125,0.07166822889447212,-0.0029332769729197026,0.04132927779741585
1769667279625898500,8.3768984375,0.047775312131643294,0.00015153729990124702,0.0080281524265185
1769667279635887400,8.386887451171875,-0.0402022465288639,0.02554068396985531,-0.04106452591400593
1769667279645876500,8.39687646484375,-0.09101824153065681,-0.10825476914420723,0.021681743519380688
1769667279655865300,8.406865234375,0.06850947260260581,-0.09957827234417199,0.049187480484507974
1769667279665854500,8.4168544921875,0.06171148302555084,0.05494651893526315,-0.059980202253535383
1769667279675843600,8.426843505859376,0.05173486341238021,0.05544789258614182,-0.10670969512667507
1769667279685831400,8.43683154296875,0.07835399026870728,-0.14147183296084404,0.03792224583290517
1769667279695820500,8.446820556640626,-0.06466214952468871,-0.1391810916751623,-0.0011073401873931289
1769667279705809700,8.4568095703125,-0.13931962336301804,-0.2028231043718755,0.04585621716994792
1769667279715798500,8.466798583984374,-0.03538929328918457,-0.16084508034214376,0.04048358422089368
1769667279725787400,8.476787353515626,-0.024851532661914824,-0.1607736225411296,-0.015753084122762082
1769667279735776500,8.486776611328125,-0.03693769177496433,-0.23345745821893213,0.10314327134937047
1769667279745764600,8.4967646484375,0.01805821925997734,-0.12230331437140703,0.06725022978913038
1769667279755753500,8.50675341796875,-0.19590660298168658,-0.18023001816123724,0.05503503746893257
1769667279765742600,8.51674267578125,-0.2182873616158962,-0.21087094787955282,0.19508268284555524
1769667279775731500,8.5267314453125,0.02205751802921295,-0.19563845356479287,0.23817856845669447
1769667279785720600,8.536720458984375,0.12648352266550064,-0.151935505438596,0.1232651086082682
1769667279795709700,8.546709716796874,0.07193769348561764,-0.10545300959646701,0.1266316989645362
1769667279805697500,8.556697509765625,-0.12344459336102008,-0.04908581020832062,0.15901165436990558
1769667279815686400,8.566686279296874,-0.14992869566082953,-0.04494929492548108,0.1000414328765124
1769667279825675500,8.576675537109375,0.003533434823155403,-0.1597773049801588,-0.013423216403089463
1769667279835664400,8.586664306640625,0.4266390201508999,0.012781447900831699,0.10792301643919198
1769667279845653500,8.596653564453124,0.07647650595903396,-0.051513768007606264,-0.15268099004365504
1769667279855642600,8.606642578125,0.020780337700247762,-0.04868891984522342,0.034883426126278934
1769667279865631500,8.616631591796875,0.06368015275001525,0.002641162158548832,0.033176951001957056
1769667279875619300,8.626619384765625,0.02212298448085785,0.04551788859367371,0.06532518001068383
1769667279885608400,8.6366083984375,0.06816226660013198,-0.017927432487159965,0.12527885958347468
1769667279895597600,8.64659765625,0.040215690532326695,-0.42167569865509863,0.20663521000593899
1769667279905586400,8.65658642578125,0.3055073799073696,-0.22289719349890946,0.1270713324908167
1769667279915575600,8.666575439453124,-0.231202957290411,0.1951559307448566,-0.1531242768317461
1769667279925564400,8.676564453125,-0.1921633248001337,-0.13296718559637666,-0.05853186660874635
1769667279935552500,8.686552490234375,0.16702011571526526,0.11310966182947157,0.17183398227039723
1769667279945541600,8.696541748046876,0.25741058073639866,0.12028466802537441,0.1541963630426675
1769667279955530500,8.706530517578125,0.16085457882285117,-0.0309818521104753,0.056210620586946605
1769667279965519400,8.716519287109374,0.29153613770008086,-0.03685001349151134,0.0005700915055349469
1769667279975508500,8.726508544921876,0.3195674694418907,-0.031083997310698032,0.26059008755534885
1769667279985497600,8.73649755859375,0.325807240614295,-0.22766543081402776,0.21241372034214437
1769667279995485400,8.7464853515625,0.42413375933170316,-0.0500821277692914,0.0254434341404587
1769667280005474600,8.756474609375,0.040542438268661496,-0.009469985265284777,0.04216382892541587
1769667280015463700,8.766463623046874,0.047885202246904374,0.012600976767390965,0.03555010987408459
1769667280025452500,8.77645263671875,0.14537059396505356,0.10755144318044185,0.11933905773833393
1769667280035441400,8.78644140625,0.22257658324241636,0.07944923815950751,0.018252499723061918
1769667280045430500,8.796430419921874,0.21478958262801168,0.08308423366099596,-0.0040920185539871454
1769667280055418400,8.80641845703125,0.11097732597589492,0.036060032157599925,0.1880547935027629
1769667280065407500,8.816407470703124,-0.09492869297266006,-0.15785905026867986,-0.10806852585710584
1769667280075396600,8.826396728515626,-0.15942717636823653,0.0347758375659585,-0.0004956745624542236
1769667280085385500,8.836385498046875,0.05270049357414245,0.07331219670921564,0.14413717971257864
1769667280095374600,8.84637451171875,0.21980127331018445,0.04012114411666989,0.08731003466248512
1769667280105363700,8.85636376953125,0.16948796713352202,-0.17752309729009866,0.02551774148568511
1769667280115351600,8.8663515625,0.22704759117662907,-0.04271320643648505,-0.09408193995021283
1769667280125340400,8.87634033203125,-0.003996960681676864,0.0314678820617497,-0.01448160288222134
1769667280135329500,8.88632958984375,-0.13365326816439627,0.08825023812204599,-0.06758329766839742
1769667280145318400,8.896318359375,-0.07835866644382476,0.15190481803938746,-0.16326843503154814
1769667280155307500,8.9063076171875,0.4501052359342575,-0.04154328587427735,-0.10951470607742667
1769667280165296600,8.916296630859375,0.29155133526921273,-0.09869710559546947,0.05442505234442651
1769667280175284500,8.926284423828125,0.022187281888723372,-0.0490722200743854,0.1707460774358362
1769667280185273300,8.9362734375,0.18377777377068996,-0.08062880333289503,0.14050612973384558
1769667280195262500,8.946262451171876,-0.1730570577919483,-0.033978257447481154,0.16934315183535217
1769667280205251300,8.956251220703125,-0.10965513746142387,-0.28629619121998545,0.031498131069540976
1769667280215240400,8.966240478515624,-0.015252514189481734,-0.3171813049577176,-0.08681611366569995
1769667280225229600,8.9762294921875,-0.32243747192025185,-0.11036533155739307,-0.25625644226521255
1769667280235217700,8.9862177734375,-0.03951017261147499,-0.2450681087747216,-0.03370915818251669
1769667280245206500,8.99620654296875,-0.018498948764801026,-0.06580006751343608,-0.004256342270225286
1769667280255195600,9.006195556640625,-0.06330488969683647,-0.23098931453973054,-0.022652561312913894
1769667280265184500,9.0161845703125,0.19852175391614435,-0.727794342328608,-0.16169760551825166
1769667280275173400,9.02617333984375,-0.28616905770897866,-0.1607217462234199,-0.05062127614729106
1769667280285162500,9.03616259765625,0.3360240987241268,-0.5524319302037358,0.09815664204321801
1769667280295150600,9.046150634765626,0.4808393968939781,-0.6111262573651969,-0.004132496694847941
1769667280305139500,9.056139404296875,0.7153969253093004,-0.49423152403905984,0.011919205048307777
1769667280315128600,9.066128662109374,0.2418330723762512,-0.23179756218269465,0.15696926182210444
1769667280325117700,9.07611767578125,-0.10365911191701889,-0.16676088025718927,0.1892699414461851
1769667280335106600,9.0861064453125,0.017971710020303726,0.105115448205173,0.35739012735784054
1769667280345095400,9.096095458984376,0.3557318387567997,0.3750859430462122,0.14507234167084096
1769667280355083500,9.10608349609375,0.15000351446270943,0.628665567317605,-0.07821947716884314
1769667280365072400,9.116072265625,-0.09703647890686988,-0.16101751429960132,0.06080613168366253
1769667280375061500,9.1260615234375,0.08345394375622273,-0.8210225149936974,-0.020786621310561894
1769667280385050600,9.136050537109375,0.23214929822981356,-0.535384495421499,-0.02063632611967623
1769667280395039500,9.14603955078125,-0.14436521631479263,-0.06832534820735454,0.02161715385057032
1769667280405028600,9.156028564453125,-0.01178454581797123,0.45131505011543627,-0.3076496526330709
1769667280415016400,9.166016357421874,0.04103811283111572,0.9392102107398211,-0.24234197174645958
1769667280425005300,9.17600537109375,0.44962358989715573,0.35618747356981034,-0.06726634067371487
1769667280434994400,9.185994384765625,0.11042670635581016,-1.119224832584709,0.3353335591766983
1769667280444983600,9.195983642578126,0.3456616956412792,-2.3120485698655244,0.6345188233904541
1769667280454972400,9.205972412109375,4.521791195988655,-3.601354513171315,0.7310898767426609
1769667280464961500,9.21596142578125,-1.0979098034858703,-4.097204724453389,1.2476166730895637
1769667280474949600,9.22594970703125,-1.822077479749918,-0.2744454482980072,0.2739220089457929
1769667280484938500,9.2359384765625,-0.805734783360362,0.754150726595521,-1.6025512239888309
1769667280494927400,9.24592724609375,-0.7379553785979748,0.7093517999261617,-1.2636315499536692
1769667280504916500,9.25591650390625,-0.44724224771857257,1.580354735880345,0.25387086230292916
1769667280514905300,9.2659052734375,0.6822422592043876,0.998984734353423,0.24287644394934177
1769667280524894500,9.27589453125,-0.43145021982491016,2.282601818367839,-0.13982216605767606
1769667280534882600,9.285882568359375,-0.3544236787676811,2.3865936693705616,-0.6341963134378195
1769667280544871700,9.29587158203125,0.048260465300083155,1.730079141140729,-0.5168002064608037
1769667280554860500,9.305860595703125,-0.39937458112835883,-0.3361795815467834,-0.7049936047166585
1769667280564849700,9.315849609375,-0.5903799680650234,-0.8785426838092505,-0.005398351912200451
1769667280574838300,9.32583837890625,-0.14536942492127417,-1.1103943142667412,0.07229205988124013
1769667280584827400,9.335827392578125,-0.41018648252189155,-0.4857806526884436,-0.3674722531720996
1769667280594815500,9.3458154296875,-0.7070867776036263,-0.12036124039292335,-0.3638942485548556
1769667280604804600,9.3558046875,-0.4040320515453815,0.18261252938359976,-0.5905939030766487
1769667280614793500,9.36579345703125,0.06710778911113739,0.44152942302972076,-0.20197700893655418
1769667280624782600,9.375782470703125,-0.6446142470777034,0.6836923118822276,-0.036412206596136094
1769667280634771700,9.385771728515625,-0.7359399471223353,0.5932026242703199,0.0015799626678228377
1769667280644759300,9.39575927734375,-0.5814566568970679,0.7284522217154502,0.3848490660391748
1769667280654748400,9.40574853515625,-0.8222714921414852,1.0280136988304556,0.43960181596800685
1769667280664737500,9.415737548828124,-1.0462439136564732,1.176069147965312,0.6623850276984274
1769667280674726400,9.425726318359375,-0.9025544046461582,1.26570981753245,0.9036039136990904
1769667280684715500,9.435715576171875,-0.21253858883082866,0.7153297052919865,0.6456367219932377
1769667280694704600,9.44570458984375,-0.3637608314335346,0.16153496230244635,0.40577860295176504
1769667280704693500,9.455693603515625,-0.04073182336091995,-0.16684227493032813,-0.01510126915052533
1769667280714681300,9.465681396484374,0.3662134852826595,0.30378289420232174,0.03472030798643827
1769667280724670500,9.47567041015625,0.38489363583326336,0.8610504278689622,0.44774888206645846
1769667280734659300,9.485659423828125,0.14598083481788635,1.4747886212982237,0.2430326574243605
1769667280744648400,9.4956484375,0.6683060883104801,0.06482566952332854,0.7439351836599409
1769667280754637600,9.505637451171875,0.44310032560825346,-0.3960260013528168,0.17475801649093628
1769667280764625700,9.515625732421874,0.11587269680202007,0.12496508092656732,-0.34043256281614304
1769667280774614500,9.525614501953125,0.19577274746894835,0.22667568912431596,-0.5077193666435778
1769667280784603600,9.535603759765625,0.08986497984230518,0.07694178538322448,0.010299567957222462
1769667280794592500,9.545592529296876,0.31354338684678074,-0.09774097391441464,0.27294059669300913
1769667280804581400,9.555581298828125,0.104582071980834,-0.07701470448896289,0.1760651535667479
1769667280814570500,9.565570556640624,0.21856793212294578,-0.10144362782463431,0.2217160208903253
1769667280824558600,9.57555859375,0.38066988065838814,-0.24171295312792063,0.19303601598143577
1769667280834547500,9.58554736328125,0.49178398475646967,-0.24604236063435672,0.1822713147304952
1769667280844536600,9.59553662109375,0.30419805087447166,-0.07678440286442637,0.09568564881980418
1769667280854525400,9.605525390625,0.32580548704862594,-0.04214519729018211,0.2993878741137683
1769667280864514600,9.6155146484375,0.31614100212454793,-0.14489727736487984,0.4415802764341235
1769667280874503700,9.625503662109375,0.2781763053894043,-0.11260331974253057,0.34156624302119015
1769667280884492300,9.6354921875,0.013282675421237945,-0.05825841996222734,0.2182034827247262
1769667280894480400,9.64548046875,0.017343348988890648,-0.006780746181309223,0.12792831464633345
1769667280904469500,9.655469482421875,-0.047722120639681814,-0.07810220746472478,0.1018317503593862
1769667280914458600,9.665458740234374,-0.04633855732679367,-0.03865340965166688,0.06026069969534874
1769667280924447500,9.675447509765625,0.02168108593225479,-0.04337079356238246,0.12113646254912018
1769667280934436600,9.6854365234375,0.06632102264761924,-0.07308934773877263,0.11692395942062139
1769667280944424400,9.695424560546876,0.09810498492121696,-0.011466273649036884,0.03247764362618327
1769667280954413300,9.705413330078125,0.13670564147233963,0.012865326792001723,0.007255524086207151
1769667280964402400,9.71540234375,0.12930500982701779,0.038865152706205844,-0.010806494566053152
1769667280974391600,9.7253916015625,0.19231646953523157,0.07962839411869645,0.011353314793854952
1769667280984380400,9.73538037109375,0.22004677250385282,0.14334274139925837,0.0320950740493834
1769667280994369500,9.74536962890625,0.21277532019615172,0.14376403555124997,-0.018232552913576363
1769667281004357600,9.755357666015625,0.17823007651567457,-0.00883650966733694,-0.029194530302286147
1769667281014346500,9.765346435546874,0.02336158636510372,0.11853066396489739,-0.07336524207070469
1769667281024335400,9.77533544921875,-0.10745967324376106,0.05476809362843632,-0.07138020573332905
1769667281034324500,9.785324462890625,-0.12638181585669517,-0.002648907073587179,-0.08981281126365065
1769667281044313300,9.795313232421876,-0.01189385141134262,0.07125014961287379,-0.05096665551885962
1769667281054302500,9.805302490234375,0.09238017753362655,0.161307144895941,-0.0396796839594841
1769667281064290600,9.81529052734375,0.16576923887133596,0.19469810397475956,-0.09288125892356038
1769667281074279400,9.825279541015625,0.1748258210301399,0.1466826994769275,-0.2595074068851769
1769667281084268500,9.8352685546875,0.29927403847575185,0.2697587517865002,-0.24043255792856216
1769667281094257700,9.845257568359376,0.13032616956830023,0.4060387151926756,-0.16314795045703648
1769667281104246500,9.85524658203125,0.29715748471319675,0.5519787796087563,-0.2610978909470141
1769667281114235400,9.8652353515625,0.3733908295661211,0.706134299184382,-0.35625001741200685
1769667281124223500,9.875223388671875,0.5077718274831772,0.6850362738370895,-0.3684561496429145
1769667281134212600,9.885212646484375,0.5579471864938735,0.7160971825331449,-0.3886297536216676
1769667281144201500,9.895201416015626,0.37088264613747596,0.32080592519566414,-0.274520559360832
1769667281154190600,9.905190673828125,0.4860451488435268,0.2014310654915869,-0.3411716907456517
1769667281164179500,9.915179443359374,0.5746177507877349,0.1673011246137321,0.07321808868497609
1769667281174168600,9.92516845703125,0.1897007340788841,0.0037986616306006906,0.5441616761170327
1769667281184156400,9.935156494140625,0.21600188102722168,-0.09082344961091876,0.8125577612482011
1769667281194145500,9.9451455078125,-0.05769815573096275,0.0318979440420866,0.7252835285514593
1769667281204134400,9.955134521484375,-0.19415128374695778,-0.05021686006486416,0.5665671308010817
1769667281214123500,9.96512353515625,-0.20110709423422812,0.06413739499822259,0.4276636870235204
1769667281224112400,9.9751123046875,-0.6208814893126487,0.06858896757960319,0.27788024505227804
1769667281234101500,9.9851015625,-0.8229331709206104,0.1025615259386599,0.1781187250956893
1769667281244089600,9.995089599609376,-0.7824328182280064,0.045582624392956496,-0.3282704158574343
1769667281254078500,10.005078369140625,-0.8499509417057037,0.22666677516549824,-0.25191022975444793
1769667281264067300,10.0150673828125,-0.5528805507540703,-0.06820259861052036,-0.23372546150535345
1769667281274056400,10.025056396484375,0.18286884223222732,-0.1499593830600381,0.3082975951477885
1769667281284045600,10.035045654296875,0.6164379539072513,-0.07155395486503839,0.6212269417494535
1769667281294034400,10.045034423828126,0.8968342734336853,-0.22663170385211706,0.38913843379616736
1769667281304022500,10.0550224609375,0.6786228996634482,-0.5111728680983185,0.2287640397056937
1769667281314011600,10.06501171875,0.7209001989006996,-0.48269773811176414,0.13490151465982197
1769667281324000500,10.07500048828125,0.7260457450956106,-0.020159867714345452,0.2763832844927907
1769667281333989600,10.08498974609375,0.23983985273241995,0.8274111931174993,0.27282003905326124
1769667281343978500,10.094978515625,0.5566904644310474,1.5346649978511036,0.7047612572655081
1769667281353967400,10.10496728515625,1.335659405940771,1.2828588129930198,1.2169120304852723
1769667281363955500,10.11495556640625,1.9056763849347829,0.5724146877855062,1.177616961929202
1769667281373944600,10.124944580078125,1.688015046262741,0.40032326015532016,1.3355854639217257
1769667281383933400,10.134933349609375,0.9936363590627908,0.6892001155182719,1.2618547495394945
1769667281393922600,10.144922607421876,0.6660077482402325,0.8980622077934444,0.5003858088850974
1769667281403911700,10.15491162109375,0.0558007976770401,1.7995742637798189,0.7540136562123895
1769667281413900500,10.164900634765624,0.12939911785125732,2.1504687455080447,1.1204852079093455
1769667281423888400,10.174888427734375,0.5556482619017362,1.8367986635416744,1.019167982943356
1769667281433877500,10.18487744140625,0.5150631535351277,1.2524629440769552,1.20868225453943
1769667281443866400,10.194866455078126,0.26870003651380536,0.9244754368141292,1.4089406229898334
1769667281453855500,10.20485546875,-0.2563373985469341,0.6569067424178123,1.3930354901105164
1769667281463844600,10.2148447265625,-1.0325859751820563,0.5335797840870916,1.295028412605822
1769667281473833500,10.22483349609375,-0.6356979501724243,0.16809928925409912,2.0275570899799464
1769667281483821300,10.2348212890625,-1.1319266393780707,0.3254427181508392,1.6986483762189746
1769667281493810400,10.244810546875,-1.4938509030342102,0.6214115776013582,1.1061246741235256
1769667281503799600,10.254799560546875,-1.3535861077755689,0.9619470893353224,0.675978814895451
1769667281513788400,10.264788330078124,-1.7227473369479178,1.095827517319098,0.38260698620080946
1769667281523777500,10.274777587890625,-2.0339403612762688,0.5750264046538621,-0.42635523477345705
1769667281533766400,10.284766357421875,-1.159285770946741,0.1352649411447346,-0.9662216979146003
1769667281543754500,10.29475439453125,-0.8221423128038644,0.22957228734865784,-0.48461686960607764
1769667281553743600,10.30474365234375,-0.6600175679147243,0.22236622842736542,-0.26129092930108305
1769667281563732500,10.314732421875,-0.6566402004361153,-0.08270290619321168,-0.5970356265619396
1769667281573721300,10.324721435546875,-0.00886135184764862,-0.4274137308504432,-1.1414394408717752
1769667281583710500,10.33471044921875,0.05496726946234703,-0.5404620909467339,-1.0201870968580244
1769667281593699300,10.34469921875,-0.08248188385367393,-0.64452503442429,-0.8852069640040398
1769667281603687400,10.3546875,-0.01337912153303623,-0.8226708667226135,-1.0042357867494225
1769667281613676500,10.364676513671874,-0.08780804731249808,-0.9996540119171142,-0.6787985484912991
1769667281623665700,10.374665771484375,-0.23156185373067856,-1.2474264112144708,-0.5620315331980585
1769667281633654500,10.384654541015625,-0.6074667119443417,-1.438822258773446,-0.44781303334385153
1769667281643643600,10.3946435546875,-1.1203156965613366,-1.418277191133797,-0.37697394874989987
1769667281653631500,10.404631591796875,-1.2208113760113715,-1.4674544790178536,-0.6038768707588315
1769667281663620400,10.414620361328126,-1.0371101746082305,-1.4556506439775228,-0.6364388316676021
1769667281673609500,10.424609375,-0.9828256267130374,-1.3454016322761773,-0.5629790431812405
1769667281683598600,10.4345986328125,-0.902168620198965,-1.1315065873350947,-0.5189549002766609
1769667281693587500,10.44458740234375,-0.35840076570510865,-0.9302947906173765,-1.0338749920792878
1769667281703576600,10.45457666015625,-0.394967286080122,-0.5696431772455572,-0.8795981842115521
1769667281713564400,10.464564453125,-0.6244833131968974,-0.5360268119130284,-1.3601518960319459
1769667281723553500,10.474553466796875,-0.1725251428723335,-0.13509360316582023,-0.9160358905751258
1769667281733542400,10.48454248046875,0.6695066962718963,0.1313237292382866,-1.1811044387187808
1769667281743531500,10.494531494140626,0.8426537704348563,0.05056340848021209,-1.368288002344966
1769667281753520400,10.504520263671875,1.543022053438425,-0.5764898282699287,-0.23174765862636268
1769667281763509500,10.514509521484374,2.691737330532074,-1.6977327226787804,-0.15641557346209883
1769667281773497600,10.52449755859375,3.207428260576725,-2.3344755057290194,-0.453293875907734
1769667281783486700,10.53448681640625,1.7457897743612527,-1.639375518517196,-0.17016129981782285
1769667281793475300,10.544475341796876,-0.2579506789624691,-1.069318572838977,-0.4229963162669912
1769667281803464700,10.554464599609375,-1.4118109177291391,-0.6044573009952903,-0.5478060970339924
1769667281813453600,10.56445361328125,-1.0045809469252824,0.20764833257123827,-0.23195194902680813
1769667281823442700,10.574442626953125,-0.8671826470136642,0.1409227477107197,0.22293573541101067
1769667281833430500,10.584430419921874,-0.5749924293190241,-0.5154137936037033,-0.009567527355626226
1769667281843419600,10.594419677734376,-0.5556126060664653,-0.15645480949394405,-0.3916671850888058
1769667281853408500,10.604408447265625,-0.5265946013748646,0.41402715666331347,-0.20542590728141366
1769667281863397600,10.614397705078124,-0.2544540690183639,0.24897191128022966,-0.006432188471965491
1769667281873386500,10.624386474609375,0.3373877882927656,-0.006920885304361582,0.02054397166110575
1769667281883375600,10.634375732421875,0.5518330875277518,0.1699851760659367,0.11651508635878562
1769667281893363700,10.64436376953125,-0.0025017536878585815,0.21238259455151853,-0.000017974048107862472
1769667281903352800,10.654352783203125,0.28711715221405026,-0.127352852845937,0.2238884695585817
1769667281913341400,10.664341552734374,0.6649497636198997,-0.2398516893006861,-0.08622786544896661
1769667281923330600,10.67433056640625,-0.029560441005229948,0.0573299069404602,-0.2508144704069942
1769667281933319700,10.684319580078125,-0.6756225488036871,-0.005048953952640295,0.15018172057382762
1769667281943307500,10.6943076171875,-0.3746598265886307,-0.003914104703813791,0.04502111805267632
1769667281953296600,10.704296630859375,-0.346301747110486,0.19933117060288785,-0.07505239144004881
1769667281963285800,10.71428564453125,-0.2484030984163284,0.039445729073137044,0.22171587475985288
1769667281973274600,10.724274658203125,-0.27600363752543927,0.13207798167169094,0.1214214169703424
1769667281983263700,10.734263671875,-0.21735329563617706,0.12305237917304038,0.10104206128641963
1769667281993252600,10.744252685546876,-0.035222120028734205,-0.07592384051233529,0.16226532240360975
1769667282003241500,10.754241455078125,0.028513562300801275,0.08285130168795585,-0.019361995334923266
1769667282013229600,10.7642294921875,0.39073417855501175,0.004287468060851097,0.19805165218636392
1769667282023218700,10.77421875,0.5292530069291591,-0.014944763414561748,-0.007779986351728439
1769667282033207600,10.78420751953125,-0.11486848819553852,-0.2650492589212954,-0.003340104208141565
1769667282043196700,10.79419677734375,-0.2940530889570713,-0.0037194589145481583,0.049413580857962366
1769667282053185800,10.804185791015625,0.09748656076192855,0.018098551270365713,0.01794650251381099
1769667282063173600,10.814173583984376,0.5361719925373792,-0.19691621841564774,0.05699457403887063
1769667282073162500,10.82416259765625,0.8197194695711135,-0.02299582179263234,-0.038962804394401605
1769667282083151600,10.834151611328124,0.5002034380555153,-0.028148674511164425,0.007811148674972355
1769667282093140500,10.844140380859375,0.05204582905769348,-0.0171013569265604,-0.01906436409521848
1769667282103129600,10.854129638671875,-0.21931261301040647,0.10957535022348165,-0.0667460431266576
1769667282113118700,10.86411865234375,-0.057656070154905315,-0.1323133978627622,0.08120824718866497
1769667282123106800,10.87410693359375,0.1205728373169899,-0.17542217948809266,0.0883685307394713
1769667282133095700,10.884095703125,0.23076339682936667,-0.09343670084923505,-0.1296076095027849
1769667282143084500,10.89408447265625,0.4330103087484836,0.06706921066641808,-0.014579875624924897
1769667282153073700,10.90407373046875,0.210602067810297,-0.21609233578965067,0.18642346597388385
1769667282163062500,10.9140625,0.1749485706269741,-0.07419613993689417,0.014018807676061987
1769667282173051600,10.9240517578125,0.7589525739192963,0.10452902661934495,-0.13836100746393204
1769667282183039700,10.934039794921874,0.8881693209409713,0.07370017311349511,-0.14611743027698249
1769667282193028600,10.944028564453125,0.794570999789238,0.10982932498455047,-0.13340937640592454
1769667282203017700,10.954017822265625,0.5959516307175159,0.10818623395264149,-0.12242705034893005
1769667282213006800,10.9640068359375,0.5225742598176002,-0.018012772683054207,-0.055543352317251264
1769667282222995500,10.973995361328125,0.37146132280826566,0.014176117129623888,-0.0009027209933847189
1769667282232984600,10.983984619140625,0.000049099838733673096,0.04326134183853864,-0.04541599912177771
1769667282242972700,10.99397265625,-0.015271218889951706,0.051572512457519766,-0.025969430775940418
1769667282252961500,11.00396142578125,-0.03601823884248733,0.04354541947692633,-0.04999145381115377
1769667282262950700,11.01395068359375,0.20639701733589172,0.07647942856848239,0.002132153190486133
1769667282272939800,11.023939697265625,0.2107715791583061,0.09460808271616697,-0.023489194800145923
1769667282282928600,11.0339287109375,-0.1781774695456028,0.13809388096034525,-0.024509331628121436
1769667282292916500,11.04391650390625,-0.23833763147592543,-0.0707803401440382,0.0549933902842924
1769667282302905600,11.053905517578125,0.04691898756325245,0.042464930763840676,0.043095483752340076
1769667282312894500,11.06389453125,0.18365853130519388,0.08225450483858585,0.04881965181911364
1769667282322883600,11.073883544921875,0.24117373168468473,0.006624898032471537,0.09992823655931278
1769667282332872700,11.083872802734374,0.28911738612055776,0.015156579534336924,0.023727040410321205
1769667282342861600,11.093861572265626,0.2150286520808935,0.010688640340045094,0.006852916368376464
1769667282352849700,11.103849609375,0.11517711575329304,-0.038851781767979265,-0.006774572168849408
1769667282362838800,11.1138388671875,0.1064250694990158,-0.01991100751981139,0.053536250278539955
1769667282372827600,11.12382763671875,0.1635585770845413,-0.05857238128222525,0.08783111766083165
1769667282382816500,11.13381640625,0.13847791184186933,-0.06498597465157509,0.06072515713563188
1769667282392805600,11.1438056640625,-0.08431669806540013,-0.052039910773560405,0.022410295255947857
1769667282402794500,11.15379443359375,-0.21917700393199918,0.00883548675402999,-0.04057018479211256
1769667282412782600,11.163782470703126,-0.1410544843316078,0.011053089738264679,-0.06472668439457192
1769667282422771700,11.173771728515625,-0.029641105026006698,-0.045826223890483374,-0.023420550010725856
1769667282432760800,11.1837607421875,0.054174657779932016,-0.03383424586690962,-0.03639275297699496
1769667282442749700,11.193749755859375,0.1889303342282772,0.0514539275791496,-0.0746634651876986
1769667282452738600,11.203738525390625,0.3650771747291088,0.02039404179640114,-0.09364369466342032
1769667282462727400,11.2137275390625,0.40942894215285774,0.047266851152852174,-0.11194377812156453
1769667282472715500,11.223715576171875,0.3775204767167568,0.0009376461762934923,-0.0618708565720357
1769667282482704600,11.23370458984375,0.32838673571348187,0.023126608565449715,-0.10488152985144406
1769667282492693800,11.24369384765625,0.16871581371724603,0.09583813596777617,-0.15332659447081387
1769667282502682600,11.2536826171875,0.02772738035917282,0.09697671154364942,-0.2017657042734325
1769667282512671700,11.263671630859376,0.09682838911414146,0.08624065186530351,-0.17358382161241023
1769667282522660600,11.27366064453125,0.07368950558900833,0.08624233236573636,-0.21262760055484248
1769667282532648400,11.2836484375,0.05667816503345966,0.1327218325331807,-0.14058772533638403
1769667282542637600,11.293637451171875,0.01760112314224243,0.11932298338636756,-0.12937033014819024
1769667282552626700,11.303626708984375,-0.18092004625201225,0.082034140086174,-0.15019219630206934
1769667282562615600,11.313615478515626,-0.18175941968560216,0.09057268972024321,-0.1368818656889256
1769667282572604700,11.323604736328125,-0.06428688647150993,0.074269205173105,-0.11942927503874524
1769667282582592800,11.3335927734375,-0.20816811866164206,0.0005292845711112023,-0.04823158626547083
1769667282592581600,11.34358154296875,-0.28514731344580646,0.0021099778912961483,-0.038943907897686585
1769667282602570500,11.353570556640625,-0.12188275087177752,0.0006283610314130782,-0.03820095317643136
1769667282612559600,11.3635595703125,-0.08572364225387573,-0.040822570384293794,-0.014901453995797783
1769667282622548500,11.373548583984375,-0.012640870386362075,0.11904562774971127,-0.20002592966770752
1769667282632537600,11.38353759765625,0.13086626779437063,0.07964110746979713,-0.10156948269400745
1769667282642525700,11.393525634765625,0.2677624634027481,0.07185498363822698,-0.14770350302518345
1769667282652514800,11.403514892578125,0.04041968867182731,0.213348297778517,-0.2502160661224276
1769667282662503700,11.413503662109376,-0.08867080162167548,0.12998656235039233,-0.20820218532802537
1769667282672492800,11.423492919921875,-0.07832593321800231,0.023686726666241883,0.10789125132774934
1769667282682481400,11.4334814453125,-0.10535071826577186,0.29796091005057096,-0.3982590941671282
1769667282692470500,11.443470458984375,-0.11282792227864265,0.36820275940373537,-0.5685469064414501
1769667282702458600,11.453458740234375,0.15822306127548216,0.482067623514682,-0.6987997185125947
1769667282712447700,11.46344775390625,0.32794074551165103,0.5092886617869138,-0.7930144910622388
1769667282722436600,11.4734365234375,0.1792927373111248,0.4581194694332778,-0.8949619036905467
1769667282732425700,11.48342578125,0.18655892892181872,0.5138830038398504,-1.1546797384560108
1769667282742414600,11.49341455078125,0.0835375303864479,0.6153862528972327,-1.3088978018738329
1769667282752403700,11.50340380859375,0.11945990763902664,0.6292062500655651,-1.5719322138413785
1769667282762391600,11.5133916015625,-0.08758475995063782,0.8665421571530402,-1.6522409914396703
1769667282772380700,11.523380615234375,-0.04206219518184662,0.6872615486711263,-1.9636051345512269
1769667282782369500,11.53336962890625,0.1293044253051281,0.5169559815444051,-2.0099648807965216
1769667282792358700,11.543358642578125,-0.14912673162817955,0.8159460885122418,-2.0965670594505963
1769667282802347800,11.55334765625,-0.3608627719044685,0.696024116319418,-2.0045963395006954
1769667282812336000,11.563336181640626,-0.26097616426348685,0.5521604197859764,-1.5289891441717742
1769667282822324200,11.57332421875,-0.11753683062195777,1.0009554499045015,-1.6988475520528852
1769667282832313300,11.583313232421874,0.021579379123449323,0.2322529047347605,-1.0874361210707575
1769667282842302200,11.59330224609375,0.5268482838749885,-0.15103271137997507,-0.2813649818954989
1769667282852291300,11.603291259765625,0.15181903945207595,-0.33162980928793545,-0.14085030352901667
1769667282862280400,11.613280517578126,-0.8190957847148179,-0.5483760789416731,0.45269594654720274
1769667282872268300,11.623268310546875,-0.9597533786833286,-0.4226584260821342,0.682216394110769
1769667282882257200,11.633257080078126,-0.46544776649475095,-0.29419688134193417,0.9005617695242166
1769667282892246300,11.643246337890625,0.2009638863712549,-0.535631602050364,1.0960464207667857
1769667282902235400,11.6532353515625,0.34732582946121693,-0.6433512414045631,1.218871786250919
1769667282912224300,11.663224365234376,0.1217664310157299,-0.6753834793508052,1.3948887167617678
1769667282922213400,11.67321337890625,0.20000702403783796,-0.9043862962484359,1.5953697880521416
1769667282932201200,11.683201171875,0.2336333993077278,-0.3208740219958126,1.0218693508565426
1769667282942190000,11.693190185546875,0.3560597555369138,0.29973318042010066,0.465237082886137
1769667282952179200,11.70317919921875,0.4509633140683174,-0.3683978435844183,1.045171608249843
1769667282962168300,11.713168212890626,0.6465840858459472,-0.01689896622225642,0.6938521060425787
1769667282972157200,11.7231572265625,0.1917792939186096,-0.2793224066846072,0.4757161721287295
1769667282982146300,11.733146240234374,0.08534837920069693,-0.09357289444953203,0.48976698237825184
1769667282992134400,11.743134521484375,0.1801069763034582,0.14669628961086273,-0.033083756293170154
1769667283002123300,11.753123291015624,0.29105215357542036,0.1570364818394184,-0.254050347055681
1769667283012112100,11.763112060546876,-0.07356324886083603,0.09942220499962567,-0.4014548214685172
1769667283022101200,11.773101318359375,-0.26264965043365956,-0.2693558700740337,-0.01784245761744678
1769667283032090000,11.783090087890624,0.2079272956430912,-0.7391793674349785,0.5546947240365668
1769667283042079200,11.793079345703125,0.38521629191637036,-0.35406975076347585,0.7665335305675863
1769667283052067300,11.8030673828125,0.22012392939329145,-0.4406999864682555,0.7995413355477153
1769667283062056200,11.81305615234375,0.1527975290954113,-0.319639657895267,0.8174563469447195
1769667283072045300,11.82304541015625,0.014877251136302947,-0.3043441813468933,0.6764536658655852
1769667283082034400,11.833034423828124,-0.06052841072082519,-0.37130788581222296,0.8229780329756439
1769667283092023000,11.84302294921875,-0.11684592574834823,-0.24263415962606666,0.5507278296995908
1769667283102011100,11.85301123046875,-0.18997487484514713,-0.21874065834134815,0.1308666331205517
1769667283112000300,11.863000244140625,-0.1230564708262682,0.2470034607514739,0.09366484704930335
1769667283121989400,11.8729892578125,-0.155067812114954,0.1234562837988138,0.2479817311991006
1769667283131978200,11.882978271484374,-0.2823801868200302,-0.2327908110037446,0.4383911615366116
1769667283141967400,11.89296728515625,-0.07420388485193252,0.20206366430670022,0.5500708636282011
1769667283151956200,11.902956298828125,0.7359960612237453,0.32766075952649115,1.0229987932778895
1769667283161944000,11.912944091796875,1.1471709702610968,0.18960428796708584,1.0179877601828426
1769667283171933200,11.92293310546875,1.2884861513555048,-0.025912439891695976,0.5762012936521321
1769667283181922300,11.93292236328125,1.0459423003613948,0.32485593123883005,0.6271248406816273
1769667283191911200,11.9429111328125,0.5738613794624805,1.3534487451314925,0.7381739897847175
1769667283201900300,11.952900390625,0.23222002537846564,1.2410013466030358,0.6863314282141626
1769667283211889200,11.96288916015625,-0.3709200555384159,1.427229436135292,1.087421727219224
1769667283221877200,11.972877197265625,-0.649540597563982,0.9561319733157754,0.8711028891973197
1769667283231866400,11.982866455078126,-1.0242775810420512,0.5486614717543125,1.0098083261847495
1769667283241855200,11.992855224609375,-0.9792787478864192,0.05524842449128627,0.9190195094957947
1769667283251844000,12.002843994140624,-0.6740764884054661,-0.024913784243166447,0.7842353376053274
1769667283261833200,12.012833251953126,-1.001325744521618,-0.012404431281983852,1.043292808765918
1769667283271822300,12.022822265625,-1.3283312550097703,-0.5257748094245791,0.9403928446531296
1769667283281810200,12.03281005859375,-1.030432596540451,-0.5822276412695646,0.751401720148325
1769667283291799300,12.04279931640625,-0.5258312157869338,-0.7936486242473125,0.6249015386089682
1769667283301788400,12.052788330078124,-0.4073404454410076,-0.6853218127802014,-0.07639189641550183
1769667283311777300,12.06277734375,-0.2193196272730827,-0.1492892287135124,-0.5802164475776255
1769667283321766100,12.07276611328125,-0.21005963149666784,0.29503187086135146,-0.5638048264808952
1769667283331755300,12.08275537109375,-0.3648024494409561,-0.17965280279517173,-0.7009975208178162
1769667283341743000,12.0927431640625,-0.5003659351408482,-0.8690960794195532,-0.8984906623385847
1769667283351732200,12.102732177734374,-0.130720137321949,-1.1086796193033457,-0.7575031057633459
1769667283361721300,12.112721435546876,0.2615408124089241,-1.3082780625402926,-0.3160663294531405
1769667283371710200,12.122710205078125,0.45410921087861056,-0.9183823806360364,-0.33117768160626293
1769667283381699300,12.13269921875,0.5545516988366842,-0.2848994761645794,-0.09620192777886986
1769667283391688400,12.1426884765625,-0.21367723747193812,-0.05689005421847105,0.11100523689612746
1769667283401676300,12.15267626953125,-1.0369289728224278,0.17218582791537046,0.3038907384909689
1769667283411665200,12.1626650390625,-0.9064975893139838,0.10588643257766961,0.6952266823314129
1769667283421654300,12.172654296875,-0.38879824205636976,0.09889145912379026,1.2990619059056043
1769667283431643100,12.18264306640625,0.11772855380177497,0.4233995998382568,1.4149042075693608
1769667283441632300,12.19263232421875,0.01443710615336895,0.7330003865391016,1.659233334545046
1769667283451620400,12.202620361328124,-0.6458078407764435,0.9929033686131238,1.9429450622297821
1769667283461609500,12.212609375,-1.0574860231608152,0.801963740389049,1.7155067181698977
1769667283471598000,12.22259814453125,-0.783509507548809,0.40647184591293334,1.4201342171773315
1769667283481587200,12.232587158203126,-0.13903437668085097,-0.13896131144464016,0.9438792254641651
1769667283491576300,12.242576416015625,0.27635610422492024,-0.6419584718719125,0.69317603341192
1769667283501565200,12.252565185546874,0.5021615863859653,-1.3993074099868534,0.5188155648712068
1769667283511553300,12.26255322265625,0.8174795816898346,-1.9157982582375406,0.33937669708766044
1769667283521542400,12.27254248046875,0.8426929334014653,-1.8499863541558383,0.32487507433071733
1769667283531531300,12.28253125,0.28625089077353477,-1.775411297903955,0.4374592509813606
1769667283541520400,12.292520263671875,0.13163783668875695,-1.6057907904319464,0.3016462657661177
1769667283551509200,12.30250927734375,0.2723041984856129,-1.395847771052271,-0.09673571499516255
1769667283561498000,12.312498046875,0.04340893361568451,-1.0789408991217613,-0.014134421995922457
1769667283571486200,12.322486328125,-0.4602735787272453,-0.7014009870521724,0.030285321213677524
1769667283581475300,12.332475341796876,-0.15884849969744683,-0.40585371401458975,0.23070231429189442
1769667283591464200,12.342464111328125,0.30101825179457664,-0.30333529656529423,0.1131999887277372
1769667283601453300,12.352453369140624,0.49731356183290476,0.18657339583858845,-0.01099085642332211
1769667283611442400,12.3624423828125,0.4562123206377029,0.42578386462628837,0.04831672553196549
