time,seconds_elapsed,z,y,x
1769667271315182000,0.06618212890625,0.4689178466796875,0.8694000244140625,0.0975799560546875
1769667271325171000,0.0761708984375,0.472015380859375,0.87542724609375,0.0999755859375
1769667271335160000,0.08616015625,0.4647369384765625,0.8843231201171875,0.1002349853515625
1769667271345149000,0.09614892578125,0.4532318115234375,0.89202880859375,0.103851318359375
1769667271355137800,0.1061376953125,0.4487152099609375,0.894439697265625,0.1011199951171875
1769667271365126000,0.1161259765625,0.4496612548828125,0.885345458984375,0.095184326171875
1769667271375115000,0.126114990234375,0.4605560302734375,0.87396240234375,0.097869873046875
1769667271385104000,0.136103759765625,0.471038818359375,0.87164306640625,0.106781005859375
1769667271395093000,0.146093017578125,0.4675445556640625,0.8695831298828125,0.10992431640625
1769667271405082000,0.15608203125,0.4562835693359375,0.8746185302734375,0.098876953125
1769667271415071000,0.166071044921875,0.4426116943359375,0.8785400390625,0.0837860107421875
1769667271425058800,0.176058837890625,0.427947998046875,0.88360595703125,0.083709716796875
1769667271435048000,0.1860478515625,0.4308929443359375,0.87493896484375,0.095458984375
1769667271445036800,0.196036865234375,0.447509765625,0.8551483154296875,0.091094970703125
1769667271455026000,0.20602587890625,0.4469146728515625,0.8696441650390625,0.0970458984375
1769667271465015000,0.21601513671875,0.4573211669921875,0.862823486328125,0.1019287109375
1769667271475004000,0.22600390625,0.462890625,0.8453521728515625,0.099639892578125
1769667271484993000,0.235992919921875,0.4681854248046875,0.8177337646484375,0.08746337890625
1769667271494980900,0.24598095703125,0.45989990234375,0.80230712890625,0.0768585205078125
1769667271504969700,0.2559697265625,0.458953857421875,0.779205322265625,0.0844268798828125
1769667271514958800,0.265958740234375,0.46673583984375,0.7335205078125,0.0782470703125
1769667271524948000,0.275947998046875,0.4788818359375,0.6832275390625,0.0533294677734375
1769667271534936800,0.285936767578125,0.4830169677734375,0.6782379150390625,0.0419921875
1769667271544926000,0.295926025390625,0.4973602294921875,0.7247467041015625,0.07073974609375
1769667271554914000,0.3059140625,0.534912109375,0.7222900390625,0.0814056396484375
1769667271564903000,0.31590283203125,0.574462890625,0.77557373046875,0.0757293701171875
1769667271574891800,0.325891845703125,0.57037353515625,0.80694580078125,0.03900146484375
1769667271584881000,0.335880859375,0.59088134765625,0.8108673095703125,0.0533294677734375
1769667271594869800,0.345869873046875,0.571685791015625,0.8431854248046875,0.0569610595703125
1769667271604859000,0.35585888671875,0.5353240966796875,0.82012939453125,0.0076446533203125
1769667271614848000,0.365847900390625,0.4972686767578125,0.8662567138671875,0.0031890869140625
1769667271624836000,0.375836181640625,0.493072509765625,0.8488922119140625,-0.02239990234375
1769667271634825000,0.385824951171875,0.470489501953125,0.841644287109375,0.001068115234375
1769667271644814000,0.39581396484375,0.4910125732421875,0.797149658203125,-0.0158233642578125
1769667271654802700,0.405802734375,0.469635009765625,0.884307861328125,0.03948974609375
1769667271664791800,0.415791748046875,0.463104248046875,0.892059326171875,0.084381103515625
1769667271674781000,0.425781005859375,0.4799652099609375,0.79473876953125,-0.000213623046875
1769667271684769000,0.43576904296875,0.4602813720703125,0.75341796875,-0.0979461669921875
1769667271694758000,0.4457578125,0.472625732421875,0.7701263427734375,-0.1475830078125
1769667271704747000,0.4557470703125,0.5112762451171875,0.79669189453125,-0.1735687255859375
1769667271714735900,0.46573583984375,0.5717620849609375,0.7790985107421875,-0.1466064453125
1769667271724725000,0.47572509765625,0.67877197265625,0.726226806640625,-0.0638427734375
1769667271734714000,0.485714111328125,0.66943359375,0.6770782470703125,-0.156982421875
1769667271744702700,0.49570263671875,0.634490966796875,0.71966552734375,-0.2095794677734375
1769667271754690800,0.50569091796875,0.64971923828125,0.826019287109375,-0.1341094970703125
1769667271764680000,0.515679931640625,0.7537078857421875,0.92523193359375,-0.020538330078125
1769667271774669000,0.5256689453125,0.7811431884765625,0.9817962646484375,-0.00738525390625
1769667271784658000,0.535657958984375,0.7434539794921875,0.962188720703125,-0.0651397705078125
1769667271794647000,0.54564697265625,0.6941070556640625,0.880279541015625,-0.1112518310546875
1769667271804635000,0.555634765625,0.6149139404296875,0.8041839599609375,-0.1602630615234375
1769667271814623700,0.565623779296875,0.6414642333984375,0.789306640625,-0.1361236572265625
1769667271824611800,0.57561181640625,0.71630859375,0.7474365234375,-0.0352935791015625
1769667271834601000,0.58560107421875,0.748992919921875,0.662261962890625,-0.010650634765625
1769667271844589800,0.59558984375,0.7681427001953125,0.64556884765625,-0.0226287841796875
1769667271854579000,0.605578857421875,0.75738525390625,0.604827880859375,-0.045928955078125
1769667271864568000,0.615568115234375,0.7982177734375,0.61895751953125,-0.016998291015625
1769667271874556700,0.625556640625,0.8808441162109375,0.637664794921875,0.043365478515625
1769667271884544800,0.635544677734375,0.9626922607421875,0.6461029052734375,0.0527801513671875
1769667271894534000,0.645533935546875,0.9637603759765625,0.6457366943359375,0.054656982421875
1769667271904523000,0.65552294921875,0.9076080322265625,0.6171722412109375,0.0571441650390625
1769667271914512000,0.665511962890625,0.8657073974609375,0.5798187255859375,-0.00250244140625
1769667271924501000,0.6755009765625,0.8170623779296875,0.5230865478515625,-0.0428924560546875
1769667271934489900,0.68548974609375,0.7775115966796875,0.49700927734375,-0.0637664794921875
1769667271944479000,0.69547900390625,0.7776947021484375,0.50677490234375,-0.0342254638671875
1769667271954466800,0.705466796875,0.812164306640625,0.556884765625,0.01092529296875
1769667271964456000,0.7154560546875,0.82525634765625,0.61175537109375,0.000518798828125
1769667271974444800,0.72544482421875,0.800872802734375,0.6324310302734375,0.0173187255859375
1769667271984434000,0.735433837890625,0.82073974609375,0.572235107421875,0.007080078125
1769667271994423000,0.745423095703125,0.83837890625,0.56475830078125,0.0084075927734375
1769667272004412000,0.755411865234375,0.880645751953125,0.6027374267578125,0.0330657958984375
1769667272014399700,0.765399658203125,0.905181884765625,0.6060333251953125,0.083343505859375
1769667272024388900,0.775388916015625,0.9240875244140625,0.5652618408203125,0.0993194580078125
1769667272034377700,0.785377685546875,0.9522247314453125,0.5274658203125,0.088165283203125
1769667272044366800,0.795366943359375,0.935943603515625,0.5184173583984375,0.095367431640625
1769667272054356000,0.80535595703125,0.9188995361328125,0.5306243896484375,0.063934326171875
1769667272064344800,0.8153447265625,0.9046630859375,0.5487213134765625,0.0300445556640625
1769667272074334000,0.825333984375,0.8475189208984375,0.5369720458984375,-0.005035400390625
1769667272084322000,0.835322021484375,0.84332275390625,0.520355224609375,0.0074615478515625
1769667272094310700,0.845310546875,0.8948516845703125,0.5377960205078125,0.0418701171875
1769667272104299800,0.8552998046875,0.8954010009765625,0.540985107421875,0.0681304931640625
1769667272114289000,0.865288818359375,0.929443359375,0.5399932861328125,0.0689239501953125
1769667272124277800,0.87527783203125,0.9129638671875,0.55096435546875,0.0411376953125
1769667272134267000,0.885266845703125,0.8424224853515625,0.54412841796875,0.00213623046875
1769667272144256000,0.895256103515625,0.814422607421875,0.5196380615234375,0.0005035400390625
1769667272154243800,0.905243896484375,0.84661865234375,0.505706787109375,0.0147705078125
1769667272164233000,0.91523291015625,0.849761962890625,0.538726806640625,0.019683837890625
1769667272174222000,0.92522216796875,0.825286865234375,0.5524749755859375,0.0001373291015625
1769667272184210700,0.935210693359375,0.8212890625,0.5245819091796875,0.0047149658203125
1769667272194199800,0.94519970703125,0.8571014404296875,0.54534912109375,0.077850341796875
1769667272204189000,0.95518896484375,0.945068359375,0.551239013671875,0.0820770263671875
1769667272214176800,0.9651767578125,0.9430389404296875,0.6074981689453125,0.149749755859375
1769667272224166000,0.975165771484375,0.8545379638671875,0.6331787109375,0.1243438720703125
1769667272234155000,0.985155029296875,0.750030517578125,0.6270751953125,0.0803680419921875
1769667272244143900,0.995143798828125,0.71551513671875,0.60406494140625,0.0948944091796875
1769667272254133000,1.005133056640625,0.723358154296875,0.5852813720703125,0.108154296875
1769667272264121900,1.015121826171875,0.718597412109375,0.5975189208984375,0.0947418212890625
1769667272274110700,1.02511083984375,0.6971282958984375,0.59423828125,0.0391845703125
1769667272284098800,1.035098876953125,0.683624267578125,0.6019744873046875,0.026519775390625
1769667272294088000,1.045087890625,0.710906982421875,0.60003662109375,0.0085296630859375
1769667272304076800,1.055076904296875,0.7795562744140625,0.5823211669921875,-0.007537841796875
1769667272314066000,1.06506591796875,0.84027099609375,0.5773468017578125,0.002532958984375
1769667272324055000,1.075054931640625,0.8442840576171875,0.5420684814453125,0.00762939453125
1769667272334044000,1.0850439453125,0.82659912109375,0.5468292236328125,-0.0065155029296875
1769667272344031700,1.09503173828125,0.8172149658203125,0.564056396484375,-0.0501556396484375
1769667272354020900,1.105020751953125,0.838134765625,0.56536865234375,-0.07867431640625
1769667272364010000,1.115010009765625,0.7947998046875,0.5614013671875,-0.0762786865234375
1769667272373998800,1.124998779296875,0.81756591796875,0.56744384765625,-0.0703887939453125
1769667272383988000,1.134988037109375,0.7755126953125,0.5558929443359375,0.01934814453125
1769667272393976800,1.144976806640625,0.9252166748046875,0.535614013671875,0.134552001953125
1769667272403966000,1.154966064453125,1.007232666015625,0.602447509765625,0.1568145751953125
1769667272413953800,1.164953857421875,0.8742523193359375,0.5691375732421875,0.1052398681640625
1769667272423943000,1.17494287109375,0.832244873046875,0.5910186767578125,-0.0088348388671875
1769667272433931800,1.184931884765625,0.843475341796875,0.5838165283203125,-0.066253662109375
1769667272443921000,1.1949208984375,0.7888031005859375,0.5813140869140625,-0.0278167724609375
1769667272453909800,1.20490966796875,0.696014404296875,0.5977630615234375,-0.0070343017578125
1769667272463899000,1.21489892578125,0.6576080322265625,0.6068115234375,0.00946044921875
1769667272473887000,1.224886962890625,0.69097900390625,0.6107330322265625,0.0499420166015625
1769667272483876000,1.2348759765625,0.7238006591796875,0.601318359375,0.04718017578125
1769667272493864700,1.24486474609375,0.7062835693359375,0.608062744140625,-0.0030059814453125
1769667272503853800,1.254853759765625,0.63787841796875,0.56805419921875,0.014190673828125
1769667272513843000,1.264843017578125,0.5907440185546875,0.571380615234375,-0.0228729248046875
1769667272523831800,1.274831787109375,0.60430908203125,0.520263671875,0.0283355712890625
1769667272533821000,1.284821044921875,0.728057861328125,0.549072265625,-0.028106689453125
1769667272543809000,1.29480908203125,0.84210205078125,0.5454254150390625,-0.029693603515625
1769667272553798000,1.3047978515625,0.9105987548828125,0.5135345458984375,0.0191650390625
1769667272563787000,1.314787109375,0.943389892578125,0.4874114990234375,0.0279998779296875
1769667272573776000,1.32477587890625,0.93572998046875,0.5648651123046875,0.031982421875
1769667272583764700,1.3347646484375,0.8651885986328125,0.6074981689453125,0.0308380126953125
1769667272593753900,1.34475390625,0.86236572265625,0.592132568359375,0.0254058837890625
1769667272603742000,1.354741943359375,0.8983154296875,0.523590087890625,0.0486297607421875
1769667272613730800,1.364730712890625,0.9116363525390625,0.4531707763671875,0.0742034912109375
1769667272623720000,1.374719970703125,0.8790740966796875,0.418914794921875,0.0882415771484375
1769667272633709000,1.384708984375,0.867706298828125,0.4154815673828125,0.0633697509765625
1769667272643698000,1.394697998046875,0.8905792236328125,0.4738922119140625,0.05072021484375
1769667272653686800,1.404686767578125,0.926422119140625,0.5513458251953125,0.0210113525390625
1769667272663676000,1.414676025390625,0.887786865234375,0.6038360595703125,-0.02044677734375
1769667272673663700,1.424663818359375,0.787384033203125,0.5916900634765625,-0.0142822265625
1769667272683652900,1.43465283203125,0.865997314453125,0.439544677734375,-0.0027618408203125
1769667272693642000,1.44464208984375,0.936187744140625,0.4477691650390625,-0.0059661865234375
1769667272703630800,1.454630859375,0.8809814453125,0.491851806640625,0.0300750732421875
1769667272713620000,1.464619873046875,0.872894287109375,0.52996826171875,0.0545196533203125
1769667272723609000,1.474609130859375,0.85919189453125,0.5169525146484375,0.0795745849609375
1769667272733597000,1.484596923828125,0.8053741455078125,0.4898681640625,0.0793609619140625
1769667272743585800,1.494585693359375,0.775177001953125,0.4900665283203125,0.080352783203125
1769667272753575000,1.504574951171875,0.7738189697265625,0.48541259765625,0.0785980224609375
1769667272763563800,1.514563720703125,0.76959228515625,0.4954681396484375,0.1078033447265625
1769667272773553000,1.524552978515625,0.740570068359375,0.483154296875,0.1055908203125
1769667272783542000,1.5345419921875,0.7433319091796875,0.466644287109375,0.096282958984375
1769667272793531000,1.54453076171875,0.768707275390625,0.4416351318359375,0.0718994140625
1769667272803518500,1.5545185546875,0.839630126953125,0.3998565673828125,0.06744384765625
1769667272813507600,1.564507568359375,0.867706298828125,0.3741455078125,0.0989990234375
1769667272823496700,1.57449658203125,0.899993896484375,0.392059326171875,0.0954742431640625
1769667272833485600,1.584485595703125,0.926666259765625,0.3829803466796875,0.0705413818359375
1769667272843474700,1.594474609375,0.9365234375,0.3946685791015625,0.05987548828125
1769667272853463600,1.604463623046875,0.93450927734375,0.3863067626953125,0.11065673828125
1769667272863451400,1.614451416015625,1.1335601806640625,0.3411865234375,0.1750640869140625
1769667272873440500,1.6244404296875,1.245086669921875,0.2807159423828125,0.2239837646484375
1769667272883429600,1.6344296875,1.165130615234375,0.2722930908203125,0.269866943359375
1769667272893418500,1.64441845703125,1.11785888671875,0.3089599609375,0.2006683349609375
1769667272903407600,1.65440771484375,1.028076171875,0.332061767578125,0.1721954345703125
1769667272913396500,1.664396484375,0.9357452392578125,0.32513427734375,0.1355133056640625
1769667272923385600,1.674385498046875,0.8145904541015625,0.35467529296875,0.1052398681640625
1769667272933373400,1.68437353515625,0.8111724853515625,0.31787109375,0.106201171875
1769667272943362600,1.694362548828125,0.8514404296875,0.3088226318359375,0.152618408203125
1769667272953351400,1.704351318359375,0.8300323486328125,0.3647003173828125,0.1507568359375
1769667272963340500,1.714340576171875,0.9188995361328125,0.35528564453125,0.14251708984375
1769667272973329700,1.72432958984375,0.9468536376953125,0.3073272705078125,0.1222076416015625
1769667272983318500,1.734318603515625,0.996124267578125,0.300018310546875,0.091705322265625
1769667272993306600,1.744306640625,0.9828948974609375,0.30279541015625,0.114105224609375
1769667273003295700,1.754295654296875,0.97869873046875,0.30023193359375,0.0929107666015625
1769667273013284400,1.764284423828125,0.9792938232421875,0.3257904052734375,0.1048583984375
1769667273023273500,1.7742734375,0.96038818359375,0.3329620361328125,0.087982177734375
1769667273033262600,1.7842626953125,0.79754638671875,0.34698486328125,0.0550079345703125
1769667273043251500,1.79425146484375,0.8708648681640625,0.3244171142578125,0.0384674072265625
1769667273053239600,1.804239501953125,1.0186920166015625,0.296722412109375,0.040924072265625
1769667273063228700,1.814228759765625,1.0225372314453125,0.3087921142578125,0.0472259521484375
1769667273073217500,1.824217529296875,1.00128173828125,0.293548583984375,-0.0045013427734375
1769667273083206700,1.83420654296875,0.9981842041015625,0.3100738525390625,-0.0313262939453125
1769667273093195500,1.844195556640625,0.9572906494140625,0.287872314453125,-0.055572509765625
1769667273103184400,1.854184326171875,0.9911956787109375,0.27593994140625,-0.0574798583984375
1769667273113173500,1.864173583984375,1.0287933349609375,0.2823028564453125,-0.0423126220703125
1769667273123161600,1.87416162109375,0.956329345703125,0.28656005859375,-0.04461669921875
1769667273133150500,1.884150390625,1.0355682373046875,0.267913818359375,-0.0494842529296875
1769667273143139600,1.8941396484375,0.84393310546875,0.2703857421875,-0.1103363037109375
1769667273153128700,1.904128662109375,0.839599609375,0.287811279296875,-0.1061859130859375
1769667273163117600,1.91411767578125,0.9430999755859375,0.2725677490234375,-0.0946044921875
1769667273173106400,1.9241064453125,0.9618072509765625,0.2845611572265625,-0.0967254638671875
1769667273183094500,1.934094482421875,0.9940185546875,0.28875732421875,-0.0986328125
1769667273193083600,1.944083740234375,0.976348876953125,0.2897186279296875,-0.0854339599609375
1769667273203072500,1.954072509765625,0.9980010986328125,0.290771484375,-0.09637451171875
1769667273213061600,1.9640615234375,1.013092041015625,0.2962799072265625,-0.098724365234375
1769667273223050500,1.974050537109375,1.0055694580078125,0.2954864501953125,-0.094512939453125
1769667273233039600,1.98403955078125,0.9969024658203125,0.298492431640625,-0.0810699462890625
1769667273243028700,1.99402880859375,1.020355224609375,0.3003997802734375,-0.0887451171875
1769667273253016600,2.0040166015625,1.0170440673828125,0.3060150146484375,-0.09967041015625
1769667273263005400,2.01400537109375,1.018646240234375,0.3186492919921875,-0.0966796875
1769667273272994600,2.02399462890625,1.006744384765625,0.333587646484375,-0.1175079345703125
1769667273282983400,2.0339833984375,0.98736572265625,0.3277740478515625,-0.1197662353515625
1769667273292972500,2.04397265625,0.9576263427734375,0.3076934814453125,-0.09820556640625
1769667273302961700,2.053961669921875,0.949432373046875,0.295867919921875,-0.082275390625
1769667273312949800,2.06394970703125,0.9365692138671875,0.31610107421875,-0.0971832275390625
1769667273322938400,2.0739384765625,0.9159698486328125,0.3284759521484375,-0.0798492431640625
1769667273332927500,2.083927490234375,0.9329071044921875,0.3027496337890625,-0.053253173828125
1769667273342916600,2.09391650390625,0.953765869140625,0.3148651123046875,-0.0511627197265625
1769667273352905500,2.103905517578125,0.950225830078125,0.31597900390625,-0.039886474609375
1769667273362894600,2.11389453125,0.94439697265625,0.3148193359375,-0.039337158203125
1769667273372882700,2.123882568359375,0.9691009521484375,0.311309814453125,-0.0311737060546875
1769667273382871600,2.13387158203125,0.9728546142578125,0.31170654296875,-0.036468505859375
1769667273392860700,2.143860595703125,0.964324951171875,0.2938079833984375,-0.0142822265625
1769667273402849500,2.153849609375,0.9465484619140625,0.2977294921875,-0.0126495361328125
1769667273412838400,2.16383837890625,0.948760986328125,0.2924346923828125,-0.0035552978515625
1769667273422827500,2.17382763671875,0.9518890380859375,0.2815704345703125,-0.02313232421875
1769667273432815600,2.183815673828125,1.0070953369140625,0.2696685791015625,-0.034454345703125
1769667273442804500,2.193804443359375,1.0168609619140625,0.29241943359375,-0.02734375
1769667273452793600,2.203793701171875,0.997802734375,0.314239501953125,-0.045928955078125
1769667273462782700,2.21378271484375,1.0075531005859375,0.3082733154296875,-0.072021484375
1769667273472771600,2.223771484375,1.022003173828125,0.3132781982421875,-0.0825042724609375
1769667273482760400,2.233760498046875,0.9856719970703125,0.30426025390625,-0.07745361328125
1769667273492749600,2.24374951171875,0.96124267578125,0.2882080078125,-0.050445556640625
1769667273502737400,2.2537373046875,0.958099365234375,0.2736663818359375,-0.0287017822265625
1769667273512726500,2.2637265625,0.9368743896484375,0.2914886474609375,-0.03082275390625
1769667273522715600,2.273715576171875,0.9413299560546875,0.3136138916015625,-0.0518035888671875
1769667273532704500,2.28370458984375,0.9638824462890625,0.350341796875,-0.1174774169921875
1769667273542693600,2.293693603515625,0.97283935546875,0.317138671875,-0.0644073486328125
1769667273552682800,2.303682861328125,0.978546142578125,0.3032379150390625,-0.04888916015625
1769667273562670600,2.313670654296875,0.9429473876953125,0.3139801025390625,-0.0300750732421875
1769667273572659500,2.323659423828125,0.848052978515625,0.2676849365234375,-0.0432281494140625
1769667273582648600,2.333648681640625,0.583465576171875,0.40185546875,-0.0657196044921875
1769667273592637400,2.343637451171875,0.9460601806640625,0.2384185791015625,0.1092376708984375
1769667273602626600,2.35362646484375,1.24737548828125,0.203704833984375,0.183563232421875
1769667273612615700,2.36361572265625,1.1334228515625,0.2176361083984375,0.1167755126953125
1769667273622604500,2.3736044921875,0.9615936279296875,0.30926513671875,-0.050140380859375
1769667273632592400,2.38359228515625,0.8473968505859375,0.281005859375,-0.01580810546875
1769667273642581500,2.39358154296875,0.8623504638671875,0.2712554931640625,0.069793701171875
1769667273652570400,2.4035703125,0.9516143798828125,0.2638702392578125,0.0955047607421875
1769667273662559500,2.4135595703125,0.993438720703125,0.2690582275390625,0.0774688720703125
1769667273672548600,2.423548583984375,0.98748779296875,0.28631591796875,0.0093841552734375
1769667273682537500,2.433537353515625,0.960906982421875,0.2792510986328125,0.01324462890625
1769667273692525600,2.443525634765625,0.9550933837890625,0.29193115234375,0.0139617919921875
1769667273702514700,2.4535146484375,0.9688720703125,0.3011322021484375,0.0167236328125
1769667273712503600,2.463503662109375,0.97119140625,0.3006134033203125,0.0242462158203125
1769667273722492400,2.473492431640625,0.949188232421875,0.293548583984375,0.014923095703125
1769667273732481500,2.4834814453125,0.939056396484375,0.2962646484375,0.0088043212890625
1769667273742470400,2.493470458984375,0.9540252685546875,0.30133056640625,0.0114288330078125
1769667273752459500,2.50345947265625,0.9546051025390625,0.2946624755859375,0.02197265625
1769667273762447600,2.513447509765625,0.94329833984375,0.284820556640625,0.0213470458984375
1769667273772436700,2.523436767578125,0.9405364990234375,0.294189453125,0.0258026123046875
1769667273782425600,2.533425537109375,0.953125,0.3227081298828125,0.0582427978515625
1769667273792414500,2.54341455078125,0.944732666015625,0.314239501953125,0.0883026123046875
1769667273802403300,2.5534033203125,0.9276123046875,0.2874603271484375,0.057403564453125
1769667273812392400,2.563392333984375,0.9337615966796875,0.2854156494140625,0.048675537109375
1769667273822380500,2.573380615234375,0.9209747314453125,0.2543182373046875,0.0111083984375
1769667273832369700,2.58336962890625,0.9554901123046875,0.26513671875,0.0021209716796875
1769667273842358500,2.593358642578125,0.9505767822265625,0.2670745849609375,-0.0120391845703125
1769667273852347600,2.60334765625,0.955047607421875,0.30462646484375,-0.04229736328125
1769667273862336500,2.61333642578125,0.9514617919921875,0.273895263671875,-0.02734375
1769667273872325600,2.62332568359375,0.9549102783203125,0.240509033203125,-0.0420074462890625
1769667273882313500,2.6333134765625,0.9553070068359375,0.271759033203125,-0.0361480712890625
1769667273892302600,2.643302490234375,0.941314697265625,0.2223358154296875,-0.0449981689453125
1769667273902291500,2.65329150390625,0.9923858642578125,0.2592315673828125,-0.0511016845703125
1769667273912280600,2.663280517578125,0.9886627197265625,0.25408935546875,-0.0512542724609375
1769667273922269700,2.673269775390625,0.9846038818359375,0.214141845703125,-0.067626953125
1769667273932258600,2.683258544921875,0.9709625244140625,0.2358856201171875,-0.0971832275390625
1769667273942247700,2.69324755859375,0.9875335693359375,0.2373046875,-0.1013946533203125
1769667273952235500,2.703235595703125,0.990020751953125,0.243408203125,-0.065185546875
1769667273962224400,2.713224365234375,0.9701690673828125,0.242950439453125,-0.039947509765625
1769667273972213500,2.723213623046875,0.96453857421875,0.23468017578125,-0.027374267578125
1769667273982202600,2.73320263671875,0.9618682861328125,0.23065185546875,-0.0240936279296875
1769667273992191500,2.74319140625,0.9668731689453125,0.2362518310546875,-0.042510986328125
1769667274002180600,2.7531806640625,0.9705963134765625,0.238800048828125,-0.0458984375
1769667274012168700,2.763168701171875,0.9724884033203125,0.2353363037109375,-0.0465545654296875
1769667274022157300,2.7731572265625,0.9728240966796875,0.23602294921875,-0.0470123291015625
1769667274032146400,2.783146484375,0.9476776123046875,0.239288330078125,-0.0415802001953125
1769667274042135600,2.793135498046875,0.928375244140625,0.243316650390625,-0.0395660400390625
1769667274052124400,2.80312451171875,0.9073486328125,0.237335205078125,-0.0324249267578125
1769667274062113500,2.813113525390625,0.9224090576171875,0.235809326171875,-0.0172271728515625
1769667274072102700,2.8231025390625,0.955535888671875,0.2429351806640625,-0.0237274169921875
1769667274082090500,2.833090576171875,0.977935791015625,0.24957275390625,-0.0281829833984375
1769667274092079600,2.84307958984375,0.9941864013671875,0.249725341796875,-0.0285797119140625
1769667274102068500,2.853068359375,1.00042724609375,0.248565673828125,-0.03350830078125
1769667274112057300,2.863057373046875,1.0215301513671875,0.242919921875,-0.0220794677734375
1769667274122046500,2.87304638671875,1.019927978515625,0.24700927734375,-0.0180816650390625
1769667274132035600,2.88303564453125,0.9937896728515625,0.247406005859375,-0.0278472900390625
1769667274142023700,2.893023681640625,0.985137939453125,0.263214111328125,-0.0228118896484375
1769667274152012500,2.903012451171875,1.0317230224609375,0.249969482421875,-0.0139312744140625
1769667274162001700,2.913001708984375,1.0162811279296875,0.241363525390625,-0.0215301513671875
1769667274171990500,2.922990478515625,0.9739990234375,0.24444580078125,-0.0203704833984375
1769667274181979600,2.932979736328125,0.9411163330078125,0.2289276123046875,0.008880615234375
1769667274191968500,2.942968505859375,0.940521240234375,0.212738037109375,0.0218505859375
1769667274201957400,2.952957275390625,0.976715087890625,0.2011566162109375,0.02752685546875
1769667274211945500,2.962945556640625,0.972412109375,0.2119293212890625,0.018707275390625
1769667274221934600,2.9729345703125,0.9582977294921875,0.2227783203125,0.00164794921875
1769667274231923500,2.98292333984375,0.96710205078125,0.2108917236328125,0.010833740234375
1769667274241912600,2.99291259765625,0.9910736083984375,0.2222442626953125,0.01788330078125
1769667274251901700,3.002901611328125,0.9791259765625,0.2401580810546875,-0.0057373046875
1769667274261890600,3.012890625,0.952728271484375,0.2408905029296875,-0.0206451416015625
1769667274271878400,3.02287841796875,0.9808807373046875,0.2186431884765625,0.0010986328125
1769667274281867500,3.032867431640625,1.01153564453125,0.178558349609375,0.0177459716796875
1769667274291856600,3.042856689453125,1.0089874267578125,0.2015380859375,0.007781982421875
1769667274301845500,3.052845458984375,0.9846343994140625,0.2454071044921875,-0.0118255615234375
1769667274311834600,3.062834716796875,0.97991943359375,0.2258758544921875,-0.0201263427734375
1769667274321823500,3.072823486328125,0.9984130859375,0.230926513671875,-0.0213775634765625
1769667274331811300,3.082811279296875,0.99102783203125,0.21380615234375,-0.0178375244140625
1769667274341800400,3.092800537109375,0.983642578125,0.19732666015625,-0.0062408447265625
1769667274351789600,3.10278955078125,0.978729248046875,0.2083587646484375,-0.0244140625
1769667274361778400,3.1127783203125,1.0051422119140625,0.21844482421875,-0.0107421875
1769667274371767600,3.122767578125,1.0297698974609375,0.2098846435546875,-0.021240234375
1769667274381756700,3.132756591796875,1.008087158203125,0.2164306640625,-0.038818359375
1769667274391745500,3.14274560546875,1.0021820068359375,0.2174072265625,-0.0291748046875
1769667274401733600,3.152733642578125,0.997772216796875,0.2107696533203125,-0.024871826171875
1769667274411722800,3.16272265625,0.964447021484375,0.2068023681640625,-0.033935546875
1769667274421711400,3.17271142578125,0.978424072265625,0.204833984375,-0.0092926025390625
1769667274431700500,3.182700439453125,1.008941650390625,0.205413818359375,-0.0054473876953125
1769667274441689600,3.192689697265625,0.99432373046875,0.21124267578125,-0.017120361328125
1769667274451678500,3.202678466796875,0.9977569580078125,0.2163543701171875,-0.0460968017578125
1769667274461666600,3.21266650390625,1.0238800048828125,0.2235260009765625,-0.0374755859375
1769667274471655700,3.22265576171875,1.008636474609375,0.1961517333984375,-0.0234222412109375
1769667274481644500,3.23264453125,0.9961090087890625,0.1996002197265625,-0.0282135009765625
1769667274491633700,3.242633544921875,0.9757537841796875,0.21826171875,-0.0247650146484375
1769667274501622500,3.25262255859375,0.9650421142578125,0.1972503662109375,-0.0227508544921875
1769667274511611400,3.262611328125,0.9530029296875,0.1709747314453125,-0.010498046875
1769667274521600500,3.2726005859375,0.979034423828125,0.1490936279296875,-0.0039520263671875
1769667274531588600,3.282588623046875,0.9669036865234375,0.1473388671875,-0.004669189453125
1769667274541577500,3.292577392578125,0.941864013671875,0.155548095703125,-0.0061492919921875
1769667274551566600,3.302566650390625,0.9578704833984375,0.1235504150390625,-0.0276336669921875
1769667274561555700,3.3125556640625,0.9428253173828125,0.129852294921875,0.0275421142578125
1769667274571544600,3.322544677734375,0.9776458740234375,0.1243743896484375,0.0143585205078125
1769667274581533400,3.332533447265625,1.000762939453125,0.0567169189453125,0.00860595703125
1769667274591521500,3.342521484375,0.9771270751953125,0.1475677490234375,0.048736572265625
1769667274601510400,3.352510498046875,0.907379150390625,0.2237396240234375,0.1134033203125
1769667274611499500,3.36249951171875,0.9649658203125,0.1763458251953125,0.1201324462890625
1769667274621488600,3.372488525390625,1.0204315185546875,0.139923095703125,0.147918701171875
1769667274631477500,3.3824775390625,1.0017852783203125,0.1769561767578125,0.1603240966796875
1769667274641466600,3.392466552734375,1.0279541015625,0.18548583984375,0.16900634765625
1769667274651455700,3.402455810546875,0.9996490478515625,0.1236114501953125,0.1818389892578125
1769667274661443600,3.412443603515625,0.9383697509765625,0.103668212890625,0.2124481201171875
1769667274671432400,3.422432373046875,0.958740234375,0.147247314453125,0.1949310302734375
1769667274681421600,3.432421630859375,1.0272216796875,0.1191558837890625,0.151519775390625
1769667274691410400,3.442410400390625,1.03997802734375,0.1508941650390625,0.115264892578125
1769667274701399600,3.452399658203125,1.0701141357421875,0.149261474609375,0.0926666259765625
1769667274711388700,3.462388671875,1.006378173828125,0.090118408203125,0.03765869140625
1769667274721376800,3.472376708984375,0.9893341064453125,0.0413970947265625,0.0221710205078125
1769667274731365400,3.482365478515625,1.07275390625,-0.0090484619140625,0.0122222900390625
1769667274741354500,3.4923544921875,1.0440673828125,-0.0128173828125,-0.061370849609375
1769667274751343600,3.502343505859375,0.9416656494140625,0.094085693359375,-0.056427001953125
1769667274761332500,3.51233251953125,1.0091552734375,0.13201904296875,-0.1594085693359375
1769667274771321600,3.522321533203125,1.0797882080078125,-0.018310546875,-0.13134765625
1769667274781309700,3.532309814453125,0.8987579345703125,-0.015594482421875,-0.1958465576171875
1769667274791298600,3.542298583984375,0.8448944091796875,0.0370941162109375,-0.2191619873046875
1769667274801287700,3.55228759765625,1.009674072265625,0.0916900634765625,-0.1852264404296875
1769667274811276800,3.56227685546875,1.1135101318359375,0.15594482421875,-0.1527099609375
1769667274821265700,3.572265625,1.045440673828125,0.2042999267578125,-0.147613525390625
1769667274831254800,3.5822548828125,0.9484710693359375,0.18951416015625,-0.17279052734375
1769667274841243600,3.59224365234375,0.977081298828125,0.1573333740234375,-0.2419891357421875
1769667274851231700,3.602231689453125,1.01702880859375,0.1430511474609375,-0.28875732421875
1769667274861220900,3.612220947265625,0.98529052734375,0.1295928955078125,-0.233673095703125
1769667274871210000,3.6222099609375,1.028961181640625,0.091583251953125,-0.1918182373046875
1769667274881198600,3.632198486328125,1.03961181640625,0.0927276611328125,-0.20184326171875
1769667274891187700,3.642187744140625,0.995819091796875,0.10052490234375,-0.218170166015625
1769667274901176600,3.652176513671875,0.99249267578125,0.0742950439453125,-0.2147674560546875
1769667274911164700,3.66216455078125,1.03985595703125,-0.0659637451171875,-0.164093017578125
1769667274921153800,3.67215380859375,1.0514678955078125,-0.2736053466796875,-0.1206512451171875
1769667274931143000,3.682142822265625,1.0535736083984375,-0.579986572265625,-0.0684814453125
1769667274941131800,3.6921318359375,0.95697021484375,-0.6782989501953125,-0.1043548583984375
1769667274951121000,3.702120849609375,0.93206787109375,-0.5470123291015625,-0.1834716796875
1769667274961109800,3.71210986328125,1.01458740234375,-0.401580810546875,-0.1710357666015625
1769667274971098600,3.7220986328125,1.0269317626953125,-0.12567138671875,-0.16253662109375
1769667274981086700,3.732086669921875,1.0341796875,-0.0056304931640625,-0.10687255859375
1769667274991075800,3.742075927734375,1.02874755859375,0.41851806640625,-0.120849609375
1769667275001064700,3.752064697265625,0.9022979736328125,1.133453369140625,-0.190765380859375
1769667275011053800,3.7620537109375,0.70989990234375,0.9634552001953125,-0.2217254638671875
1769667275021043000,3.77204296875,0.67706298828125,0.8806915283203125,-0.383087158203125
1769667275031031800,3.78203173828125,0.7652587890625,0.5662078857421875,-0.5430908203125
1769667275041019600,3.79201953125,1.016693115234375,0.2762451171875,-0.569610595703125
1769667275051008800,3.8020087890625,0.9946136474609375,0.1402740478515625,-0.4302520751953125
1769667275060997600,3.81199755859375,1.22564697265625,-0.3820037841796875,-0.1547393798828125
1769667275070986800,3.82198681640625,1.178192138671875,-0.2325897216796875,-0.11688232421875
1769667275080976000,3.831975830078125,1.118408203125,-0.053802490234375,-0.11358642578125
1769667275090964700,3.84196484375,0.9520111083984375,0.053558349609375,-0.1852569580078125
1769667275100953900,3.851953857421875,0.8322296142578125,0.2772674560546875,-0.25103759765625
1769667275110941700,3.861941650390625,0.868499755859375,0.397918701171875,-0.2319793701171875
1769667275120930600,3.8719306640625,0.9799041748046875,0.3611907958984375,-0.187957763671875
1769667275130919700,3.881919677734375,1.01690673828125,0.1617584228515625,-0.2120513916015625
1769667275140908800,3.89190869140625,0.947479248046875,0.0663299560546875,-0.2225799560546875
1769667275150897700,3.901897705078125,0.9191436767578125,0.039794921875,-0.2369384765625
1769667275160886800,3.91188671875,0.93841552734375,0.0707550048828125,-0.200958251953125
1769667275170875000,3.921875,0.98876953125,0.14227294921875,-0.219818115234375
1769667275180863700,3.93186376953125,0.9308013916015625,0.1316680908203125,-0.20989990234375
1769667275190852600,3.9418525390625,0.939849853515625,0.126983642578125,-0.16064453125
1769667275200841700,3.951841796875,0.947601318359375,0.136871337890625,-0.1165924072265625
1769667275210830600,3.96183056640625,0.97918701171875,0.1590728759765625,-0.0980682373046875
1769667275220819700,3.97181982421875,0.93572998046875,0.1759796142578125,-0.0718231201171875
1769667275230808800,3.981808837890625,0.9187469482421875,0.14801025390625,-0.0667724609375
1769667275240797000,3.991796875,0.9131927490234375,0.2168121337890625,0.007080078125
1769667275250785800,4.001785888671875,0.933746337890625,0.3525390625,0.1154937744140625
1769667275260775000,4.01177490234375,0.877166748046875,0.0979156494140625,0.1329193115234375
1769667275270763500,4.021763427734375,0.97369384765625,-0.0719146728515625,-0.0395965576171875
1769667275280752600,4.031752685546875,1.152008056640625,-0.0618438720703125,-0.25213623046875
1769667275290741800,4.04174169921875,1.1406707763671875,0.033599853515625,-0.2373199462890625
1769667275300729900,4.051729736328125,1.038543701171875,0.103179931640625,-0.15692138671875
1769667275310718700,4.06171875,0.929962158203125,0.129974365234375,-0.139495849609375
1769667275320707800,4.071707763671875,0.9103851318359375,0.147216796875,-0.115081787109375
1769667275330696700,4.08169677734375,0.9665679931640625,0.154327392578125,-0.097747802734375
1769667275340685800,4.091685791015625,0.999053955078125,0.139862060546875,-0.0903778076171875
1769667275350675000,4.101675048828125,1.0230560302734375,0.1193084716796875,-0.0784759521484375
1769667275360663600,4.11166357421875,1.0630340576171875,0.1155548095703125,-0.087066650390625
1769667275370651600,4.121651611328125,1.1136016845703125,0.1304168701171875,-0.0979766845703125
1769667275380640800,4.131640869140625,1.0779876708984375,0.1598358154296875,-0.1064605712890625
1769667275390630000,4.1416298828125,0.9883880615234375,0.1955413818359375,-0.078857421875
1769667275400618800,4.15161865234375,0.956024169921875,0.172576904296875,-0.0294952392578125
1769667275410607900,4.16160791015625,1.07696533203125,0.094085693359375,-0.052703857421875
1769667275420596700,4.1715966796875,1.1301116943359375,0.119598388671875,-0.090240478515625
1769667275430584600,4.18158447265625,1.059661865234375,0.1462554931640625,-0.1358642578125
1769667275440573700,4.19157373046875,1.0164337158203125,0.166748046875,-0.1295928955078125
1769667275450562800,4.201562744140625,1.053497314453125,0.1945037841796875,-0.146759033203125
1769667275460551700,4.2115517578125,1.1056976318359375,0.20538330078125,-0.16534423828125
1769667275470540800,4.221540771484375,1.1369476318359375,0.204071044921875,-0.2075042724609375
1769667275480529700,4.23152978515625,1.0883026123046875,0.259857177734375,-0.2213287353515625
1769667275490518800,4.241518798828125,1.0242156982421875,0.3163299560546875,-0.0982513427734375
1769667275500506600,4.251506591796875,1.0021209716796875,0.3061676025390625,-0.024139404296875
1769667275510495700,4.261495849609375,1.00689697265625,0.2560882568359375,-0.0380706787109375
1769667275520484600,4.271484619140625,0.9970550537109375,0.2538299560546875,-0.0144805908203125
1769667275530473700,4.2814736328125,0.974853515625,0.3274078369140625,0.0174407958984375
1769667275540462800,4.291462890625,0.8879241943359375,0.2483062744140625,-0.0402069091796875
1769667275550451700,4.30145166015625,0.8747711181640625,0.2641754150390625,-0.0223846435546875
1769667275560439800,4.311439697265625,0.948577880859375,0.32525634765625,0.0561370849609375
1769667275570429000,4.321428955078125,0.958740234375,0.1974945068359375,0.033050537109375
1769667275580417500,4.33141748046875,0.9545745849609375,0.1238250732421875,0.012054443359375
1769667275590406700,4.34140673828125,1.0536651611328125,0.1200408935546875,-0.0132904052734375
1769667275600395800,4.351395751953125,1.007965087890625,0.061248779296875,-0.01336669921875
1769667275610384600,4.361384521484375,0.9770660400390625,0.066680908203125,0.010162353515625
1769667275620373800,4.371373779296875,0.94207763671875,0.05401611328125,0.0482635498046875
1769667275630361900,4.38136181640625,0.8882904052734375,0.0065765380859375,0.081634521484375
1769667275640350700,4.391350830078125,0.825714111328125,-0.0860443115234375,0.03179931640625
1769667275650339800,4.40133984375,0.8910064697265625,-0.0892486572265625,-0.041595458984375
1769667275660329000,4.411328857421875,0.915740966796875,-0.03692626953125,-0.002777099609375
1769667275670317600,4.421317626953125,0.958251953125,0.022186279296875,0.005157470703125
1769667275680306700,4.431306640625,1.01739501953125,0.0763702392578125,0.0196075439453125
1769667275690294800,4.441294677734375,1.09881591796875,0.1203155517578125,0.0042266845703125
1769667275700283600,4.45128369140625,1.1254425048828125,0.1830902099609375,0.03289794921875
1769667275710272800,4.461272705078125,1.0784149169921875,0.2093048095703125,0.0253143310546875
1769667275720262000,4.471261962890625,1.07354736328125,0.234649658203125,-0.020660400390625
1769667275730250800,4.481250732421875,1.0438079833984375,0.264984130859375,-0.0549468994140625
1769667275740240000,4.491239990234375,1.0024566650390625,0.267608642578125,-0.1026611328125
1769667275750228700,4.501228759765625,0.9453125,0.232391357421875,-0.110198974609375
1769667275760216800,4.511216796875,0.92822265625,0.2620391845703125,-0.100738525390625
1769667275770205700,4.521205810546875,0.8596343994140625,0.22802734375,-0.121002197265625
1769667275780194800,4.53119482421875,0.8055419921875,0.2301483154296875,-0.10479736328125
1769667275790183700,4.54118359375,0.7797698974609375,0.2127532958984375,-0.0787200927734375
1769667275800172500,4.551172607421875,0.7814178466796875,0.2122039794921875,-0.0892181396484375
1769667275810161700,4.56116162109375,0.8099365234375,0.1611175537109375,-0.0910491943359375
1769667275820149500,4.5711494140625,0.936737060546875,0.1165924072265625,-0.1186981201171875
1769667275830138400,4.581138427734375,1.0637359619140625,0.0968780517578125,-0.0534210205078125
1769667275840127500,4.59112744140625,1.0906982421875,0.0640411376953125,0.04632568359375
1769667275850116600,4.60111669921875,1.1058197021484375,0.0736083984375,0.05865478515625
1769667275860105500,4.61110546875,1.077423095703125,0.063201904296875,0.05877685546875
1769667275870094600,4.621094482421875,1.0073699951171875,0.03277587890625,0.0549163818359375
1769667275880083500,4.63108349609375,0.9352569580078125,0.047210693359375,0.057098388671875
1769667275890071300,4.6410712890625,0.9224090576171875,0.001739501953125,0.092315673828125
1769667275900060400,4.651060302734375,0.9244537353515625,-0.0292205810546875,0.0074920654296875
1769667275910049500,4.661049560546875,0.9217529296875,0.0030517578125,0.0516815185546875
1769667275920038400,4.671038330078125,1.055328369140625,-0.0186614990234375,0.10443115234375
1769667275930027500,4.681027587890625,1.0389556884765625,0.024688720703125,0.093353271484375
1769667275940016400,4.691016357421875,1.022857666015625,0.0520172119140625,0.0947723388671875
1769667275950004500,4.70100439453125,1.01031494140625,0.0567779541015625,0.0467987060546875
1769667275959993600,4.71099365234375,0.9315338134765625,0.006317138671875,0.04229736328125
1769667275969982500,4.720982421875,0.96307373046875,-0.057037353515625,0.0386962890625
1769667275979971300,4.730971435546875,1.0398101806640625,-0.119476318359375,0.0368499755859375
1769667275989960400,4.74096044921875,1.090545654296875,-0.162109375,0.0772552490234375
1769667275999949600,4.750949462890625,1.1219635009765625,-0.1516876220703125,0.0665435791015625
1769667276009937400,4.7609375,1.0974578857421875,-0.0647125244140625,-0.0059661865234375
1769667276019926500,4.770926513671875,0.9903411865234375,-0.0540924072265625,-0.0276336669921875
1769667276029915600,4.78091552734375,0.861358642578125,-0.055816650390625,-0.025909423828125
1769667276039904500,4.790904541015625,0.9311676025390625,-0.0218505859375,-0.0047607421875
1769667276049893600,4.8008935546875,1.036224365234375,0.008148193359375,-0.100494384765625
1769667276059882500,4.810882568359375,1.0258941650390625,0.0160980224609375,-0.06622314453125
1769667276069871400,4.820871337890625,0.92645263671875,-0.01409912109375,-0.040252685546875
1769667276079859500,4.830859375,0.943450927734375,-0.031494140625,-0.03857421875
1769667276089848600,4.8408486328125,1.0490570068359375,0.0161590576171875,-0.0431671142578125
1769667276099837400,4.85083740234375,1.1005859375,0.02398681640625,-0.046478271484375
1769667276109826600,4.86082666015625,1.08544921875,0.07366943359375,-0.086181640625
1769667276119815700,4.870815673828125,1.0157470703125,0.1120758056640625,-0.0801544189453125
1769667276129804500,4.880804443359375,1.0193939208984375,0.097625732421875,-0.0888214111328125
1769667276139793400,4.89079345703125,0.99951171875,0.1047515869140625,-0.082733154296875
1769667276149781500,4.900781494140625,0.991790771484375,0.103424072265625,-0.071380615234375
1769667276159770400,4.910770263671875,0.9732666015625,0.0963897705078125,-0.06585693359375
1769667276169759500,4.920759521484375,0.91339111328125,0.1103057861328125,-0.0743865966796875
1769667276179748600,4.93074853515625,0.9603729248046875,0.1151123046875,-0.061737060546875
1769667276189737500,4.940737548828125,0.978607177734375,0.1293182373046875,-0.0730743408203125
1769667276199726600,4.9507265625,1.017333984375,0.1188812255859375,-0.0813140869140625
1769667276209714400,4.96071435546875,1.0373077392578125,0.12200927734375,-0.092437744140625
1769667276219703600,4.97070361328125,1.0266265869140625,0.1378021240234375,-0.0971221923828125
1769667276229692400,4.9806923828125,1.0234832763671875,0.139190673828125,-0.1047210693359375
1769667276239681500,4.990681640625,0.942413330078125,0.1279144287109375,-0.0886993408203125
1769667276249670400,5.00067041015625,0.88848876953125,0.1351318359375,-0.053436279296875
1769667276259659500,5.010659423828125,1.102813720703125,0.1214447021484375,-0.0738067626953125
1769667276269648600,5.020648681640625,1.1261749267578125,0.157745361328125,-0.052734375
1769667276279636500,5.030636474609375,1.0752105712890625,0.1377105712890625,-0.0618133544921875
1769667276289625300,5.040625244140625,1.0277557373046875,0.135711669921875,-0.069549560546875
1769667276299614500,5.050614501953125,1.0198974609375,0.1319732666015625,-0.04254150390625
1769667276309603300,5.060603271484375,1.037384033203125,0.124725341796875,-0.026275634765625
1769667276319592400,5.070592529296875,1.02459716796875,0.123779296875,-0.0210418701171875
1769667276329581600,5.08058154296875,0.995269775390625,0.12225341796875,-0.01422119140625
1769667276339569700,5.090569580078125,1.0034332275390625,0.1266021728515625,-0.006500244140625
1769667276349558500,5.10055859375,0.99530029296875,0.1295928955078125,-0.0173492431640625
1769667276359547600,5.110547607421875,0.9744415283203125,0.131805419921875,-0.013946533203125
1769667276369536500,5.12053662109375,0.975738525390625,0.133636474609375,-0.0152130126953125
1769667276379525400,5.130525390625,0.9733428955078125,0.133819580078125,-0.0209197998046875
1769667276389514500,5.140514404296875,0.9721832275390625,0.13031005859375,-0.0108642578125
1769667276399503400,5.15050341796875,0.9847259521484375,0.127532958984375,-0.009033203125
1769667276409491500,5.160491455078125,0.9844512939453125,0.129791259765625,-0.0117950439453125
1769667276419480600,5.17048046875,0.9787750244140625,0.1325836181640625,-0.0159454345703125
1769667276429469700,5.1804697265625,0.9921722412109375,0.128631591796875,-0.0190887451171875
1769667276439458600,5.19045849609375,1.0207061767578125,0.130767822265625,-0.021759033203125
1769667276449447400,5.200447509765625,1.0395660400390625,0.13421630859375,-0.026336669921875
1769667276459436500,5.2104365234375,1.0279388427734375,0.137725830078125,-0.0343780517578125
1769667276469424400,5.22042431640625,1.0162200927734375,0.136688232421875,-0.0327911376953125
1769667276479413500,5.23041357421875,1.012786865234375,0.1389923095703125,-0.0322265625
1769667276489402600,5.240402587890625,1.0018463134765625,0.13836669921875,-0.0370025634765625
1769667276499391500,5.2503916015625,0.9931488037109375,0.1422271728515625,-0.0433349609375
1769667276509380600,5.260380615234375,0.9886627197265625,0.1407318115234375,-0.03173828125
1769667276519369700,5.27036962890625,0.9806976318359375,0.13916015625,-0.045562744140625
1769667276529358300,5.2803583984375,0.9906158447265625,0.1393890380859375,-0.039703369140625
1769667276539346400,5.290346435546875,0.9976043701171875,0.1402435302734375,-0.0377197265625
1769667276549335600,5.30033544921875,1.0066680908203125,0.1387939453125,-0.0355072021484375
1769667276559324400,5.310324462890625,1.0077362060546875,0.1394805908203125,-0.0402069091796875
1769667276569313500,5.3203134765625,0.9894256591796875,0.14013671875,-0.0419921875
1769667276579302700,5.330302734375,0.984649658203125,0.14202880859375,-0.0423736572265625
1769667276589291500,5.34029150390625,0.998291015625,0.1479949951171875,-0.0505218505859375
1769667276599279400,5.350279296875,0.9975433349609375,0.13897705078125,-0.0418701171875
1769667276609268500,5.3602685546875,1.004241943359375,0.140350341796875,-0.04864501953125
1769667276619257300,5.37025732421875,0.9949951171875,0.1511993408203125,-0.0595550537109375
1769667276629246500,5.38024658203125,0.9825286865234375,0.142333984375,-0.0505218505859375
1769667276639235600,5.390235595703125,0.98095703125,0.1293792724609375,-0.037322998046875
1769667276649224400,5.400224365234375,0.9662933349609375,0.1219635009765625,-0.02325439453125
1769667276659212500,5.410212646484375,0.9736785888671875,0.1123809814453125,-0.00537109375
1769667276669201700,5.42020166015625,0.978790283203125,0.1204376220703125,-0.0100250244140625
1769667276679190300,5.430190185546875,0.974609375,0.1320343017578125,-0.0359039306640625
1769667276689179400,5.440179443359375,0.9847412109375,0.1417388916015625,-0.0396270751953125
1769667276699168500,5.45016845703125,0.9883880615234375,0.14495849609375,-0.0365447998046875
1769667276709157400,5.460157470703125,0.9827880859375,0.1457977294921875,-0.041107177734375
1769667276719146500,5.470146484375,0.978668212890625,0.1466064453125,-0.050628662109375
1769667276729134600,5.480134521484375,1.0048828125,0.1570281982421875,-0.0634918212890625
1769667276739123500,5.49012353515625,1.0170135498046875,0.15069580078125,-0.0569610595703125
1769667276749112600,5.500112548828125,1.0162506103515625,0.1522216796875,-0.0574188232421875
1769667276759101400,5.510101318359375,1.021331787109375,0.158966064453125,-0.0785369873046875
1769667276769090300,5.52009033203125,1.0045166015625,0.15631103515625,-0.0979461669921875
1769667276779079400,5.530079345703125,0.997711181640625,0.15570068359375,-0.099395751953125
1769667276789067500,5.540067626953125,1.001800537109375,0.14581298828125,-0.0633697509765625
1769667276799056600,5.550056640625,1.0022430419921875,0.1364898681640625,-0.0252227783203125
1769667276809045200,5.560045166015625,1.0038604736328125,0.1375274658203125,-0.039276123046875
1769667276819034400,5.570034423828125,1.011932373046875,0.1300506591796875,-0.0251007080078125
1769667276829023500,5.5800234375,1.009674072265625,0.13287353515625,-0.003265380859375
1769667276839012000,5.59001220703125,0.9835357666015625,0.1420440673828125,-0.0458526611328125
1769667276849001200,5.600001220703125,0.968841552734375,0.137908935546875,-0.0762176513671875
1769667276858989300,5.6099892578125,0.9277191162109375,0.151947021484375,-0.070892333984375
1769667276868978200,5.619978271484375,0.96514892578125,0.149658203125,-0.1075439453125
1769667276878967300,5.62996728515625,1.022491455078125,0.1346588134765625,-0.09332275390625
1769667276888956400,5.639956298828125,0.9977264404296875,0.1075592041015625,-0.0966796875
1769667276898945300,5.6499453125,0.97528076171875,0.17376708984375,-0.0924835205078125
1769667276908934400,5.659934326171875,1.010894775390625,0.05535888671875,0.00091552734375
1769667276918922200,5.669922119140625,1.0349273681640625,0.0479278564453125,0.010498046875
1769667276928911000,5.6799111328125,0.95733642578125,0.135284423828125,-0.052703857421875
1769667276938900200,5.689900146484375,0.980194091796875,0.1695098876953125,-0.0830841064453125
1769667276948889300,5.699889404296875,0.987701416015625,0.1336212158203125,-0.121429443359375
1769667276958878200,5.709878173828125,0.96600341796875,0.1363372802734375,-0.1393280029296875
1769667276968867300,5.719867431640625,0.966094970703125,0.1833648681640625,-0.1281585693359375
1769667276978855200,5.729855224609375,0.9392547607421875,0.1862640380859375,-0.1160125732421875
1769667276988844000,5.739843994140625,0.9522705078125,0.17169189453125,-0.0543212890625
1769667276998833200,5.749833251953125,0.9806976318359375,0.134002685546875,0.0019073486328125
1769667277008822300,5.759822265625,1.0008697509765625,0.123504638671875,0.0162353515625
1769667277018811100,5.76981103515625,1.000457763671875,0.1506500244140625,0.0766448974609375
1769667277028800300,5.77980029296875,0.9597930908203125,0.11553955078125,0.050201416015625
1769667277038789400,5.789789306640625,0.9610748291015625,0.1389923095703125,0.0222320556640625
1769667277048777200,5.799777099609375,1.0056610107421875,0.139068603515625,0.0805206298828125
1769667277058766300,5.809766357421875,1.033111572265625,0.1117095947265625,0.0540771484375
1769667277068755200,5.819755126953125,1.02685546875,0.0911865234375,0.0479888916015625
1769667277078744000,5.829744140625,1.01837158203125,0.09942626953125,0.037261962890625
1769667277088733200,5.839733154296875,1.02197265625,0.11383056640625,0.0136260986328125
1769667277098722300,5.849722412109375,1.029571533203125,0.146148681640625,-0.0163421630859375
1769667277108710400,5.85971044921875,1.0211181640625,0.1460418701171875,-0.04010009765625
1769667277118699300,5.86969921875,1.0262451171875,0.14862060546875,-0.047760009765625
1769667277128688400,5.8796884765625,1.04193115234375,0.147613525390625,-0.0601959228515625
1769667277138677200,5.88967724609375,1.011749267578125,0.1217498779296875,-0.05780029296875
1769667277148666000,5.899666015625,1.006866455078125,0.13818359375,-0.029052734375
1769667277158655200,5.9096552734375,0.9918060302734375,0.1631317138671875,-0.014312744140625
1769667277168643300,5.919643310546875,0.9862518310546875,0.1490936279296875,-0.0220184326171875
1769667277178632200,5.929632080078125,1.0106353759765625,0.11859130859375,0.0169830322265625
1769667277188621300,5.939621337890625,1.002777099609375,0.1507568359375,0.00396728515625
1769667277198610400,5.9496103515625,1.00653076171875,0.102081298828125,-0.035430908203125
1769667277208599300,5.959599365234375,0.97601318359375,0.169921875,-0.02105712890625
1769667277218588400,5.96958837890625,0.9420013427734375,0.1811676025390625,0.0129241943359375
1769667277228577000,5.979576904296875,0.9603424072265625,0.1490020751953125,-0.0316009521484375
1769667277238565000,5.989565185546875,1.03680419921875,0.1946563720703125,0.005462646484375
1769667277248554200,5.99955419921875,1.0449066162109375,0.1554718017578125,-0.0016326904296875
1769667277258543400,6.00954345703125,1.03167724609375,0.166839599609375,0.00909423828125
1769667277268532200,6.0195322265625,1.005462646484375,0.1479339599609375,-0.021759033203125
1769667277278521300,6.029521240234375,0.9969635009765625,0.1647186279296875,0.0056915283203125
1769667277288510200,6.03951025390625,1.0081787109375,0.1512603759765625,0.0329437255859375
1769667277298498000,6.049498046875,1.009307861328125,0.1196746826171875,0.0382537841796875
1769667277308487200,6.059487060546875,1.0175323486328125,0.064910888671875,0.0306854248046875
1769667277318476300,6.069476318359375,1.0105438232421875,0.0406646728515625,0.074310302734375
1769667277328465200,6.079465087890625,0.982879638671875,0.046844482421875,0.06085205078125
1769667277338454300,6.089454345703125,0.9781646728515625,0.0308074951171875,0.0614166259765625
1769667277348443400,6.099443359375,0.96978759765625,0.0526275634765625,0.0328369140625
1769667277358431200,6.10943115234375,0.95355224609375,0.088897705078125,0.02410888671875
1769667277368420400,6.11942041015625,1.005706787109375,0.1063232421875,0.053924560546875
1769667277378409200,6.1294091796875,1.0258026123046875,0.1068572998046875,0.0169830322265625
1769667277388398000,6.139398193359375,0.96661376953125,0.13885498046875,0.0366363525390625
1769667277398387200,6.14938720703125,0.9539337158203125,0.1669769287109375,0.081695556640625
1769667277408376300,6.159376220703125,0.98834228515625,0.1382598876953125,0.1710968017578125
1769667277418365200,6.169365234375,0.986053466796875,0.12628173828125,0.180633544921875
1769667277428353300,6.179353271484375,0.974700927734375,0.131072998046875,0.191253662109375
1769667277438342400,6.18934228515625,1.047607421875,0.087127685546875,0.1753692626953125
1769667277448331300,6.199331298828125,1.0570831298828125,0.0616912841796875,0.1632843017578125
1769667277458320100,6.209320068359375,0.9553070068359375,0.07281494140625,0.139923095703125
1769667277468309200,6.219309326171875,0.909912109375,0.1307220458984375,0.1577301025390625
1769667277478298000,6.229298095703125,0.95123291015625,0.144927978515625,0.2845916748046875
1769667277488286200,6.2392861328125,1.027984619140625,0.0916900634765625,0.31610107421875
1769667277498275300,6.249275390625,0.9789886474609375,0.09136962890625,0.31768798828125
1769667277508264200,6.25926416015625,1.02166748046875,0.0301361083984375,0.302154541015625
1769667277518253300,6.26925341796875,1.0560760498046875,0.034332275390625,0.1981964111328125
1769667277528242400,6.279242431640625,1.0652008056640625,0.0663909912109375,0.095550537109375
1769667277538231000,6.28923095703125,1.07342529296875,0.030914306640625,0.0164794921875
1769667277548220200,6.29922021484375,0.9334716796875,0.0674896240234375,-0.00604248046875
1769667277558208300,6.309208251953125,0.7709503173828125,0.1852874755859375,-0.0112762451171875
1769667277568197400,6.319197265625,0.8817138671875,0.1394195556640625,0.0469512939453125
1769667277578186200,6.329186279296875,0.9282073974609375,0.1674957275390625,-0.02276611328125
1769667277588175400,6.33917529296875,1.0016326904296875,0.1435394287109375,-0.073272705078125
1769667277598164200,6.349164306640625,1.02587890625,0.136962890625,-0.043975830078125
1769667277608153300,6.3591533203125,1.0794525146484375,0.0785369873046875,0.0114898681640625
1769667277618141200,6.36914111328125,1.1402435302734375,-0.066253662109375,0.067138671875
1769667277628130300,6.37913037109375,1.1201629638671875,-0.2324371337890625,0.143402099609375
1769667277638119200,6.389119140625,0.9218292236328125,-0.169830322265625,0.167236328125
1769667277648108300,6.3991083984375,1.1893463134765625,-0.1939849853515625,0.293182373046875
1769667277658097200,6.40909716796875,1.223052978515625,-0.053924560546875,0.21734619140625
1769667277668086300,6.419086181640625,0.9679107666015625,0.0775299072265625,0.1072998046875
1769667277678075400,6.429075439453125,0.88861083984375,0.12322998046875,0.1613311767578125
1769667277688063200,6.439063232421875,0.9178466796875,-0.019989013671875,0.0921478271484375
1769667277698052000,6.449052001953125,0.9182586669921875,0.0608062744140625,0.0881500244140625
1769667277708041200,6.459041259765625,0.9308929443359375,0.1326446533203125,-0.0507659912109375
1769667277718030300,6.4690302734375,0.894775390625,0.136932373046875,-0.0729827880859375
1769667277728019200,6.479019287109375,0.8363037109375,0.1988372802734375,0.028594970703125
1769667277738008300,6.48900830078125,0.7167510986328125,0.1544952392578125,0.13916015625
1769667277747996400,6.498996337890625,0.8233795166015625,0.1434173583984375,0.05322265625
1769667277757985300,6.5089853515625,0.745086669921875,0.225830078125,-0.0220794677734375
1769667277767974100,6.51897412109375,0.8397674560546875,0.3224334716796875,-0.06585693359375
1769667277777963300,6.52896337890625,0.8996124267578125,0.39599609375,-0.0216522216796875
1769667277787952000,6.5389521484375,1.0005340576171875,0.616973876953125,0.0151824951171875
1769667277797941200,6.548941162109375,1.1726837158203125,0.6108551025390625,0.170654296875
1769667277807929600,6.5589296875,1.1593017578125,0.584808349609375,0.0401611328125
1769667277817918500,6.56891845703125,0.9611968994140625,0.6441650390625,-0.114471435546875
1769667277827907600,6.578907470703125,0.92950439453125,0.635772705078125,-0.09954833984375
1769667277837896700,6.588896728515625,0.9606781005859375,0.4874725341796875,-0.056732177734375
1769667277847885600,6.598885498046875,1.0077972412109375,0.2898101806640625,0.02349853515625
1769667277857874400,6.60887451171875,0.9864501953125,0.215576171875,0.0801849365234375
1769667277867863300,6.61886328125,0.981414794921875,0.230194091796875,0.1042938232421875
1769667277877851400,6.628851318359375,1.0377197265625,0.1416168212890625,0.1278533935546875
1769667277887840500,6.638840576171875,1.064361572265625,0.0980224609375,0.137481689453125
1769667277897829600,6.64882958984375,1.081695556640625,0.09869384765625,0.1330108642578125
1769667277907818500,6.658818603515625,1.0320281982421875,0.1219024658203125,0.082763671875
1769667277917807600,6.6688076171875,0.973602294921875,0.142547607421875,0.0437469482421875
1769667277927796500,6.67879638671875,0.9626617431640625,0.1240081787109375,0.07135009765625
1769667277937784300,6.688784423828125,0.9837799072265625,0.1075439453125,0.1124420166015625
1769667277947773400,6.6987734375,0.977752685546875,0.1056671142578125,0.1020965576171875
1769667277957762600,6.708762451171875,0.974639892578125,0.1279754638671875,0.0655364990234375
1769667277967751400,6.71875146484375,0.9813385009765625,0.148956298828125,0.03582763671875
1769667277977740500,6.728740478515625,0.984039306640625,0.1480712890625,0.02105712890625
1769667277987729700,6.738729736328125,0.9889678955078125,0.1551666259765625,-0.003387451171875
1769667277997718500,6.748718505859375,1.0001373291015625,0.1773223876953125,-0.00238037109375
1769667278007706400,6.758706298828125,0.9710693359375,0.174041748046875,-0.0236968994140625
1769667278017695500,6.768695556640625,0.967132568359375,0.1695556640625,-0.0380401611328125
1769667278027684400,6.778684326171875,0.99725341796875,0.145843505859375,-0.0111236572265625
1769667278037673500,6.788673583984375,1.0406494140625,0.1150970458984375,0.01336669921875
1769667278047662600,6.79866259765625,1.031768798828125,0.117034912109375,-0.0247802734375
1769667278057651500,6.8086513671875,1.006134033203125,0.10791015625,-0.035064697265625
1769667278067639600,6.8186396484375,1.026885986328125,0.08465576171875,-0.0006561279296875
1769667278077628700,6.828628662109375,1.0094451904296875,0.094146728515625,-0.0249786376953125
1769667278087617300,6.8386171875,1.008270263671875,0.075531005859375,0.0058441162109375
1769667278097606400,6.8486064453125,1.0275421142578125,0.087158203125,-0.005767822265625
1769667278107595500,6.858595458984375,1.0227508544921875,0.0593414306640625,0.0272979736328125
1769667278117584400,6.86858447265625,0.9874267578125,0.07598876953125,0.0023651123046875
1769667278127572500,6.878572509765625,1.0018310546875,0.0682830810546875,0.015655517578125
1769667278137561600,6.8885615234375,0.983856201171875,0.1084136962890625,0.00360107421875
1769667278147550500,6.898550537109375,0.960968017578125,0.0789642333984375,-0.0103607177734375
1769667278157539600,6.90853955078125,1.0253448486328125,0.0655670166015625,0.0038299560546875
1769667278167528400,6.918528564453125,1.03778076171875,0.1136932373046875,-0.0008087158203125
1769667278177517300,6.928517333984375,1.016998291015625,0.1157073974609375,-0.015106201171875
1769667278187506400,6.93850634765625,1.0292510986328125,0.1388702392578125,-0.0312347412109375
1769667278197494500,6.94849462890625,1.040252685546875,0.117034912109375,-0.0288543701171875
1769667278207483600,6.958483642578125,0.983612060546875,0.090850830078125,-0.005523681640625
1769667278217472500,6.968472412109375,0.9792327880859375,0.0610198974609375,0.0320892333984375
1769667278227461600,6.978461669921875,0.997283935546875,0.0747833251953125,0.0092315673828125
1769667278237450500,6.988450439453125,0.947601318359375,0.0748291015625,0.0205841064453125
1769667278247439400,6.998439453125,0.95111083984375,-0.01409912109375,0.0399169921875
1769667278257427500,7.008427490234375,1.0405731201171875,-0.0215606689453125,0.0294189453125
1769667278267416600,7.01841650390625,0.99481201171875,0.025726318359375,0.0377655029296875
1769667278277405400,7.028405517578125,0.9965362548828125,0.07086181640625,-0.0122222900390625
1769667278287394600,7.03839453125,1.0019683837890625,0.1087493896484375,0.01312255859375
1769667278297383400,7.048383544921875,1.026763916015625,0.0377044677734375,0.0271148681640625
1769667278307372500,7.05837255859375,1.040985107421875,0.0273590087890625,0.008453369140625
1769667278317360400,7.0683603515625,0.990142822265625,0.0478515625,0.0451202392578125
1769667278327349500,7.078349609375,1.00714111328125,0.044219970703125,0.00140380859375
1769667278337338400,7.08833837890625,0.9619598388671875,0.1031951904296875,0.008453369140625
1769667278347327500,7.098327392578125,0.924774169921875,0.08319091796875,0.0416717529296875
1769667278357316600,7.108316650390625,1.00762939453125,0.0658416748046875,0.030731201171875
1769667278367305500,7.118305419921875,1.01837158203125,0.0505828857421875,0.01031494140625
1769667278377294600,7.128294677734375,0.996246337890625,0.0759124755859375,0.007568359375
1769667278387282700,7.13828271484375,0.9686431884765625,0.08050537109375,0.007568359375
1769667278397271300,7.148271240234375,0.966400146484375,0.068389892578125,0.006072998046875
1769667278407260400,7.158260498046875,0.882110595703125,0.054901123046875,0.0294952392578125
1769667278417249500,7.16824951171875,0.956634521484375,0.000732421875,0.038848876953125
1769667278427238400,7.17823828125,1.05682373046875,0.006195068359375,-0.0017547607421875
1769667278437227500,7.1882275390625,1.01275634765625,-0.00860595703125,-0.0179595947265625
1769667278447215600,7.198215576171875,0.9831695556640625,0.0462188720703125,-0.04290771484375
1769667278457204500,7.20820458984375,1.0212249755859375,0.0674285888671875,-0.024932861328125
1769667278467193600,7.218193603515625,1.0094146728515625,0.1041107177734375,-0.0002899169921875
1769667278477182500,7.228182373046875,0.9926910400390625,0.115875244140625,0.01995849609375
1769667278487171300,7.23817138671875,1.0171661376953125,0.120086669921875,0.031829833984375
1769667278497160400,7.248160400390625,1.0236663818359375,0.096435546875,0.0265350341796875
1769667278507148500,7.2581484375,0.9856109619140625,0.111114501953125,0.0071563720703125
1769667278517137400,7.268137451171875,0.9957122802734375,0.1042022705078125,0.0174407958984375
1769667278527126500,7.27812646484375,0.968780517578125,0.1024627685546875,0.0056304931640625
1769667278537115600,7.28811572265625,0.98876953125,0.1048431396484375,-0.00201416015625
1769667278547104500,7.2981044921875,1.01171875,0.120574951171875,0.006805419921875
1769667278557093600,7.30809375,1.0098114013671875,0.116058349609375,0.0103302001953125
1769667278567082500,7.31808251953125,0.996826171875,0.1298828125,0.0161895751953125
1769667278577070600,7.328070556640625,0.97369384765625,0.152313232421875,0.0194091796875
1769667278587059500,7.3380595703125,0.9911651611328125,0.132476806640625,0.0136260986328125
1769667278597048600,7.348048583984375,1.001068115234375,0.128387451171875,0.00604248046875
1769667278607037400,7.358037353515625,1.00152587890625,0.123687744140625,-0.0077362060546875
1769667278617026600,7.368026611328125,0.999053955078125,0.1280670166015625,-0.021820068359375
1769667278627015700,7.378015625,0.9941253662109375,0.1415557861328125,-0.010955810546875
1769667278637003500,7.38800341796875,0.9775238037109375,0.1591339111328125,0.002166748046875
1769667278646992400,7.397992431640625,0.949005126953125,0.1504058837890625,0.0154266357421875
1769667278656981500,7.4079814453125,0.9425506591796875,0.181396484375,0.0045623779296875
1769667278666970400,7.417970458984375,0.9555511474609375,0.1527557373046875,0.0073394775390625
1769667278676959500,7.42795947265625,0.9433746337890625,0.17645263671875,0.0018768310546875
1769667278686948600,7.437948486328125,0.9607391357421875,0.1515350341796875,0.008941650390625
1769667278696937500,7.4479375,1.001739501953125,0.1228485107421875,-0.007354736328125
1769667278706925300,7.45792529296875,0.9685516357421875,0.1623382568359375,-0.03997802734375
1769667278716914400,7.46791455078125,0.9564208984375,0.1755218505859375,-0.026885986328125
1769667278726903600,7.477903564453125,0.9858551025390625,0.1383819580078125,-0.0168304443359375
1769667278736892400,7.487892333984375,0.9840087890625,0.18359375,-0.0229034423828125
1769667278746881500,7.497881591796875,0.9804840087890625,0.15411376953125,-0.0168304443359375
1769667278756870400,7.507870361328125,0.9692535400390625,0.171295166015625,-0.0085601806640625
1769667278766858500,7.5178583984375,0.9904937744140625,0.17694091796875,-0.011932373046875
1769667278776847600,7.52784765625,1.0033416748046875,0.135528564453125,-0.065216064453125
1769667278786836500,7.53783642578125,0.9991607666015625,0.191558837890625,-0.0481414794921875
1769667278796825300,7.547825439453125,1.02490234375,0.164794921875,-0.012298583984375
1769667278806814500,7.557814453125,1.0042877197265625,0.1685791015625,-0.0157928466796875
1769667278816803300,7.56780322265625,0.950897216796875,0.1415863037109375,-0.03692626953125
1769667278826791400,7.57779150390625,0.9930877685546875,0.1308135986328125,-0.0549774169921875
1769667278836780500,7.587780517578125,1.0034942626953125,0.168365478515625,-0.0798492431640625
1769667278846769700,7.597769775390625,0.9635772705078125,0.163238525390625,-0.06591796875
1769667278856758500,7.607758544921875,0.975494384765625,0.1523284912109375,-0.07342529296875
1769667278866747600,7.61774755859375,1.016998291015625,0.17279052734375,-0.095672607421875
1769667278876736500,7.627736572265625,1.021759033203125,0.16949462890625,-0.0848236083984375
1769667278886724400,7.637724365234375,0.997711181640625,0.126678466796875,-0.0814361572265625
1769667278896713500,7.64771337890625,0.9796295166015625,0.114471435546875,-0.137908935546875
1769667278906702600,7.65770263671875,0.9833221435546875,0.14898681640625,-0.1349334716796875
1769667278916691500,7.66769140625,1.0045623779296875,0.1407470703125,-0.13092041015625
1769667278926680600,7.6776806640625,1.0179901123046875,0.1697845458984375,-0.10760498046875
1769667278936669700,7.687669677734375,0.9957275390625,0.1633453369140625,-0.1067657470703125
1769667278946657500,7.697657470703125,0.973541259765625,0.142486572265625,-0.1305999755859375
1769667278956646400,7.707646484375,0.9856414794921875,0.13824462890625,-0.13250732421875
1769667278966635500,7.717635498046875,0.9820404052734375,0.157196044921875,-0.1260986328125
1769667278976624400,7.727624267578125,0.9843902587890625,0.1255340576171875,-0.13037109375
1769667278986613500,7.737613525390625,0.993896484375,0.147857666015625,-0.1402740478515625
1769667278996602600,7.7476025390625,1.0041656494140625,0.14910888671875,-0.12347412109375
1769667279006591500,7.757591552734375,1.01202392578125,0.1623077392578125,-0.1265716552734375
1769667279016579300,7.767579345703125,1.0165863037109375,0.1634674072265625,-0.140838623046875
1769667279026568400,7.777568359375,1.036102294921875,0.1645050048828125,-0.139678955078125
1769667279036557300,7.787557373046875,1.0374298095703125,0.1668701171875,-0.1380462646484375
1769667279046546400,7.79754638671875,1.0294036865234375,0.1693267822265625,-0.1345062255859375
1769667279056535600,7.80753564453125,1.0023651123046875,0.168701171875,-0.1202545166015625
1769667279066524400,7.8175244140625,0.9765625,0.159698486328125,-0.1180572509765625
1769667279076512500,7.827512451171875,0.980010986328125,0.1515960693359375,-0.1171417236328125
1769667279086501600,7.837501708984375,0.9931182861328125,0.148223876953125,-0.1109466552734375
1769667279096490500,7.847490478515625,1.0024871826171875,0.144256591796875,-0.114288330078125
1769667279106479400,7.857479248046875,1.0061187744140625,0.145263671875,-0.1141815185546875
1769667279116468500,7.867468505859375,0.9969329833984375,0.1525421142578125,-0.113739013671875
1769667279126457300,7.877457275390625,0.9842376708984375,0.15234375,-0.10809326171875
1769667279136445400,7.887445556640625,0.975555419921875,0.1456298828125,-0.100616455078125
1769667279146434600,7.8974345703125,0.9770965576171875,0.1473388671875,-0.0986785888671875
1769667279156423700,7.907423583984375,0.9830780029296875,0.1489105224609375,-0.0965118408203125
1769667279166412500,7.91741259765625,0.9906158447265625,0.1484832763671875,-0.0990142822265625
1769667279176401700,7.927401611328125,0.9972991943359375,0.1592864990234375,-0.09576416015625
1769667279186390300,7.937390380859375,1.0062713623046875,0.148101806640625,-0.0961761474609375
1769667279196378400,7.94737841796875,0.9943695068359375,0.1408233642578125,-0.0941162109375
1769667279206367500,7.957367431640625,0.9826507568359375,0.1424560546875,-0.0895843505859375
1769667279216356600,7.967356689453125,0.9852447509765625,0.141143798828125,-0.088836669921875
1769667279226345500,7.977345458984375,0.985321044921875,0.140350341796875,-0.0892791748046875
1769667279236334600,7.98733447265625,0.981964111328125,0.1402435302734375,-0.08636474609375
1769667279246323700,7.99732373046875,0.9769134521484375,0.139404296875,-0.0850982666015625
1769667279256311300,8.007311279296875,0.978729248046875,0.1386260986328125,-0.084259033203125
1769667279266300400,8.017300537109374,0.993011474609375,0.1374359130859375,-0.0855712890625
1769667279276289500,8.02728955078125,0.9977264404296875,0.1398468017578125,-0.0877532958984375
1769667279286278400,8.0372783203125,0.9963226318359375,0.14501953125,-0.0868072509765625
1769667279296267500,8.047267578125,0.99627685546875,0.147918701171875,-0.0881500244140625
1769667279306256600,8.057256591796875,0.9930419921875,0.150970458984375,-0.0900726318359375
1769667279316244500,8.067244384765624,0.9927825927734375,0.1556243896484375,-0.09039306640625
1769667279326233300,8.0772333984375,0.9908905029296875,0.162628173828125,-0.089874267578125
1769667279336222500,8.087222412109375,0.9878387451171875,0.162322998046875,-0.09002685546875
1769667279346211300,8.09721142578125,0.9951019287109375,0.154754638671875,-0.0877227783203125
1769667279356200400,8.107200439453125,1.006195068359375,0.153472900390625,-0.0860137939453125
1769667279366189600,8.117189453125,1.0058441162109375,0.1590728759765625,-0.0866241455078125
1769667279376177700,8.127177734375,0.9951171875,0.160675048828125,-0.083221435546875
1769667279386166500,8.13716650390625,0.9843597412109375,0.156463623046875,-0.081512451171875
1769667279396155600,8.14715576171875,0.9871368408203125,0.1561126708984375,-0.0813751220703125
1769667279406144500,8.15714453125,0.9919891357421875,0.157562255859375,-0.081298828125
1769667279416133400,8.16713330078125,0.99267578125,0.1600494384765625,-0.0790863037109375
1769667279426122500,8.17712255859375,0.987762451171875,0.1570587158203125,-0.076568603515625
1769667279436111400,8.187111328125,0.9776153564453125,0.15667724609375,-0.0760345458984375
1769667279446099500,8.197099365234376,0.979705810546875,0.1516265869140625,-0.07318115234375
1769667279456088600,8.207088623046875,0.9720001220703125,0.1450042724609375,-0.0662841796875
1769667279466077400,8.217077392578124,0.964141845703125,0.155487060546875,-0.0684051513671875
1769667279476066600,8.227066650390626,0.9733734130859375,0.163726806640625,-0.067047119140625
1769667279486055700,8.2370556640625,0.98748779296875,0.1673126220703125,-0.0672760009765625
1769667279496044300,8.247044189453124,0.9886016845703125,0.1567535400390625,-0.067962646484375
1769667279506032400,8.257032470703125,0.9830169677734375,0.1400146484375,-0.0612945556640625
1769667279516021500,8.267021484375,0.9752197265625,0.121063232421875,-0.05133056640625
1769667279526010600,8.2770107421875,0.9776763916015625,0.1429901123046875,-0.0551910400390625
1769667279535999500,8.28699951171875,0.9987030029296875,0.149658203125,-0.0536041259765625
1769667279545988600,8.296988525390624,1.00421142578125,0.1529388427734375,-0.0572509765625
1769667279555977500,8.3069775390625,0.97747802734375,0.1607666015625,-0.05511474609375
1769667279565965300,8.31696533203125,0.9822845458984375,0.1451263427734375,-0.0467681884765625
1769667279575954400,8.326954345703125,0.9918365478515625,0.1485748291015625,-0.0467376708984375
1769667279585943600,8.336943603515625,0.9814605712890625,0.1549835205078125,-0.0475616455078125
1769667279595932400,8.346932373046876,0.982086181640625,0.1533660888671875,-0.0472564697265625
1769667279605921500,8.356921630859375,0.991424560546875,0.151214599609375,-0.0369110107421875
1769667279615910700,8.36691064453125,0.9940185546875,0.15557861328125,-0.035675048828125
1769667279625898500,8.3768984375,0.98944091796875,0.159210205078125,-0.0400238037109375
1769667279635887400,8.386887451171875,0.9786834716796875,0.1543731689453125,-0.0401458740234375
1769667279645876500,8.39687646484375,0.982635498046875,0.146331787109375,-0.0318756103515625
1769667279655865300,8.406865234375,0.9963836669921875,0.1516265869140625,-0.0331878662109375
1769667279665854500,8.4168544921875,0.9910430908203125,0.1685028076171875,-0.0454559326171875
1769667279675843600,8.426843505859376,0.992340087890625,0.1559906005859375,-0.04022216796875
1769667279685831400,8.43683154296875,0.9926605224609375,0.1453399658203125,-0.03009033203125
1769667279695820500,8.446820556640626,0.9721527099609375,0.1445770263671875,-0.033477783203125
1769667279705809700,8.4568095703125,0.9770050048828125,0.14208984375,-0.027313232421875
1769667279715798500,8.466798583984374,0.983856201171875,0.1463623046875,-0.0320892333984375
1769667279725787400,8.476787353515626,0.9828033447265625,0.144287109375,-0.0322113037109375
1769667279735776500,8.486776611328125,0.9848785400390625,0.142425537109375,-0.0204620361328125
1769667279745764600,8.4967646484375,0.982269287109375,0.1512298583984375,-0.0294647216796875
1769667279755753500,8.50675341796875,0.958770751953125,0.1446533203125,-0.0231170654296875
1769667279765742600,8.51674267578125,0.9731597900390625,0.145233154296875,-0.0109710693359375
1769667279775731500,8.5267314453125,0.994110107421875,0.146820068359375,-0.0122222900390625
1769667279785720600,8.536720458984375,0.9982452392578125,0.1569061279296875,-0.025726318359375
1769667279795709700,8.546709716796874,0.984771728515625,0.155364990234375,-0.018890380859375
1769667279805697500,8.556697509765625,0.97021484375,0.166290283203125,-0.0222320556640625
1769667279815686400,8.566686279296874,0.96923828125,0.160980224609375,-0.0335693359375
1769667279825675500,8.576675537109375,1.008941650390625,0.159210205078125,-0.02947998046875
1769667279835664400,8.586664306640625,1.0178375244140625,0.1745452880859375,-0.0409698486328125
1769667279845653500,8.596653564453124,0.983917236328125,0.16705322265625,-0.05157470703125
1769667279855642600,8.606642578125,0.98919677734375,0.1741943359375,-0.0330657958984375
1769667279865631500,8.616631591796875,0.987884521484375,0.1783905029296875,-0.042205810546875
1769667279875619300,8.626619384765625,0.9875335693359375,0.1838531494140625,-0.03192138671875
1769667279885608400,8.6366083984375,0.9870452880859375,0.1691741943359375,-0.0343780517578125
1769667279895597600,8.64659765625,1.00201416015625,0.1318359375,-0.0231170654296875
1769667279905586400,8.65658642578125,0.9922332763671875,0.1932220458984375,-0.04974365234375
1769667279915575600,8.666575439453124,0.950927734375,0.19677734375,-0.0695648193359375
1769667279925564400,8.676564453125,0.972808837890625,0.183197021484375,-0.0487213134765625
1769667279935552500,8.686552490234375,1.0069732666015625,0.2081146240234375,-0.03973388671875
1769667279945541600,8.696541748046876,0.9990386962890625,0.20025634765625,-0.0459136962890625
1769667279955530500,8.706530517578125,1.0000762939453125,0.1866912841796875,-0.060211181640625
1769667279965519400,8.716519287109374,1.011199951171875,0.1943206787109375,-0.0572052001953125
1769667279975508500,8.726508544921876,1.00848388671875,0.1817169189453125,-0.0316009521484375
1769667279985497600,8.73649755859375,1.0203094482421875,0.176666259765625,-0.0593414306640625
1769667279995485400,8.7464853515625,1.00811767578125,0.1956634521484375,-0.0688629150390625
1769667280005474600,8.756474609375,0.9744415283203125,0.1943206787109375,-0.0705718994140625
1769667280015463700,8.766463623046874,0.9910430908203125,0.2029266357421875,-0.06787109375
1769667280025452500,8.77645263671875,0.99169921875,0.2092132568359375,-0.0684967041015625
1769667280035441400,8.78644140625,1.0018768310546875,0.2032318115234375,-0.0856170654296875
1769667280045430500,8.796430419921874,0.996978759765625,0.2081146240234375,-0.071258544921875
1769667280055418400,8.80641845703125,0.97784423828125,0.19488525390625,-0.07598876953125
1769667280065407500,8.816407470703124,0.9658355712890625,0.184783935546875,-0.1020355224609375
1769667280075396600,8.826396728515626,0.959808349609375,0.2111968994140625,-0.0792236328125
1769667280085385500,8.836385498046875,0.9965667724609375,0.205322265625,-0.0836944580078125
1769667280095374600,8.84637451171875,0.990936279296875,0.2018585205078125,-0.0812835693359375
1769667280105363700,8.85636376953125,0.9961090087890625,0.1846160888671875,-0.102752685546875
1769667280115351600,8.8663515625,0.9906768798828125,0.2037811279296875,-0.10174560546875
1769667280125340400,8.87634033203125,0.9657135009765625,0.2093963623046875,-0.099456787109375
1769667280135329500,8.88632958984375,0.959869384765625,0.2151641845703125,-0.1088714599609375
1769667280145318400,8.896318359375,0.981842041015625,0.2149810791015625,-0.1141510009765625
1769667280155307500,8.9063076171875,1.0307464599609375,0.1903228759765625,-0.1025543212890625
1769667280165296600,8.916296630859375,0.983428955078125,0.195709228515625,-0.087677001953125
1769667280175284500,8.926284423828125,0.9852294921875,0.1963653564453125,-0.07806396484375
1769667280185273300,8.9362734375,0.98687744140625,0.19287109375,-0.0816192626953125
1769667280195262500,8.946262451171876,0.94500732421875,0.1920623779296875,-0.083892822265625
1769667280205251300,8.956251220703125,0.980926513671875,0.162506103515625,-0.0999755859375
1769667280215240400,8.966240478515624,0.9594268798828125,0.1699066162109375,-0.117645263671875
1769667280225229600,8.9762294921875,0.9436798095703125,0.1929931640625,-0.1211395263671875
1769667280235217700,8.9862177734375,0.9829254150390625,0.165679931640625,-0.106292724609375
1769667280245206500,8.99620654296875,0.9602813720703125,0.1980438232421875,-0.1072998046875
1769667280255195600,9.006195556640625,0.9893035888671875,0.1403350830078125,-0.1099853515625
1769667280265184500,9.0161845703125,0.9718780517578125,0.1500244140625,-0.1346282958984375
1769667280275173400,9.02617333984375,0.960296630859375,0.1602630615234375,-0.11236572265625
1769667280285162500,9.03616259765625,1.0220794677734375,0.125152587890625,-0.1083526611328125
1769667280295150600,9.046150634765626,1.031585693359375,0.1274261474609375,-0.1325531005859375
1769667280305139500,9.056139404296875,1.0427703857421875,0.1293792724609375,-0.1126708984375
1769667280315128600,9.066128662109374,0.97430419921875,0.170654296875,-0.1060943603515625
1769667280325117700,9.07611767578125,0.9658355712890625,0.1580047607421875,-0.106719970703125
1769667280335106600,9.0861064453125,0.998291015625,0.196197509765625,-0.086639404296875
1769667280345095400,9.096095458984376,1.0078125,0.2234344482421875,-0.1280670166015625
1769667280355083500,9.10608349609375,0.979888916015625,0.2221527099609375,-0.1271209716796875
1769667280365072400,9.116072265625,0.970489501953125,0.10565185546875,-0.1165618896484375
1769667280375061500,9.1260615234375,0.9928131103515625,0.090972900390625,-0.12554931640625
1769667280385050600,9.136050537109375,0.9995880126953125,0.1208038330078125,-0.121429443359375
1769667280395039500,9.14603955078125,0.96038818359375,0.1722564697265625,-0.1243896484375
1769667280405028600,9.156028564453125,0.981353759765625,0.2298126220703125,-0.14691162109375
1769667280415016400,9.166016357421874,1.0034027099609375,0.2465362548828125,-0.125457763671875
1769667280425005300,9.17600537109375,1.018646240234375,0.1442413330078125,-0.0966949462890625
1769667280434994400,9.185994384765625,0.985992431640625,-0.0131072998046875,-0.0601654052734375
1769667280444983600,9.195983642578126,1.128265380859375,-0.105438232421875,-0.048126220703125
1769667280454972400,9.205972412109375,1.370452880859375,-0.31292724609375,0.0006866455078125
1769667280464961500,9.21596142578125,0.7081146240234375,-0.1202850341796875,-0.0225372314453125
1769667280474949600,9.22594970703125,0.8777923583984375,0.184539794921875,-0.180877685546875
1769667280484938500,9.2359384765625,0.8896942138671875,0.216796875,-0.32293701171875
1769667280494927400,9.24592724609375,0.91168212890625,0.232421875,-0.2083282470703125
1769667280504916500,9.25591650390625,0.9859466552734375,0.31268310546875,-0.10357666015625
1769667280514905300,9.2659052734375,0.989715576171875,0.2890625,-0.1649322509765625
1769667280524894500,9.27589453125,0.949859619140625,0.3850250244140625,-0.1745147705078125
1769667280534882600,9.285882568359375,0.9381256103515625,0.42059326171875,-0.2148590087890625
1769667280544871700,9.29587158203125,0.9850616455078125,0.2529144287109375,-0.2073211669921875
1769667280554860500,9.305860595703125,0.902557373046875,0.1141357421875,-0.1982421875
1769667280564849700,9.315849609375,0.943695068359375,0.0794219970703125,-0.114898681640625
1769667280574838300,9.32583837890625,0.941680908203125,0.09906005859375,-0.1554718017578125
1769667280584827400,9.335827392578125,0.9279022216796875,0.1670379638671875,-0.177764892578125
1769667280594815500,9.3458154296875,0.8864288330078125,0.194793701171875,-0.182037353515625
1769667280604804600,9.3558046875,0.964324951171875,0.2392730712890625,-0.1923675537109375
1769667280614793500,9.36579345703125,0.947357177734375,0.2602996826171875,-0.1522369384765625
1769667280624782600,9.375782470703125,0.8875732421875,0.2855987548828125,-0.151275634765625
1769667280634771700,9.385771728515625,0.898101806640625,0.27081298828125,-0.1328277587890625
1769667280644759300,9.39575927734375,0.9001922607421875,0.3105621337890625,-0.1053009033203125
1769667280654748400,9.40574853515625,0.8676605224609375,0.331756591796875,-0.1063385009765625
1769667280664737500,9.415737548828124,0.8502197265625,0.3566436767578125,-0.076629638671875
1769667280674726400,9.425726318359375,0.8978271484375,0.341278076171875,-0.0749969482421875
1769667280684715500,9.435715576171875,0.9365081787109375,0.2801055908203125,-0.1156005859375
1769667280694704600,9.44570458984375,0.9250640869140625,0.2303009033203125,-0.1526641845703125
1769667280704693500,9.455693603515625,0.963104248046875,0.2225799560546875,-0.1931610107421875
1769667280714681300,9.465681396484374,1.0037994384765625,0.283416748046875,-0.1665191650390625
1769667280724670500,9.47567041015625,0.9798736572265625,0.3531341552734375,-0.1598968505859375
1769667280734659300,9.485659423828125,0.9815216064453125,0.347076416015625,-0.1495819091796875
1769667280744648400,9.4956484375,1.0304107666015625,0.189117431640625,-0.1317596435546875
1769667280754637600,9.505637451171875,0.9760589599609375,0.2096405029296875,-0.2066497802734375
1769667280764625700,9.515625732421874,0.96905517578125,0.2448272705078125,-0.2487945556640625
1769667280774614500,9.525614501953125,0.966522216796875,0.2454986572265625,-0.2393951416015625
1769667280784603600,9.535603759765625,0.9709320068359375,0.221923828125,-0.185333251953125
1769667280794592500,9.545592529296876,0.978240966796875,0.212554931640625,-0.18438720703125
1769667280804581400,9.555581298828125,0.965972900390625,0.2138671875,-0.186859130859375
1769667280814570500,9.565570556640624,0.9809722900390625,0.204986572265625,-0.1879119873046875
1769667280824558600,9.57555859375,0.9988861083984375,0.19091796875,-0.188995361328125
1769667280834547500,9.58554736328125,0.996978759765625,0.2012176513671875,-0.196258544921875
1769667280844536600,9.59553662109375,0.98388671875,0.2141265869140625,-0.1969451904296875
1769667280854525400,9.605525390625,0.982391357421875,0.2109832763671875,-0.1712799072265625
1769667280864514600,9.6155146484375,0.9887237548828125,0.2029571533203125,-0.16815185546875
1769667280874503700,9.625503662109375,0.967987060546875,0.2103271484375,-0.1826324462890625
1769667280884492300,9.6354921875,0.9526824951171875,0.2134857177734375,-0.193267822265625
1769667280894480400,9.64548046875,0.9530029296875,0.2146759033203125,-0.20166015625
1769667280904469500,9.655469482421875,0.9446258544921875,0.2078857421875,-0.204681396484375
1769667280914458600,9.665458740234374,0.950592041015625,0.2145233154296875,-0.20697021484375
1769667280924447500,9.675447509765625,0.957672119140625,0.2095947265625,-0.2033233642578125
1769667280934436600,9.6854365234375,0.9586944580078125,0.211273193359375,-0.2095947265625
1769667280944424400,9.695424560546876,0.9636993408203125,0.216552734375,-0.2171783447265625
1769667280954413300,9.705413330078125,0.9653778076171875,0.2176361083984375,-0.2194671630859375
1769667280964402400,9.71540234375,0.964569091796875,0.2222747802734375,-0.222686767578125
1769667280974391600,9.7253916015625,0.972076416015625,0.2249603271484375,-0.21832275390625
1769667280984380400,9.73538037109375,0.9741058349609375,0.2339630126953125,-0.22088623046875
1769667280994369500,9.74536962890625,0.97125244140625,0.22418212890625,-0.2257080078125
1769667281004357600,9.755357666015625,0.96380615234375,0.217529296875,-0.2266998291015625
1769667281014346500,9.765346435546874,0.947509765625,0.2289886474609375,-0.2313995361328125
1769667281024335400,9.77533544921875,0.9375152587890625,0.2154693603515625,-0.2314605712890625
1769667281034324500,9.785324462890625,0.9409027099609375,0.216827392578125,-0.2319183349609375
1769667281044313300,9.795313232421876,0.9547119140625,0.2250823974609375,-0.226898193359375
1769667281054302500,9.805302490234375,0.9636383056640625,0.234954833984375,-0.2298736572265625
1769667281064290600,9.81529052734375,0.9693603515625,0.2286529541015625,-0.2354736328125
1769667281074279400,9.825279541015625,0.973724365234375,0.232696533203125,-0.256439208984375
1769667281084268500,9.8352685546875,0.97393798828125,0.2465667724609375,-0.24078369140625
1769667281094257700,9.845257568359376,0.969482421875,0.2582855224609375,-0.2418212890625
1769667281104246500,9.85524658203125,0.9839019775390625,0.2782135009765625,-0.2528839111328125
1769667281114235400,9.8652353515625,0.9953155517578125,0.2825927734375,-0.2592315673828125
1769667281124223500,9.875223388671875,1.0092315673828125,0.2863616943359375,-0.2625579833984375
1769667281134212600,9.885212646484375,1.001495361328125,0.2700347900390625,-0.2555694580078125
1769667281144201500,9.895201416015626,0.989013671875,0.23907470703125,-0.2548675537109375
1769667281154190600,9.905190673828125,1.008209228515625,0.233001708984375,-0.250701904296875
1769667281164179500,9.915179443359374,0.99566650390625,0.2296600341796875,-0.2010040283203125
1769667281174168600,9.92516845703125,0.9610595703125,0.209716796875,-0.165191650390625
1769667281184156400,9.935156494140625,0.9657745361328125,0.21588134765625,-0.1572418212890625
1769667281194145500,9.9451455078125,0.9224700927734375,0.2177886962890625,-0.1803131103515625
1769667281204134400,9.955134521484375,0.9286651611328125,0.2220001220703125,-0.2000274658203125
1769667281214123500,9.96512353515625,0.90447998046875,0.2205963134765625,-0.2217864990234375
1769667281224112400,9.9751123046875,0.8675079345703125,0.2280731201171875,-0.24090576171875
1769667281234101500,9.9851015625,0.85400390625,0.2144317626953125,-0.2675933837890625
1769667281244089600,9.995089599609376,0.86151123046875,0.218658447265625,-0.3208465576171875
1769667281254078500,10.005078369140625,0.848236083984375,0.21746826171875,-0.3037872314453125
1769667281264067300,10.0150673828125,0.9122772216796875,0.1825714111328125,-0.3114013671875
1769667281274056400,10.025056396484375,0.968780517578125,0.175994873046875,-0.243194580078125
1769667281284045600,10.035045654296875,1.0141448974609375,0.1772003173828125,-0.258087158203125
1769667281294034400,10.045034423828126,1.0164031982421875,0.1398468017578125,-0.2798919677734375
1769667281304022500,10.0550224609375,0.9929351806640625,0.116455078125,-0.315216064453125
1769667281314011600,10.06501171875,1.015838623046875,0.12457275390625,-0.30023193359375
1769667281324000500,10.07500048828125,0.9717864990234375,0.186737060546875,-0.30810546875
1769667281333989600,10.08498974609375,0.964019775390625,0.2755126953125,-0.305999755859375
1769667281343978500,10.094978515625,1.0047760009765625,0.30145263671875,-0.2495574951171875
1769667281353967400,10.10496728515625,1.0877838134765625,0.25537109375,-0.2318115234375
1769667281363955500,10.11495556640625,1.11700439453125,0.1720123291015625,-0.2435302734375
1769667281373944600,10.124944580078125,1.068939208984375,0.1988677978515625,-0.2099456787109375
1769667281383933400,10.134933349609375,1.006591796875,0.199371337890625,-0.2687225341796875
1769667281393922600,10.144922607421876,0.9752044677734375,0.2557373046875,-0.30352783203125
1769667281403911700,10.15491162109375,0.9241180419921875,0.3358306884765625,-0.2522125244140625
1769667281413900500,10.164900634765624,0.963226318359375,0.341949462890625,-0.234161376953125
1769667281423888400,10.174888427734375,0.9928741455078125,0.28472900390625,-0.233001708984375
1769667281433877500,10.18487744140625,0.9816741943359375,0.2303314208984375,-0.198089599609375
1769667281443866400,10.194866455078126,0.9528656005859375,0.1975860595703125,-0.17578125
1769667281453855500,10.20485546875,0.8836517333984375,0.1676788330078125,-0.1778411865234375
1769667281463844600,10.2148447265625,0.8405609130859375,0.1474151611328125,-0.15484619140625
1769667281473833500,10.22483349609375,0.8809051513671875,0.1085968017578125,-0.098297119140625
1769667281483821300,10.2348212890625,0.8092041015625,0.1421661376953125,-0.1525115966796875
1769667281493810400,10.244810546875,0.799468994140625,0.1649169921875,-0.2086639404296875
1769667281503799600,10.254799560546875,0.8080902099609375,0.2016143798828125,-0.2415313720703125
1769667281513788400,10.264788330078124,0.747161865234375,0.1871185302734375,-0.2859344482421875
1769667281523777500,10.274777587890625,0.7729034423828125,0.1229400634765625,-0.3861083984375
1769667281533766400,10.284766357421875,0.8466033935546875,0.1067657470703125,-0.388763427734375
1769667281543754500,10.29475439453125,0.87103271484375,0.1207275390625,-0.3488311767578125
1769667281553743600,10.30474365234375,0.873291015625,0.110107421875,-0.34912109375
1769667281563732500,10.314732421875,0.8959197998046875,0.0789947509765625,-0.4020538330078125
1769667281573721300,10.324721435546875,0.9525604248046875,0.054290771484375,-0.4374847412109375
1769667281583710500,10.33471044921875,0.94097900390625,0.04901123046875,-0.41229248046875
1769667281593699300,10.34469921875,0.939300537109375,0.03656005859375,-0.4069671630859375
1769667281603687400,10.3546875,0.94354248046875,0.0174713134765625,-0.4025421142578125
1769667281613676500,10.364676513671874,0.936553955078125,-0.0023193359375,-0.3562469482421875
1769667281623665700,10.374665771484375,0.91619873046875,-0.03692626953125,-0.34869384765625
1769667281633654500,10.384654541015625,0.869049072265625,-0.044708251953125,-0.318817138671875
1769667281643643600,10.3946435546875,0.8350830078125,-0.0492706298828125,-0.32623291015625
1769667281653631500,10.404631591796875,0.83990478515625,-0.058502197265625,-0.32080078125
1769667281663620400,10.414620361328126,0.8681793212890625,-0.0523681640625,-0.3157958984375
1769667281673609500,10.424609375,0.861663818359375,-0.0470123291015625,-0.2766265869140625
1769667281683598600,10.4345986328125,0.9073486328125,-0.02587890625,-0.282867431640625
1769667281693587500,10.44458740234375,0.9488677978515625,-0.006622314453125,-0.2852020263671875
1769667281703576600,10.45457666015625,0.9316864013671875,0.0147857666015625,-0.2704315185546875
1769667281713564400,10.464564453125,0.9327239990234375,0.026092529296875,-0.2681121826171875
1769667281723553500,10.474553466796875,1.0078887939453125,0.0632476806640625,-0.20166015625
1769667281733542400,10.48454248046875,1.075439453125,0.080078125,-0.232696533203125
1769667281743531500,10.494531494140626,1.093780517578125,0.0547637939453125,-0.1736602783203125
1769667281753520400,10.504520263671875,1.197906494140625,-0.0300140380859375,-0.070037841796875
1769667281763509500,10.514509521484374,1.3028717041015625,-0.14410400390625,-0.0968780517578125
1769667281773497600,10.52449755859375,1.2913665771484375,-0.1434326171875,-0.1025238037109375
1769667281783486700,10.53448681640625,1.0935821533203125,-0.0606689453125,-0.0792236328125
1769667281793475300,10.544475341796876,0.9060211181640625,-0.00762939453125,-0.112457275390625
1769667281803464700,10.554464599609375,0.853515625,0.0555267333984375,-0.0976104736328125
1769667281813453600,10.56445361328125,0.904266357421875,0.128692626953125,-0.0630340576171875
1769667281823442700,10.574442626953125,0.911224365234375,0.0839080810546875,-0.018890380859375
1769667281833430500,10.584430419921874,0.9452667236328125,0.05181884765625,-0.0855560302734375
1769667281843419600,10.594419677734376,0.93206787109375,0.1166534423828125,-0.082305908203125
1769667281853408500,10.604408447265625,0.9447174072265625,0.1527557373046875,-0.074676513671875
1769667281863397600,10.614397705078124,0.9879150390625,0.1210784912109375,-0.064361572265625
1769667281873386500,10.624386474609375,1.0439453125,0.1212921142578125,-0.055999755859375
1769667281883375600,10.634375732421875,1.02557373046875,0.1404876708984375,-0.0626068115234375
1769667281893363700,10.64436376953125,0.9898834228515625,0.1391143798828125,-0.069580078125
1769667281903352800,10.654352783203125,1.0363006591796875,0.09857177734375,-0.057342529296875
1769667281913341400,10.664341552734374,1.045318603515625,0.117034912109375,-0.1118621826171875
1769667281923330600,10.67433056640625,0.9471435546875,0.1441497802734375,-0.097198486328125
1769667281933319700,10.684319580078125,0.92352294921875,0.1265869140625,-0.0634918212890625
1769667281943307500,10.6943076171875,0.95220947265625,0.14959716796875,-0.097564697265625
1769667281953296600,10.704296630859375,0.9562835693359375,0.1588592529296875,-0.0772247314453125
1769667281963285800,10.71428564453125,0.9578399658203125,0.14697265625,-0.059722900390625
1769667281973274600,10.724274658203125,0.9613037109375,0.1684417724609375,-0.0699920654296875
1769667281983263700,10.734263671875,0.9636383056640625,0.14154052734375,-0.0590057373046875
1769667281993252600,10.744252685546876,0.99652099609375,0.1584014892578125,-0.0766754150390625
1769667282003241500,10.754241455078125,0.9909515380859375,0.165374755859375,-0.057098388671875
1769667282013229600,10.7642294921875,1.039794921875,0.15423583984375,-0.04937744140625
1769667282023218700,10.77421875,1.014892578125,0.1548309326171875,-0.079010009765625
1769667282033207600,10.78420751953125,0.9569854736328125,0.1572113037109375,-0.0648345947265625
1769667282043196700,10.79419677734375,0.967254638671875,0.1719512939453125,-0.0546112060546875
1769667282053185800,10.804185791015625,1.00860595703125,0.15863037109375,-0.052520751953125
1769667282063173600,10.814173583984376,1.0532684326171875,0.1519012451171875,-0.0572357177734375
1769667282073162500,10.82416259765625,1.06097412109375,0.1725921630859375,-0.062713623046875
1769667282083151600,10.834151611328124,1.0146331787109375,0.17877197265625,-0.058074951171875
1769667282093140500,10.844140380859375,0.9756011962890625,0.18170166015625,-0.05828857421875
1769667282103129600,10.854129638671875,0.9608154296875,0.182098388671875,-0.05499267578125
1769667282113118700,10.86411865234375,0.9870758056640625,0.1609039306640625,-0.0390777587890625
1769667282123106800,10.87410693359375,0.9962310791015625,0.1620635986328125,-0.0504913330078125
1769667282133095700,10.884095703125,1.0178070068359375,0.1765594482421875,-0.0643463134765625
1769667282143084500,10.89408447265625,1.02264404296875,0.1748504638671875,-0.0380401611328125
1769667282153073700,10.90407373046875,0.990081787109375,0.14947509765625,-0.027801513671875
1769667282163062500,10.9140625,1.0298004150390625,0.1708831787109375,-0.0565185546875
1769667282173051600,10.9240517578125,1.0700225830078125,0.1757354736328125,-0.055572509765625
1769667282183039700,10.934039794921874,1.0758514404296875,0.1692352294921875,-0.059417724609375
1769667282193028600,10.944028564453125,1.060821533203125,0.172271728515625,-0.051910400390625
1769667282203017700,10.954017822265625,1.0423736572265625,0.1587371826171875,-0.0485382080078125
1769667282213006800,10.9640068359375,1.0410614013671875,0.1517181396484375,-0.0377349853515625
1769667282222995500,10.973995361328125,1.00970458984375,0.145751953125,-0.03564453125
1769667282232984600,10.983984619140625,0.9853515625,0.151275634765625,-0.0359649658203125
1769667282242972700,10.99397265625,0.986358642578125,0.1484832763671875,-0.03515625
1769667282252961500,11.00396142578125,0.99163818359375,0.1461334228515625,-0.0316619873046875
1769667282262950700,11.01395068359375,1.019012451171875,0.1442413330078125,-0.027435302734375
1769667282272939800,11.023939697265625,0.997528076171875,0.146209716796875,-0.0299224853515625
1769667282282928600,11.0339287109375,0.9642486572265625,0.14410400390625,-0.024627685546875
1769667282292916500,11.04391650390625,0.977996826171875,0.120819091796875,-0.017120361328125
1769667282302905600,11.053905517578125,1.002593994140625,0.136871337890625,-0.018646240234375
1769667282312894500,11.06389453125,1.013641357421875,0.1319122314453125,-0.0141143798828125
1769667282322883600,11.073883544921875,1.01812744140625,0.122894287109375,-0.013519287109375
1769667282332872700,11.083872802734374,1.0208892822265625,0.12493896484375,-0.020965576171875
1769667282342861600,11.093861572265626,1.00897216796875,0.1200408935546875,-0.020050048828125
1769667282352849700,11.103849609375,1.00274658203125,0.116180419921875,-0.019287109375
1769667282362838800,11.1138388671875,1.005523681640625,0.1183929443359375,-0.013397216796875
1769667282372827600,11.12382763671875,1.0102996826171875,0.1111907958984375,-0.012237548828125
1769667282382816500,11.13381640625,0.9998931884765625,0.1136322021484375,-0.0145721435546875
1769667282392805600,11.1438056640625,0.9765167236328125,0.11669921875,-0.02178955078125
1769667282402794500,11.15379443359375,0.9710540771484375,0.1202239990234375,-0.02667236328125
1769667282412782600,11.163782470703126,0.98236083984375,0.11785888671875,-0.026031494140625
1769667282422771700,11.173771728515625,0.992919921875,0.112457275390625,-0.02337646484375
1769667282432760800,11.1837607421875,1.002471923828125,0.118316650390625,-0.027587890625
1769667282442749700,11.193749755859375,1.018218994140625,0.123626708984375,-0.0276031494140625
1769667282452738600,11.203738525390625,1.0342864990234375,0.1216583251953125,-0.0304718017578125
1769667282462727400,11.2137275390625,1.0332183837890625,0.1243133544921875,-0.0272674560546875
1769667282472715500,11.223715576171875,1.0294647216796875,0.118804931640625,-0.024383544921875
1769667282482704600,11.23370458984375,1.0213470458984375,0.1274566650390625,-0.0273590087890625
1769667282492693800,11.24369384765625,1.000518798828125,0.1314697265625,-0.031829833984375
1769667282502682600,11.2536826171875,0.9970245361328125,0.132598876953125,-0.030029296875
1769667282512671700,11.263671630859376,1.003265380859375,0.1321868896484375,-0.0280914306640625
1769667282522660600,11.27366064453125,0.998687744140625,0.1357574462890625,-0.0257415771484375
1769667282532648400,11.2836484375,0.99810791015625,0.1406402587890625,-0.016571044921875
1769667282542637600,11.293637451171875,0.9868927001953125,0.1359405517578125,-0.0133514404296875
1769667282552626700,11.303626708984375,0.970428466796875,0.1368408203125,-0.0162811279296875
1769667282562615600,11.313615478515626,0.9776763916015625,0.13824462890625,-0.007904052734375
1769667282572604700,11.323604736328125,0.98358154296875,0.13226318359375,-0.002838134765625
1769667282582592800,11.3335927734375,0.9642486572265625,0.13092041015625,0.0052947998046875
1769667282592581600,11.34358154296875,0.967010498046875,0.1310577392578125,0.0047149658203125
1769667282602570500,11.353570556640625,0.9839019775390625,0.1294097900390625,0.00927734375
1769667282612559600,11.3635595703125,0.982635498046875,0.1330413818359375,0.0023956298828125
1769667282622548500,11.373548583984375,0.9942626953125,0.1461334228515625,-0.0057525634765625
1769667282632537600,11.38353759765625,1.0119171142578125,0.136260986328125,0.002166748046875
1769667282642525700,11.393525634765625,1.0142364501953125,0.146514892578125,-0.00579833984375
1769667282652514800,11.403514892578125,0.9871978759765625,0.156463623046875,-0.0124359130859375
1769667282662503700,11.413503662109376,0.9789886474609375,0.1350250244140625,0.0119171142578125
1769667282672492800,11.423492919921875,0.9840240478515625,0.1485595703125,0.012847900390625
1769667282682481400,11.4334814453125,0.975433349609375,0.16961669921875,-0.0335845947265625
1769667282692470500,11.443470458984375,0.9874725341796875,0.1777496337890625,-0.0436248779296875
1769667282702458600,11.453458740234375,1.0167999267578125,0.1895599365234375,-0.05511474609375
1769667282712447700,11.46344775390625,1.0182037353515625,0.18743896484375,-0.0607147216796875
1769667282722436600,11.4734365234375,1.00640869140625,0.186614990234375,-0.07470703125
1769667282732425700,11.48342578125,1.0062408447265625,0.2022552490234375,-0.102386474609375
1769667282742414600,11.49341455078125,0.9970550537109375,0.2031402587890625,-0.1108856201171875
1769667282752403700,11.50340380859375,0.998565673828125,0.217132568359375,-0.1390228271484375
1769667282762391600,11.5133916015625,0.976470947265625,0.2348480224609375,-0.15020751953125
1769667282772380700,11.523380615234375,0.9907073974609375,0.205780029296875,-0.1804656982421875
1769667282782369500,11.53336962890625,0.993896484375,0.2166900634765625,-0.175140380859375
1769667282792358700,11.543358642578125,0.9628753662109375,0.240631103515625,-0.1946258544921875
1769667282802347800,11.55334765625,0.947723388671875,0.2191314697265625,-0.15606689453125
1769667282812336000,11.563336181640626,0.969207763671875,0.2479095458984375,-0.134979248046875
1769667282822324200,11.57332421875,0.9725494384765625,0.250396728515625,-0.140472412109375
1769667282832313300,11.583313232421874,1.0016937255859375,0.1931304931640625,-0.0478668212890625
1769667282842302200,11.59330224609375,1.0382537841796875,0.1569671630859375,0.009765625
1769667282852291300,11.603291259765625,0.9595947265625,0.1680145263671875,0.032562255859375
1769667282862280400,11.613280517578126,0.8777618408203125,0.1318206787109375,0.0887298583984375
1769667282872268300,11.623268310546875,0.8930206298828125,0.1667022705078125,0.110015869140625
1769667282882257200,11.633257080078126,0.9573974609375,0.1638031005859375,0.1356658935546875
1769667282892246300,11.643246337890625,1.013336181640625,0.15447998046875,0.1494598388671875
1769667282902235400,11.6532353515625,1.0042572021484375,0.1374053955078125,0.1644287109375
1769667282912224300,11.663224365234376,0.9817047119140625,0.1446075439453125,0.182037353515625
1769667282922213400,11.67321337890625,0.9993896484375,0.1383056640625,0.1873931884765625
1769667282932201200,11.683201171875,1.00128173828125,0.2352447509765625,0.0980682373046875
1769667282942190000,11.693190185546875,1.0124664306640625,0.243377685546875,0.0905303955078125
1769667282952179200,11.70317919921875,1.0230560302734375,0.2150115966796875,0.1324005126953125
1769667282962168300,11.713168212890626,1.024169921875,0.231658935546875,0.0914459228515625
1769667282972157200,11.7231572265625,0.9784393310546875,0.228302001953125,0.075714111328125
1769667282982146300,11.733146240234374,0.9747161865234375,0.2598876953125,0.07012939453125
1769667282992134400,11.743134521484375,0.9929656982421875,0.2726287841796875,0.016265869140625
1769667283002123300,11.753123291015624,0.9812164306640625,0.2893524169921875,0.00299072265625
1769667283012112100,11.763112060546876,0.940185546875,0.2728424072265625,0.000274658203125
1769667283022101200,11.773101318359375,0.945037841796875,0.2177276611328125,0.0687255859375
1769667283032090000,11.783090087890624,0.994873046875,0.220306396484375,0.103271484375
1769667283042079200,11.793079345703125,0.9921722412109375,0.2463226318359375,0.128021240234375
1769667283052067300,11.8030673828125,0.97442626953125,0.2438201904296875,0.1206207275390625
1769667283062056200,11.81305615234375,0.9745330810546875,0.25823974609375,0.1274871826171875
1769667283072045300,11.82304541015625,0.9466400146484375,0.2542266845703125,0.1215362548828125
1769667283082034400,11.833034423828124,0.951629638671875,0.266632080078125,0.125091552734375
1769667283092023000,11.84302294921875,0.935028076171875,0.2663726806640625,0.0920867919921875
1769667283102011100,11.85301123046875,0.9383392333984375,0.2878265380859375,0.057159423828125
1769667283112000300,11.863000244140625,0.940338134765625,0.326751708984375,0.069244384765625
1769667283121989400,11.8729892578125,0.9369354248046875,0.286224365234375,0.086395263671875
1769667283131978200,11.882978271484374,0.9190216064453125,0.28350830078125,0.105194091796875
1769667283141967400,11.89296728515625,0.9778594970703125,0.3314056396484375,0.126617431640625
1769667283151956200,11.902956298828125,1.0489959716796875,0.321685791015625,0.1788482666015625
1769667283161944000,11.912944091796875,1.0786895751953125,0.3121795654296875,0.153564453125
1769667283171933200,11.92293310546875,1.08087158203125,0.28759765625,0.1259002685546875
1769667283181922300,11.93292236328125,1.032501220703125,0.384429931640625,0.1676788330078125
1769667283191911200,11.9429111328125,1.0009613037109375,0.434051513671875,0.1669464111328125
1769667283201900300,11.952900390625,0.9444427490234375,0.4359130859375,0.201171875
1769667283211889200,11.96288916015625,0.891998291015625,0.4403533935546875,0.24383544921875
1769667283221877200,11.972877197265625,0.8640289306640625,0.384765625,0.2264556884765625
1769667283231866400,11.982866455078126,0.826080322265625,0.3494720458984375,0.2662811279296875
1769667283241855200,11.992855224609375,0.8508453369140625,0.3056640625,0.2384796142578125
1769667283251844000,12.002843994140624,0.8605499267578125,0.3210296630859375,0.264373779296875
1769667283261833200,12.012833251953126,0.8096771240234375,0.2941741943359375,0.279327392578125
1769667283271822300,12.022822265625,0.797637939453125,0.2602386474609375,0.266357421875
1769667283281810200,12.03281005859375,0.852081298828125,0.2557373046875,0.253509521484375
1769667283291799300,12.04279931640625,0.8806610107421875,0.2370147705078125,0.2175750732421875
1769667283301788400,12.052788330078124,0.89569091796875,0.26934814453125,0.142913818359375
1769667283311777300,12.06277734375,0.9140167236328125,0.328765869140625,0.109893798828125
1769667283321766100,12.07276611328125,0.9051361083984375,0.344329833984375,0.12060546875
1769667283331755300,12.08275537109375,0.8886871337890625,0.2664642333984375,0.0855712890625
1769667283341743000,12.0927431640625,0.8847198486328125,0.2161712646484375,0.079376220703125
1769667283351732200,12.102732177734374,0.946319580078125,0.1964263916015625,0.1096038818359375
1769667283361721300,12.112721435546876,0.9627532958984375,0.185882568359375,0.135162353515625
1769667283371710200,12.122710205078125,0.9934539794921875,0.2476959228515625,0.1250457763671875
1769667283381699300,12.13269921875,0.9735870361328125,0.2965850830078125,0.1631317138671875
1769667283391688400,12.1426884765625,0.8799285888671875,0.31365966796875,0.1564788818359375
1769667283401676300,12.15267626953125,0.8243255615234375,0.3297271728515625,0.1821441650390625
1769667283411665200,12.1626650390625,0.8709716796875,0.31805419921875,0.228179931640625
1769667283421654300,12.172654296875,0.9220123291015625,0.3311920166015625,0.2557373046875
1769667283431643100,12.18264306640625,0.9653778076171875,0.36480712890625,0.2623748779296875
1769667283441632300,12.19263232421875,0.9240875244140625,0.395172119140625,0.273162841796875
1769667283451620400,12.202620361328124,0.8638153076171875,0.4013824462890625,0.277008056640625
1769667283461609500,12.212609375,0.8429412841796875,0.3698577880859375,0.2345428466796875
1769667283471598000,12.22259814453125,0.9016265869140625,0.3132476806640625,0.182861328125
1769667283481587200,12.232587158203126,0.9595947265625,0.2555084228515625,0.129119873046875
1769667283491576300,12.242576416015625,0.9993896484375,0.1860504150390625,0.1009063720703125
1769667283501565200,12.252565185546874,1.0222320556640625,0.1024322509765625,0.069915771484375
1769667283511553300,12.26255322265625,1.0557861328125,0.0657196044921875,0.05419921875
1769667283521542400,12.27254248046875,1.0352630615234375,0.0676116943359375,0.049530029296875
1769667283531531300,12.28253125,0.985870361328125,0.0682525634765625,0.0534820556640625
1769667283541520400,12.292520263671875,0.991790771484375,0.0744476318359375,0.0204925537109375
1769667283551509200,12.30250927734375,1.0031890869140625,0.08953857421875,-0.0171661376953125
1769667283561498000,12.312498046875,0.956329345703125,0.1130218505859375,-0.00189208984375
1769667283571486200,12.322486328125,0.9374237060546875,0.1456756591796875,-0.0010528564453125
1769667283581475300,12.332475341796876,0.982452392578125,0.15216064453125,0.0095977783203125
1769667283591464200,12.342464111328125,1.027587890625,0.1695404052734375,-0.0208892822265625
1769667283601453300,12.352453369140624,1.0291290283203125,0.211395263671875,-0.0235748291015625
1769667283611442400,12.3624423828125,1.041778564453125,0.21881103515625,-0.04071044921875
1769667283621431300,12.372431396484375,1.0697021484375,0.229705810546875,-0.1527862548828125
1769667283631419100,12.382419189453126,1.1047821044921875,0.2145538330078125,-0.2048187255859375
1769667283641408300,12.392408203125,1.1145172119140625,0.19683837890625,-0.205352783203125
1769667283651397000,12.402397216796874,1.0225677490234375,0.1892242431640625,-0.1476287841796875
1769667283661386200,12.41238623046875,0.93292236328125,0.1675872802734375,-0.1360626220703125
1769667283671375400,12.422375244140625,0.841400146484375,0.1351470947265625,-0.13116455078125
1769667283681363500,12.432363525390626,0.834320068359375,0.120025634765625,-0.1253662109375
1769667283691352300,12.442352294921875,0.9076690673828125,0.086883544921875,-0.140625
1769667283701341200,12.452341064453124,1.023193359375,0.1495513916015625,-0.162384033203125
1769667283711330000,12.462330078125,1.082672119140625,0.1429901123046875,-0.107574462890625
1769667283721319200,12.472319091796875,1.101165771484375,0.037994384765625,-0.1327972412109375
1769667283731308300,12.482308349609376,1.0244598388671875,-0.0588836669921875,-0.0615692138671875
1769667283741296400,12.49229638671875,1.007843017578125,-0.085693359375,-0.0196380615234375
1769667283751285200,12.50228515625,1.0275726318359375,-0.1460418701171875,-0.0164031982421875
1769667283761274400,12.5122744140625,1.0911865234375,-0.050567626953125,-0.0619964599609375
1769667283771263500,12.522263427734375,1.0242919921875,0.1051483154296875,-0.0651397705078125
1769667283781252000,12.532252197265626,0.8644866943359375,0.1636199951171875,-0.1205902099609375
1769667283791241200,12.5422412109375,0.89080810546875,0.1610107421875,-0.1219940185546875
1769667283801229300,12.552229248046874,1.0042266845703125,0.2948455810546875,-0.15032958984375
1769667283811219200,12.56221923828125,1.0101776123046875,0.4678802490234375,-0.222381591796875
1769667283821208300,12.572208251953125,0.9916534423828125,0.422454833984375,-0.2113037109375
1769667283831197200,12.582197265625,1.0031585693359375,-0.048675537109375,-0.049591064453125
1769667283841186300,12.592186279296875,0.814605712890625,-0.27069091796875,0.26141357421875
1769667283851175200,12.602175048828125,0.81072998046875,-0.057220458984375,0.2021636962890625
1769667283861163300,12.612163330078126,0.9355010986328125,-0.0015716552734375,0.0801239013671875
1769667283871152000,12.622152099609375,1.0468292236328125,0.1664581298828125,-0.059539794921875
1769667283881141200,12.632141357421874,1.0361785888671875,0.2778167724609375,-0.1206512451171875
1769667283891130000,12.642130126953125,0.920440673828125,0.27154541015625,-0.18463134765625
1769667283901119200,12.652119140625,0.961822509765625,0.22296142578125,-0.1188812255859375
1769667283911107000,12.662107177734375,1.05621337890625,0.264556884765625,-0.1563568115234375
1769667283921096200,12.67209619140625,1.0592041015625,0.25982666015625,-0.17144775390625
1769667283931085000,12.6820849609375,0.9910125732421875,0.211944580078125,-0.0990142822265625
1769667283941074200,12.69207421875,1.048614501953125,0.142669677734375,0.0670928955078125
1769667283951063000,12.70206298828125,1.11212158203125,0.07708740234375,0.1123046875
1769667283961052200,12.71205224609375,1.0759735107421875,0.0942840576171875,0.06591796875
1769667283971040300,12.722040283203125,0.980621337890625,0.094970703125,0.0595703125
1769667283981029400,12.732029296875,0.9705047607421875,0.0672149658203125,0.074371337890625
1769667283991018000,12.74201806640625,1.0224761962890625,0.0633697509765625,0.0964813232421875
1769667284001007000,12.752007080078124,1.004669189453125,0.047393798828125,0.1060943603515625
1769667284010996200,12.761996337890626,0.9919891357421875,0.0572967529296875,0.0874786376953125
1769667284020985000,12.771985107421875,0.990570068359375,0.0782623291015625,0.07073974609375
1769667284030973200,12.78197314453125,0.996063232421875,0.0749359130859375,0.06439208984375
1769667284040962300,12.79196240234375,0.9979095458984375,0.0782318115234375,0.043121337890625
1769667284050951200,12.801951171875,1.01763916015625,0.1149444580078125,0.0216522216796875
1769667284060940300,12.811940185546876,1.0191192626953125,0.117095947265625,0.0336456298828125
1769667284070929200,12.82192919921875,1.019622802734375,0.11871337890625,0.039581298828125
1769667284080917000,12.8319169921875,1.0084686279296875,0.1093597412109375,0.0487823486328125
1769667284090906000,12.841906005859375,0.99578857421875,0.093994140625,0.0550537109375
1769667284100895200,12.851895263671874,1.011016845703125,0.11224365234375,0.0402374267578125
1769667284110884000,12.861884033203125,1.0119171142578125,0.10687255859375,0.021728515625
1769667284120873200,12.871873291015625,1.0162353515625,0.0790863037109375,0.036224365234375
1769667284130862300,12.8818623046875,0.992340087890625,0.099822998046875,0.024383544921875
1769667284140850200,12.89185009765625,1.0081024169921875,0.104766845703125,0.009429931640625
1769667284150839000,12.901839111328124,1.0060577392578125,0.0918426513671875,0.0223236083984375
1769667284160828200,12.911828125,1.0242767333984375,0.1226806640625,-0.0001220703125
1769667284170817000,12.921817138671875,1.0228729248046875,0.1265106201171875,-0.005828857421875
1769667284180806100,12.93180615234375,1.0272979736328125,0.1201629638671875,-0.009796142578125
1769667284190795300,12.941795166015625,1.0049285888671875,0.124114990234375,0.0123291015625
1769667284200783400,12.951783447265624,1.01483154296875,0.1403961181640625,-0.0047760009765625
1769667284210772200,12.961772216796875,1.0048675537109375,0.1370086669921875,-0.0160675048828125
1769667284220761000,12.971760986328125,0.9966583251953125,0.1534423828125,-0.0153350830078125
1769667284230750200,12.981750244140626,1.0148773193359375,0.151092529296875,-0.0096588134765625
1769667284240739000,12.991739013671875,1.00372314453125,0.212066650390625,0.0193939208984375
1769667284250728200,13.001728271484374,0.962127685546875,0.265899658203125,-0.0202178955078125
1769667284260716300,13.01171630859375,0.944580078125,0.2574005126953125,-0.036529541015625
1769667284270705200,13.021705078125,0.9744110107421875,0.1954345703125,-0.0208282470703125
1769667284280694300,13.0316943359375,1.01348876953125,0.19281005859375,0.0306243896484375
1769667284290683400,13.041683349609375,0.978118896484375,0.1885528564453125,0.00994873046875
1769667284300672000,13.051672119140624,0.927154541015625,0.1705780029296875,-0.0080413818359375
1769667284310660000,13.06166015625,0.95977783203125,0.0976104736328125,-0.0003662109375
1769667284320649200,13.071649169921875,1.04168701171875,0.0736846923828125,0.05828857421875
1769667284330638000,13.08163818359375,1.029388427734375,0.138763427734375,0.118011474609375
