time,seconds_elapsed,acc_z,acc_y,acc_x,gyro_z,gyro_y,gyro_x
1.77E+18,0.076170898,0.16937457,-0.131416303,0.053334773,0.042587418,0.050294194,-0.02035266
1.77E+18,0.086160156,0.136512165,-0.046040451,0.047350146,0.045238733,0.026849059,-0.02627255
1.77E+18,0.096148926,0.018739772,0.039594344,0.076513915,0.044468548,-0.031203059,-0.026929818
1.77E+18,0.106137695,-0.055353638,0.098501291,0.060088193,0.039995246,-0.06605158,-0.027702296
1.77E+18,0.116125977,-0.067548519,0.045963294,0.004740838,0.030241951,-0.053239908,-0.02807221
1.77E+18,0.12611499,0.0043769,-0.067539751,-0.018145094,0.034021977,-0.025302744,-0.046897396
1.77E+18,0.13610376,0.106760001,-0.115516723,0.054645417,0.052651856,-0.028772043,-0.073182262
1.77E+18,0.146093018,0.13735563,-0.134572137,0.12470548,0.068409659,-0.044567235,-0.098524749
1.77E+18,0.156082031,0.028356326,-0.113805827,0.051571416,0.076069176,-0.051326074,-0.119909666
1.77E+18,0.166071045,-0.108708797,-0.03714812,-0.100709249,0.072561629,-0.034332611,-0.13894622
1.77E+18,0.176058838,-0.274002235,-0.034009822,-0.214393204,0.051399086,0.054206576,-0.188356102
1.77E+18,0.186047852,-0.360042103,0.027810967,-0.06217932,0.061096944,0.012690916,-0.179803774
1.77E+18,0.196036865,-0.196811443,-0.206361362,-0.092943437,0.051272541,0.049201254,-0.182878137
1.77E+18,0.206025879,-0.181457222,-0.151312259,-0.067772683,0.046966318,0.123937249,-0.207532197
1.77E+18,0.216015137,-0.155745858,-0.092294837,0.004227262,0.06587369,0.118897483,-0.257407874
1.77E+18,0.226003906,-0.06468553,-0.246201789,-0.010791955,0.074618079,0.162473753,-0.334952891
1.77E+18,0.23599292,-0.12572832,-0.423330042,-0.040175359,0.043018874,0.317572266,-0.477009654
1.77E+18,0.245980957,-0.080845807,-0.692000852,-0.246649679,0.043159626,0.427797049,-0.562887967
1.77E+18,0.255969727,-0.288574365,-0.722578361,-0.130254566,0.026534576,0.534511209,-0.637695909
1.77E+18,0.26595874,-0.286723769,-1.159700781,-0.1265061,0.041370459,0.612034619,-0.68920821
1.77E+18,0.275947998,-0.203708801,-1.546732014,-0.253672344,0.005895821,0.742769957,-0.691138506
1.77E+18,0.285936768,-0.239130243,-1.881520433,-0.466971469,-0.036025159,0.908727109,-0.664266169
1.77E+18,0.295926025,-0.184831082,-1.396211198,-0.210869706,-0.078093521,0.975674689,-0.566987574
1.77E+18,0.305914063,0.003218962,-1.300505675,0.035562385,-0.124373101,1.008198977,-0.513256073
1.77E+18,0.315902832,0.440303388,-0.973625252,0.125916756,-0.238175303,1.180555344,-0.54189837
1.77E+18,0.325891846,0.424802452,-0.450316833,-0.053238217,-0.325971276,1.207340002,-0.587081671
1.77E+18,0.335880859,0.554013939,-0.361505746,-0.12079207,-0.396342129,1.384060502,-0.669584572
1.77E+18,0.345869873,0.359046662,-0.096775782,0.267715263,-0.550334096,1.388205886,-0.719366729
1.77E+18,0.355858887,0.12094284,-0.045683308,-0.014026132,-0.658968151,1.367385268,-0.707940459
1.77E+18,0.3658479,-0.500505636,0.121158528,-0.094627573,-0.837928236,1.274813771,-0.704398096
1.77E+18,0.375836182,-0.552261542,0.242449158,-0.143627805,-0.948205471,1.21050024,-0.708545744
1.77E+18,0.385824951,-0.872038855,0.271274855,0.076345427,-0.982265294,1.012392759,-0.759128928
1.77E+18,0.395813965,-0.862314164,-0.180187056,0.243220654,-0.985324979,0.790408194,-0.808309019
1.77E+18,0.405802734,-0.911236893,0.231882172,0.397564134,-0.882231534,0.636125803,-0.791188896
1.77E+18,0.415791748,-1.281324005,1.009761564,1.365923904,-0.864064515,0.482362896,-0.905409753
1.77E+18,0.425781006,-1.002874728,0.250579273,1.013751657,-0.883055747,0.494423568,-1.044702768
1.77E+18,0.435769043,-1.371881058,-0.423193848,-0.028002033,-0.868912995,0.689725935,-1.185854793
1.77E+18,0.445757813,-1.424194598,-0.221129307,-0.403269908,-0.883381665,0.912098467,-1.30089438
1.77E+18,0.45574707,-1.12544663,0.104579734,-0.649654214,-0.872383893,0.890657067,-1.247400999
1.77E+18,0.46573584,-0.871179023,0.07872107,-0.778314204,-0.682504237,0.423703492,-1.118408918
1.77E+18,0.475725098,0.089325466,-0.037072716,0.39986558,-0.499462008,-0.008038604,-1.090912938
1.77E+18,0.485714111,0.487062801,-0.747399499,0.030416766,-0.412721187,-0.192329973,-1.029134512
1.77E+18,0.495702637,-0.126467741,-0.570623128,-0.928092093,-0.33736226,-0.308059752,-0.985470414
1.77E+18,0.505690918,-0.186018831,0.357837287,-0.556944731,-0.237151697,-0.322254479,-1.004821301
1.77E+18,0.515679932,0.360600322,1.559232014,0.555284982,-0.11053171,-0.478096008,-1.147942185
1.77E+18,0.525668945,1.153923367,2.364779751,1.167596869,-0.068096511,-0.593112648,-1.285817266
1.77E+18,0.535657959,0.69398998,2.489333767,0.530835381,-0.014813849,-0.652965844,-1.3973068
1.77E+18,0.545645752,0.175026897,2.058226661,0.172728776,0.004922708,-0.826306462,-1.449370384
1.77E+18,0.555634766,-0.66776599,1.234065994,-0.528065332,0.013016853,-0.982680082,-1.460160971
1.77E+18,0.565623779,-1.024996543,0.968374492,-0.665383552,-0.045786846,-1.128560185,-1.626791239
1.77E+18,0.575611816,-0.360074252,1.003222518,0.060325582,-0.009422713,-1.327890396,-1.845631123
1.77E+18,0.585601074,-0.10370412,0.224480956,0.60406706,-0.010066865,-1.533736706,-1.972933888
1.77E+18,0.595589844,0.063597151,0.046688101,0.361464793,-0.028128691,-1.748568892,-1.815543771
1.77E+18,0.605578857,-0.155812493,-0.143264562,0.09943532,-0.107722163,-1.940464497,-1.358968258
1.77E+18,0.615568115,0.001939444,-0.212632697,-0.117908258,-0.157173872,-1.902783155,-0.852160394
1.77E+18,0.625556641,0.622758974,0.176601599,0.420271239,-0.190860167,-1.647159934,-0.621326745
1.77E+18,0.635544678,1.428431213,0.24579087,0.577458637,-0.222454309,-1.359398246,-0.639422894
1.77E+18,0.645533936,1.835599809,0.375742361,0.502663946,-0.249978036,-0.967118979,-0.764785528
1.77E+18,0.655522949,1.28517425,0.267675954,0.540454931,-0.247500494,-0.817344368,-0.79268986
1.77E+18,0.665511963,0.765754071,-0.050739423,0.110921294,-0.192299694,-0.819383085,-0.680110216
1.77E+18,0.675500977,0.30852702,-0.472750198,-0.510495261,-0.099250458,-0.763860941,-0.576864839
1.77E+18,0.685489746,-0.184759771,-0.842035346,-0.759647717,-0.046114925,-0.588859022,-0.562166214
1.77E+18,0.695479004,-0.385775095,-0.857965321,-0.82521076,0.00522949,-0.44352901,-0.637239158
1.77E+18,0.705466797,-0.188268655,-0.40925417,-0.253888508,0.038179729,-0.437400788,-0.753902674
1.77E+18,0.715456055,0.107222357,0.176311091,-0.31442839,0.074122824,-0.299767822,-0.822975218
1.77E+18,0.725444824,-0.199842189,0.721750678,-0.25761973,0.112296388,-0.23436743,-0.841043949
1.77E+18,0.735433838,-0.156811441,0.349230786,-0.237621483,0.109584756,-0.206557646,-0.752223253
1.77E+18,0.745423096,-0.028813422,0.063396075,-0.398074714,0.084971115,-0.158548743,-0.593889892
1.77E+18,0.755411865,0.268534032,0.403369788,-0.184469044,0.067538068,-0.12007618,-0.444124669
1.77E+18,0.765399658,0.628958997,0.653422992,0.172763262,0.064586975,-0.129812881,-0.301309079
1.77E+18,0.775388916,0.722175041,0.384162983,0.552444351,0.028931241,-0.193187058,-0.236250982
1.77E+18,0.785377686,1.057927337,-0.008798223,0.410513303,-0.017235057,-0.069182821,-0.315959185
1.77E+18,0.795366943,0.985294063,-0.208904032,0.47207756,-0.049236137,0.079659916,-0.336689234
1.77E+18,0.805355957,0.828613555,-0.103057639,0.305869637,-0.024879079,-0.03321052,-0.211672604
1.77E+18,0.815344727,0.656903235,0.09043372,-0.046887898,0.045011587,-0.183306292,-0.039267544
1.77E+18,0.825333984,0.294361132,0.097702249,-0.400985816,0.077583551,-0.126396224,0.123211101
1.77E+18,0.835322021,-0.134743401,-0.139291566,-0.545256814,0.10250888,-0.004397613,0.157795712
1.77E+18,0.845310547,0.392892233,-0.050133858,-0.168562852,0.083275691,0.17901659,0.171925113
1.77E+18,0.855299805,0.513473839,0.008956629,0.07865027,0.091848411,0.236916631,0.204551488
1.77E+18,0.865288818,0.752144063,0.009706571,0.283371171,0.110895321,0.232664093,0.166087091
1.77E+18,0.875277832,0.886852978,0.038974166,0.059278776,0.169310436,0.31503886,0.162036955
1.77E+18,0.885266846,0.286720846,0.06908055,-0.241094858,0.228378311,0.478081614,0.159925655
1.77E+18,0.895256104,-0.19671675,-0.114200964,-0.455925028,0.263639331,0.540202737,0.181222424
1.77E+18,0.905243896,-0.083967154,-0.438311922,-0.272700212,0.275776803,0.520062387,0.164239764
1.77E+18,0.91523291,0.242192553,-0.18394787,-0.131997939,0.318281651,0.461182863,0.223078579
1.77E+18,0.925222168,-0.083141809,0.02474515,-0.237258677,0.390309274,0.281863123,0.357967228
1.77E+18,0.935210693,-0.073989365,-0.228721662,-0.399641379,0.405198216,0.21465157,0.590429246
1.77E+18,0.945199707,0.028122517,-0.189361711,0.175925343,0.372212917,0.025356557,0.779203117
1.77E+18,0.955188965,0.927042365,-0.174751002,0.413700299,0.25649485,-0.155926421,0.83398807
1.77E+18,0.965176758,1.329008716,0.101699795,0.822930687,0.143282086,-0.273825526,0.761445642
1.77E+18,0.975165771,0.788434689,0.527159834,1.031717156,-0.014915272,-0.224012181,0.663539588
1.77E+18,0.985155029,-0.26749709,0.464094598,0.429385214,-0.193249866,-0.043073282,0.561601102
1.77E+18,0.995143799,-0.871094267,0.293008548,0.462634317,-0.315775216,-0.024908923,0.456744432
1.77E+18,1.005133057,-0.859053117,-0.032575405,0.599160108,-0.362952441,-0.138353288,0.294788569
1.77E+18,1.015121826,-0.783039552,0.020504443,0.681574516,-0.387288928,-0.257706076,0.176507726
1.77E+18,1.02511084,-0.991701592,0.017111878,0.166398294,-0.414378911,-0.259418368,0.062941425
1.77E+18,1.035098877,-1.154894843,0.067744918,-0.099185985,-0.411241978,-0.144685134,-0.035425358
1.77E+18,1.045087891,-1.047995141,0.100869189,-0.199918579,-0.385722905,0.030549794,-0.084682278
1.77E+18,1.055076904,-0.581581745,-0.046773442,-0.373534549,-0.359773606,0.123173207,-0.16055201
1.77E+18,1.065065918,0.20188217,-0.083075174,-0.34183695,-0.296329528,0.154507428,-0.240049005
1.77E+18,1.075054932,0.361927771,-0.343523515,-0.219772942,-0.155226186,0.073429875,-0.263348192
1.77E+18,1.085043945,0.274943315,-0.4618249,-0.247254001,-0.011217852,0.098498106,-0.19913508
1.77E+18,1.095031738,0.002536825,-0.241927765,-0.578473184,0.10580837,0.013801068,-0.172632098
1.77E+18,1.105020752,0.280361833,-0.188174547,-1.007791506,0.217883989,0.110314503,-0.149844661
1.77E+18,1.11501001,-0.100403325,-0.199392107,-1.040790617,0.316793799,0.110806391,-0.142173156
1.77E+18,1.124998779,0.053216042,-0.165328509,-1.045203611,0.376845211,0.096242964,-0.09119083
1.77E+18,1.134988037,-0.269211493,-0.098600075,-0.55957687,0.325899214,0.27742365,0.132914439
1.77E+18,1.144976807,0.26486265,-0.591558949,0.678401366,0.222188458,0.080614135,0.221176133
1.77E+18,1.154966064,2.119497415,0.089828155,1.226530338,0.17275992,0.079907067,0.31987527
1.77E+18,1.164953857,1.045051489,-0.121604518,1.083261904,0.148583561,0.358239979,0.429934889
1.77E+18,1.174942871,0.349012175,-0.094019177,0.027725901,0.194597125,0.779982448,0.479583144
1.77E+18,1.184931885,0.380112247,-0.061449033,-0.778755737,0.317625254,0.855418682,0.448044628
1.77E+18,1.194920898,0.145702602,-0.191077868,-0.613537995,0.386144936,0.597291768,0.413057625
1.77E+18,1.204909668,-0.659255351,-0.096713238,-0.258942412,0.363515109,0.326357752,0.412739843
1.77E+18,1.214898926,-1.323345868,-0.01781272,-0.166072715,0.295915306,0.165382981,0.340860069
1.77E+18,1.224886963,-1.171801554,0.051416299,0.187176787,0.255350947,0.095391482,0.165649652
1.77E+18,1.234875977,-0.781919608,-0.025153146,0.372325173,0.256823927,0.260155141,-0.152852163
1.77E+18,1.244864746,-0.78338442,0.04244798,-0.022147863,0.305310786,0.257936448,-0.551994622
1.77E+18,1.25485376,-1.329604344,-0.181214645,-0.080297306,0.367419958,0.177058905,-0.958592176
1.77E+18,1.264843018,-1.98286893,-0.17473522,-0.279918418,0.368508995,0.098013721,-1.249252796
1.77E+18,1.274831787,-2.279163076,-0.394572734,-0.10738469,0.426018625,0.298863739,-1.352393031
1.77E+18,1.284821045,-1.425473532,-0.317496508,-0.176682281,0.482943833,0.367244393,-1.335787773
1.77E+18,1.294809082,-0.295607917,-0.029338323,-0.611003581,0.551997185,0.267613947,-1.320146203
1.77E+18,1.304797852,0.570918312,-0.185694421,-0.150169573,0.576205552,0.32841301,-1.194320202
1.77E+18,1.314787109,0.821038151,-0.481228104,0.0912962,0.534066081,0.151061654,-0.966268718
1.77E+18,1.324775879,1.05267307,0.027237551,0.049082595,0.465321869,0.003776592,-0.679284036
1.77E+18,1.334764648,0.327815658,0.726147452,0.069684435,0.420643866,-0.030439435,-0.490860581
1.77E+18,1.344753906,0.031773441,0.834886644,-0.011821389,0.394886971,-0.010827113,-0.414812624
1.77E+18,1.354741943,0.264766204,0.352990431,0.072448821,0.394363135,-0.01775586,-0.460017651
1.77E+18,1.364730713,0.551930118,-0.366315192,0.324489655,0.39624384,0.024978129,-0.556747258
1.77E+18,1.374719971,0.290921805,-0.752921477,0.570120111,0.390551597,0.196957603,-0.596229374
1.77E+18,1.384708984,0.054185764,-0.896128756,0.37385136,0.39217779,0.337877274,-0.475551337
1.77E+18,1.394697998,0.118005617,-0.500836768,0.227103376,0.418905824,0.460513175,-0.384260595
1.77E+18,1.404686768,0.469240145,0.22207594,0.131147953,0.412103742,0.524501085,-0.353045851
1.77E+18,1.414676025,0.357866513,1.000766649,-0.370008128,0.361340165,0.303197503,-0.329066485
1.77E+18,1.424663818,-0.338994054,1.314591191,-0.579057414,0.412180394,0.530946612,-0.11620979
1.77E+18,1.434652832,-0.725561761,-0.071488781,-0.110339814,0.468459934,0.708452165,-0.099503241
1.77E+18,1.44464209,0.686598116,-0.532053451,-0.347399589,0.486493707,0.691442728,-0.072169147
1.77E+18,1.454630859,0.210652921,-0.119405547,0.049466918,0.404687256,0.378956974,-0.10563416
1.77E+18,1.464619873,0.001299392,0.311246508,0.266404327,0.312958211,-0.046796493,-0.264163047
1.77E+18,1.474609131,-0.098683662,0.475635983,0.548301918,0.225159928,-0.365678608,-0.477224439
1.77E+18,1.484596924,-0.459657493,0.162757198,0.546384028,0.13272737,-0.548566878,-0.583443105
1.77E+18,1.494585693,-1.028316627,0.178626967,0.493081404,0.04193515,-0.737431109,-0.644100308
1.77E+18,1.504574951,-1.048332995,0.216493464,0.375618296,-0.082892589,-0.966826379,-0.700469017
1.77E+18,1.514563721,-1.130166059,0.305687413,0.492906632,-0.161204964,-1.302945018,-0.758071065
1.77E+18,1.524552979,-1.326443249,0.375999258,0.495535483,-0.2315391,-1.595130444,-0.815513849
1.77E+18,1.534541992,-1.536740781,0.265730958,0.272220904,-0.290864736,-1.864228725,-0.937734842
1.77E+18,1.544530762,-1.396029996,0.15905016,-0.050820525,-0.264481783,-1.948942184,-1.164312124
1.77E+18,1.554518555,-0.819262373,-0.059498775,-0.415782111,-0.211991131,-1.81868732,-1.397665262
1.77E+18,1.564507568,-0.429476289,-0.363584598,-0.301021028,-0.130854875,-1.462030888,-1.572258472
1.77E+18,1.574496582,-0.211202956,-0.112772393,-0.289701323,-0.05373932,-1.320693493,-1.617121339
1.77E+18,1.584485596,0.048097968,0.076776366,-0.60050681,0.012537357,-1.27001965,-1.626649499
1.77E+18,1.594474609,0.208192669,0.169743988,-0.944307388,0.078916647,-0.864779055,-1.57754612
1.77E+18,1.604463623,0.024646365,0.408923331,-0.684921123,0.093150795,0.14837195,-1.310158849
1.77E+18,1.614451416,1.063068792,0.204381294,0.03020926,0.112551123,0.499810159,-1.06505537
1.77E+18,1.62444043,3.065691639,-0.353324485,0.471662988,0.126302257,0.478647798,-0.689937353
1.77E+18,1.634429688,2.558675014,-0.590017564,1.165849367,0.050769687,0.223640248,-0.31750387
1.77E+18,1.644418457,2.027974146,-0.365368851,0.84270024,-0.06319312,0.112540878,-0.005760562
1.77E+18,1.654407715,1.25932903,0.001769055,0.350099386,-0.146350309,-0.080252275,0.217204079
1.77E+18,1.664396484,0.416916668,-0.088631639,0.031246056,-0.15821439,-0.329682976,0.273505986
1.77E+18,1.674385498,-0.707532768,0.098413028,-0.338108212,-0.165193468,-0.631800711,0.171359077
1.77E+18,1.684373535,-1.35994629,0.042659577,-0.494905186,-0.187889397,-0.114003465,-0.102750011
1.77E+18,1.694362549,-0.804015704,-0.326204715,-0.120647364,-0.150575846,0.646829963,-0.297885925
1.77E+18,1.704351318,-0.973838018,0.167223529,0.046681087,-0.086309813,1.121122003,-0.400000393
1.77E+18,1.714340576,-0.610682751,0.371784563,0.264239112,-0.072091736,1.247108102,-0.421145618
1.77E+18,1.72432959,0.134381582,0.041357846,0.143523943,-0.134336814,1.347352624,-0.294597268
1.77E+18,1.734318604,0.276489375,-0.276697173,-0.096580406,-0.140847981,1.273146629,-0.137135208
1.77E+18,1.744306641,0.52921209,-0.127674194,0.100238051,-0.091889098,1.072655559,0.014797546
1.77E+18,1.754295654,0.318103827,-0.292617211,0.253783038,-0.040965196,1.138066053,0.023741506
1.77E+18,1.764284424,0.401159711,0.085719843,0.301289178,0.01148767,1.3858639,-0.215868682
1.77E+18,1.774273438,0.273225405,-0.033339667,0.343866848,0.048127972,1.54802382,-0.475149512
1.77E+18,1.784262695,-0.833043062,0.430305141,0.268564829,0.005556749,1.268915415,-0.468991697
1.77E+18,1.794251465,-1.527619902,0.210739723,0.076673855,-0.054118033,1.29451108,-0.509525299
1.77E+18,1.804239502,0.40585576,0.037922903,0.238785394,-0.061822094,1.561925292,-0.550467253
1.77E+18,1.81422876,0.667196666,0.043423254,0.413220443,-0.038222492,1.573257089,-0.579864025
1.77E+18,1.824217529,0.537217702,0.088950495,0.344057804,-0.042707797,1.301936626,-0.573962808
1.77E+18,1.834206543,0.45149406,0.13737112,-0.109476164,-0.043834317,1.197051287,-0.462295413
1.77E+18,1.844195557,0.067364979,0.136582015,-0.032786856,-0.040567361,1.137751818,-0.30647257
1.77E+18,1.854184326,0.158164609,-0.01798457,-0.205493566,-0.013822565,0.942539752,-0.223042652
1.77E+18,1.864173584,0.545852844,-0.05006167,0.151281206,-0.01694761,0.805159926,-0.251084119
1.77E+18,1.874161621,0.544200985,0.166274266,0.126977188,-0.031866904,0.645311713,-0.159769148
1.77E+18,1.884150391,-0.250868612,-0.09861498,0.22034444,-0.009578176,0.443553329,-0.26791206
1.77E+18,1.894139648,0.711122317,0.013225392,-0.151342362,-0.005496881,0.649678826,0.013121728
1.77E+18,1.904128662,-2.239282901,0.042891924,-0.40934784,0.008477,0.583276093,0.034522194
1.77E+18,1.914117676,0.046788639,0.078941143,-0.095090313,0.014095738,0.557544112,0.078137584
1.77E+18,1.924106445,-0.311452552,-0.002064824,-0.105049032,-0.000258486,0.337218463,0.101727605
1.77E+18,1.934094482,0.419194549,0.142037066,-0.101088458,-0.008383258,0.214180171,0.173253179
1.77E+18,1.94408374,0.219272281,0.070259239,0.015471345,-0.013568907,0.079892583,0.191793948
1.77E+18,1.95407251,0.274382758,0.130590373,0.008010142,-0.008309963,-0.028650668,0.186297715
1.77E+18,1.964061523,0.584187543,0.099565121,-0.085060502,-0.012610622,-0.11425364,0.229096517
1.77E+18,1.974050537,0.506803859,0.127027713,-0.094525446,-0.027052145,-0.229350403,0.24705635
1.77E+18,1.984039551,0.462213607,0.103120183,0.032337943,-0.02024105,-0.207737595,0.207390219
1.77E+18,1.994028809,0.530523758,0.096309041,0.016688538,-0.019741707,-0.254969001,0.184159726
1.77E+18,2.004016602,0.691058603,0.141694244,-0.149122494,-0.017715622,-0.274133027,0.23933731
1.77E+18,2.014005371,0.616193624,0.174115919,-0.185186691,-0.034987286,-0.347898573,0.270921856
1.77E+18,2.023994629,0.61270169,0.36723143,-0.297831877,-0.029897634,-0.335265011,0.25519073
1.77E+18,2.033983398,0.430846409,0.289741655,-0.473614268,-0.017581047,-0.326876044,0.236788258
1.77E+18,2.043972656,0.163549225,0.190774501,-0.362828373,0.000311309,-0.304991335,0.198578939
1.77E+18,2.05396167,0.002485387,-0.050912733,-0.17506774,-0.00570344,-0.263234317,0.174778789
1.77E+18,2.063949707,-0.073854341,0.019411387,-0.252918092,-0.017429864,-0.231723264,0.166528806
1.77E+18,2.073938477,-0.27395898,0.260227976,-0.303523147,-0.009449967,-0.273730367,0.15946798
1.77E+18,2.08392749,-0.263221897,0.045785015,0.020694888,-0.013965488,-0.271956146,0.132699117
1.77E+18,2.093916504,0.002284896,-0.011869301,0.074964348,-0.038115032,-0.257829428,0.092913613
1.77E+18,2.103905518,0.010043255,0.117366442,0.083433887,-0.071625069,-0.263948321,0.064765424
1.77E+18,2.113894531,-0.03753858,0.029504035,0.156310725,-0.100655124,-0.274888575,0.049554247
1.77E+18,2.123882568,0.080619013,0.0613634,0.154370952,-0.136358887,-0.293264776,0.035780754
1.77E+18,2.133871582,0.247825591,0.034819969,0.143000285,-0.161818177,-0.296528995,0.023616765
1.77E+18,2.143860596,0.179446467,-0.071897069,0.196296187,-0.194734156,-0.219906375,0.002315583
1.77E+18,2.153849609,0.01460954,-0.149632343,0.357532495,-0.232838139,-0.216411769,-0.029887626
1.77E+18,2.163838379,-0.018871874,-0.085000881,0.354560968,-0.214781821,-0.189969957,-0.068012327
1.77E+18,2.173827637,-0.043030163,-0.222358849,0.308841566,-0.170182928,-0.21496506,-0.034581929
1.77E+18,2.183815674,0.331215822,-0.374294208,0.043171033,-0.138875872,-0.235505491,-0.00575401
1.77E+18,2.193804443,0.694871439,-0.225488964,0.113096583,-0.117979638,-0.235602424,-0.027639868
1.77E+18,2.203793701,0.527381368,-0.023712299,0.00171707,-0.079554625,-0.245455593,-0.045015026
1.77E+18,2.213782715,0.467978746,0.0853136,-0.287918459,-0.070832506,-0.254198998,0.024552867
1.77E+18,2.223771484,0.697728582,0.011837737,-0.456310009,-0.041918788,-0.291417032,0.087850504
1.77E+18,2.233760498,0.522702855,0.018337913,-0.50680079,-0.024617031,-0.241392493,0.073643073
1.77E+18,2.243749512,0.12049568,-0.13082126,-0.336419966,0.002966219,-0.215154678,0.019317944
1.77E+18,2.253737305,0.124063602,-0.308889716,-0.058509856,0.000819711,-0.181763962,0.007632259
1.77E+18,2.263726563,-0.075288173,-0.25333734,-0.069711962,-0.007842084,-0.19580999,0.023476601
1.77E+18,2.273715576,-0.156083711,-0.04029314,-0.057900126,-0.079822272,-0.218622103,0.028831951
1.77E+18,2.28370459,0.056830725,0.298983531,-0.838843491,-0.054314826,-0.223237559,0.052151043
1.77E+18,2.293693604,0.195061384,0.267531577,-0.697197106,-0.051070295,-0.23715657,0.049660455
1.77E+18,2.303682861,0.266717338,-0.095548871,-0.238113979,-0.059756018,-0.22163868,-0.022022838
1.77E+18,2.313670654,0.074946228,0.05179127,-0.306385588,-0.076038055,-0.391884416,-0.024239121
1.77E+18,2.323659424,-0.456110614,-0.132905665,-0.206678045,0.129285991,-0.955789745,-1.068762898
1.77E+18,2.333648682,-2.866303624,0.555955428,-0.724419678,-0.011135839,0.835063338,-1.051764488
1.77E+18,2.343637451,-2.183786639,0.338047129,0.482109928,-0.148301899,0.063157737,-0.508857787
1.77E+18,2.353626465,2.462279756,-0.867619577,1.703499031,-0.129622757,-0.24198088,0.164203182
1.77E+18,2.363615723,2.277557979,-0.857462925,1.745264874,-0.173848495,-0.467668146,0.420229942
1.77E+18,2.373604492,0.710358931,-0.021502807,-0.005006471,-0.131402239,-0.371961594,0.278859228
1.77E+18,2.383592285,-0.799610748,0.014456688,-0.453330774,-0.112454392,-0.17329751,0.056064665
1.77E+18,2.393581543,-1.111231057,-0.172545601,0.371681834,-0.1009221,-0.097463205,-0.069877818
1.77E+18,2.403570313,-0.34509354,-0.2502233,0.893613266,-0.12543802,-0.047867067,-0.10082636
1.77E+18,2.41355957,0.240386965,-0.26454204,0.904872326,-0.148493528,-0.055876523,-0.08674676
1.77E+18,2.423548584,0.392123003,-0.062258888,0.282965056,-0.14541629,-0.074486069,-0.049788371
1.77E+18,2.433537354,0.123195003,-0.108067868,0.029317819,-0.117094636,-0.06761831,-0.026175721
1.77E+18,2.443525635,-0.032035891,-0.040482817,0.150433348,-0.078575648,-0.063527867,-0.02341333
1.77E+18,2.453514648,0.050780924,0.148486096,0.113379428,-0.077788949,-0.047647703,-0.045286402
1.77E+18,2.463503662,0.160334354,0.098735392,0.185020723,-0.088771686,-0.042771183,-0.046473477
1.77E+18,2.473492432,0.005249591,0.089094872,0.162860694,-0.095890045,-0.016860755,-0.030505694
1.77E+18,2.483481445,-0.187760121,0.058015843,0.081197351,-0.08533369,0.00753405,-0.036336157
1.77E+18,2.493470459,-0.092198976,0.13383184,0.059018668,-0.088471957,0.031805035,-0.08646936
1.77E+18,2.503459473,0.000347206,0.114116209,0.177687257,-0.106410556,0.06298019,-0.125569209
1.77E+18,2.51344751,-0.109506669,0.018655893,0.21635106,-0.14068757,0.100333154,-0.141245902
1.77E+18,2.523436768,-0.180545368,0.035604982,0.222220317,-0.242719531,0.046162315,-0.148456946
1.77E+18,2.533425537,-0.119862643,0.301246215,0.433013999,-0.408629954,-0.021865208,-0.171401948
1.77E+18,2.543414551,-0.044438277,0.45564212,0.862016496,-0.577635705,0.024336554,-0.175429538
1.77E+18,2.55340332,-0.329098099,0.099893914,0.768732721,-0.717493176,-0.047414333,-0.211614445
1.77E+18,2.563392334,-0.226751239,0.131785136,0.547974074,-0.776059091,-0.040856894,-0.237607583
1.77E+18,2.573380615,-0.41504269,-0.066205872,0.336687531,-0.754698932,-0.067495428,-0.255974054
1.77E+18,2.583369629,-0.216271346,-0.16149843,0.136186084,-0.699151993,-0.037517309,-0.272956908
1.77E+18,2.593358643,-0.029859716,0.028129239,0.078338446,-0.652452886,-0.051164944,-0.237608761
1.77E+18,2.603347656,-0.200585701,0.137843998,-0.219990183,-0.618699133,-0.010143905,-0.300533265
1.77E+18,2.613336426,-0.004404957,0.458491079,-0.217132346,-0.540397406,0.008088095,-0.34737882
1.77E+18,2.623325684,-0.238637491,-0.323820158,-0.195438419,-0.499628305,-0.00208537,-0.400526643
1.77E+18,2.633313477,0.022781156,0.226617383,-0.23727508,-0.432831436,0.028874943,-0.345511317
1.77E+18,2.64330249,-0.325832375,-0.21400983,-0.189659105,-0.364303768,0.056463152,-0.293932676
1.77E+18,2.653291504,0.073337623,-0.072129417,-0.323054033,-0.319462776,0.023553407,-0.250885338
1.77E+18,2.663280518,0.253384394,0.186095111,-0.287796111,-0.275933236,0.004245935,-0.22084783
1.77E+18,2.673269775,0.170811325,-0.229520411,-0.35601409,-0.171073675,0.098736487,-0.193281725
1.77E+18,2.683258545,0.032869419,-0.161826785,-0.636803719,-0.048176333,0.154413238,-0.164540946
1.77E+18,2.693247559,0.101188338,-0.034353228,-0.791554209,0.035544131,0.140377581,-0.148919374
1.77E+18,2.703235596,0.230781517,-0.015653058,-0.545495957,0.062497053,0.092463598,-0.130367473
1.77E+18,2.713224365,0.064734046,0.056220923,-0.198622401,0.060434703,0.088975392,-0.127246246
1.77E+18,2.723213623,-0.074147771,-0.019105098,-0.065457501,0.032465793,0.061590914,-0.13173686
1.77E+18,2.733202637,-0.057159227,-0.063744304,0.076640811,0.036505811,0.059437748,-0.103656225
1.77E+18,2.743191406,-0.086034608,-0.021982553,-0.096728089,0.047060758,0.012551909,-0.072287761
1.77E+18,2.753180664,-0.002126491,0.029880905,-0.178083435,0.060478829,-0.026477516,-0.04640476
1.77E+18,2.763168701,0.004682605,0.001850304,-0.195241271,0.080777034,-0.07929679,-0.024800833
1.77E+18,2.773157227,0.011698037,0.006075959,-0.217858231,0.09711393,-0.096834771,-0.00650039
1.77E+18,2.783146484,-0.096554833,0.021663843,-0.180660738,0.126865402,-0.072795786,0.027081385
1.77E+18,2.793135498,-0.369295669,0.071569445,-0.172409207,0.139066949,-0.07378675,0.038933516
1.77E+18,2.803124512,-0.579837531,0.035422465,-0.129718084,0.130830586,-0.018269304,0.016644716
1.77E+18,2.813113525,-0.564166499,-0.015229864,0.006666363,0.121333748,-0.012631658,-0.048883691
1.77E+18,2.823102539,-0.283758489,0.05452917,0.0176039,0.115590505,-0.045647662,-0.10916429
1.77E+18,2.833090576,-0.022529812,0.128763304,-0.074817468,0.123261474,-0.075007416,-0.139407933
1.77E+18,2.84307959,0.19668694,0.163263686,-0.073583232,0.133513123,-0.118897557,-0.11343313
1.77E+18,2.853068359,0.214517195,0.166180742,-0.141942063,0.149515256,-0.128181607,-0.092981115
1.77E+18,2.863057373,0.425455363,0.130556763,-0.120609388,0.150355577,-0.17165789,-0.090424426
1.77E+18,2.873046387,0.497480735,0.139257664,-0.023940437,0.168099687,-0.254175931,-0.13140142
1.77E+18,2.883035645,0.328535789,0.185555597,-0.122021045,0.18629165,-0.173738182,-0.206562802
1.77E+18,2.893023682,0.034909985,0.278741684,-0.1622232,0.187400594,-0.084084183,-0.137258574
1.77E+18,2.903012451,0.421053329,0.324366102,-0.077554109,0.189346969,-0.089673087,-0.016375121
1.77E+18,2.913001709,0.546897385,0.140334938,-0.091433416,0.213223279,-0.091023311,0.048403073
1.77E+18,2.922990479,0.163759653,0.180508689,-0.181167719,0.218818396,-0.057116386,0.039906956
1.77E+18,2.932979736,-0.235018716,0.101157943,0.0232712,0.201603457,-0.010839167,0.04561704
1.77E+18,2.942968506,-0.377436306,-0.110806353,0.240597192,0.186375156,0.033009153,0.051634714
1.77E+18,2.952957275,-0.107924953,-0.234037304,0.297200648,0.165801972,0.056952301,0.054341815
1.77E+18,2.962945557,0.07562778,-0.234854027,0.290619808,0.147325352,0.053417224,0.053649448
1.77E+18,2.97293457,-0.139472768,-0.084679686,0.119079201,0.144319445,0.065234736,0.025120867
1.77E+18,2.98292334,-0.112058691,-0.118568219,0.101160619,0.136292011,0.101626299,-0.003516048
1.77E+18,2.992912598,0.101270755,-0.146021897,0.252275044,0.136492282,0.101064108,0.005240958
1.77E+18,3.002901611,0.180565826,0.056442457,0.120454399,0.167449251,0.194898441,-0.097621143
1.77E+18,3.012890625,-0.22079613,0.165723646,-0.051805874,0.21561785,0.215476424,-0.167715549
1.77E+18,3.022878418,-0.025193478,0.057195613,-0.043270585,0.183187351,0.158406764,-0.125752896
1.77E+18,3.032867432,0.256427999,-0.403236079,0.305949461,0.149699956,0.177811891,-0.095070355
1.77E+18,3.042856689,0.386906145,-0.348194283,0.244150318,0.14909555,0.179023609,-0.089021571
1.77E+18,3.052845459,0.196909058,0.12303499,0.105671319,0.170443729,0.181100875,-0.071443908
1.77E+18,3.062834717,0.027053427,0.106366471,-0.021833865,0.194408655,0.193181321,-0.062868752
1.77E+18,3.072823486,0.172251587,0.045177989,-0.049682059,0.21317488,0.202305838,-0.048915919
1.77E+18,3.082811279,0.210351892,0.045401423,-0.014005857,0.20484826,0.195165396,-0.021661866
1.77E+18,3.092800537,0.119763859,-0.226548994,0.121494226,0.178126901,0.184636593,-0.02111645
1.77E+18,3.102789551,0.033124855,-0.208058959,0.020646519,0.146255121,0.162843943,-0.02074728
1.77E+18,3.11277832,0.149789579,-0.023116233,0.054588426,0.120777719,0.11392647,0.008079842
1.77E+18,3.122767578,0.529642299,-0.11266864,0.10176612,0.118819989,0.056171641,0.021013366
1.77E+18,3.132756592,0.404056601,-0.064673109,-0.12947169,0.117311575,-0.002539343,0.009659512
1.77E+18,3.142745605,0.27733927,-0.031584494,-0.104273682,0.122673973,0.011316542,0.003291199
1.77E+18,3.152733643,0.257464941,-0.093229342,-0.00718339,0.126363248,0.029083554,-0.020391494
1.77E+18,3.162722656,0.032685295,-0.117376087,-0.109229405,0.128371105,0.062966786,-0.096308514
1.77E+18,3.172711426,-0.127580086,-0.166294432,0.051757879,0.103711031,0.046291675,-0.248988345
1.77E+18,3.182700439,0.308834479,-0.091028178,0.188373614,0.091916777,0.063310675,-0.376494527
1.77E+18,3.192689697,0.201900875,-0.044601358,0.157114242,0.09657038,0.057036273,-0.443455994
1.77E+18,3.202678467,0.167224698,0.044704234,-0.159973905,0.127450809,-0.069033235,-0.432947218
1.77E+18,3.212666504,0.349819984,0.191354785,-0.212467533,0.13215901,-0.099195927,-0.431773812
1.77E+18,3.222655762,0.381845939,0.106812169,-0.018858046,0.13248463,-0.100855432,-0.427214891
1.77E+18,3.232644531,0.18936288,-0.109514122,-0.065580032,0.134326473,-0.133054927,-0.44389534
1.77E+18,3.242633545,0.030507951,0.277333571,-0.087304774,0.141980767,-0.177644238,-0.449130982
1.77E+18,3.252622559,-0.138901106,0.19056568,-0.067613985,0.146799758,-0.21708034,-0.43089366
1.77E+18,3.262611328,-0.269145442,-0.033548634,-0.028562178,0.163477242,-0.176947728,-0.40760383
1.77E+18,3.272600586,-0.160090609,-0.227538297,0.063498777,0.197248518,-0.137723371,-0.3970761
1.77E+18,3.282588623,-0.05595628,-0.303005626,0.050071579,0.214772746,-0.04776755,-0.361578107
1.77E+18,3.292577393,-0.389274043,-0.155278094,0.067110684,0.215070218,0.025168974,-0.319167286
1.77E+18,3.30256665,-0.319058351,-0.35268721,-0.134889788,0.197162539,0.121899329,-0.268310219
1.77E+18,3.312555664,-0.346918418,-0.399258846,0.11090427,0.227376908,0.180601791,-0.202175662
1.77E+18,3.322544678,-0.281418064,-0.29012481,0.525808456,0.230713591,0.256855309,-0.231536284
1.77E+18,3.332533447,0.07683774,-0.822518453,0.094020273,0.318917483,0.30076924,-0.35133937
1.77E+18,3.342521484,0.140384622,-0.643178515,0.524349818,0.413401544,0.534933686,-0.295252025
1.77E+18,3.352510498,-0.651553691,0.527437044,1.116661996,0.494301468,0.691689491,-0.184071183
1.77E+18,3.362499512,-0.528549827,0.49774187,1.468762493,0.579893649,0.654290318,-0.213479832
1.77E+18,3.372488525,0.212414086,-0.155831052,1.7143235,0.690137625,0.665544093,-0.262945384
1.77E+18,3.382477539,0.210661689,0.172520321,1.985110572,0.873734355,0.685551047,-0.319319665
1.77E+18,3.392466553,0.291591667,0.370022668,2.010750624,1.10416317,0.687482893,-0.362019181
1.77E+18,3.402455811,0.285920051,0.070430942,2.304989299,1.254404783,0.834410489,-0.432639211
1.77E+18,3.412443604,-0.281762932,-0.388976667,2.513042851,1.370604396,1.137804985,-0.445365399
1.77E+18,3.422432373,-0.546972788,0.015453736,2.787515334,1.447648406,1.037837386,-0.491544992
1.77E+18,3.432421631,0.28933892,-0.090668551,2.389205752,1.539892316,0.98118794,-0.526818037
1.77E+18,3.4424104,0.359035556,0.09078078,2.037024299,1.636631727,0.910814464,-0.562736571
1.77E+18,3.452399658,0.79919223,0.369937182,1.932012165,1.741437197,0.730200231,-0.601118326
1.77E+18,3.462388672,0.482623358,-0.090311555,1.485554784,1.786064386,0.912463784,-0.57514298
1.77E+18,3.472376709,-0.093963647,-0.519705646,1.253503685,1.672562003,0.941069841,-0.507351935
1.77E+18,3.482365479,0.518657379,-1.067422603,1.267064739,1.582129478,0.395837605,-0.519685686
1.77E+18,3.492354492,0.895058496,-1.268722589,0.714421724,1.529582977,0.469008744,-0.458651066
1.77E+18,3.502343506,-0.186656544,-0.63198704,0.572813478,1.408815026,0.753569365,-0.332425088
1.77E+18,3.51233252,-0.283369198,0.405584176,-0.029274025,1.360481262,-0.279979736,-0.444540441
1.77E+18,3.522321533,0.995537809,-0.664079776,-0.344438218,1.304297924,-0.562289417,-0.49748835
1.77E+18,3.532309814,-0.178632812,-1.317173901,-0.57403922,1.200052977,0.081397459,-0.327694267
1.77E+18,3.542298584,-1.543269891,-0.752816117,-1.069636114,1.080926776,0.500778675,-0.168487534
1.77E+18,3.552287598,-0.506917256,-0.334301951,-0.892772285,0.993938267,0.392128348,-0.193851203
1.77E+18,3.562276855,1.100003561,0.393316231,-0.500749382,1.011801481,0.209218174,-0.276888162
1.77E+18,3.572265625,0.892885828,0.897791136,-0.240790212,0.971217573,0.113773949,-0.281465054
1.77E+18,3.582254883,-0.096857031,1.120782072,-0.491801009,0.94354248,0.215538651,-0.238943845
1.77E+18,3.592243652,-0.367142875,0.726780124,-0.915647841,0.835958004,0.292982608,-0.244926646
1.77E+18,3.602231689,0.252658418,0.529761176,-1.624423156,0.748352706,0.445347786,-0.2364081
1.77E+18,3.612220947,0.081118194,0.502840435,-1.300462859,0.730837047,0.591969728,-0.264465064
1.77E+18,3.622209961,0.142913264,0.131493387,-0.686696754,0.694208503,0.578909278,-0.381871998
1.77E+18,3.632198486,0.608296149,0.060722034,-0.623581834,0.661583483,0.548774004,-0.44837299
1.77E+18,3.642187744,0.231990893,0.200378415,-0.737311235,0.652733028,0.530527711,-0.465153366
1.77E+18,3.652176514,0.025486323,0.10602891,-0.697646603,0.655575395,0.480438203,-0.469858885
1.77E+18,3.662164551,0.277595875,-0.666758786,-0.453954751,0.73052299,0.265493006,-0.617775679
1.77E+18,3.672153809,0.751185447,-2.518497317,0.210388425,0.888308108,0.01365489,-0.843973637
1.77E+18,3.682142822,0.560680411,-5.006833305,0.530654837,1.077727556,-0.043104362,-1.090648293
1.77E+18,3.692131836,0.167380181,-7.327097623,0.7867764,0.995069206,0.442435205,-0.893139243
1.77E+18,3.70212085,-0.652083268,-6.240288474,-0.223760825,0.951738,0.505663931,-0.612815678
1.77E+18,3.712109863,-0.03738602,-5.035566063,-0.099314215,0.898392737,0.235694498,-0.395294517
1.77E+18,3.722098633,0.457509375,-2.63455823,-0.16886852,0.898373306,0.038837917,-0.216852292
1.77E+18,3.73208667,0.367035323,-0.472217261,0.29281288,0.846309841,-0.158118829,-0.198067695
1.77E+18,3.742075928,0.56790627,0.798485104,0.441087086,0.603697181,-0.184785053,-0.343676567
1.77E+18,3.752064697,-0.17062194,9.546536006,-0.108303577,0.203225136,0.14635478,-0.379655868
1.77E+18,3.762053711,-2.174011095,9.89453988,-0.577779576,0.040515054,0.294829488,-0.066032164
1.77E+18,3.772042969,-2.954820112,8.682012349,-1.311517337,0.01539053,0.531281471,0.600505948
1.77E+18,3.782031738,-2.96934665,6.528537261,-3.377065573,0.027118551,0.112293482,0.827864647
1.77E+18,3.792019531,-0.199883105,2.91362184,-3.953492127,0.300157517,0.242329255,0.975912213
1.77E+18,3.802008789,0.169642865,1.661633235,-3.370170261,0.647141576,0.527504623,0.908004701
1.77E+18,3.811997559,1.34516607,-2.859081271,-0.554870409,0.809194386,0.577878058,0.369651258
1.77E+18,3.821986816,2.600928932,-4.018919416,0.484674591,1.021037817,0.357152164,0.118628345
1.77E+18,3.83197583,1.339838153,-1.683235557,0.734074153,1.168738484,-0.062333517,-0.065915667
1.77E+18,3.841964844,0.532754293,-0.745616926,0.151340462,1.203035831,-0.287488699,-0.106856018
1.77E+18,3.851953857,-1.245826575,1.099809427,-0.628861967,1.170921564,-0.256368309,-0.146648437
1.77E+18,3.86194165,-1.281228728,2.927462149,-0.716009212,1.060918808,-0.204639629,-0.086979359
1.77E+18,3.871930664,-0.55731298,3.161380211,-0.27429055,1.091343045,-0.276310861,0.068886667
1.77E+18,3.881919678,0.325058468,1.490643631,-0.525363891,1.293745756,-0.538948596,0.053284593
1.77E+18,3.891908691,-0.02868132,0.050455637,-0.471720271,1.411277175,-0.275406152,0.021339977
1.77E+18,3.901897705,-0.630636575,-0.399284419,-0.96795612,1.455287695,0.019426325,-0.06204769
1.77E+18,3.911886719,-0.602611089,-0.35921442,-0.523912523,1.398309946,-0.060255721,-0.153533667
1.77E+18,3.921875,-0.083757311,0.323835137,-0.618571897,1.362122059,-0.175261334,-0.112783685
1.77E+18,3.93186377,-0.254274036,0.531189163,-0.684056031,1.300244808,-0.165466487,0.00332827
1.77E+18,3.941852539,-0.513249382,0.313125308,-0.371027461,1.257428646,-0.06602554,0.123839408
1.77E+18,3.951841797,-0.460972667,0.381750516,0.117958271,1.145509601,-0.036376305,0.126357436
1.77E+18,3.961830566,-0.086171386,0.509293849,0.349725438,1.01594162,-0.019579146,0.062703818
1.77E+18,3.971819824,-0.315659356,0.738058254,0.607639584,0.908352375,-0.014573202,0.025243262
1.77E+18,3.981808838,-0.650962155,0.586199906,0.678729283,0.7843225,0.085767351,-0.105624154
1.77E+18,3.991796875,-0.73081369,0.685283234,1.021154481,0.170568004,0.1045224,-0.488030374
1.77E+18,4.001785889,-0.451813793,2.288432424,2.26152922,-0.520562649,0.248412266,-0.551002085
1.77E+18,4.011774902,-0.980227427,1.443055659,2.72733939,-0.546072006,0.007464911,-0.147556633
1.77E+18,4.021763428,-0.609544687,-1.3610392,1.884817575,-0.366256475,-0.248573795,0.157027498
1.77E+18,4.031752686,0.996144542,-1.569326269,-0.469136392,-0.186689109,-0.156819642,0.032240029
1.77E+18,4.041741699,1.817734482,-0.915322555,-1.282053926,-0.019278063,0.137229368,-0.173646137
1.77E+18,4.051729736,0.907479586,-0.013654139,-0.329412133,0.005862711,0.204116255,-0.210438505
1.77E+18,4.06171875,-0.170427878,0.393680826,-0.020692806,-0.066737249,0.154557586,-0.103437059
1.77E+18,4.071707764,-0.803745655,0.578536239,0.223509042,-0.173832536,0.108268373,-0.01949688
1.77E+18,4.081696777,-0.418276265,0.690038539,0.428526295,-0.288298666,0.165266156,0.042750988
1.77E+18,4.091685791,0.050834115,0.677221508,0.55588324,-0.401824415,0.192066073,0.088879071
1.77E+18,4.101675049,0.289993,0.376293931,0.692399934,-0.491734892,0.211986616,0.094741277
1.77E+18,4.111663574,0.569700753,0.34510735,0.693479839,-0.563536406,0.262741148,0.074640803
1.77E+18,4.121651611,1.15019061,0.376102061,0.630042262,-0.6141873,0.171824306,0.053484768
1.77E+18,4.131640869,1.151366668,0.646891471,0.541286997,-0.869827628,-0.117365427,0.126079604
1.77E+18,4.141629883,0.441421579,0.932464609,0.545576511,-1.151183009,-0.187398955,0.264835835
1.77E+18,4.151618652,-0.419625342,1.150837092,1.113935494,-1.371705532,-0.179849416,0.368611217
1.77E+18,4.16160791,0.405201095,0.303608926,1.147111349,-1.485924959,-0.119636051,0.307190329
1.77E+18,4.17159668,1.43018361,0.178273843,0.827758838,-1.612909555,-0.207715586,0.312198937
1.77E+18,4.181584473,1.041985672,0.502423379,0.275606455,-1.746084452,-0.288863629,0.362154901
1.77E+18,4.19157373,0.374252999,0.698139574,0.236062526,-1.828816533,-0.291028261,0.411842823
1.77E+18,4.201562744,0.489336007,0.939335445,0.071783087,-1.846092582,-0.359669417,0.468809903
1.77E+18,4.211551758,1.017463225,1.092652467,-0.026018531,-1.886869073,-0.626003683,0.569335699
1.77E+18,4.221540771,1.428120247,1.054311046,-0.476704489,-1.988291144,-0.998538017,0.601852357
1.77E+18,4.231529785,1.263677873,1.343523856,-0.907336524,-2.056361914,-1.176049948,0.678327143
1.77E+18,4.241518799,0.536455486,1.919731798,-0.327713878,-1.976050973,-1.155189872,0.728616357
1.77E+18,4.251506592,0.211682264,2.147442822,0.861897692,-1.931685328,-1.083273292,0.678581417
1.77E+18,4.26149585,0.169547588,1.563562153,0.654854121,-1.903231502,-0.93053937,0.609246612
1.77E+18,4.271484619,0.1066694,1.270887366,0.791266624,-1.849514723,-0.836057127,0.492133081
1.77E+18,4.281473633,0.048269818,1.923924135,1.026083534,-1.848152041,-0.779944181,0.431202978
1.77E+18,4.291462891,-0.668679013,1.564207757,0.663481591,-1.863738179,-0.826857388,0.523435116
1.77E+18,4.30145166,-1.308008013,1.117037186,0.467668365,-1.763346314,-0.895902634,0.602321744
1.77E+18,4.311439697,-0.575123947,1.933562025,1.046510529,-1.597844124,-0.827336133,0.64830786
1.77E+18,4.321428955,-0.216225168,1.154594544,1.17185796,-1.500241756,-0.620911539,0.69423157
1.77E+18,4.33141748,-0.537055205,-0.019881635,0.872578222,-1.45772922,-0.4575966,0.592446625
1.77E+18,4.341406738,0.4222931,-0.18782968,0.574570478,-1.448650599,-0.235498309,0.414126188
1.77E+18,4.351395752,0.464880196,-0.603300824,0.497958874,-1.44101131,-0.045066569,0.276526511
1.77E+18,4.361384521,-0.072966452,-0.882858355,0.691262382,-1.415387154,0.013476353,0.106171876
1.77E+18,4.371373779,-0.214940389,-0.817239928,0.969445555,-1.332183123,-0.019130858,0.025161453
1.77E+18,4.381361816,-0.791124659,-1.112016947,1.49821772,-1.264399767,-0.208675742,0.048167754
1.77E+18,4.39135083,-1.369679749,-1.962936442,1.251809741,-1.263734221,-0.448757023,0.159980044
1.77E+18,4.401339844,-1.3171324,-2.440590632,0.432547514,-1.323998094,-0.540969789,0.151287377
1.77E+18,4.411328857,-0.676401132,-2.004416307,0.403898342,-1.348730922,-0.509055555,0.134233549
1.77E+18,4.421317627,-0.52177931,-1.433726251,0.681774496,-1.364231229,-0.414214164,0.103718311
1.77E+18,4.431306641,0.093504213,-0.861177269,0.748621734,-1.413789153,-0.367781132,0.054732922
1.77E+18,4.441294678,0.760294636,-0.465383761,0.630239977,-1.408600926,-0.513433874,-0.010476599
1.77E+18,4.451283691,1.391524501,0.162449447,0.734495082,-1.353932619,-0.616912067,-0.037507948
1.77E+18,4.461272705,1.053264606,0.575237636,0.846557938,-1.32275486,-0.736461043,-0.040705714
1.77E+18,4.471261963,0.819955616,0.805053231,0.398690398,-1.307857394,-0.889785886,-0.0703656
1.77E+18,4.481250732,0.695888507,1.073266507,-0.049590801,-1.331691742,-0.979319274,-0.108963065
1.77E+18,4.49123999,0.296850611,1.336451141,-0.571301393,-1.37885797,-0.945584238,-0.095629416
1.77E+18,4.50122876,-0.264053087,0.945629869,-0.897798296,-1.368972421,-0.928557634,-0.076644853
1.77E+18,4.511216797,-0.526959343,1.157199612,-0.879490778,-1.340117693,-0.903666377,-0.051082768
1.77E+18,4.521205811,-0.994008115,1.027864792,-1.007990244,-1.302389383,-0.889354289,0.05424935
1.77E+18,4.531194824,-1.647462087,0.8325129,-1.163633299,-1.2543329,-0.895062029,0.141873211
1.77E+18,4.541183594,-1.987862501,0.816891407,-0.911394275,-1.226171732,-0.844861329,0.208366275
1.77E+18,4.551172607,-2.125694516,0.639628421,-0.899928367,-1.259887099,-0.696616232,0.201304108
1.77E+18,4.561161621,-1.846597004,0.433070368,-1.101262913,-1.321547508,-0.580538213,0.209288999
1.77E+18,4.571149414,-1.193793605,-0.228322433,-1.231279432,-1.413721561,-0.576024413,0.082382455
1.77E+18,4.581138428,0.475166027,-0.370848013,-1.178123962,-1.342732668,-0.423099816,-0.060308218
1.77E+18,4.591127441,0.89957042,-0.748048026,-0.046695317,-1.197618365,-0.327181011,-0.205084056
1.77E+18,4.601116699,1.116955865,-0.715160048,0.308307605,-1.052842975,-0.338494986,-0.334604293
1.77E+18,4.611105469,1.037528692,-0.673415102,0.275808553,-0.936644435,-0.454216242,-0.409494787
1.77E+18,4.621094482,0.47464931,-0.947276321,0.218857855,-0.87179333,-0.626546919,-0.446680158
1.77E+18,4.631083496,-0.354852718,-0.905475407,0.167912279,-0.805865169,-0.413976848,-0.443203121
1.77E+18,4.641071289,-0.707818599,-0.934227746,0.426848681,-0.769171238,-0.170394138,-0.389064252
1.77E+18,4.651060303,-0.54349196,-1.616483742,0.081401541,-0.864196062,-0.119044147,-0.215754002
1.77E+18,4.661049561,-0.88626378,-1.151827052,-0.336060522,-0.772023022,0.241956502,-0.257805943
1.77E+18,4.67103833,0.20093466,-1.406233264,0.73751348,-0.733150423,0.203865305,-0.36258617
1.77E+18,4.681027588,0.656233373,-1.070725517,0.524772939,-0.646691799,0.215082631,-0.321568877
1.77E+18,4.691016357,0.210619019,-0.669541037,0.733840783,-0.608547568,-0.097424664,-0.337475389
1.77E+18,4.701004395,0.378067589,-0.513256908,0.265180594,-0.601444781,-0.060289908,-0.27223447
1.77E+18,4.710993652,-0.401793917,-0.795275787,0.109273591,-0.598684371,0.206385985,-0.187323332
1.77E+18,4.720982422,-0.538913985,-1.384706345,0.170555195,-0.553797126,0.529644966,-0.195966125
1.77E+18,4.730971436,0.233004454,-1.997065798,0.124576063,-0.440625817,0.658377945,-0.213223949
1.77E+18,4.740960449,0.743195033,-2.525241239,0.532509086,-0.334574372,0.714800835,-0.286162883
1.77E+18,4.750949463,1.181724397,-2.487416243,0.685982469,-0.225349337,0.678695023,-0.387404293
1.77E+18,4.7609375,1.174468143,-2.014415284,0.253516715,-0.183384895,0.722829044,-0.404562503
1.77E+18,4.770926514,0.407177948,-1.313719815,-0.101610801,-0.194719851,0.836304724,-0.297267467
1.77E+18,4.780915527,-0.918299086,-1.552023398,-0.183755799,-0.157091677,0.698529363,-0.105672725
1.77E+18,4.790904541,-1.086566572,-1.192486395,0.238882004,-0.101859048,0.699682772,-0.117760547
1.77E+18,4.800893555,0.082615155,-0.903209142,-0.298570128,-0.065785855,0.804026484,-0.172728673
1.77E+18,4.810882568,0.512455017,-0.689678693,-0.555009416,-0.003696656,0.963031828,-0.126065835
1.77E+18,4.820871338,-0.331861134,-0.815611231,0.118038497,-0.002805781,0.723585367,0.05564538
1.77E+18,4.830859375,-0.761974552,-1.208716814,0.155711371,-0.055377379,0.62339431,0.171506211
1.77E+18,4.840848633,0.163610015,-0.895440919,0.216065594,-0.089839578,0.498010486,0.218756378
1.77E+18,4.850837402,0.95651162,-0.664967592,0.265588553,-0.096752338,0.185418218,0.229236186
1.77E+18,4.86082666,1.013856725,-0.450884696,-0.089192122,-0.059317406,0.219060943,0.233589798
1.77E+18,4.870815674,0.518442275,0.042240401,-0.121733844,-0.029409043,0.248501927,0.218620434
1.77E+18,4.880804443,0.180288763,0.118753951,-0.14237733,-0.04989944,0.133500323,0.214584365
1.77E+18,4.890793457,0.162841953,-0.075550769,-0.121961661,-0.06012731,0.177608132,0.220946133
1.77E+18,4.900781494,-0.018887656,0.075625588,-0.006890782,-0.04807131,0.112767898,0.242197946
1.77E+18,4.910770264,0.02023907,-0.118340475,0.1080591,-0.045028117,0.078594744,0.341356486
1.77E+18,4.920759521,-0.664417849,-0.022156594,0.028372985,-0.04177852,0.10106118,0.38550511
1.77E+18,4.930748535,-0.496102432,-0.002062412,0.129484604,-0.051824763,0.066600941,0.352712005
1.77E+18,4.940737549,-0.138601246,0.087940076,0.109604284,-0.064095967,0.096267194,0.330467612
1.77E+18,4.950726563,0.087893388,0.046437122,0.001456263,-0.062629633,0.040194601,0.293537825
1.77E+18,4.960714355,0.406814376,-0.034590617,-0.091636739,-0.056645028,-0.043809939,0.265445739
1.77E+18,4.970703613,0.511796845,0.059659446,-0.187309747,-0.061154027,-0.219471246,0.29222703
1.77E+18,4.980692383,0.244299755,0.160203714,-0.273489024,-0.019546546,-1.079509735,0.08716277
1.77E+18,4.990681641,0.132938982,-0.07785174,-0.355751566,-0.072584465,-0.774495482,-0.235219792
1.77E+18,5.00067041,-1.27318103,0.237746534,-0.000902904,0.004125764,-0.197590858,-0.185755879
1.77E+18,5.010659424,0.362708692,-0.092874318,-0.098035829,-0.017994186,-0.441925228,0.027134011
1.77E+18,5.020648682,1.461706875,0.277275119,-0.112720407,-0.053116985,-0.420008302,0.219727531
1.77E+18,5.030636475,0.998827498,0.184296537,-0.041121736,-0.045303803,-0.464495867,0.207946762
1.77E+18,5.040625244,0.513580806,0.074790599,-0.296527297,-0.006839806,-0.396799028,0.131703079
1.77E+18,5.050614502,0.275769244,0.049520841,-0.119513538,0.00454574,-0.341918737,0.105014205
1.77E+18,5.060603271,0.393564434,-0.03574892,0.057228091,0.005858503,-0.326573253,0.091641836
1.77E+18,5.070592529,0.432993942,-0.081037384,0.106903829,0.010199988,-0.365588009,0.020528778
1.77E+18,5.080581543,0.128178052,-0.066469199,0.108464412,0.002157373,-0.185367659,0.005579335
1.77E+18,5.09056958,0.053861354,-0.067904785,0.221549122,0.004005607,-0.16114302,0.006734614
1.77E+18,5.100558594,0.139948569,-0.031972909,0.132657115,0.0025793,-0.105312958,-0.013725975
1.77E+18,5.110547607,-0.123567927,0.008608838,0.106942938,-0.002598418,-0.091507137,-0.014577388
1.77E+18,5.120536621,-0.155574593,0.029645051,0.121182548,-0.013239344,-0.083317384,0.003519858
1.77E+18,5.130525391,-0.168130707,0.027679303,0.054803622,-0.018496158,-0.051179685,0.026623046
1.77E+18,5.140514404,-0.19993279,-0.002063947,0.08870538,-0.027725425,-0.024704479,0.042926706
1.77E+18,5.150503418,-0.106785135,-0.026107086,0.153294135,-0.03158541,-0.004268713,0.044286251
1.77E+18,5.160491455,-0.042394204,-0.044375441,0.132672386,-0.037907664,0.016862497,0.058379598
1.77E+18,5.170480469,-0.098076928,-0.009387568,0.111433655,-0.034136098,0.059230193,0.087332949
1.77E+18,5.180469727,-0.059566288,-0.041490533,0.0723047,-0.03401199,0.093077108,0.095096707
1.77E+18,5.190458496,0.182298933,-0.058416387,0.064981298,-0.026444351,0.102221072,0.077161387
1.77E+18,5.20044751,0.445991371,-0.017339842,0.040578204,-0.02027918,0.097885534,0.044376533
1.77E+18,5.210436523,0.448026676,0.007170915,-0.026272962,-0.012161864,0.097240254,0.019476246
1.77E+18,5.220424316,0.257197815,0.02077873,-0.049629324,-0.009368831,0.100042067,0.002964485
1.77E+18,5.230413574,0.251817875,0.023452626,-0.00434466,-0.007876663,0.098792784,0.004954399
1.77E+18,5.240402588,0.151762925,0.041305385,-0.040802112,-0.002830293,0.086780936,0.010615371
1.77E+18,5.250391602,0.062274962,0.046037382,-0.085852456,-0.014078686,0.082963295,0.020985454
1.77E+18,5.260380615,0.007895722,0.065712974,-0.017583259,-0.003020075,0.068638526,0.020747479
1.77E+18,5.270369629,-0.082262688,0.028963498,-0.072855941,-0.003957774,0.058532625,0.012014974
1.77E+18,5.280358398,-0.045067222,0.024414018,-0.072543404,-2.47E-05,0.047617394,0.022646636
1.77E+18,5.290346436,0.054375733,0.045359775,-0.02905209,0.002824366,0.048045631,0.013820654
1.77E+18,5.300335449,0.128714058,0.030439562,-0.009111966,0.005150394,0.04845671,0.00426416
1.77E+18,5.310324463,0.192567229,0.031923371,-0.03072616,0.010969401,0.032939535,0.012502915
1.77E+18,5.320313477,0.066786302,0.03009484,-0.060440769,0.01014575,0.043056555,-0.001879162
1.77E+18,5.330302734,-0.071573536,0.039372372,-0.037080315,0.010311665,0.029722372,-0.010406604
1.77E+18,5.340291504,0.046413376,0.088822339,-0.123830524,0.018033454,0.00734205,-0.010138161
1.77E+18,5.350279297,0.081271924,0.077744334,-0.087484259,0.023466568,-0.021329809,-0.011981601
1.77E+18,5.360268555,0.099660982,-0.020529432,-0.058155398,0.036980417,-0.078820631,-0.00344857
1.77E+18,5.370257324,0.128433488,0.148132752,-0.232219514,0.047716152,-0.059343871,0.017212501
1.77E+18,5.380246582,-0.064131404,0.100828419,-0.204065871,0.05893423,-0.076601245,0.017437963
1.77E+18,5.390235596,-0.059473933,-0.043809039,-0.081513331,0.063698359,-0.068786733,0.024273764
1.77E+18,5.400224365,-0.195766902,-0.107153092,0.027975473,0.055872615,-0.037025515,0.02178275
1.77E+18,5.410212646,-0.196354931,-0.218413764,0.215008961,0.037706394,-0.017902153,0.015251349
1.77E+18,5.42020166,-0.125873282,-0.227376531,0.27982115,0.033807956,-0.019496158,0.0149877
1.77E+18,5.430190186,-0.126333885,-0.086329207,0.039197271,0.046673954,-0.026570845,0.013240132
1.77E+18,5.440179443,-0.099750999,0.005753595,-0.075990695,0.045017887,-0.046680622,0.022100467
1.77E+18,5.450168457,-0.003813421,0.064726593,-0.051022916,0.04228282,-0.050293732,0.041735686
1.77E+18,5.460157471,-0.037006081,0.061537003,-0.073326371,0.06204671,0.005404594,0.061861355
1.77E+18,5.470146484,-0.144883103,0.063319649,-0.159282471,0.067793548,0.044667047,0.080007337
1.77E+18,5.480134521,0.044362873,0.133981331,-0.277227517,0.08430621,-0.007301887,0.058552802
1.77E+18,5.490123535,0.254984815,0.128589701,-0.302536292,0.08279939,-0.014976319,0.039465927
1.77E+18,5.500112549,0.262678292,0.07693784,-0.220500983,0.087579377,-0.029817566,0.058399677
1.77E+18,5.510101318,0.290312149,0.160658179,-0.407762032,0.104476601,-0.042991959,0.063037567
1.77E+18,5.520090332,0.233006792,0.140487206,-0.607551468,0.13548702,-0.007409282,0.054335698
1.77E+18,5.530079346,0.068362758,0.141007576,-0.712633087,0.156238109,-0.017879765,0.053870976
1.77E+18,5.540067627,0.134503163,0.068911331,-0.534551077,0.140577033,0.027084421,0.050040919
1.77E+18,5.550056641,0.120737672,-0.058707771,-0.010930523,0.133201674,0.030373959,0.065876074
1.77E+18,5.560045166,0.127829092,-0.047443596,-0.032326837,0.143945575,0.048926253,0.064471588
1.77E+18,5.570034424,0.186220491,-0.143236358,-0.070144143,0.148457766,0.014673742,0.054633606
1.77E+18,5.580023438,0.257542098,-0.145597973,0.24791042,0.12694329,0.091360509,0.03822894
1.77E+18,5.590012207,0.036695115,-0.058687313,0.062234411,0.155063599,0.034590974,0.005992709
1.77E+18,5.600001221,-0.144302088,-0.098538262,-0.410372908,0.200413346,0.024581313,-0.106078431
1.77E+18,5.609989258,-0.461558358,0.051255994,-0.34516277,0.23637107,0.092291117,-0.169416919
1.77E+18,5.619978271,-0.49086044,0.051514937,-0.67021163,0.290103078,0.174957037,-0.158494398
1.77E+18,5.629967285,0.15205051,0.019111528,-0.654185793,0.332214057,0.045604113,-0.122628808
1.77E+18,5.639956299,0.273473827,-0.275006735,-0.621574002,0.317893386,-0.010081055,-0.080719434
1.77E+18,5.649945313,-0.168159933,0.113034989,-0.6433717,0.359781981,0.070648409,-0.021088328
1.77E+18,5.659934326,-0.013124855,-0.26818215,-0.134343333,0.435466647,0.045994632,0.037562143
1.77E+18,5.669922119,0.531259086,-1.082609359,0.529669223,0.370812297,0.044165306,0.000131412
1.77E+18,5.679911133,-0.105155488,-0.391093075,0.044983672,0.342842817,0.157694533,0.010631887
1.77E+18,5.689900146,-0.231267839,0.258147809,-0.380807134,0.327669203,0.001103598,0.056590859
1.77E+18,5.699889404,0.005398644,0.037144028,-0.772685843,0.307845384,0.002002233,0.056848645
1.77E+18,5.709878174,-0.146136318,-0.146434862,-0.982468484,0.291242987,0.008518988,0.053982556
1.77E+18,5.719867432,-0.217357387,0.251949247,-1.092804735,0.367493451,0.045900621,0.074914575
1.77E+18,5.729855225,-0.400458869,0.408696682,-0.822533139,0.396742165,0.032466307,0.151984051
1.77E+18,5.739843994,-0.429526558,0.371774042,-0.482134259,0.434085369,0.098580621,0.178139403
1.77E+18,5.749833252,-0.216598093,-0.045128451,0.092319533,0.401857138,0.146573439,0.134657964
1.77E+18,5.759822266,0.124987731,-0.22669907,0.559867998,0.390423506,0.017168676,0.14191258
1.77E+18,5.769811035,0.084921678,-0.132233903,0.686889574,0.369958699,-0.032379702,0.119844288
1.77E+18,5.779800293,-0.041462476,-0.125466162,1.17326337,0.350916743,0.114232533,0.047305528
1.77E+18,5.789789307,-0.39726095,-0.392531729,0.38495691,0.37524578,-0.076270834,0.016085291
1.77E+18,5.7997771,0.009415479,0.06837664,0.918657837,0.387594283,-0.064848714,-0.036006302
1.77E+18,5.809766357,0.382723891,-0.416321478,0.941602805,0.403227836,-0.042819574,-0.07959266
1.77E+18,5.819755127,0.444150127,-0.456467464,0.765509156,0.432301521,0.067036174,-0.143739045
1.77E+18,5.829744141,0.28155718,-0.621948096,0.638508331,0.467548966,0.244686589,-0.15960829
1.77E+18,5.839733154,0.283716988,-0.311881153,0.597764671,0.465232044,0.170404121,-0.104023263
1.77E+18,5.849722412,0.402113651,-0.166013131,0.229185882,0.453018516,0.116220251,-0.049289707
1.77E+18,5.859710449,0.378820453,0.00650719,0.003634521,0.471320927,0.143666074,0.006839774
1.77E+18,5.869699219,0.277050516,0.021985622,-0.128841192,0.502650321,0.102663256,0.066584863
1.77E+18,5.879688477,0.545033929,-0.016880846,-0.22395105,0.538228273,0.096662708,0.084598593
1.77E+18,5.889677246,0.31776948,-0.164533121,-0.286620309,0.563782096,0.062107127,0.044634398
1.77E+18,5.899666016,0.194990657,-0.265086522,-0.102279531,0.530064106,0.033980589,0.002056242
1.77E+18,5.909655273,0.118556237,0.131115128,0.191706484,0.514755189,-0.01638831,0.031782445
1.77E+18,5.919643311,-0.066188921,0.053693889,0.068622267,0.479842633,-0.001687936,0.019723754
1.77E+18,5.92963208,0.119237205,-0.260024855,0.273803552,0.426040918,-0.049396072,-0.00333922
1.77E+18,5.939621338,0.212064542,-0.055258654,0.42746473,0.378721684,-0.174647644,0.083929643
1.77E+18,5.949610352,0.178565592,-0.381916666,0.02348629,0.393363744,-0.23777388,0.081326135
1.77E+18,5.959599365,0.022234044,-0.110638596,-0.094126747,0.45347032,-0.177470237,-0.018110918
1.77E+18,5.969588379,-0.357783511,0.329229616,0.257998774,0.44355005,0.010669583,-0.142621964
1.77E+18,5.979576904,-0.437061045,0.072229954,-0.017027251,0.466789782,0.034138598,-0.199853182
1.77E+18,5.989565186,0.222099029,0.229392108,0.19398707,0.388520002,-0.060557548,-0.200685695
1.77E+18,5.999554199,0.584547609,0.33047874,0.10402473,0.282939076,-0.297683984,-0.146306068
1.77E+18,6.009543457,0.485658195,0.098797059,0.266685062,0.212026805,-0.488568455,-0.132803842
1.77E+18,6.019532227,0.25549218,0.142038235,-0.053699629,0.168609232,-0.525627375,-0.149895534
1.77E+18,6.02952124,0.055289926,0.105427875,-0.060001437,0.134011567,-0.566755056,-0.14971897
1.77E+18,6.039510254,0.148933255,0.18728812,0.153146763,0.153228655,-0.647176802,-0.162704259
1.77E+18,6.049498047,0.177179106,-0.032952714,0.346336818,0.119447783,-0.597780764,-0.188583001
1.77E+18,6.059487061,0.231921919,-0.48409796,0.097407796,0.09447705,-0.673215628,-0.224095657
1.77E+18,6.069476318,0.273929754,-0.920467078,0.379468469,0.082869664,-0.696633637,-0.23441568
1.77E+18,6.079465088,-0.025800212,-0.837870043,0.361192881,0.094284862,-0.609799325,-0.231024206
1.77E+18,6.089454346,-0.105099958,-0.920335268,0.226746635,0.129145905,-0.511991262,-0.188099638
1.77E+18,6.099443359,-0.161024675,-0.907771555,0.072812504,0.155007914,-0.415597647,-0.126433611
1.77E+18,6.109431152,-0.314961437,-0.45247255,-0.291421316,0.218502998,-0.327431053,-0.045323301
1.77E+18,6.11942041,-0.181824886,-0.337724911,0.100825642,0.217372,-0.46970731,-0.005904212
1.77E+18,6.12940918,0.465033925,-0.117168143,-0.374887534,0.203051642,-0.473601669,0.06103887
1.77E+18,6.139398193,-0.021667057,-0.152177059,-0.214305452,0.106061846,-0.398671776,0.145112842
1.77E+18,6.149387207,-0.400295203,0.400303533,-0.121485787,0.053906493,-0.43933025,0.20048368
1.77E+18,6.159376221,-0.110337859,0.121146692,0.730772847,0.077680491,-0.376407892,0.234330356
1.77E+18,6.169365234,0.051444941,-0.063700026,1.196142872,0.038299534,-0.271690011,0.266966879
1.77E+18,6.179353271,-0.186105924,-0.040414428,1.013051838,0.129125401,-0.166594163,0.247046649
1.77E+18,6.189342285,0.31901685,-0.33966377,1.157560847,0.208711043,-0.251876533,0.190917596
1.77E+18,6.199331299,0.816022953,-0.724607091,0.822424856,0.293072224,-0.44409731,0.114377931
1.77E+18,6.209320068,0.128282681,-0.775959092,0.637806613,0.28932035,-0.536377668,0.127792016
1.77E+18,6.219309326,-0.752285517,-0.34393984,0.449410605,0.319846243,-0.518529952,0.157786116
1.77E+18,6.229298096,-0.508462732,0.023450434,1.447331728,0.356204778,-0.243863463,0.088399328
1.77E+18,6.239286133,0.167097273,-0.277416719,2.134642669,0.365369946,-0.135879219,-0.016358828
1.77E+18,6.249275391,0.197169755,-0.537490528,2.142833574,0.481053144,0.140259162,0.131695881
1.77E+18,6.25926416,0.039877252,-0.854910464,2.181057507,0.634446204,0.360658586,0.210242048
1.77E+18,6.269253418,0.696588764,-1.258288874,1.515947876,0.749901414,0.686607122,0.239890218
1.77E+18,6.279242432,0.680367113,-0.82519907,0.444770889,0.904683888,0.784405053,0.193661079
1.77E+18,6.289230957,0.998204398,-1.14166302,-0.40082668,1.051571131,0.776583076,0.126911089
1.77E+18,6.299220215,0.101165542,-0.935563963,-0.678545451,1.048753738,0.936305344,0.145793915
1.77E+18,6.309208252,-1.702202562,-0.095514384,-0.749980455,1.074370146,0.900282681,0.175416797
1.77E+18,6.319197266,-1.681881074,0.138404408,-0.338149859,1.166516304,0.909328163,0.125576109
1.77E+18,6.329186279,-0.58530398,0.045490854,-0.235529333,1.166578054,0.836903214,0.120089188
1.77E+18,6.339175293,-0.136215228,-0.004876082,-1.174420796,1.160520554,0.864161015,0.134969354
1.77E+18,6.349164307,0.275535435,-0.051371583,-0.893875935,1.02968049,0.614733875,0.129465401
1.77E+18,6.35915332,0.725260732,-0.583836246,-0.388434341,0.832352817,0.059840847,0.09432438
1.77E+18,6.369141113,1.180561199,-1.379262839,-0.138615238,0.709125161,-0.766744435,-0.074912846
1.77E+18,6.379130371,1.680063795,-3.377898809,0.792003341,0.655969441,-0.878922284,-0.147792429
1.77E+18,6.389119141,0.000457096,-3.428482749,0.973402842,0.549862683,-0.240759104,-0.081272796
1.77E+18,6.399108398,0.479923451,-3.394302831,1.831720045,0.737959504,-0.423584223,-0.32369867
1.77E+18,6.409097168,3.011452099,-2.616238145,2.120492125,0.700682938,-0.640942335,-0.342733622
1.77E+18,6.419086182,0.585349573,-0.953344827,0.446839731,0.683269322,-0.53407383,-0.103478499
1.77E+18,6.429075439,-0.880163709,-0.153679426,0.519530435,0.720622838,-1.525699139,0.032674816
1.77E+18,6.439063232,-0.822216547,-1.017596204,0.312819091,0.579519868,-1.222819328,0.006163419
1.77E+18,6.449052002,-0.599905337,-1.506768398,-0.107788613,0.329299629,-0.76638943,0.025280921
1.77E+18,6.45904126,-0.661114131,0.012420067,-1.078437334,-0.084034458,-0.722091377,-0.027914548
1.77E+18,6.469030273,-0.578731031,-0.227619692,-2.161894979,-0.265948623,-0.647444308,-0.100459851
1.77E+18,6.479019287,-1.197915654,0.438236373,-1.27104358,-0.138590381,-0.410497785,-0.064414665
1.77E+18,6.489008301,-2.270031675,0.422545759,-0.350951034,0.220876709,-0.102625728,-0.126961127
1.77E+18,6.498996338,-2.07014857,-0.01980667,-0.23003216,0.466056377,0.14672257,-0.27177611
1.77E+18,6.508985352,-1.888719989,0.531152703,-1.275025489,0.558265388,0.709193885,-0.273193955
1.77E+18,6.518974121,-1.964313867,1.557521557,-1.766330604,0.70162636,0.695836067,-0.401072085
1.77E+18,6.528963379,-0.891864668,2.374427869,-1.458445243,0.677644849,0.636769295,-0.417717099
1.77E+18,6.538952148,-0.414497916,3.93801954,-1.315392571,0.777986944,0.876793623,-0.359684587
1.77E+18,6.548941162,1.208455168,5.259869909,0.30732612,0.777746201,0.715718985,-0.34183076
1.77E+18,6.558929688,2.067822173,4.528848713,0.174559425,0.62577194,0.457982272,-0.171304211
1.77E+18,6.568918457,0.417872361,5.05653754,-1.72030462,0.49510318,0.421952903,0.009005384
1.77E+18,6.578907471,-0.684450583,5.273808418,-1.964488055,0.405868143,0.427200317,0.132270813
1.77E+18,6.588896729,-0.404742246,4.43243855,-1.616011448,0.31116721,0.374326199,0.183916166
1.77E+18,6.598885498,-0.00436404,2.35946557,-0.8962328,0.27396816,0.363323867,0.153170705
1.77E+18,6.608874512,0.13907354,1.061919402,-0.131563529,0.208264768,0.427489281,0.092401102
1.77E+18,6.618863281,-0.177836109,1.181622544,0.192755957,0.166808233,0.459965825,0.009134935
1.77E+18,6.628851318,0.278980608,0.612190233,0.457204108,0.155425623,0.416536868,-0.061816204
1.77E+18,6.638840576,0.618200287,-0.054648632,0.665422057,0.153428078,0.373223037,-0.09217672
1.77E+18,6.64882959,0.863956671,-0.176950923,0.706888625,0.151549488,0.316785306,-0.116274863
1.77E+18,6.658818604,0.6563041,0.009404227,0.436194784,0.150970995,0.278703511,-0.11378333
1.77E+18,6.668807617,-0.025777415,0.289046659,-0.080538897,0.147836193,0.280127794,-0.120205015
1.77E+18,6.678796387,-0.298903452,0.254895456,-0.014872173,0.129482314,0.323916376,-0.158147171
1.77E+18,6.688784424,-0.149706577,0.036899113,0.465017851,0.092959449,0.329590231,-0.191981569
1.77E+18,6.698773438,-0.101206458,-0.006732304,0.622844314,0.070258439,0.334334016,-0.204085842
1.77E+18,6.708762451,-0.190240832,0.145089293,0.328052389,0.069050699,0.364887953,-0.209743202
1.77E+18,6.718751465,-0.154566292,0.419337538,0.011526699,0.092110567,0.42663157,-0.210607663
1.77E+18,6.728740479,-0.09245032,0.503891625,-0.090440807,0.10348653,0.458281904,-0.187144682
1.77E+18,6.738729736,-0.115178869,0.512185406,-0.300926847,0.132961333,0.500225842,-0.175841272
1.77E+18,6.748718506,0.035145548,0.746859254,-0.304673614,0.146357298,0.538351655,-0.164393932
1.77E+18,6.758706299,-0.077687635,0.816461052,-0.365080024,0.139441177,0.520021677,-0.128154546
1.77E+18,6.768695557,-0.348898778,0.783451128,-0.562179344,0.14150539,0.560564041,-0.108672984
1.77E+18,6.778684326,-0.086934772,0.650222735,-0.333131373,0.148187369,0.574636817,-0.115195811
1.77E+18,6.788673584,0.279693724,0.350646498,-0.009043024,0.117591113,0.47805196,-0.122973032
1.77E+18,6.798662598,0.442968808,0.209665006,-0.090417481,0.069770105,0.363709331,-0.089328371
1.77E+18,6.808651367,0.194691966,0.3039649,-0.384496271,0.070629776,0.334601223,-0.050969262
1.77E+18,6.818639648,0.112571317,-0.018741525,-0.039955049,0.030045949,0.260078073,-0.047215171
1.77E+18,6.828628662,0.363840326,0.111567401,-0.177515462,0.020204237,0.207207933,-0.013689969
1.77E+18,6.838617188,-0.0541542,-0.123767761,0.063923031,0.00361679,0.16596669,-0.05967987
1.77E+18,6.848606445,0.35365211,0.000191796,0.057514013,-0.025602082,0.080793992,-0.094269007
1.77E+18,6.858595459,0.254423674,-0.136897876,0.22966888,-0.054334704,0.053220242,-0.094907105
1.77E+18,6.868584473,0.070805475,-0.182017924,0.206926704,-0.05343429,0.040354509,-0.102246508
1.77E+18,6.87857251,-0.088059392,-0.106019192,0.177317492,-0.035742875,0.080899701,-0.144232646
1.77E+18,6.888561523,0.03020926,0.07848032,0.263121579,-0.050375879,0.036113326,-0.105027974
1.77E+18,6.898550537,-0.356480027,0.23576179,-0.013148199,-0.051463906,0.134436443,-0.042280432
1.77E+18,6.908539551,0.020244331,-0.279683495,0.139123699,-0.054657038,0.126124978,-0.016023261
1.77E+18,6.918528564,0.437467288,0.212871986,0.150576949,-0.069642819,0.058121789,0.001222622
1.77E+18,6.928517334,0.266918998,0.323135903,0.057357754,-0.096787088,-0.022183171,0.041376967
1.77E+18,6.938506348,0.220737677,0.510312525,-0.140837526,-0.104866557,-0.16763927,0.034961082
1.77E+18,6.948494629,0.470765747,0.447943382,-0.137297031,-0.149032682,-0.298729628,0.006634105
1.77E+18,6.958483643,0.08316519,0.201536937,-0.176118783,-0.192680821,-0.22403568,-0.032070879
1.77E+18,6.968472412,-0.207650232,-0.090042455,0.302603713,-0.217100143,-0.126373559,-0.075712107
1.77E+18,6.97846167,-0.053129533,-0.193854858,0.344014696,-0.28840667,-0.079931766,-0.095955148
1.77E+18,6.988450439,-0.260625451,0.106532548,0.032575601,-0.22909835,-0.153460324,-0.011765703
1.77E+18,6.998439453,-0.634662762,-0.589969561,0.562298477,-0.219044819,-0.083468363,-0.022300016
1.77E+18,7.00842749,0.199501997,-1.113013192,0.197601698,-0.194165304,0.025195798,-0.065571852
1.77E+18,7.018416504,0.268051217,-0.629544688,0.487562202,-0.199055642,-0.026574291,-0.007443896
1.77E+18,7.028405518,-0.227313549,-0.350584612,0.079537026,-0.222837672,-0.067112401,0.003550697
1.77E+18,7.038394531,0.205679224,0.351691331,-0.028168005,-0.215104774,-0.123986058,0.053423502
1.77E+18,7.048383545,0.022624504,-0.170425175,0.329280141,-0.228572384,-0.1102295,0.028511228
1.77E+18,7.058372559,0.547050529,-0.563819805,0.092329489,-0.238280088,-0.155171499,0.051102292
1.77E+18,7.068360352,0.029056583,-0.329556729,0.290800754,-0.24849917,-0.150913641,0.032491326
1.77E+18,7.078349609,0.05608546,-0.415226084,0.293658738,-0.344198048,-0.163706571,-0.012293616
1.77E+18,7.088338379,-0.054366965,0.034985973,-0.17620142,-0.374779671,-0.089967899,0.016946029
1.77E+18,7.098327393,-0.764266462,0.202056942,0.43625298,-0.43209368,-0.009608345,0.006118469
1.77E+18,7.10831665,-0.153507139,-0.10358875,0.20237284,-0.472602487,-0.002393309,0.027956657
1.77E+18,7.11830542,0.216518598,-0.287795125,0.271783426,-0.542649567,-0.062362194,0.079158694
1.77E+18,7.128294678,0.144759184,-0.186742907,-0.005712119,-0.610004663,-0.081805669,0.157610893
1.77E+18,7.138282715,-0.257893396,0.053087739,0.027184396,-0.664595902,-0.119361848,0.208174199
1.77E+18,7.14827124,-0.1974135,-0.214811575,0.054563433,-0.683607399,-0.155883908,0.303126276
1.77E+18,7.158260498,-0.790299314,-0.186863903,0.105320168,-0.615639269,-0.303315848,0.441813499
1.77E+18,7.168249512,-0.94550215,-0.768555976,0.376999156,-0.527796268,-0.221075863,0.353664994
1.77E+18,7.178238281,0.454292751,-0.902636457,0.027768014,-0.406401694,-0.155009672,0.252140075
1.77E+18,7.188227539,0.420401003,-1.078676038,-0.217398413,-0.254843324,-0.010546221,0.250661999
1.77E+18,7.198215576,-0.146326287,-0.763029468,-0.42010001,-0.150258303,0.011574932,0.291700929
1.77E+18,7.20820459,0.15492402,-0.439465915,-0.460296558,-0.075378731,-0.027510952,0.325457841
1.77E+18,7.218193604,0.232736743,-0.166899777,-0.175524179,-0.056731727,0.065967023,0.336250156
1.77E+18,7.228182373,0.004102175,0.014493293,0.06551241,-0.097916454,0.052204072,0.304919392
1.77E+18,7.238171387,0.126428578,0.073560911,0.163260434,-0.161176831,-0.029326672,0.249963358
1.77E+18,7.2481604,0.349132002,-0.154841237,0.236766272,-0.191561103,-0.010357508,0.236927986
1.77E+18,7.258148438,0.060167761,-0.105390247,0.031781168,-0.197944909,-0.01243698,0.26133275
1.77E+18,7.268137451,-0.02874211,-0.151134637,0.08695597,-0.197398692,-0.006066434,0.273224562
1.77E+18,7.278126465,-0.112070382,-0.212496065,0.024632328,-0.176352262,0.012256115,0.294114143
1.77E+18,7.288115723,-0.17913667,-0.273667888,-0.073981789,-0.165322781,0.048621316,0.256777167
1.77E+18,7.298104492,0.172508192,-0.12240356,-0.052559318,-0.154272139,-0.018375291,0.219269902
1.77E+18,7.30809375,0.193027833,-0.145389299,0.041457128,-0.155826628,0.001918796,0.206081659
1.77E+18,7.31808252,0.143977094,-0.122810533,0.073297657,-0.160840869,0.051896293,0.238246784
1.77E+18,7.328070557,-0.122404729,0.107906394,0.135241825,-0.181379691,0.088929415,0.251265377
1.77E+18,7.33805957,-0.072878189,0.024487668,0.110034109,-0.20123291,0.013225589,0.234406859
1.77E+18,7.348048584,0.089649291,-0.148493402,0.043763012,-0.184674442,0.039670512,0.207052201
1.77E+18,7.358037354,0.107689975,-0.155202691,-0.020475151,-0.12936981,0.12962234,0.176143527
1.77E+18,7.368026611,0.095493926,-0.217017926,-0.215327562,-0.081127442,0.163651675,0.132128939
1.77E+18,7.378015625,0.082775314,-0.092736005,-0.152205655,-0.071231753,0.193690166,0.079120986
1.77E+18,7.388003418,-0.029913492,0.051926587,-0.026556798,-0.07104373,0.232425585,0.069320016
1.77E+18,7.397992432,-0.312125337,0.106075525,0.198584992,-0.091554292,0.294088095,0.080712192
1.77E+18,7.407981445,-0.41976855,0.158420484,0.191458136,-0.125734106,0.309631616,0.090685993
1.77E+18,7.417970459,-0.459376338,0.156738668,0.158840152,-0.162411377,0.290435463,0.059655838
1.77E+18,7.427959473,-0.277099032,0.247352713,0.149455315,-0.17720443,0.241067633,0.069031499
1.77E+18,7.437948486,-0.470882651,0.019465602,0.320249899,-0.182113081,0.331487119,0.019597113
1.77E+18,7.4479375,0.02228139,-0.196031106,0.190879934,-0.182784468,0.359575748,0.021256262
1.77E+18,7.457925293,0.010029227,0.055027767,-0.094565796,-0.150825426,0.37264058,0.112142384
1.77E+18,7.467914551,-0.349879606,0.093121644,0.030995643,-0.17638059,0.33940354,0.154314339
1.77E+18,7.477903564,-0.136057991,0.072294106,0.057113524,-0.194794342,0.286062002,0.138898343
1.77E+18,7.487892334,0.065053195,0.074717387,0.204337783,-0.218086347,0.328646749,0.154798746
1.77E+18,7.497881592,-0.146816117,0.020890082,0.19901235,-0.255979449,0.137128815,0.151797175
1.77E+18,7.507870361,-0.063036594,0.00647548,0.212747555,-0.346806824,0.109405845,0.00721602
1.77E+18,7.517858398,-0.12063129,0.419903428,0.443715754,-0.273881912,0.453605026,-0.057549298
1.77E+18,7.527847656,0.230202256,-0.170555012,-0.066064673,-0.213287249,0.431574821,0.098031506
1.77E+18,7.537836426,0.085252518,0.152922763,-0.034317865,-0.227545857,0.411655009,0.179854199
1.77E+18,7.547825439,0.288972425,0.12838205,0.410168728,-0.287483215,0.351478219,0.15820536
1.77E+18,7.557814453,0.340826531,-0.021104747,0.476842034,-0.331833869,0.332199246,0.124683671
1.77E+18,7.567803223,-0.212100197,0.012185089,0.348984849,-0.341022581,0.413047999,0.077486865
1.77E+18,7.577791504,-0.144835172,-0.493286498,0.295693257,-0.333750844,0.398919225,0.0261881
1.77E+18,7.587780518,0.250195243,-0.029034079,-0.032228345,-0.326651126,0.407847464,0.046464074
1.77E+18,7.597769775,-0.093906949,-0.022724896,0.056469637,-0.350489646,0.41188547,0.035523184
1.77E+18,7.607758545,-0.183435828,0.010004677,0.064484163,-0.338594377,0.368286043,0.006991141
1.77E+18,7.617747559,0.212390705,0.067498834,-0.009215791,-0.316152811,0.320918709,0.016530421
1.77E+18,7.627736572,0.417439815,0.095637572,-0.056476943,-0.382627159,0.212352276,0.039688203
1.77E+18,7.637724365,0.235203425,-0.208726337,0.285752878,-0.348977327,0.344894767,-0.000650437
1.77E+18,7.647713379,0.04144494,-0.438473689,-0.32170207,-0.294842184,0.270928383,0.005240475
1.77E+18,7.657702637,-0.052502925,-0.256021464,-0.318955694,-0.287314296,0.210243672,0.036606923
1.77E+18,7.667691406,0.128767834,-0.174310273,-0.306461758,-0.254447699,0.186394528,0.015876077
1.77E+18,7.677680664,0.35095045,-0.019169395,-0.158734006,-0.245994017,0.201655254,-0.010743323
1.77E+18,7.687669678,0.249252993,0.102925829,0.068356912,-0.242865339,0.159655869,-0.006971754
1.77E+18,7.697657471,-0.030404491,-0.101079909,-0.153119966,-0.19619827,0.124292903,0.009147331
1.77E+18,7.707646484,-0.020661095,-0.270910991,-0.219983206,-0.165582836,0.116259478,0.019602902
1.77E+18,7.717635498,0.052616907,0.025946196,-0.200082208,-0.139928043,0.069223717,0.03247685
1.77E+18,7.727624268,0.00592939,-0.34202217,-0.082727821,-0.113119327,0.070333987,0.013824338
1.77E+18,7.737613525,0.094567458,-0.164380853,-0.305195684,-0.085062481,0.064347379,-0.015957426
1.77E+18,7.747602539,0.183259303,-0.124378513,-0.150279117,-0.080221124,0.066306129,-0.048357442
1.77E+18,7.757591553,0.294738149,-0.012185382,-0.08744389,-0.068188131,0.049265515,-0.085851297
1.77E+18,7.767579346,0.302931392,0.058643328,-0.205972581,-0.054121844,0.032594658,-0.105900377
1.77E+18,7.777568359,0.474473954,0.080164255,-0.265001401,-0.043697372,0.003063336,-0.12837328
1.77E+18,7.787557373,0.571681113,0.095618867,-0.228081683,-0.029951202,-0.04867629,-0.139872536
1.77E+18,7.797546387,0.5000538,0.109976186,-0.224261833,-0.025184721,-0.079690844,-0.132912382
1.77E+18,7.807535645,0.31833179,0.20180779,-0.096565573,-0.02433384,-0.101924509,-0.1181297
1.77E+18,7.817524414,0.018938509,0.09285291,-0.060009721,-0.027454711,-0.134275183,-0.08611621
1.77E+18,7.827512451,-0.07719956,0.0133667,-0.054368281,-0.034366943,-0.140788734,-0.065670595
1.77E+18,7.837501709,0.073296122,0.035828561,-0.052142714,-0.02750691,-0.13716045,-0.062713914
1.77E+18,7.847490479,0.153693017,-0.056647916,-0.03131503,-0.014527994,-0.141388759,-0.061750382
1.77E+18,7.857479248,0.230397486,-0.045845367,-0.067369947,-0.009448592,-0.147408471,-0.069626041
1.77E+18,7.867468506,0.170452428,0.011282149,-0.096278719,-0.0028831,-0.15374653,-0.077006988
1.77E+18,7.877457275,0.059487962,0.066697455,-0.063883859,0.003171374,-0.161071107,-0.066553928
1.77E+18,7.887445557,-0.050211015,0.001248246,-0.002648615,0.008848701,-0.159783468,-0.048804224
1.77E+18,7.89743457,-0.086968674,0.000913462,0.016082316,0.009231039,-0.155765653,-0.041755531
1.77E+18,7.907423584,-0.039275195,0.0183214,0.021635055,0.009185233,-0.150978357,-0.031668011
1.77E+18,7.917412598,0.040884968,0.034741497,-0.007570581,0.005464618,-0.157397002,-0.02428537
1.77E+18,7.927401611,0.105143798,0.066718644,-0.03373042,-0.003570157,-0.172304571,-0.025297638
1.77E+18,7.937390381,0.181863465,0.114127168,-5.69E-05,0.006718796,-0.152888983,-0.02152146
1.77E+18,7.947378418,0.160834705,-0.057220309,-0.032052842,0.012089592,-0.140306622,-0.011231272
1.77E+18,7.957367432,-0.008391396,-0.027090251,0.006441577,0.011269115,-0.12194553,0.002064301
1.77E+18,7.967356689,-0.007500585,-0.040606297,0.013873846,0.01313173,-0.103482902,0.005709636
1.77E+18,7.977345459,-0.005692074,-0.046676703,0.009377485,0.011850706,-0.087107837,0.006073304
1.77E+18,7.987334473,-0.007141688,-0.047011196,0.012183482,0.013209185,-0.064610519,0.007259209
1.77E+18,7.99732373,-0.07120178,-0.058897887,0.026617373,0.010738482,-0.047454257,0.011244159
1.77E+18,8.007311279,-0.08028642,-0.065636548,0.035315132,0.009754177,-0.040988367,0.020276804
1.77E+18,8.017300537,0.025065468,-0.081808076,0.020119024,0.009623094,-0.034821749,0.019753421
1.77E+18,8.027289551,0.118859019,-0.072691727,-0.001932649,0.008055292,-0.035128012,0.019787775
1.77E+18,8.03727832,0.112865916,-0.029925621,-0.001309475,0.005599595,-0.035553027,0.020185001
1.77E+18,8.047267578,0.108021983,0.002711889,-0.009578487,0.004805706,-0.040476415,0.019104024
1.77E+18,8.057256592,0.083502459,0.030602497,-0.044877033,0.004803979,-0.047558572,0.014892783
1.77E+18,8.067244385,0.072864161,0.061099635,-0.037153161,0.00604155,-0.065144226,0.009378175
1.77E+18,8.077233398,0.070246672,0.134663176,-0.050346916,0.009570597,-0.0972488,0.017219329
1.77E+18,8.087222412,0.018903438,0.17218422,-0.072137089,0.012755738,-0.117367648,0.020643355
1.77E+18,8.097211426,0.058729252,0.087501612,-0.067124302,0.016517002,-0.126911551,0.021314569
1.77E+18,8.107200439,0.160590375,0.054837067,-0.055396235,0.019172972,-0.140446529,0.02231059
1.77E+18,8.117189453,0.221062672,0.091046299,-0.069772844,0.018233638,-0.152739316,0.017952655
1.77E+18,8.127177734,0.131671154,0.136579092,-0.067815645,0.020198518,-0.15551272,0.014292407
1.77E+18,8.137166504,0.018126024,0.090546386,-0.051399567,0.023483926,-0.158839285,0.007546031
1.77E+18,8.147155762,-0.022354455,0.089142072,-0.057614204,0.024742004,-0.163121119,-0.000791527
1.77E+18,8.157144531,0.051110594,0.07152809,-0.08208492,0.027387759,-0.176628485,-0.003903399
1.77E+18,8.167133301,0.056868135,0.123610744,-0.086889836,0.025223941,-0.189005792,-0.002458102
1.77E+18,8.177122559,0.044277533,0.098508159,-0.071835694,0.026866585,-0.204603672,-0.004809642
1.77E+18,8.187111328,-0.059033204,0.084760642,-0.08922902,0.028330259,-0.208965391,-0.000761371
1.77E+18,8.197099365,-0.086157357,0.04633505,-0.088546956,0.0301219,-0.199764177,0.008933164
1.77E+18,8.207088623,-0.098317751,-0.016177666,-0.044558469,0.030420974,-0.182713553,0.017915741
1.77E+18,8.217077393,-0.217757785,0.000120412,-0.048022053,0.03170608,-0.171491519,0.020373894
1.77E+18,8.22706665,-0.177640294,0.155753018,-0.081160207,0.032262947,-0.169949025,0.028954865
1.77E+18,8.237055664,-0.044460488,0.161764095,-0.069450955,0.033708069,-0.1793648,0.022516191
1.77E+18,8.247044189,0.040924716,0.138672996,-0.121839789,0.03658428,-0.178586632,0.017207181
1.77E+18,8.257032471,-0.026573534,-0.025857203,-0.106065552,0.042407587,-0.174097687,0.028755683
1.77E+18,8.267021484,-0.086883918,-0.268583571,0.008590207,0.048232459,-0.163469538,0.04279587
1.77E+18,8.277010742,-0.123850836,-0.159814568,-0.025542072,0.050805695,-0.159339964,0.040623844
1.77E+18,8.286999512,0.026213469,-0.014198183,-0.053092342,0.052896541,-0.161074206,0.044654805
1.77E+18,8.296988525,0.196456638,-0.016405191,-0.065340414,0.056701045,-0.161242619,0.048099209
1.77E+18,8.306977539,0.00873568,0.09658552,-0.114631172,0.06345962,-0.15002805,0.04845101
1.77E+18,8.316965332,-0.112369073,-0.028411709,-0.037238063,0.065064393,-0.141249105,0.045074344
1.77E+18,8.326954346,0.045806642,-0.083000793,-0.03005228,0.06504149,-0.138449326,0.053366631
1.77E+18,8.336943604,-0.019742811,-0.001582885,-0.042663412,0.066318735,-0.129762098,0.061568484
1.77E+18,8.346932373,-0.062929627,0.014000322,-0.075135942,0.067740865,-0.109979592,0.06122094
1.77E+18,8.356921631,-0.001401683,-0.040765726,-0.002995711,0.067083381,-0.103952952,0.066917218
1.77E+18,8.366910645,0.071668229,-0.002933277,0.041329278,0.065811455,-0.086870104,0.065916665
1.77E+18,8.376898438,0.047775312,0.000151537,0.008028152,0.06819512,-0.085423484,0.063049875
1.77E+18,8.386887451,-0.040202247,0.025540684,-0.041064526,0.070709139,-0.073330067,0.049847785
1.77E+18,8.396876465,-0.091018242,-0.108254769,0.021681744,0.067798257,-0.05873505,0.051082231
1.77E+18,8.406865234,0.068509473,-0.099578272,0.04918748,0.068194538,-0.062183313,0.059008591
1.77E+18,8.416854492,0.061711483,0.054946519,-0.059980202,0.078357957,-0.048916508,0.057722017
1.77E+18,8.426843506,0.051734863,0.055447893,-0.106709695,0.087184742,-0.043974746,0.063816667
1.77E+18,8.436831543,0.07835399,-0.141471833,0.037922246,0.082562067,-0.047972787,0.072824091
1.77E+18,8.446820557,-0.06466215,-0.139181092,-0.00110734,0.090051942,-0.039848015,0.069520175
1.77E+18,8.45680957,-0.139319623,-0.202823104,0.045856217,0.086833872,-0.022610603,0.061688475
1.77E+18,8.466798584,-0.035389293,-0.16084508,0.040483584,0.089275189,-0.006211923,0.068813764
1.77E+18,8.476787354,-0.024851533,-0.160773623,-0.015753084,0.081584826,0.035995897,0.070648573
1.77E+18,8.486776611,-0.036937692,-0.233457458,0.103143271,0.083047427,0.018588409,0.077496886
1.77E+18,8.496764648,0.018058219,-0.122303314,0.06725023,0.080831632,0.027655767,0.088249207
1.77E+18,8.506753418,-0.195906603,-0.180230018,0.055035037,0.075832613,0.062505893,0.080604605
1.77E+18,8.516742676,-0.218287362,-0.210870948,0.195082683,0.066355444,0.079309195,0.078048758
1.77E+18,8.526731445,0.022057518,-0.195638454,0.238178568,0.062477086,0.061971217,0.084187083
1.77E+18,8.536720459,0.126483523,-0.151935505,0.123265109,0.056586534,0.045660239,0.065649554
1.77E+18,8.546709717,0.071937693,-0.10545301,0.126631699,0.041911718,0.057240997,0.041697618
1.77E+18,8.55669751,-0.123444593,-0.04908581,0.159011654,0.039853267,0.087019309,0.038909502
1.77E+18,8.566686279,-0.149928696,-0.044949295,0.100041433,0.071829572,0.154382363,0.123274714
1.77E+18,8.576675537,0.003533435,-0.159777305,-0.013423216,0.047186989,0.107813179,0.214557201
1.77E+18,8.586664307,0.42663902,0.012781448,0.107923016,0.062795512,0.088722043,0.176667079
1.77E+18,8.596653564,0.076476506,-0.051513768,-0.15268099,0.046604685,0.080803946,0.16097188
1.77E+18,8.606642578,0.020780338,-0.04868892,0.034883426,0.039872747,0.092338361,0.154269233
1.77E+18,8.616631592,0.063680153,0.002641162,0.033176951,0.028369173,0.159514293,0.122532845
1.77E+18,8.626619385,0.022122984,0.045517889,0.06532518,0.013923922,0.140678287,0.140947804
1.77E+18,8.636608398,0.068162267,-0.017927432,0.12527886,-0.003806773,0.268733293,0.271370351
1.77E+18,8.646597656,0.040215691,-0.421675699,0.20663521,-0.027610373,0.232878059,0.374218702
1.77E+18,8.656586426,0.30550738,-0.222897193,0.127071332,0.008783366,0.226325259,0.288154811
1.77E+18,8.666575439,-0.231202957,0.195155931,-0.153124277,0.042909645,0.213853687,0.180293322
1.77E+18,8.676564453,-0.192163325,-0.132967186,-0.058531867,0.001054959,0.246462852,0.124773502
1.77E+18,8.68655249,0.167020116,0.113109662,0.171833982,-0.021299349,0.217837065,0.11024835
1.77E+18,8.696541748,0.257410581,0.120284668,0.154196363,-0.013589407,0.250424385,0.107856624
1.77E+18,8.706530518,0.160854579,-0.030981852,0.056210621,-0.017446462,0.169338331,0.106959939
1.77E+18,8.716519287,0.291536138,-0.036850013,0.000570092,-0.074829869,0.201809183,0.089069195
1.77E+18,8.726508545,0.319567469,-0.031083997,0.260590088,-0.141085058,0.280977249,0.078605108
1.77E+18,8.736497559,0.325807241,-0.227665431,0.21241372,-0.186742991,0.255716205,0.072110124
1.77E+18,8.746485352,0.424133759,-0.050082128,0.025443434,-0.167410836,0.203648984,0.068662927
1.77E+18,8.756474609,0.040542438,-0.009469985,0.042163829,-0.172894195,0.216035694,0.047383521
1.77E+18,8.766463623,0.047885202,0.012600977,0.03555011,-0.210686579,0.206983075,0.018460527
1.77E+18,8.776452637,0.145370594,0.107551443,0.119339058,-0.189825788,0.167033002,0.057674211
1.77E+18,8.786441406,0.222576583,0.079449238,0.0182525,-0.210402429,0.173607022,0.060688909
1.77E+18,8.79643042,0.214789583,0.083084234,-0.004092019,-0.260174632,0.198626608,0.047519971
1.77E+18,8.806418457,0.110977326,0.036060032,0.188054794,-0.252071172,0.23376596,0.063610792
1.77E+18,8.816407471,-0.094928693,-0.15785905,-0.108068526,-0.226173937,0.143344983,0.120013133
1.77E+18,8.826396729,-0.159427176,0.034775838,-0.000495675,-0.219626546,0.186336383,0.163324654
1.77E+18,8.836385498,0.052700494,0.073312197,0.14413718,-0.153658181,0.185626924,0.160970047
1.77E+18,8.846374512,0.219801273,0.040121144,0.087310035,-0.129802391,0.170069531,0.112639792
1.77E+18,8.85636377,0.169487967,-0.177523097,0.025517741,-0.116161108,0.129852802,0.054807864
1.77E+18,8.866351563,0.227047591,-0.042713206,-0.09408194,-0.084335797,0.092954971,0.023114115
1.77E+18,8.876340332,-0.003996961,0.031467882,-0.014481603,-0.044884432,0.079279982,0.01573834
1.77E+18,8.88632959,-0.133653268,0.088250238,-0.067583298,-0.003950317,0.012082569,-0.007255127
1.77E+18,8.896318359,-0.078358666,0.151904818,-0.163268435,0.007548496,0.043841664,-0.03903864
1.77E+18,8.906307617,0.450105236,-0.041543286,-0.109514706,-0.00699982,0.018248683,-0.054729719
1.77E+18,8.916296631,0.291551335,-0.098697106,0.054425052,-0.023740754,-0.068295181,-0.035756007
1.77E+18,8.926284424,0.022187282,-0.04907222,0.170746077,-0.053941801,-0.055460073,-0.046791345
1.77E+18,8.936273438,0.183777774,-0.080628803,0.14050613,-0.080295466,-0.043961968,-0.06446664
1.77E+18,8.946262451,-0.173057058,-0.033978257,0.169343152,-0.07714548,0.038010661,-0.064275958
1.77E+18,8.956251221,-0.109655137,-0.286296191,0.031498131,-0.045245115,0.138345078,-0.101831786
1.77E+18,8.966240479,-0.015252514,-0.317181305,-0.086816114,-0.020520061,0.163853109,-0.08588478
1.77E+18,8.976229492,-0.322437472,-0.110365332,-0.256256442,-0.006392702,0.197528064,-0.075509317
1.77E+18,8.986217773,-0.039510173,-0.245068109,-0.033709158,0.027956218,0.218990475,-0.05827627
1.77E+18,8.996206543,-0.018498949,-0.065800068,-0.004256342,0.111593053,0.193593249,-0.048340313
1.77E+18,9.006195557,-0.06330489,-0.230989315,-0.022652561,0.137745827,0.40602085,-0.172419116
1.77E+18,9.01618457,0.198521754,-0.727794342,-0.161697606,0.193418503,0.383420259,-0.211071089
1.77E+18,9.02617334,-0.286169058,-0.160721746,-0.050621276,0.191336438,0.434985995,-0.320392519
1.77E+18,9.036162598,0.336024099,-0.55243193,0.098156642,0.226403341,0.446560085,-0.370126963
1.77E+18,9.046150635,0.480839397,-0.611126257,-0.004132497,0.285830975,0.351643443,-0.382182032
1.77E+18,9.056139404,0.715396925,-0.494231524,0.011919205,0.302006543,0.210652381,-0.345910758
1.77E+18,9.066128662,0.241833072,-0.231797562,0.156969262,0.30842185,0.140314311,-0.363309473
1.77E+18,9.076117676,-0.103659112,-0.16676088,0.189269941,0.276606321,0.110361829,-0.29301402
1.77E+18,9.086106445,0.01797171,0.105115448,0.357390127,0.267816305,0.034791969,-0.237648502
1.77E+18,9.096095459,0.355731839,0.375085943,0.145072342,0.245527193,-0.024888048,-0.193489864
1.77E+18,9.106083496,0.150003514,0.628665567,-0.078219477,0.267816007,-0.164418519,-0.184034303
1.77E+18,9.116072266,-0.097036479,-0.161017514,0.060806132,0.279495209,-0.074947044,-0.294166744
1.77E+18,9.126061523,0.083453944,-0.821022515,-0.020786621,0.351854086,0.016363962,-0.369986117
1.77E+18,9.136050537,0.232149298,-0.535384495,-0.020636326,0.379126936,-0.124159768,-0.336786121
1.77E+18,9.146039551,-0.144365216,-0.068325348,0.021617154,0.372129202,-0.348452777,-0.287916332
1.77E+18,9.156028564,-0.011784546,0.45131505,-0.307649653,0.39394173,-0.419233233,-0.150128007
1.77E+18,9.166016357,0.041038113,0.939210211,-0.242341972,0.405958951,-0.461397707,-0.108663917
1.77E+18,9.176005371,0.44962359,0.356187474,-0.067266341,0.468269348,-0.262046874,-0.049581502
1.77E+18,9.185994385,0.110426706,-1.119224833,0.335333559,0.668791831,0.603194714,0.174573034
1.77E+18,9.195983643,0.345661696,-2.31204857,0.634518823,0.896856308,0.277568132,-0.690032542
1.77E+18,9.205972412,4.521791196,-3.601354513,0.731089877,1.015018821,1.248231173,-0.937637031
1.77E+18,9.215961426,-1.097909803,-4.097204724,1.247616673,0.978913248,0.715835392,-0.55087924
1.77E+18,9.225949707,-1.82207748,-0.274445448,0.273922009,0.880976558,0.488401204,-0.290168494
1.77E+18,9.235938477,-0.805734783,0.754150727,-1.602551224,0.825765133,1.024840355,-0.14869836
1.77E+18,9.245927246,-0.737955379,0.7093518,-1.26363155,0.7549389,0.834918022,0.106354699
1.77E+18,9.255916504,-0.447242248,1.580354736,0.253870862,0.721794903,0.664000332,0.036783293
1.77E+18,9.265905273,0.682242259,0.998984734,0.242876444,0.573443294,0.219838336,0.366256535
1.77E+18,9.275894531,-0.43145022,2.282601818,-0.139822166,0.419926822,-0.111990459,0.691840172
1.77E+18,9.285882568,-0.354423679,2.386593669,-0.634196313,0.452849358,-0.316062629,0.788771749
1.77E+18,9.295871582,0.048260465,1.730079141,-0.516800206,0.416651666,-0.165232643,0.726372302
1.77E+18,9.305860596,-0.399374581,-0.336179582,-0.704993605,0.406007826,-0.292499244,0.733348489
1.77E+18,9.315849609,-0.590379968,-0.878542684,-0.005398352,0.486034989,-0.234669164,0.597409904
1.77E+18,9.325838379,-0.145369425,-1.110394314,0.07229206,0.547079682,-0.009240823,0.497982919
1.77E+18,9.335827393,-0.410186483,-0.485780653,-0.367472253,0.585014284,0.164577663,0.447358578
1.77E+18,9.34581543,-0.707086778,-0.12036124,-0.363894249,0.555034518,0.224429801,0.407414347
1.77E+18,9.355804688,-0.404032052,0.182612529,-0.590593903,0.524961233,0.29188484,0.31497246
1.77E+18,9.365793457,0.067107789,0.441529423,-0.201977009,0.517209828,0.397236049,0.283963144
1.77E+18,9.375782471,-0.644614247,0.683692312,-0.036412207,0.492724597,0.3452847,0.308560252
1.77E+18,9.385771729,-0.735939947,0.593202624,0.001579963,0.497162223,0.332045853,0.3138192
1.77E+18,9.395759277,-0.581456657,0.728452222,0.384849066,0.488965333,0.402957767,0.303809077
1.77E+18,9.405748535,-0.822271492,1.028013699,0.439601816,0.479614973,0.49191159,0.288353145
1.77E+18,9.415737549,-1.046243914,1.176069148,0.662385028,0.44114849,0.552532971,0.276168764
1.77E+18,9.425726318,-0.902554405,1.265709818,0.903603914,0.377348483,0.711362004,0.169287831
1.77E+18,9.435715576,-0.212538589,0.715329705,0.645636722,0.39699617,0.785698891,0.088403702
1.77E+18,9.44570459,-0.363760831,0.161534962,0.405778603,0.43556726,0.954296708,-0.026782278
1.77E+18,9.455693604,-0.040731823,-0.166842275,-0.015101269,0.349467963,0.769154966,-0.116183117
1.77E+18,9.465681396,0.366213485,0.303782894,0.034720308,0.159520134,0.543239534,-0.099241681
1.77E+18,9.47567041,0.384893636,0.861050428,0.447748882,-0.109233916,0.220384732,0.022464992
1.77E+18,9.485659424,0.145980835,1.474788621,0.243032657,-0.187474653,0.153679207,-0.032932218
1.77E+18,9.495648438,0.668306088,0.06482567,0.743935184,-0.180137828,0.142419457,-0.120808639
1.77E+18,9.505637451,0.443100326,-0.396026001,0.174758016,-0.136397809,0.172660455,-0.124189518
1.77E+18,9.515625732,0.115872697,0.124965081,-0.340432563,-0.138646126,0.234439299,-0.112821013
1.77E+18,9.525614502,0.195772747,0.226675689,-0.507719367,-0.153447971,0.164532647,-0.071809933
1.77E+18,9.53560376,0.08986498,0.076941785,0.010299568,-0.175226822,0.110191472,-0.090260237
1.77E+18,9.545592529,0.313543387,-0.097740974,0.272940597,-0.178535268,0.114107385,-0.090729751
1.77E+18,9.555581299,0.104582072,-0.077014704,0.176065154,-0.163684651,0.120161995,-0.078818358
1.77E+18,9.565570557,0.218567932,-0.101443628,0.221716021,-0.128478199,0.111285143,-0.063246056
1.77E+18,9.575558594,0.380669881,-0.241712953,0.193036016,-0.086277947,0.078167319,-0.049330827
1.77E+18,9.585547363,0.491783985,-0.246042361,0.182271315,-0.060594685,0.036428392,-0.021831559
1.77E+18,9.595536621,0.304198051,-0.076784403,0.095685649,-0.061044496,0.029447971,-0.022095969
1.77E+18,9.605525391,0.325805487,-0.042145197,0.299387874,-0.062708177,-0.001552022,-0.005238691
1.77E+18,9.615514648,0.316141002,-0.144897277,0.441580276,-0.057652574,0.017357234,-0.016697105
1.77E+18,9.625503662,0.278176305,-0.11260332,0.341566243,-0.05729704,0.013316953,-0.008396298
1.77E+18,9.635492188,0.013282675,-0.05825842,0.218203483,-0.061560355,0.037214827,-0.019563645
1.77E+18,9.645480469,0.017343349,-0.006780746,0.127928315,-0.058623686,0.065152988,-0.027384551
1.77E+18,9.655469482,-0.047722121,-0.078102207,0.10183175,-0.057910666,0.095480882,-0.031407587
1.77E+18,9.66545874,-0.046338557,-0.03865341,0.0602607,-0.053442944,0.111456387,-0.027522037
1.77E+18,9.67544751,0.021681086,-0.043370794,0.121136463,-0.063356698,0.114777893,-0.020065809
1.77E+18,9.685436523,0.066321023,-0.073089348,0.116923959,-0.068064108,0.13346076,-0.00136882
1.77E+18,9.695424561,0.098104985,-0.011466274,0.032477644,-0.069349438,0.134382129,0.021708753
1.77E+18,9.70541333,0.136705641,0.012865327,0.007255524,-0.073352166,0.109493814,0.026218018
1.77E+18,9.715402344,0.12930501,0.038865153,-0.010806495,-0.084277742,0.07960774,0.016738534
1.77E+18,9.725391602,0.19231647,0.079628394,0.011353315,-0.101411715,0.053309821,0.017068233
1.77E+18,9.735380371,0.220046773,0.143342741,0.032095074,-0.112501875,0.045623835,0.01686725
1.77E+18,9.745369629,0.21277532,0.143764036,-0.018232553,-0.114607371,0.013584942,0.026655167
1.77E+18,9.755357666,0.178230077,-0.00883651,-0.02919453,-0.11588227,0.011703256,0.00869644
1.77E+18,9.765346436,0.023361586,0.118530664,-0.073365242,-0.115545385,-0.007682161,-0.002989245
1.77E+18,9.775335449,-0.107459673,0.054768094,-0.071380206,-0.111618415,-0.012900625,-0.012357772
1.77E+18,9.785324463,-0.126381816,-0.002648907,-0.089812811,-0.107549109,-0.017042106,-0.003287579
1.77E+18,9.795313232,-0.011893851,0.07125015,-0.050966656,-0.111935027,-0.027564878,-0.003429781
1.77E+18,9.80530249,0.092380178,0.161307145,-0.039679684,-0.107750401,-0.020460097,-0.00288623
1.77E+18,9.815290527,0.165769239,0.194698104,-0.092881259,-0.067940317,0.080375262,-0.026391385
1.77E+18,9.825279541,0.174825821,0.146682699,-0.259507407,-0.065186076,-0.083362274,-0.003031468
1.77E+18,9.835268555,0.299274038,0.269758752,-0.240432558,-0.063428648,-0.102314129,-0.014821136
1.77E+18,9.845257568,0.13032617,0.406038715,-0.16314795,-0.066800214,-0.028807953,-0.05129819
1.77E+18,9.855246582,0.297157485,0.55197878,-0.261097891,-0.074790142,-0.038839459,-0.039560523
1.77E+18,9.865235352,0.37339083,0.706134299,-0.356250017,-0.091795757,-0.05377207,-0.008080095
1.77E+18,9.875223389,0.507771827,0.685036274,-0.36845615,-0.110138454,-0.091253847,0.013848808
1.77E+18,9.885212646,0.557947186,0.716097183,-0.388629754,-0.125179991,-0.036409233,0.073912941
1.77E+18,9.895201416,0.370882646,0.320805925,-0.274520559,-0.121703766,0.089117259,0.146413237
1.77E+18,9.905190674,0.486045149,0.201431065,-0.341171691,-0.126659378,0.31222254,0.15613085
1.77E+18,9.915179443,0.574617751,0.167301125,0.073218089,-0.165837586,0.43881464,0.201212093
1.77E+18,9.925168457,0.189700734,0.003798662,0.544161676,-0.208876655,0.509810269,0.213817641
1.77E+18,9.935156494,0.216001881,-0.09082345,0.812557761,-0.24251622,0.553448498,0.19636108
1.77E+18,9.945145508,-0.057698156,0.031897944,0.725283529,-0.288394749,0.635115623,0.156936437
1.77E+18,9.955134521,-0.194151284,-0.05021686,0.566567131,-0.334389359,0.556868672,0.050444383
1.77E+18,9.965123535,-0.201107094,0.064137395,0.427663687,-0.373752773,0.555501938,-0.089034423
1.77E+18,9.975112305,-0.620881489,0.068588968,0.277880245,-0.35802117,0.62518245,-0.227837279
1.77E+18,9.985101563,-0.822933171,0.102561526,0.178118725,-0.344216675,0.559742987,-0.358782232
1.77E+18,9.9950896,-0.782432818,0.045582624,-0.328270416,-0.292759657,0.577361405,-0.418484241
1.77E+18,10.00507837,-0.849950942,0.226666775,-0.25191023,-0.272310555,0.731379747,-0.393778354
1.77E+18,10.01506738,-0.552880551,-0.068202599,-0.233725462,-0.269664556,0.854079604,-0.482724786
1.77E+18,10.0250564,0.182868842,-0.149959383,0.308297595,-0.254748195,0.856684685,-0.57439822
1.77E+18,10.03504565,0.616437954,-0.071553955,0.621226942,-0.225992531,0.769148111,-0.661844254
1.77E+18,10.04503442,0.896834273,-0.226631704,0.389138434,-0.138337508,0.699725628,-0.687733591
1.77E+18,10.05502246,0.6786229,-0.511172868,0.22876404,-0.060163211,0.653423309,-0.693659484
1.77E+18,10.06501172,0.720900199,-0.482697738,0.134901515,0.000546208,0.529228151,-0.715901136
1.77E+18,10.07500049,0.726045745,-0.020159868,0.276383284,0.03583353,0.640864015,-0.589343131
1.77E+18,10.08498975,0.239839853,0.827411193,0.272820039,0.092657134,0.803765595,-0.508025348
1.77E+18,10.09497852,0.556690464,1.534664998,0.704761257,0.118962452,0.944353998,-0.502683818
1.77E+18,10.10496729,1.335659406,1.282858813,1.21691203,0.088724919,0.806337535,-0.566878796
1.77E+18,10.11495557,1.905676385,0.572414688,1.177616962,0.096887968,0.413741946,-0.570924878
1.77E+18,10.12494458,1.688015046,0.40032326,1.335585464,0.131655008,0.034556281,-0.451230437
1.77E+18,10.13493335,0.993636359,0.689200116,1.26185475,0.069422647,-0.310213327,-0.3341465
1.77E+18,10.14492261,0.666007748,0.898062208,0.500385809,0.024435204,-0.488685608,-0.197490931
1.77E+18,10.15491162,0.055800798,1.799574264,0.754013656,-0.003447061,-0.496264994,-0.183934152
1.77E+18,10.16490063,0.129399118,2.150468746,1.120485208,-0.05242499,-0.479243666,-0.2822586
1.77E+18,10.17488843,0.555648262,1.836798664,1.019167983,-0.043190308,-0.643461347,-0.405147105
1.77E+18,10.18487744,0.515063154,1.252462944,1.208682255,0.027318479,-0.879637659,-0.535159111
1.77E+18,10.19486646,0.268700037,0.924475437,1.408940623,0.107376099,-0.98936379,-0.640816092
1.77E+18,10.20485547,-0.256337399,0.656906742,1.39303549,0.178521916,-0.874950945,-0.628358364
1.77E+18,10.21484473,-1.032585975,0.533579784,1.295028413,0.233678743,-0.589059711,-0.645718336
1.77E+18,10.2248335,-0.63569795,0.168099289,2.02755709,0.305034161,-0.287834108,-0.570291221
1.77E+18,10.23482129,-1.131926639,0.325442718,1.698648376,0.31844303,-0.13891679,-0.417584866
1.77E+18,10.24481055,-1.493850903,0.621411578,1.106124674,0.321684361,-0.093244642,-0.344351679
1.77E+18,10.25479956,-1.353586108,0.961947089,0.675978815,0.281535476,-0.019655379,-0.281362504
1.77E+18,10.26478833,-1.722747337,1.095827517,0.382606986,0.068475142,0.179290742,-0.076102555
1.77E+18,10.27477759,-2.033940361,0.575026405,-0.426355235,-0.189937815,0.215883195,0.114631675
1.77E+18,10.28476636,-1.159285771,0.135264941,-0.966221698,-0.338517189,0.329181552,0.298110962
1.77E+18,10.29475439,-0.822142313,0.229572287,-0.48461687,-0.425134242,0.367375076,0.459617466
1.77E+18,10.30474365,-0.660017568,0.222366228,-0.261290929,-0.535120428,0.354478449,0.59206444
1.77E+18,10.31473242,-0.6566402,-0.082702906,-0.597035627,-0.737596989,0.123927884,0.638895273
1.77E+18,10.32472144,-0.008861352,-0.427413731,-1.141439441,-0.926811934,-0.125919238,0.654011905
1.77E+18,10.33471045,0.054967269,-0.540462091,-1.020187097,-1.124425411,-0.387454599,0.649161041
1.77E+18,10.34469922,-0.082481884,-0.644525034,-0.885206964,-1.330795407,-0.651435137,0.586076081
1.77E+18,10.3546875,-0.013379122,-0.822670867,-1.004235787,-1.505635142,-0.787135422,0.470021546
1.77E+18,10.36467651,-0.087808047,-0.999654012,-0.678798548,-1.660386682,-0.90496403,0.317594171
1.77E+18,10.37466577,-0.231561854,-1.247426411,-0.562031533,-1.765803337,-1.031782627,0.185862005
1.77E+18,10.38465454,-0.607466712,-1.438822259,-0.447813033,-1.801650047,-1.024791718,0.134542629
1.77E+18,10.39464355,-1.120315697,-1.418277191,-0.376973949,-1.821000338,-1.171626687,0.166331902
1.77E+18,10.40463159,-1.220811376,-1.467454479,-0.603876871,-1.858828902,-1.606149673,0.168434203
1.77E+18,10.41462036,-1.037110175,-1.455650644,-0.636438832,-1.884858012,-1.706337214,0.084383279
1.77E+18,10.42460938,-0.982825627,-1.345401632,-0.562979043,-1.841594458,-1.952885985,0.023485312
1.77E+18,10.43459863,-0.90216862,-1.131506587,-0.5189549,-1.833490729,-2.291085005,-0.112332553
1.77E+18,10.4445874,-0.358400766,-0.930294791,-1.033874992,-1.712040186,-2.495756149,-0.22972548
1.77E+18,10.45457666,-0.394967286,-0.569643177,-0.879598184,-1.649848461,-2.596531868,-0.153419256
1.77E+18,10.46456445,-0.624483313,-0.536026812,-1.360151896,-1.488550663,-2.649348497,-0.066608742
1.77E+18,10.47455347,-0.172525143,-0.135093603,-0.916035891,-1.323371649,-2.581464767,-0.013575032
1.77E+18,10.48454248,0.669506696,0.131323729,-1.181104439,-1.157835245,-2.43388319,0.071441591
1.77E+18,10.49453149,0.84265377,0.050563408,-1.368288002,-0.867264211,-1.658916116,0.166333944
1.77E+18,10.50452026,1.543022053,-0.576489828,-0.231747659,-0.495114356,-0.398204178,0.27359277
1.77E+18,10.51450952,2.691737331,-1.697732723,-0.156415573,-0.21143201,-0.066819698,0.346079677
1.77E+18,10.52449756,3.207428261,-2.334475506,-0.453293876,-0.038087115,-0.307670385,0.40012002
1.77E+18,10.53448682,1.745789774,-1.639375519,-0.1701613,-0.032358035,-0.334691256,0.464941233
1.77E+18,10.54447534,-0.257950679,-1.069318573,-0.422996316,-0.089567535,-0.322607428,0.558223009
1.77E+18,10.5544646,-1.411810918,-0.604457301,-0.547806097,-0.090090975,-0.41192773,0.557567298
1.77E+18,10.56445361,-1.004580947,0.207648333,-0.231951949,-0.053448007,-0.233118311,0.455460072
1.77E+18,10.57444263,-0.867182647,0.140922748,0.222935735,-0.029596575,0.105835438,0.351552635
1.77E+18,10.58443042,-0.574992429,-0.515413794,-0.009567527,-0.009955495,0.257024944,0.343528807
1.77E+18,10.59441968,-0.555612606,-0.156454809,-0.391667185,0.034563284,0.261870474,0.357164055
1.77E+18,10.60440845,-0.526594601,0.414027157,-0.205425907,0.084924988,0.289388925,0.37265566
1.77E+18,10.61439771,-0.254454069,0.248971911,-0.006432188,0.125222802,0.315577835,0.334692955
1.77E+18,10.62438647,0.337387788,-0.006920885,0.020543972,0.137692258,0.466623813,0.289885253
1.77E+18,10.63437573,0.551833088,0.169985176,0.116515086,0.142569497,0.447436064,0.370086581
1.77E+18,10.64436377,-0.002501754,0.212382595,-1.80E-05,0.153347045,0.47838679,0.403216839
1.77E+18,10.65435278,0.287117152,-0.127352853,0.22388847,0.122869536,0.495680392,0.318710178
1.77E+18,10.66434155,0.664949764,-0.239851689,-0.086227865,0.102603681,0.319525063,0.275176018
1.77E+18,10.67433057,-0.029560441,0.057329907,-0.25081447,0.092792422,0.303318262,0.284369469
1.77E+18,10.68431958,-0.675622549,-0.005048954,0.150181721,0.090042174,0.177950725,0.289445192
1.77E+18,10.69430762,-0.374659827,-0.003914105,0.045021118,0.06143707,-0.125474751,0.311627388
1.77E+18,10.70429663,-0.346301747,0.199331171,-0.075052391,0.037351977,-0.239552587,0.292609215
1.77E+18,10.71428564,-0.248403098,0.039445729,0.221715875,-0.015504139,-0.346474856,0.284490794
1.77E+18,10.72427466,-0.276003638,0.132077982,0.121421417,-0.065736413,-0.269989669,0.231393218
1.77E+18,10.73426367,-0.217353296,0.123052379,0.101042061,-0.07745938,-0.16662176,0.255417109
1.77E+18,10.74425269,-0.03522212,-0.075923841,0.162265322,-0.111793116,-0.372894228,0.427271932
1.77E+18,10.75424146,0.028513562,0.082851302,-0.019361995,-0.15026173,-0.3020522,0.52361387
1.77E+18,10.76422949,0.390734179,0.004287468,0.198051652,-0.144733801,-0.233598024,0.485458225
1.77E+18,10.77421875,0.529253007,-0.014944763,-0.007779986,-0.1055042,-0.260515243,0.365003556
1.77E+18,10.78420752,-0.114868488,-0.265049259,-0.003340104,-0.110082179,-0.201560557,0.197819874
1.77E+18,10.79419678,-0.294053089,-0.003719459,0.049413581,-0.133965805,-0.285142511,0.084702611
1.77E+18,10.80418579,0.097486561,0.018098551,0.017946503,-0.121940032,-0.281844467,0.097049564
1.77E+18,10.81417358,0.536171993,-0.196916218,0.056994574,-0.112189487,-0.181365639,0.201530114
1.77E+18,10.8241626,0.81971947,-0.022995822,-0.038962804,-0.111788146,-0.205097854,0.258703917
1.77E+18,10.83415161,0.500203438,-0.028148675,0.007811149,-0.12338879,-0.15135251,0.178743064
1.77E+18,10.84414038,0.052045829,-0.017101357,-0.019064364,-0.144629359,-0.157245293,0.121346086
1.77E+18,10.85412964,-0.219312613,0.10957535,-0.066746043,-0.142973945,-0.115429662,0.123026006
1.77E+18,10.86411865,-0.05765607,-0.132313398,0.081208247,-0.146697849,-0.12995854,0.062863328
1.77E+18,10.87410693,0.120572837,-0.175422179,0.088368531,-0.138279542,-0.151063114,-0.025522033
1.77E+18,10.8840957,0.230763397,-0.093436701,-0.12960761,-0.127193078,-0.148371458,-0.072296992
1.77E+18,10.89408447,0.433010309,0.067069211,-0.014579876,-0.13860625,-0.172847956,-0.277435362
1.77E+18,10.90407373,0.210602068,-0.216092336,0.186423466,-0.125916824,-0.14412123,-0.399863809
1.77E+18,10.9140625,0.174948571,-0.07419614,0.014018808,-0.102789015,-0.162131041,-0.344268501
1.77E+18,10.92405176,0.758952574,0.104529027,-0.138361007,-0.083736494,-0.176818907,-0.325054318
1.77E+18,10.93403979,0.888169321,0.073700173,-0.14611743,-0.065792739,-0.199628964,-0.340906173
1.77E+18,10.94402856,0.794571,0.109829325,-0.133409376,-0.054222643,-0.258316785,-0.383778542
1.77E+18,10.95401782,0.595951631,0.108186234,-0.12242705,-0.042714592,-0.227586821,-0.375358671
1.77E+18,10.96400684,0.52257426,-0.018012773,-0.055543352,-0.041267164,-0.206813633,-0.327151746
1.77E+18,10.97399536,0.371461323,0.014176117,-0.000902721,-0.04279292,-0.19527249,-0.290006071
1.77E+18,10.98398462,4.91E-05,0.043261342,-0.045415999,-0.043690674,-0.179022685,-0.270058721
1.77E+18,10.99397266,-0.015271219,0.051572512,-0.025969431,-0.044636495,-0.158089161,-0.253845394
1.77E+18,11.00396143,-0.036018239,0.043545419,-0.049991454,-0.040775977,-0.155310154,-0.257208675
1.77E+18,11.01395068,0.206397017,0.076479429,0.002132153,-0.038649093,-0.155463189,-0.267292053
1.77E+18,11.0239397,0.210771579,0.094608083,-0.023489195,-0.037781168,-0.139965728,-0.262674928
1.77E+18,11.03392871,-0.17817747,0.138093881,-0.024509332,-0.040058218,-0.124048978,-0.2396667
1.77E+18,11.0439165,-0.238337631,-0.07078034,0.05499339,-0.0396409,-0.112624288,-0.248162732
1.77E+18,11.05390552,0.046918988,0.042464931,0.043095484,-0.040972624,-0.110627189,-0.242645264
1.77E+18,11.06389453,0.183658531,0.082254505,0.048819652,-0.051389046,-0.078272447,-0.207630828
1.77E+18,11.07388354,0.241173732,0.006624898,0.099928237,-0.055695586,-0.060730021,-0.177573949
1.77E+18,11.0838728,0.289117386,0.01515658,0.02372704,-0.062642708,-0.048144188,-0.139444143
1.77E+18,11.09386157,0.215028652,0.01068864,0.006852916,-0.063196301,-0.042095795,-0.10052228
1.77E+18,11.10384961,0.115177116,-0.038851782,-0.006774572,-0.064849593,-0.042014036,-0.068260476
1.77E+18,11.11383887,0.106425069,-0.019911008,0.05353625,-0.080888599,-0.033446379,-0.033140492
1.77E+18,11.12382764,0.163558577,-0.058572381,0.087831118,-0.088612303,-0.013869483,-0.020591941
1.77E+18,11.13381641,0.138477912,-0.064985975,0.060725157,-0.088223457,0.005875634,-0.024832767
1.77E+18,11.14380566,-0.084316698,-0.052039911,0.022410295,-0.089243978,0.018804483,-0.030930074
1.77E+18,11.15379443,-0.219177004,0.008835487,-0.040570185,-0.081682712,0.018558409,-0.031566404
1.77E+18,11.16378247,-0.141054484,0.01105309,-0.064726684,-0.079496786,0.011530327,-0.023677588
1.77E+18,11.17377173,-0.029641105,-0.045826224,-0.02342055,-0.073719241,-0.003059446,-0.015390847
1.77E+18,11.18376074,0.054174658,-0.033834246,-0.036392753,-0.063512936,-0.035881042,0.003529049
1.77E+18,11.19374976,0.188930334,0.051453928,-0.074663465,-0.050151989,-0.072541587,0.030307606
1.77E+18,11.20373853,0.365077175,0.020394042,-0.093643695,-0.043182764,-0.105039872,0.057044413
1.77E+18,11.21372754,0.409428942,0.047266851,-0.111943778,-0.04614858,-0.1331238,0.069861583
1.77E+18,11.22371558,0.377520477,0.000937646,-0.061870857,-0.05528615,-0.150183216,0.070234425
1.77E+18,11.23370459,0.328386736,0.023126609,-0.10488153,-0.068783157,-0.177155703,0.070057422
1.77E+18,11.24369385,0.168715814,0.095838136,-0.153326594,-0.067772754,-0.207646236,0.075566173
1.77E+18,11.25368262,0.02772738,0.096976712,-0.201765704,-0.071549073,-0.226546779,0.091317602
1.77E+18,11.26367163,0.096828389,0.086240652,-0.173583822,-0.072252944,-0.245669872,0.094569854
1.77E+18,11.27366064,0.073689506,0.086242332,-0.212627601,-0.066345297,-0.270419866,0.100779802
1.77E+18,11.28364844,0.056678165,0.132721833,-0.140587725,-0.058628254,-0.280590475,0.106956206
1.77E+18,11.29363745,0.017601123,0.119322983,-0.12937033,-0.0574097,-0.284381062,0.098602444
1.77E+18,11.30362671,-0.180920046,0.08203414,-0.150192196,-0.055150807,-0.268665731,0.085599832
1.77E+18,11.31361548,-0.18175942,0.09057269,-0.136881866,-0.052570894,-0.260131001,0.086920716
1.77E+18,11.32360474,-0.064286886,0.074269205,-0.119429275,-0.038344819,-0.228420228,0.0870355
1.77E+18,11.33359277,-0.208168119,0.000529285,-0.048231586,-0.029443579,-0.1862638,0.066931069
1.77E+18,11.34358154,-0.285147313,0.002109978,-0.038943908,-0.021104157,-0.150919393,0.065137431
1.77E+18,11.35357056,-0.121882751,0.000628361,-0.038200953,-0.015780399,-0.117699295,0.056460775
1.77E+18,11.36355957,-0.085723642,-0.04082257,-0.014901454,-0.018167922,-0.116306201,0.033880632
1.77E+18,11.37354858,-0.01264087,0.119045628,-0.20002593,-0.024058532,-0.066307031,0.028611848
1.77E+18,11.3835376,0.130866268,0.079641107,-0.101569483,-0.015324427,-0.066542991,0.029675515
1.77E+18,11.39352563,0.267762463,0.071854984,-0.147703503,-0.009539334,-0.091325931,0.04404562
1.77E+18,11.40351489,0.040419689,0.213348298,-0.250216066,-0.02047747,-0.109540351,0.046631016
1.77E+18,11.41350366,-0.088670802,0.129986562,-0.208202185,-0.015768103,-0.101705775,0.072512075
1.77E+18,11.42349292,-0.078325933,0.023686727,0.107891251,-0.007600188,-0.125232667,0.083247542
1.77E+18,11.43348145,-0.105350718,0.29796091,-0.398259094,0.012670592,-0.126431361,0.097995386
1.77E+18,11.44347046,-0.112827922,0.368202759,-0.568546906,0.032212336,-0.109159425,0.098706186
1.77E+18,11.45345874,0.158223061,0.482067624,-0.698799719,0.051906411,-0.162012249,0.121301509
1.77E+18,11.46344775,0.327940746,0.509288662,-0.793014491,0.08475171,-0.161814377,0.142403334
1.77E+18,11.47343652,0.179292737,0.458119469,-0.894961904,0.121491045,-0.143607065,0.14562802
1.77E+18,11.48342578,0.186558929,0.513883004,-1.154679738,0.157404572,-0.103730753,0.15261589
1.77E+18,11.49341455,0.08353753,0.615386253,-1.308897802,0.199512213,-0.109088495,0.13609156
1.77E+18,11.50340381,0.119459908,0.62920625,-1.571932214,0.273671687,-0.009483346,0.132561013
1.77E+18,11.5133916,-0.08758476,0.866542157,-1.652240991,0.286552459,0.042880174,0.191830546
1.77E+18,11.52338062,-0.042062195,0.687261549,-1.963605135,0.323754162,0.044744384,0.282160431
1.77E+18,11.53336963,0.129304425,0.516955982,-2.009964881,0.37006554,0.074066944,0.387911946
1.77E+18,11.54335864,-0.149126732,0.815946089,-2.096567059,0.483820349,0.086119078,0.48734051
1.77E+18,11.55334766,-0.360862772,0.696024116,-2.00459634,0.572739601,0.148035616,0.59424001
1.77E+18,11.56333618,-0.260976164,0.55216042,-1.528989144,0.644836187,0.173079714,0.641253293
1.77E+18,11.57332422,-0.117536831,1.00095545,-1.698847552,0.689304411,0.221163452,0.713097692
1.77E+18,11.58331323,0.021579379,0.232252905,-1.087436121,0.669426858,0.049735505,0.73027724
1.77E+18,11.59330225,0.526848284,-0.151032711,-0.281364982,0.554533958,-0.22922112,0.622341216
1.77E+18,11.60329126,0.151819039,-0.331629809,-0.140850304,0.526819527,-0.183501571,0.498403549
1.77E+18,11.61328052,-0.819095785,-0.548376079,0.452695947,0.497477204,-0.034628469,0.410978585
1.77E+18,11.62326831,-0.959753379,-0.422658426,0.682216394,0.491673112,0.14742814,0.36732778
1.77E+18,11.63325708,-0.465447766,-0.294196881,0.90056177,0.449657977,0.166152745,0.355667382
1.77E+18,11.64324634,0.200963886,-0.535631602,1.096046421,0.427092999,0.136129066,0.397301376
1.77E+18,11.65323535,0.347325829,-0.643351241,1.218871786,0.328262895,-0.037223987,0.414470673
1.77E+18,11.66322437,0.121766431,-0.675383479,1.394888717,0.232461795,0.007269978,0.484897971
1.77E+18,11.67321338,0.200007024,-0.904386296,1.595369788,0.248307228,0.414124846,0.703565419
1.77E+18,11.68320117,0.233633399,-0.320874022,1.021869351,0.290050685,0.253196687,0.707507968
1.77E+18,11.69319019,0.356059756,0.29973318,0.465237083,0.239378974,0.073244207,0.657959163
1.77E+18,11.7031792,0.450963314,-0.368397844,1.045171608,0.174824208,-0.030522142,0.551638305
1.77E+18,11.71316821,0.646584086,-0.016898966,0.693852106,0.195988089,-0.125232399,0.498006105
1.77E+18,11.72315723,0.191779294,-0.279322407,0.475716172,0.19530952,-0.089057624,0.504173756
1.77E+18,11.73314624,0.085348379,-0.093572894,0.489766982,0.2053321,-0.043590896,0.546587825
1.77E+18,11.74313452,0.180106976,0.14669629,-0.033083756,0.292304844,-0.075915009,0.592685759
1.77E+18,11.75312329,0.291052154,0.157036482,-0.254050347,0.383983314,-0.061165359,0.571962893
1.77E+18,11.76311206,-0.073563249,0.099422205,-0.401454821,0.435526401,-0.121512324,0.511840403
1.77E+18,11.77310132,-0.26264965,-0.26935587,-0.017842458,0.428349704,-0.006903897,0.42699945
1.77E+18,11.78309009,0.207927296,-0.739179367,0.554694724,0.443244219,0.020596437,0.364341408
1.77E+18,11.79307935,0.385216292,-0.354069751,0.766533531,0.443884254,-0.082344241,0.337760001
1.77E+18,11.80306738,0.220123929,-0.440699986,0.799541336,0.418244421,-0.070452958,0.327345699
1.77E+18,11.81305615,0.152797529,-0.319639658,0.817456347,0.388615519,-0.076171473,0.304284811
1.77E+18,11.82304541,0.014877251,-0.304344181,0.676453666,0.36019665,-0.051822722,0.274295747
1.77E+18,11.83303442,-0.060528411,-0.371307886,0.822978033,0.370838732,-0.062630542,0.209207729
1.77E+18,11.84302295,-0.116845926,-0.24263416,0.55072783,0.378809303,-0.01943407,0.142497674
1.77E+18,11.85301123,-0.189974875,-0.218740658,0.130866633,0.417311996,-0.060337383,0.09627334
1.77E+18,11.86300024,-0.123056471,0.247003461,0.093664847,0.407186657,-0.042034011,0.05407875
1.77E+18,11.87298926,-0.155067812,0.123456284,0.247981731,0.381253034,-0.042604905,0.043661516
1.77E+18,11.88297827,-0.282380187,-0.232790811,0.438391162,0.330687851,-0.008973439,0.062072482
1.77E+18,11.89296729,-0.074203885,0.202063664,0.550070864,0.24248822,-0.158141613,0.07991717
1.77E+18,11.9029563,0.735996061,0.32766076,1.022998793,0.187215105,-0.373418242,0.084746279
1.77E+18,11.91294409,1.14717097,0.189604288,1.01798776,0.182413325,-0.628894269,0.0637578
1.77E+18,11.92293311,1.288486151,-0.02591244,0.576201294,0.169623762,-0.935135722,0.044145487
1.77E+18,11.93292236,1.0459423,0.324855931,0.627124841,0.197366595,-1.167090654,0.076243736
1.77E+18,11.94291113,0.573861379,1.353448745,0.73817399,0.195894927,-1.379962444,0.139090866
1.77E+18,11.95290039,0.232220025,1.241001347,0.686331428,0.23531419,-1.442934155,0.211879134
1.77E+18,11.96288916,-0.370920056,1.427229436,1.087421727,0.266157329,-1.370176792,0.296851575
1.77E+18,11.9728772,-0.649540598,0.956131973,0.871102889,0.315499187,-1.209538937,0.397554815
1.77E+18,11.98286646,-1.024277581,0.548661472,1.009808326,0.351847082,-1.061229944,0.427920192
1.77E+18,11.99285522,-0.979278748,0.055248424,0.919019509,0.375786781,-0.832717717,0.345430791
1.77E+18,12.00284399,-0.674076488,-0.024913784,0.784235338,0.404314041,-0.572953522,0.268484056
1.77E+18,12.01283325,-1.001325745,-0.012404431,1.043292809,0.381587803,-0.338481367,0.278754324
1.77E+18,12.02282227,-1.328331255,-0.525774809,0.940392845,0.378934503,-0.091904365,0.300130993
1.77E+18,12.03281006,-1.030432597,-0.582227641,0.75140172,0.444722593,0.094306514,0.274079889
1.77E+18,12.04279932,-0.525831216,-0.793648624,0.624901539,0.486643702,0.255013108,0.19193095
1.77E+18,12.05278833,-0.407340445,-0.685321813,-0.076391896,0.502539754,0.328969181,0.080729671
1.77E+18,12.06277734,-0.219319627,-0.149289229,-0.580216448,0.515394866,0.39736262,-0.035754599
1.77E+18,12.07276611,-0.210059631,0.295031871,-0.563804826,0.493417531,0.327403784,-0.092037752
1.77E+18,12.08275537,-0.364802449,-0.179652803,-0.700997521,0.420150787,0.212281168,-0.069226444
1.77E+18,12.09274316,-0.500365935,-0.869096079,-0.898490662,0.341219485,0.283150464,-0.033649441
1.77E+18,12.10273218,-0.130720137,-1.108679619,-0.757503106,0.293176055,0.391565084,-0.030532211
1.77E+18,12.11272144,0.261540812,-1.308278063,-0.316066329,0.226566955,0.447949797,-0.025223322
1.77E+18,12.12271021,0.454109211,-0.918382381,-0.331177682,0.173341542,0.600850165,-0.096874081
1.77E+18,12.13269922,0.554551699,-0.284899476,-0.096201928,0.163835838,0.709797323,-0.136312351
1.77E+18,12.14268848,-0.213677237,-0.056890054,0.111005237,0.19689472,0.78566277,-0.077194698
1.77E+18,12.15267627,-1.036928973,0.172185828,0.303890738,0.256464481,0.943081915,0.006930932
1.77E+18,12.16266504,-0.906497589,0.105886433,0.695226682,0.31861946,1.117320776,0.060241558
1.77E+18,12.1726543,-0.388798242,0.098891459,1.299061906,0.349835187,1.281457782,0.023745047
1.77E+18,12.18264307,0.117728554,0.4233996,1.414904208,0.383236259,1.389256358,-0.098968357
1.77E+18,12.19263232,0.014437106,0.733000387,1.659233335,0.483618587,1.533260822,-0.232065782
1.77E+18,12.20262036,-0.645807841,0.992903369,1.942945062,0.588510633,1.545638323,-0.334309071
1.77E+18,12.21260938,-1.057486023,0.80196374,1.715506718,0.70767045,1.506911993,-0.430468321
1.77E+18,12.22259814,-0.783509508,0.406471846,1.420134217,0.76292944,1.478517056,-0.554770291
1.77E+18,12.23258716,-0.139034377,-0.138961311,0.943879225,0.788841248,1.422208905,-0.685610652
1.77E+18,12.24257642,0.276356104,-0.641958472,0.693176033,0.803922474,1.32431531,-0.756030262
1.77E+18,12.25256519,0.502161586,-1.39930741,0.518815565,0.810331345,1.133861542,-0.824447155
1.77E+18,12.26255322,0.817479582,-1.915798258,0.339376697,0.843211532,0.885475516,-0.930079818
1.77E+18,12.27254248,0.842692933,-1.849986354,0.324875074,0.887855768,0.837716758,-1.004422665
1.77E+18,12.28253125,0.286250891,-1.775411298,0.437459251,0.920597732,0.798788548,-1.052543283
1.77E+18,12.29252026,0.131637837,-1.60579079,0.301646266,0.906727791,0.706491292,-1.095974922
1.77E+18,12.30250928,0.272304198,-1.395847771,-0.096735715,0.895154536,0.608778536,-1.128023148
1.77E+18,12.31249805,0.043408934,-1.078940899,-0.014134422,0.868672311,0.660923481,-1.060230732
1.77E+18,12.32248633,-0.460273579,-0.701400987,0.030285321,0.839833438,0.74583596,-0.931908965
1.77E+18,12.33247534,-0.1588485,-0.405853714,0.230702314,0.770805597,0.70857048,-0.833848059
1.77E+18,12.34246411,0.301018252,-0.303335297,0.113199989,0.689184785,0.743526876,-0.80136466
1.77E+18,12.35245337,0.497313562,0.186573396,-0.010990856,0.644361138,0.819603443,-0.790794551
1.77E+18,12.36244238,0.456212321,0.425783865,0.048316726,0.581973135,0.741203725,-0.796111584
1.77E+18,12.3724314,0.758714674,0.598314999,-0.668521485,0.43857801,0.567461848,-0.832216024
1.77E+18,12.38241919,0.985409213,0.674199823,-1.524121246,0.304937661,0.291879237,-0.953409255
1.77E+18,12.3924082,1.336110657,0.504650481,-1.664834369,0.26976186,-0.077444553,-1.103489995
1.77E+18,12.40239722,0.693266342,0.59304568,-1.261864394,0.295490652,-0.331685096,-1.195866823
1.77E+18,12.41238623,-0.229473942,0.530479918,-1.009924281,0.283852905,-0.351273984,-1.155814767
1.77E+18,12.42237524,-1.229623628,0.298283347,-0.944333837,0.226966456,-0.052875828,-0.940748572
1.77E+18,12.43236353,-1.629358275,0.268432837,-0.928377924,0.178014725,0.327178895,-0.582777381
1.77E+18,12.44235229,-1.219189328,-0.137682743,-0.828458218,0.111747019,0.506209373,-0.266442001
1.77E+18,12.45234106,-0.091822544,0.20528796,-1.274966745,0.132444665,0.485192865,-0.009910837
1.77E+18,12.46233008,0.716088415,0.645062648,-0.710653822,0.095017664,0.304860115,0.140274405
1.77E+18,12.47231909,1.053397877,-0.232558244,-0.645760641,-0.093620189,0.11137107,0.191686571
1.77E+18,12.48230835,0.631923692,-1.364163324,-0.592038439,-0.298512608,-0.046888072,0.223482847
1.77E+18,12.49229639,0.128473235,-1.722224628,0.33975101,-0.589571536,-0.19558531,0.210044891
1.77E+18,12.50228516,0.205852827,-2.36963026,0.252526718,-0.901293993,-0.678374887,0.084747687
1.77E+18,12.51227441,0.741051007,-2.099948226,-0.075673154,-1.158527613,-1.147295117,-0.171560794
1.77E+18,12.52226343,0.807984608,-0.431032067,-0.330312662,-1.294558644,-1.341576219,-0.266946167
1.77E+18,12.5322522,-0.929356487,0.358306877,-0.812067713,-1.304870725,-1.303798318,-0.25199908
1.77E+18,12.54224121,-1.183573825,0.825219236,-1.232929976,-1.409200668,-1.321889162,-0.272024453
1.77E+18,12.55222925,-0.432296023,0.955930459,-1.341375592,-1.166561127,-1.550823331,-0.410296887
1.77E+18,12.56221924,0.361826064,3.580334521,-2.264300292,-0.670359671,-1.21492064,-0.377013743
1.77E+18,12.57220825,0.011425649,3.146999219,-2.299356846,-0.38395527,-0.468261778,-0.175058097
1.77E+18,12.58219727,-0.182824419,1.720636482,-2.185994963,-0.769904315,-0.548285723,-0.297893733
1.77E+18,12.59218628,-0.745253719,-4.118308303,1.673203115,-0.609966934,-0.345727682,-0.008366237
1.77E+18,12.60217505,-2.24705412,-1.755336186,1.79140294,-0.423439115,-0.451527357,0.124859191
1.77E+18,12.61216333,-1.051674122,-1.298890787,0.963154712,-0.196719393,-0.167513549,0.014546817
1.77E+18,12.6221521,0.226819043,0.237359653,-0.639481414,-0.005089248,0.097830236,-0.253131509
1.77E+18,12.63214136,0.649396805,1.54939305,-1.386587337,0.152550355,0.189034089,-0.307579607
1.77E+18,12.64213013,-0.438530533,2.08427471,-2.14604786,0.305525005,0.366547883,-0.253697455
1.77E+18,12.65211914,-0.686505762,1.492499342,-1.746113015,0.339686036,0.349086612,-0.168298841
1.77E+18,12.66210718,0.371561861,1.669262123,-1.664083259,0.398173064,0.102108248,-0.05601225
