time,seconds_elapsed,z,y,x
1769661438523981800,0.06798193359375,-0.1672515869140625,0.949249267578125,0.2412109375
1769661438533970000,0.077969970703125,-0.1712188720703125,0.9470672607421875,0.2403411865234375
1769661438543956700,0.087956787109375,-0.17791748046875,0.94927978515625,0.2339630126953125
1769661438553944800,0.09794482421875,-0.1921844482421875,0.944549560546875,0.228851318359375
1769661438563932700,0.1079326171875,-0.2002410888671875,0.9414520263671875,0.224334716796875
1769661438573920800,0.117920654296875,-0.2037353515625,0.9410858154296875,0.22454833984375
1769661438583908900,0.127908935546875,-0.2035369873046875,0.932403564453125,0.2381591796875
1769661438593895700,0.137895751953125,-0.18524169921875,0.92974853515625,0.253204345703125
1769661438603883800,0.1478837890625,-0.14349365234375,0.9622344970703125,0.25439453125
1769661438613871900,0.157871826171875,-0.1305389404296875,0.9686737060546875,0.2521209716796875
1769661438623860000,0.16785986328125,-0.1345062255859375,0.964263916015625,0.244659423828125
1769661438633847800,0.177847900390625,-0.1400604248046875,0.956268310546875,0.2465362548828125
1769661438643836000,0.1878359375,-0.1377716064453125,0.95416259765625,0.2488861083984375
1769661438653822700,0.19782275390625,-0.131134033203125,0.9514617919921875,0.258636474609375
1769661438663810800,0.207810791015625,-0.123321533203125,0.947967529296875,0.26422119140625
1769661438673799000,0.217798828125,-0.1200103759765625,0.9454498291015625,0.2666778564453125
1769661438683786800,0.227786865234375,-0.13067626953125,0.944793701171875,0.26416015625
1769661438693774600,0.237774658203125,-0.1470489501953125,0.9449615478515625,0.2642974853515625
1769661438703762700,0.2477626953125,-0.1573486328125,0.9513397216796875,0.2649078369140625
1769661438713749800,0.257749755859375,-0.166656494140625,0.955108642578125,0.260711669921875
1769661438723737600,0.267737548828125,-0.1723785400390625,0.9523773193359375,0.25079345703125
1769661438733725700,0.2777255859375,-0.17718505859375,0.9564056396484375,0.251953125
1769661438743713800,0.2877138671875,-0.1735687255859375,0.96136474609375,0.24664306640625
1769661438753702100,0.2977021484375,-0.175445556640625,0.95721435546875,0.242279052734375
1769661438763689000,0.30768896484375,-0.167755126953125,0.960479736328125,0.244781494140625
1769661438773677000,0.317677001953125,-0.153228759765625,0.958831787109375,0.2444000244140625
1769661438783665200,0.3276650390625,-0.147308349609375,0.955047607421875,0.241729736328125
1769661438793653000,0.337653076171875,-0.1524658203125,0.9537811279296875,0.24322509765625
1769661438803641000,0.34764111328125,-0.1634674072265625,0.9516143798828125,0.246337890625
1769661438813629200,0.357629150390625,-0.16949462890625,0.9513397216796875,0.2523193359375
1769661438823616000,0.367615966796875,-0.169586181640625,0.9505157470703125,0.2594757080078125
1769661438833604000,0.37760400390625,-0.1667022705078125,0.949371337890625,0.26507568359375
1769661438843592200,0.38759228515625,-0.162200927734375,0.949859619140625,0.2695770263671875
1769661438853580000,0.397580078125,-0.159698486328125,0.9477691650390625,0.2698211669921875
1769661438863568100,0.407568115234375,-0.1558837890625,0.9461669921875,0.2672882080078125
1769661438873556200,0.41755615234375,-0.1540985107421875,0.9461822509765625,0.26434326171875
1769661438883543000,0.42754296875,-0.153900146484375,0.9470062255859375,0.2633819580078125
1769661438893531100,0.43753125,-0.1557464599609375,0.9445953369140625,0.259552001953125
1769661438903519200,0.447519287109375,-0.15875244140625,0.9461517333984375,0.2577056884765625
1769661438913507000,0.457507080078125,-0.163238525390625,0.9468231201171875,0.2537078857421875
1769661438923495200,0.4674951171875,-0.16839599609375,0.9476318359375,0.251129150390625
1769661438933483000,0.47748291015625,-0.1728363037109375,0.9446868896484375,0.2465667724609375
1769661438943470000,0.487469970703125,-0.176025390625,0.940399169921875,0.2475738525390625
1769661438953458200,0.497458251953125,-0.177764892578125,0.934417724609375,0.2483673095703125
1769661438963446000,0.507446044921875,-0.1792144775390625,0.9351654052734375,0.25018310546875
1769661438973434000,0.51743408203125,-0.178070068359375,0.9413909912109375,0.252716064453125
1769661438983422000,0.527421875,-0.1737518310546875,0.9485626220703125,0.2512969970703125
1769661438993409300,0.5374091796875,-0.1718902587890625,0.95220947265625,0.2512054443359375
1769661439003396900,0.54739697265625,-0.1712188720703125,0.9503021240234375,0.2568511962890625
1769661439013385000,0.557385009765625,-0.1666259765625,0.9437408447265625,0.259185791015625
1769661439023373000,0.567373046875,-0.162811279296875,0.941375732421875,0.2640228271484375
1769661439033361200,0.577361083984375,-0.161407470703125,0.9391326904296875,0.26800537109375
1769661439043349000,0.587348876953125,-0.161041259765625,0.9371337890625,0.265777587890625
1769661439053336000,0.597336181640625,-0.1595458984375,0.9386138916015625,0.2660064697265625
1769661439063324200,0.60732421875,-0.157135009765625,0.9415130615234375,0.2643280029296875
1769661439073312000,0.61731201171875,-0.158599853515625,0.94635009765625,0.2626190185546875
1769661439083300000,0.627300048828125,-0.1612396240234375,0.949432373046875,0.2648773193359375
1769661439093288200,0.6372880859375,-0.164764404296875,0.946319580078125,0.2668914794921875
1769661439103275000,0.64727490234375,-0.1688232421875,0.938629150390625,0.2698822021484375
1769661439113263000,0.65726318359375,-0.169586181640625,0.929229736328125,0.272613525390625
1769661439123251200,0.667251220703125,-0.1676483154296875,0.927093505859375,0.2745513916015625
1769661439133239000,0.677239013671875,-0.1653289794921875,0.9340362548828125,0.275543212890625
1769661439143227100,0.68722705078125,-0.163818359375,0.945037841796875,0.2714691162109375
1769661439153215200,0.69721533203125,-0.16217041015625,0.95550537109375,0.2653045654296875
1769661439163202000,0.7072021484375,-0.1622467041015625,0.96466064453125,0.2605133056640625
1769661439173190100,0.717190185546875,-0.1578369140625,0.964813232421875,0.26068115234375
1769661439183178200,0.72717822265625,-0.1500396728515625,0.958160400390625,0.2606201171875
1769661439193166000,0.737166015625,-0.1434326171875,0.94866943359375,0.2656707763671875
1769661439203154200,0.747154296875,-0.1438751220703125,0.9390411376953125,0.2710418701171875
1769661439213142300,0.757142333984375,-0.14697265625,0.9381256103515625,0.2792205810546875
1769661439223129000,0.767129150390625,-0.151123046875,0.94091796875,0.2834625244140625
1769661439233117200,0.7771171875,-0.1532135009765625,0.94317626953125,0.2817840576171875
1769661439243105300,0.787105224609375,-0.152740478515625,0.9439849853515625,0.2786407470703125
1769661439253093000,0.797093017578125,-0.152984619140625,0.94451904296875,0.2765655517578125
1769661439263081000,0.8070810546875,-0.1506500244140625,0.9460906982421875,0.2757720947265625
1769661439273068300,0.817068359375,-0.1490020751953125,0.9484710693359375,0.2723846435546875
1769661439283056000,0.82705615234375,-0.147735595703125,0.950531005859375,0.270355224609375
1769661439293044000,0.8370439453125,-0.1475830078125,0.9527740478515625,0.26806640625
1769661439303032000,0.847031982421875,-0.147613525390625,0.952789306640625,0.2661590576171875
1769661439313020000,0.85702001953125,-0.1478271484375,0.948394775390625,0.2677154541015625
1769661439323008000,0.867008056640625,-0.145751953125,0.941162109375,0.26837158203125
1769661439332995000,0.8769951171875,-0.1482086181640625,0.9388275146484375,0.274078369140625
1769661439342983000,0.88698291015625,-0.148040771484375,0.940185546875,0.276885986328125
1769661439352971000,0.896970947265625,-0.1457061767578125,0.94647216796875,0.278900146484375
1769661439362959000,0.906958984375,-0.141815185546875,0.951416015625,0.2781982421875
1769661439372947000,0.916947021484375,-0.1398773193359375,0.9535675048828125,0.276885986328125
1769661439382935000,0.92693505859375,-0.1404876708984375,0.951904296875,0.277984619140625
1769661439392922000,0.936922119140625,-0.141845703125,0.947021484375,0.2789306640625
1769661439402910000,0.946909912109375,-0.1402435302734375,0.94342041015625,0.2798004150390625
1769661439412898000,0.95689794921875,-0.140838623046875,0.944000244140625,0.287139892578125
1769661439422886100,0.96688623046875,-0.1384429931640625,0.944854736328125,0.287261962890625
1769661439432874200,0.976874267578125,-0.1352081298828125,0.9456024169921875,0.2860107421875
1769661439442861000,0.986861083984375,-0.1340484619140625,0.948760986328125,0.28558349609375
1769661439452849200,0.99684912109375,-0.136199951171875,0.9484100341796875,0.2834320068359375
1769661439462837000,1.0068369140625,-0.1379241943359375,0.94561767578125,0.28363037109375
1769661439472825000,1.0168251953125,-0.141143798828125,0.9453582763671875,0.285491943359375
1769661439482813200,1.026813232421875,-0.1414794921875,0.946563720703125,0.2851715087890625
1769661439492801300,1.03680126953125,-0.1427764892578125,0.9487762451171875,0.2881317138671875
1769661439502788000,1.0467880859375,-0.1406402587890625,0.947174072265625,0.2847900390625
1769661439512776200,1.056776123046875,-0.1383056640625,0.9476470947265625,0.2805328369140625
1769661439522764300,1.066764404296875,-0.1370086669921875,0.9439239501953125,0.2770233154296875
1769661439532752100,1.076752197265625,-0.134063720703125,0.9449920654296875,0.27618408203125
1769661439542740200,1.086740234375,-0.129241943359375,0.9481658935546875,0.274322509765625
1769661439552727000,1.09672705078125,-0.129486083984375,0.952423095703125,0.27398681640625
1769661439562715100,1.106715087890625,-0.129638671875,0.9555206298828125,0.2738800048828125
1769661439572703200,1.116703125,-0.1290283203125,0.9551849365234375,0.2760467529296875
1769661439582691000,1.126691162109375,-0.12847900390625,0.9501800537109375,0.276519775390625
1769661439592679000,1.136678955078125,-0.130126953125,0.9455718994140625,0.2781219482421875
1769661439602667000,1.1466669921875,-0.1309356689453125,0.9453125,0.2788543701171875
1769661439612654300,1.156654296875,-0.130584716796875,0.946685791015625,0.280303955078125
1769661439622642000,1.166641845703125,-0.1312408447265625,0.94976806640625,0.279144287109375
1769661439632630000,1.176630126953125,-0.13092041015625,0.951751708984375,0.2779693603515625
1769661439642618000,1.1866181640625,-0.13348388671875,0.9528350830078125,0.27532958984375
1769661439652606000,1.19660595703125,-0.1349029541015625,0.94708251953125,0.2754364013671875
1769661439662593000,1.206593017578125,-0.1346435546875,0.9450225830078125,0.275390625
1769661439672581000,1.2165810546875,-0.13079833984375,0.9463348388671875,0.2748260498046875
1769661439682569000,1.22656884765625,-0.1291351318359375,0.9474334716796875,0.275054931640625
1769661439692557000,1.23655712890625,-0.132720947265625,0.95208740234375,0.2735443115234375
1769661439702545200,1.246545166015625,-0.136505126953125,0.9517059326171875,0.272918701171875
1769661439712533000,1.256532958984375,-0.136383056640625,0.9512786865234375,0.272705078125
1769661439722520000,1.26652001953125,-0.13623046875,0.9493255615234375,0.275146484375
1769661439732508200,1.276508056640625,-0.1352386474609375,0.944732666015625,0.27777099609375
1769661439742496000,1.28649609375,-0.1324310302734375,0.9451751708984375,0.2783203125
1769661439752483800,1.29648388671875,-0.13006591796875,0.9456329345703125,0.2781524658203125
1769661439762471700,1.3064716796875,-0.128997802734375,0.9450225830078125,0.277984619140625
1769661439772459800,1.316459716796875,-0.126495361328125,0.9450531005859375,0.2784576416015625
1769661439782446800,1.32644677734375,-0.1251068115234375,0.9463958740234375,0.277191162109375
1769661439792434700,1.3364345703125,-0.12579345703125,0.9459381103515625,0.2790679931640625
1769661439802422800,1.3464228515625,-0.126800537109375,0.945587158203125,0.27703857421875
1769661439812411000,1.356410888671875,-0.127655029296875,0.9444580078125,0.2803802490234375
1769661439822398700,1.366398681640625,-0.1253509521484375,0.9436492919921875,0.280975341796875
1769661439832385800,1.3763857421875,-0.1205291748046875,0.9445037841796875,0.2807464599609375
1769661439842374000,1.386373779296875,-0.1175994873046875,0.9461822509765625,0.2794342041015625
1769661439852361700,1.39636181640625,-0.118743896484375,0.9472198486328125,0.280548095703125
1769661439862349800,1.406349853515625,-0.1231842041015625,0.9501495361328125,0.2803497314453125
1769661439872338000,1.416337890625,-0.1223602294921875,0.953094482421875,0.27984619140625
1769661439882325800,1.42632568359375,-0.1258697509765625,0.952911376953125,0.2780609130859375
1769661439892312800,1.436312744140625,-0.128509521484375,0.9503173828125,0.2783966064453125
1769661439902301000,1.446301025390625,-0.1268768310546875,0.9451446533203125,0.28106689453125
1769661439912288800,1.456288818359375,-0.124603271484375,0.9408721923828125,0.2808837890625
1769661439922276600,1.466276611328125,-0.1225128173828125,0.936767578125,0.2845306396484375
1769661439932264700,1.4762646484375,-0.1220550537109375,0.939910888671875,0.2840728759765625
1769661439942251800,1.486251708984375,-0.1186065673828125,0.9511871337890625,0.2810211181640625
1769661439952239900,1.496239990234375,-0.11767578125,0.9586639404296875,0.27484130859375
1769661439962227700,1.506227783203125,-0.120635986328125,0.9607086181640625,0.2731170654296875
1769661439972215600,1.516215576171875,-0.1243896484375,0.9573974609375,0.2716827392578125
1769661439982203600,1.52620361328125,-0.1237030029296875,0.951507568359375,0.27374267578125
1769661439992191700,1.536191650390625,-0.11859130859375,0.94696044921875,0.2745819091796875
1769661440002178600,1.546178466796875,-0.1153106689453125,0.944610595703125,0.2796630859375
1769661440012166700,1.556166748046875,-0.1154632568359375,0.9400482177734375,0.2859954833984375
1769661440022154800,1.56615478515625,-0.11737060546875,0.9389495849609375,0.2832183837890625
1769661440032142800,1.576142822265625,-0.1195220947265625,0.9413604736328125,0.2841796875
1769661440042130700,1.586130615234375,-0.1196136474609375,0.9457244873046875,0.279266357421875
1769661440052118800,1.596118896484375,-0.1191253662109375,0.9478912353515625,0.2755126953125
1769661440062105600,1.606105712890625,-0.1202239990234375,0.9464569091796875,0.27801513671875
1769661440072093700,1.61609375,-0.1212310791015625,0.9466094970703125,0.277496337890625
1769661440082081800,1.626081787109375,-0.1199951171875,0.94879150390625,0.2769927978515625
1769661440092070000,1.63606982421875,-0.121856689453125,0.9473114013671875,0.2774810791015625
1769661440102057700,1.6460576171875,-0.120697021484375,0.94677734375,0.2774505615234375
1769661440112044800,1.656044921875,-0.1190032958984375,0.949981689453125,0.280487060546875
1769661440122033000,1.666032958984375,-0.118499755859375,0.9486236572265625,0.279327392578125
1769661440132020700,1.676020751953125,-0.121826171875,0.948211669921875,0.280364990234375
1769661440142008800,1.6860087890625,-0.1201019287109375,0.9481353759765625,0.282135009765625
1769661440151997000,1.695996826171875,-0.1173858642578125,0.94720458984375,0.282745361328125
1769661440161984800,1.70598486328125,-0.116607666015625,0.946746826171875,0.2824859619140625
1769661440171971800,1.715971923828125,-0.11590576171875,0.9453277587890625,0.2823486328125
1769661440181960000,1.7259599609375,-0.11517333984375,0.9475555419921875,0.2825927734375
1769661440191947800,1.73594775390625,-0.1166229248046875,0.94775390625,0.2822723388671875
1769661440201936000,1.745935791015625,-0.1193389892578125,0.9462738037109375,0.2808685302734375
1769661440211923700,1.755923828125,-0.1200408935546875,0.947540283203125,0.2799224853515625
1769661440221910800,1.765910888671875,-0.1170806884765625,0.9503173828125,0.285552978515625
1769661440231899000,1.77589892578125,-0.114898681640625,0.948486328125,0.2842559814453125
1769661440241887000,1.785886962890625,-0.114898681640625,0.946624755859375,0.2856597900390625
1769661440251874600,1.79587451171875,-0.1171875,0.9479827880859375,0.2873077392578125
1769661440261862700,1.805862548828125,-0.11663818359375,0.94989013671875,0.2860260009765625
1769661440271850800,1.815850830078125,-0.11376953125,0.9553985595703125,0.28558349609375
1769661440281837800,1.825837890625,-0.1124267578125,0.9565887451171875,0.2852020263671875
1769661440291825700,1.83582568359375,-0.10919189453125,0.9513092041015625,0.2823638916015625
1769661440301813800,1.845813720703125,-0.1080780029296875,0.9451141357421875,0.28369140625
1769661440311801600,1.855801513671875,-0.107421875,0.942413330078125,0.2823944091796875
1769661440321789700,1.865789794921875,-0.1086273193359375,0.9439849853515625,0.2838592529296875
1769661440331776800,1.87577685546875,-0.108795166015625,0.94500732421875,0.28582763671875
1769661440341764600,1.8857646484375,-0.1082916259765625,0.9482574462890625,0.2869110107421875
1769661440351752700,1.895752685546875,-0.1091766357421875,0.952880859375,0.2857666015625
1769661440361740800,1.90574072265625,-0.113616943359375,0.955230712890625,0.285675048828125
1769661440371728600,1.915728759765625,-0.11572265625,0.9561614990234375,0.285980224609375
1769661440381716700,1.925716796875,-0.1154632568359375,0.9521942138671875,0.285614013671875
1769661440391703800,1.935703857421875,-0.117523193359375,0.9412994384765625,0.2865753173828125
1769661440401691600,1.945691650390625,-0.1165924072265625,0.9335479736328125,0.28887939453125
1769661440411679700,1.9556796875,-0.11700439453125,0.927764892578125,0.2903289794921875
1769661440421667800,1.965667724609375,-0.118438720703125,0.9276885986328125,0.2903289794921875
1769661440431655700,1.97565576171875,-0.116363525390625,0.9349822998046875,0.2913665771484375
1769661440441642800,1.985642822265625,-0.107696533203125,0.9402618408203125,0.285003662109375
1769661440451630800,1.995630859375,-0.1051025390625,0.9442596435546875,0.2834625244140625
1769661440461618700,2.00561865234375,-0.1029815673828125,0.944610595703125,0.281829833984375
1769661440471606800,2.015606689453125,-0.108489990234375,0.9479217529296875,0.2830352783203125
1769661440481595000,2.025594970703125,-0.11126708984375,0.9476776123046875,0.2864837646484375
1769661440491583000,2.0355830078125,-0.108795166015625,0.9412689208984375,0.2880401611328125
1769661440501569800,2.04556982421875,-0.1060333251953125,0.9323883056640625,0.287872314453125
1769661440511558000,2.055557861328125,-0.1055755615234375,0.928863525390625,0.287506103515625
1769661440521545700,2.065545654296875,-0.1055450439453125,0.9320068359375,0.2854461669921875
1769661440531533800,2.075533935546875,-0.103118896484375,0.9412384033203125,0.279876708984375
1769661440541521700,2.085521728515625,-0.1026458740234375,0.9493255615234375,0.277923583984375
1769661440551508700,2.0955087890625,-0.1013336181640625,0.95965576171875,0.2731781005859375
1769661440561496800,2.105496826171875,-0.1051025390625,0.966644287109375,0.274017333984375
1769661440571485000,2.11548486328125,-0.1092681884765625,0.9661102294921875,0.273651123046875
1769661440581472800,2.12547265625,-0.1074371337890625,0.9622955322265625,0.2758026123046875
1769661440591460600,2.135460693359375,-0.105438232421875,0.955780029296875,0.2774810791015625
1769661440601448700,2.14544873046875,-0.100250244140625,0.9535064697265625,0.2814178466796875
1769661440611435800,2.155435791015625,-0.0926971435546875,0.955718994140625,0.285491943359375
1769661440621423600,2.165423583984375,-0.0861358642578125,0.9538116455078125,0.288360595703125
1769661440631411700,2.17541162109375,-0.0809173583984375,0.95391845703125,0.29071044921875
1769661440641399800,2.18539990234375,-0.0753021240234375,0.9579620361328125,0.29376220703125
1769661440651387600,2.1953876953125,-0.073577880859375,0.96099853515625,0.298919677734375
1769661440661374700,2.205374755859375,-0.0711517333984375,0.963714599609375,0.3022918701171875
1769661440671362800,2.21536279296875,-0.0756683349609375,0.96112060546875,0.3034210205078125
1769661440681350700,2.2253505859375,-0.0759735107421875,0.9515380859375,0.3043670654296875
1769661440691338800,2.2353388671875,-0.0796356201171875,0.93719482421875,0.3014373779296875
1769661440701326800,2.245326904296875,-0.07928466796875,0.9293975830078125,0.302764892578125
1769661440711314700,2.255314697265625,-0.0734710693359375,0.9240570068359375,0.30078125
1769661440721301800,2.2653017578125,-0.0700225830078125,0.928070068359375,0.2990264892578125
1769661440731289900,2.275289794921875,-0.0688934326171875,0.9358367919921875,0.297210693359375
1769661440741277700,2.285277587890625,-0.07330322265625,0.94775390625,0.295623779296875
1769661440751265800,2.295265869140625,-0.0758209228515625,0.9549560546875,0.2946319580078125
1769661440761254000,2.30525390625,-0.068572998046875,0.959197998046875,0.2901763916015625
1769661440771241700,2.31524169921875,-0.0546875,0.9641876220703125,0.287689208984375
1769661440781228800,2.325228759765625,-0.0483551025390625,0.9628448486328125,0.2891998291015625
1769661440791217000,2.335216796875,-0.04669189453125,0.959808349609375,0.2928009033203125
1769661440801204700,2.345204833984375,-0.0507659912109375,0.9524993896484375,0.2955322265625
1769661440811192800,2.35519287109375,-0.0520477294921875,0.947540283203125,0.2949981689453125
1769661440821181000,2.365180908203125,-0.0565185546875,0.94482421875,0.296234130859375
1769661440831167700,2.375167724609375,-0.0594482421875,0.9405975341796875,0.286773681640625
1769661440841155800,2.38515576171875,-0.0529327392578125,0.942779541015625,0.2794647216796875
1769661440851144000,2.39514404296875,-0.0431671142578125,0.9474639892578125,0.2773284912109375
1769661440861131800,2.4051318359375,-0.0369415283203125,0.95257568359375,0.2749481201171875
1769661440871119600,2.41511962890625,-0.0327301025390625,0.957275390625,0.2739105224609375
1769661440881107700,2.425107666015625,-0.033935546875,0.962615966796875,0.2770233154296875
1769661440891094800,2.4350947265625,-0.0319061279296875,0.9678497314453125,0.2870635986328125
1769661440901083000,2.445082763671875,-0.032318115234375,0.965484619140625,0.2889862060546875
1769661440911070700,2.45507080078125,-0.033660888671875,0.96099853515625,0.289642333984375
1769661440921058600,2.46505859375,-0.0313568115234375,0.95562744140625,0.290740966796875
1769661440931046700,2.475046630859375,-0.02490234375,0.947265625,0.29229736328125
1769661440941033700,2.48503369140625,-0.0189208984375,0.9422149658203125,0.294708251953125
1769661440951021600,2.495021484375,-0.0177459716796875,0.941802978515625,0.3030853271484375
1769661440961009700,2.505009765625,-0.019775390625,0.9442596435546875,0.3078155517578125
1769661440970997800,2.514997802734375,-0.01727294921875,0.94537353515625,0.3054351806640625
1769661440980985900,2.52498583984375,-0.01702880859375,0.9419097900390625,0.3061981201171875
1769661440990973700,2.5349736328125,-0.0121612548828125,0.9445648193359375,0.309722900390625
1769661441000960800,2.544960693359375,-0.0049285888671875,0.9440765380859375,0.3099365234375
1769661441010948600,2.554948486328125,-0.000579833984375,0.9381561279296875,0.309844970703125
1769661441020936700,2.564936767578125,0.002197265625,0.93988037109375,0.312896728515625
1769661441030924800,2.5749248046875,0.0040435791015625,0.9510498046875,0.324066162109375
1769661441040913000,2.584912841796875,0.0106201171875,0.9556121826171875,0.3167877197265625
1769661441050900700,2.594900634765625,0.0116424560546875,0.9566802978515625,0.3070068359375
1769661441060887800,2.6048876953125,0.0033721923828125,0.9567108154296875,0.3038330078125
1769661441070875600,2.614875732421875,-0.0030670166015625,0.958770751953125,0.30078125
1769661441080863700,2.62486376953125,-0.01055908203125,0.9556121826171875,0.30072021484375
1769661441090851800,2.634851806640625,-0.0156402587890625,0.9515228271484375,0.304168701171875
1769661441100840000,2.64483984375,-0.0109710693359375,0.9503631591796875,0.30267333984375
1769661441110826800,2.65482666015625,0.005645751953125,0.950775146484375,0.2974853515625
1769661441120814800,2.66481494140625,0.0236053466796875,0.9533233642578125,0.3097381591796875
1769661441130803000,2.674802978515625,0.0284423828125,0.952423095703125,0.315521240234375
1769661441140790800,2.684790771484375,0.03173828125,0.9539337158203125,0.3135833740234375
1769661441150779000,2.69477880859375,0.035430908203125,0.9525299072265625,0.31536865234375
1769661441160766700,2.7047666015625,0.0310516357421875,0.9545440673828125,0.3191070556640625
1769661441170753800,2.71475390625,0.0285797119140625,0.955352783203125,0.3142547607421875
1769661441180742000,2.724741943359375,0.0370025634765625,0.9611968994140625,0.3152618408203125
1769661441190730000,2.73472998046875,0.0347137451171875,0.958953857421875,0.309783935546875
1769661441200717600,2.744717529296875,0.0329132080078125,0.9582672119140625,0.3093719482421875
1769661441210705700,2.75470556640625,0.0348052978515625,0.9572296142578125,0.305908203125
1769661441220693000,2.76469287109375,0.0308074951171875,0.95220947265625,0.300750732421875
1769661441230680800,2.774680908203125,0.0238189697265625,0.94903564453125,0.2996368408203125
1769661441240668700,2.784668701171875,0.015167236328125,0.941741943359375,0.2979278564453125
1769661441250656800,2.79465673828125,0.013092041015625,0.941253662109375,0.29425048828125
1769661441260644600,2.80464453125,0.0074310302734375,0.939300537109375,0.2920989990234375
1769661441270632700,2.8146328125,0.00604248046875,0.9416046142578125,0.2894134521484375
1769661441280619800,2.824619873046875,0.0051116943359375,0.946533203125,0.2877655029296875
1769661441290607600,2.834607666015625,0.00250244140625,0.9510650634765625,0.2891387939453125
1769661441300595700,2.844595703125,0.000946044921875,0.9505615234375,0.28857421875
1769661441310583800,2.854583740234375,0.003173828125,0.9495849609375,0.289794921875
1769661441320571600,2.864571533203125,0.0062713623046875,0.9527587890625,0.29388427734375
1769661441330558700,2.874558837890625,0.0100860595703125,0.95208740234375,0.29681396484375
1769661441340546800,2.884546875,0.0178375244140625,0.952972412109375,0.29754638671875
1769661441350534700,2.89453466796875,0.020233154296875,0.9519500732421875,0.2972412109375
1769661441360522800,2.904522705078125,0.023834228515625,0.951385498046875,0.298797607421875
1769661441370510800,2.9145107421875,0.025299072265625,0.951446533203125,0.298309326171875
1769661441380498700,2.924498779296875,0.028411865234375,0.9508514404296875,0.2982025146484375
1769661441390485800,2.93448583984375,0.0270843505859375,0.9462432861328125,0.296600341796875
1769661441400473900,2.944473876953125,0.0260009765625,0.9450836181640625,0.2939453125
1769661441410461700,2.954461669921875,0.031402587890625,0.945159912109375,0.2957916259765625
1769661441420449800,2.96444970703125,0.03131103515625,0.94580078125,0.2961273193359375
1769661441430438000,2.97443798828125,0.02630615234375,0.94586181640625,0.28509521484375
1769661441440424700,2.9844248046875,0.02166748046875,0.953643798828125,0.2872161865234375
1769661441450412800,2.994412841796875,0.01336669921875,0.9570770263671875,0.2901611328125
1769661441460401000,3.00440087890625,0.008270263671875,0.9498138427734375,0.28497314453125
1769661441470388700,3.014388671875,0.0141754150390625,0.949676513671875,0.291259765625
1769661441480376800,3.024376953125,0.0175933837890625,0.955078125,0.298309326171875
1769661441490364700,3.03436474609375,0.0161285400390625,0.9592742919921875,0.295989990234375
1769661441500351700,3.044351806640625,0.012939453125,0.95928955078125,0.292572021484375
1769661441510339800,3.05433984375,0.011810302734375,0.9644317626953125,0.2977752685546875
1769661441520327700,3.06432763671875,0.012420654296875,0.962127685546875,0.301116943359375
1769661441530315800,3.074315673828125,0.0183563232421875,0.95855712890625,0.2976226806640625
1769661441540303600,3.0843037109375,0.0227203369140625,0.9497222900390625,0.2990570068359375
1769661441550291700,3.094291748046875,0.0305633544921875,0.9421234130859375,0.299041748046875
1769661441560278500,3.104278564453125,0.0319976806640625,0.939117431640625,0.3026580810546875
1769661441570266600,3.1142666015625,0.027008056640625,0.936676025390625,0.300872802734375
1769661441580254700,3.124254638671875,0.0203704833984375,0.940521240234375,0.2992401123046875
1769661441590242800,3.134242919921875,0.0187530517578125,0.9441070556640625,0.2972259521484375
1769661441600230700,3.144230712890625,0.01861572265625,0.947296142578125,0.29742431640625
1769661441610217700,3.1542177734375,0.0184173583984375,0.9493408203125,0.295013427734375
1769661441620205800,3.164205810546875,0.018768310546875,0.9503936767578125,0.293060302734375
1769661441630193700,3.174193603515625,0.016937255859375,0.951171875,0.291107177734375
1769661441640181800,3.184181640625,0.01495361328125,0.950439453125,0.2914581298828125
1769661441650169900,3.194169921875,0.0170440673828125,0.9521331787109375,0.2925567626953125
1769661441660157700,3.20415771484375,0.0209197998046875,0.9537353515625,0.292816162109375
1769661441670144800,3.214144775390625,0.0234222412109375,0.9508209228515625,0.2938690185546875
1769661441680132900,3.2241328125,0.02294921875,0.9487457275390625,0.299285888671875
1769661441690120700,3.23412060546875,0.0177001953125,0.9473114013671875,0.29998779296875
1769661441700108800,3.24410888671875,0.0182647705078125,0.9506072998046875,0.3060455322265625
1769661441710097000,3.254096923828125,0.0244903564453125,0.952392578125,0.3040008544921875
1769661441720084700,3.264084716796875,0.0252685546875,0.94976806640625,0.2996978759765625
1769661441730071800,3.27407177734375,0.0243377685546875,0.95050048828125,0.300872802734375
1769661441740060000,3.284059814453125,0.02130126953125,0.9539337158203125,0.307220458984375
1769661441750047700,3.2940478515625,0.020263671875,0.9539031982421875,0.306640625
1769661441760035800,3.304035888671875,0.0271453857421875,0.95343017578125,0.3088226318359375
1769661441770024000,3.31402392578125,0.0342864990234375,0.9546051025390625,0.3070220947265625
1769661441780011000,3.324010986328125,0.03887939453125,0.950653076171875,0.307037353515625
1769661441789998800,3.333998779296875,0.035491943359375,0.9470062255859375,0.3102874755859375
1769661441799987000,3.343987060546875,0.0329742431640625,0.944427490234375,0.3076934814453125
1769661441809974800,3.353974853515625,0.033660888671875,0.944366455078125,0.3079071044921875
1769661441819962600,3.363962646484375,0.03155517578125,0.9437408447265625,0.3035736083984375
1769661441829950700,3.37395068359375,0.0294952392578125,0.94293212890625,0.3059539794921875
1769661441839938000,3.38393798828125,0.022857666015625,0.9416656494140625,0.304718017578125
1769661441849925600,3.393925537109375,0.024444580078125,0.9412841796875,0.3032073974609375
1769661441859913700,3.403913818359375,0.02655029296875,0.941558837890625,0.3004913330078125
1769661441869901800,3.41390185546875,0.0201263427734375,0.939483642578125,0.29803466796875
1769661441879890000,3.423889892578125,0.0220794677734375,0.9445953369140625,0.3048553466796875
1769661441889876700,3.433876708984375,0.023040771484375,0.9459228515625,0.3011932373046875
1769661441899864800,3.44386474609375,0.019561767578125,0.9483489990234375,0.3018035888671875
1769661441909852700,3.453852783203125,0.0169525146484375,0.9501495361328125,0.3017578125
1769661441919840800,3.4638408203125,0.019805908203125,0.9493560791015625,0.3018951416015625
1769661441929828900,3.473828857421875,0.0279388427734375,0.9478302001953125,0.301483154296875
1769661441939817000,3.48381689453125,0.0333099365234375,0.9417877197265625,0.301971435546875
1769661441949803800,3.4938037109375,0.03912353515625,0.939849853515625,0.3037567138671875
1769661441959791900,3.5037919921875,0.044036865234375,0.9384002685546875,0.302520751953125
1769661441969779700,3.51377978515625,0.0430755615234375,0.9430389404296875,0.3006744384765625
1769661441979767800,3.523767822265625,0.0399932861328125,0.9485321044921875,0.301177978515625
1769661441989756000,3.533755859375,0.0359954833984375,0.9551239013671875,0.3018341064453125
1769661441999744000,3.543743896484375,0.0338897705078125,0.9555816650390625,0.298828125
1769661442009730800,3.553730712890625,0.0384979248046875,0.955413818359375,0.29632568359375
1769661442019719000,3.563718994140625,0.044281005859375,0.9556732177734375,0.298370361328125
1769661442029707000,3.57370703125,0.0455474853515625,0.95611572265625,0.299346923828125
1769661442039694800,3.58369482421875,0.0443115234375,0.957366943359375,0.3006591796875
1769661442049683000,3.593682861328125,0.0444793701171875,0.956268310546875,0.2997283935546875
1769661442059669800,3.603669677734375,0.042022705078125,0.95477294921875,0.3008270263671875
1769661442069657900,3.613657958984375,0.042266845703125,0.9549713134765625,0.303009033203125
1769661442079646000,3.62364599609375,0.0400543212890625,0.9499969482421875,0.3043975830078125
1769661442089634000,3.633634033203125,0.0381622314453125,0.944427490234375,0.3038482666015625
1769661442099622000,3.643621826171875,0.0409698486328125,0.942413330078125,0.3031005859375
1769661442109609700,3.653609619140625,0.0403900146484375,0.941864013671875,0.3051910400390625
1769661442119597000,3.66359716796875,0.0391845703125,0.9444427490234375,0.3105621337890625
1769661442129585000,3.6735849609375,0.0379638671875,0.9466552734375,0.3107452392578125
1769661442139572700,3.68357275390625,0.040374755859375,0.945068359375,0.312408447265625
1769661442149560800,3.693560791015625,0.04449462890625,0.948150634765625,0.312774658203125
1769661442159548700,3.703548583984375,0.0455322265625,0.9464874267578125,0.3140869140625
1769661442169536800,3.713536865234375,0.0523223876953125,0.948028564453125,0.3169097900390625
1769661442179523800,3.72352392578125,0.0592803955078125,0.9529266357421875,0.31744384765625
1769661442189511700,3.73351171875,0.0598602294921875,0.9484710693359375,0.3124847412109375
1769661442199499800,3.743499755859375,0.052398681640625,0.9393157958984375,0.3095245361328125
1769661442209488000,3.75348779296875,0.046875,0.929473876953125,0.3075714111328125
1769661442219475700,3.763475830078125,0.0511627197265625,0.9255828857421875,0.3064117431640625
1769661442229462800,3.773462890625,0.0572967529296875,0.9276885986328125,0.3059844970703125
1769661442239451000,3.783450927734375,0.0543060302734375,0.9357757568359375,0.31170654296875
1769661442249438700,3.793438720703125,0.0548095703125,0.9527740478515625,0.3203582763671875
1769661442259426800,3.8034267578125,0.06304931640625,0.974273681640625,0.320953369140625
1769661442269415000,3.813414794921875,0.0633087158203125,0.9819793701171875,0.3141632080078125
1769661442279402800,3.82340283203125,0.057647705078125,0.974212646484375,0.3124542236328125
1769661442289389800,3.833389892578125,0.0670928955078125,0.96148681640625,0.30718994140625
1769661442299378000,3.8433779296875,0.0782470703125,0.9510955810546875,0.307525634765625
1769661442309365800,3.85336572265625,0.07647705078125,0.944366455078125,0.305694580078125
1769661442319353900,3.863353759765625,0.0643310546875,0.935028076171875,0.310760498046875
1769661442329342000,3.873342041015625,0.0575103759765625,0.9281005859375,0.3132781982421875
1769661442339330000,3.883330078125,0.059356689453125,0.9294281005859375,0.309478759765625
1769661442349316900,3.89331689453125,0.0554046630859375,0.9339141845703125,0.308380126953125
1769661442359305000,3.903304931640625,0.0503997802734375,0.941680908203125,0.3088836669921875
1769661442369292800,3.913292724609375,0.0503082275390625,0.9496917724609375,0.3070220947265625
1769661442379281000,3.923281005859375,0.0507659912109375,0.9554443359375,0.30609130859375
1769661442389269000,3.93326904296875,0.0496368408203125,0.9564971923828125,0.3076324462890625
1769661442399255800,3.943255859375,0.0522003173828125,0.9549102783203125,0.309722900390625
1769661442409244000,3.953243896484375,0.056854248046875,0.951416015625,0.3145599365234375
1769661442419232000,3.96323193359375,0.0588836669921875,0.9455718994140625,0.318145751953125
1769661442429219800,3.9732197265625,0.0595855712890625,0.943145751953125,0.3191986083984375
1769661442439207700,3.983207763671875,0.061798095703125,0.9413299560546875,0.318878173828125
1769661442449195800,3.99319580078125,0.068756103515625,0.944061279296875,0.3169097900390625
1769661442459182800,4.003182861328125,0.071868896484375,0.945526123046875,0.3141326904296875
1769661442469170700,4.013170654296875,0.06866455078125,0.9436798095703125,0.3125152587890625
1769661442479158800,4.02315869140625,0.0653533935546875,0.9430084228515625,0.312652587890625
1769661442489147000,4.03314697265625,0.0637969970703125,0.9433746337890625,0.3110809326171875
1769661442499134700,4.043134765625,0.0643463134765625,0.940216064453125,0.3090972900390625
1769661442509122800,4.053122802734375,0.0609588623046875,0.942169189453125,0.309906005859375
1769661442519110000,4.06310986328125,0.05621337890625,0.944000244140625,0.3082275390625
1769661442529097700,4.07309765625,0.053253173828125,0.9485931396484375,0.30816650390625
1769661442539085800,4.0830859375,0.0526580810546875,0.9505157470703125,0.307708740234375
1769661442549074000,4.093073974609375,0.0536041259765625,0.9534759521484375,0.305511474609375
1769661442559061800,4.103061767578125,0.055389404296875,0.9547882080078125,0.304107666015625
1769661442569048800,4.113048828125,0.0560760498046875,0.9529571533203125,0.3000335693359375
1769661442579037000,4.123036865234375,0.0574798583984375,0.9508819580078125,0.303314208984375
1769661442589024800,4.133024658203125,0.0597686767578125,0.945465087890625,0.30126953125
1769661442599012900,4.143012939453125,0.063323974609375,0.943328857421875,0.3028564453125
1769661442609001000,4.1530009765625,0.0659942626953125,0.9411163330078125,0.3055267333984375
1769661442618988800,4.16298876953125,0.06488037109375,0.9425048828125,0.30621337890625
1769661442628975900,4.172975830078125,0.06475830078125,0.9449920654296875,0.3072662353515625
1769661442638964000,4.1829638671875,0.0618743896484375,0.9456329345703125,0.3076171875
1769661442648951800,4.192951904296875,0.06146240234375,0.94403076171875,0.3068084716796875
1769661442658940000,4.20293994140625,0.059783935546875,0.9446868896484375,0.3060455322265625
1769661442668928000,4.212927978515625,0.058990478515625,0.946441650390625,0.306121826171875
1769661442678915800,4.222915771484375,0.0587921142578125,0.9456024169921875,0.3058013916015625
1769661442688903000,4.23290283203125,0.05731201171875,0.9465179443359375,0.3052825927734375
1769661442698891000,4.24289111328125,0.0561065673828125,0.9475250244140625,0.308868408203125
1769661442708878800,4.25287890625,0.052032470703125,0.9482421875,0.3111572265625
1769661442718867000,4.262866943359375,0.0513916015625,0.9441070556640625,0.3099212646484375
1769661442728854800,4.272854736328125,0.0540924072265625,0.9416961669921875,0.3122100830078125
1769661442738841900,4.282841796875,0.0566558837890625,0.9388885498046875,0.3128509521484375
1769661442748830000,4.292829833984375,0.057830810546875,0.9363861083984375,0.3119659423828125
1769661442758818000,4.302818115234375,0.0584259033203125,0.9380950927734375,0.3101806640625
1769661442768806000,4.312805908203125,0.058380126953125,0.9393768310546875,0.3087921142578125
1769661442778794000,4.3227939453125,0.0589599609375,0.9386749267578125,0.3083953857421875
1769661442788782000,4.332781982421875,0.0590057373046875,0.9398345947265625,0.3084564208984375
1769661442798769000,4.342768798828125,0.057708740234375,0.9430694580078125,0.309356689453125
1769661442808757000,4.352757080078125,0.05645751953125,0.9459686279296875,0.3107452392578125
1769661442818745000,4.3627451171875,0.054931640625,0.944549560546875,0.309661865234375
1769661442828733200,4.372733154296875,0.055633544921875,0.9436187744140625,0.30853271484375
1769661442838721000,4.382720947265625,0.058258056640625,0.9411163330078125,0.3069305419921875
1769661442848709000,4.392709228515625,0.058319091796875,0.94024658203125,0.308441162109375
1769661442858696000,4.402696044921875,0.0588226318359375,0.94305419921875,0.3084869384765625
1769661442868684000,4.41268408203125,0.05950927734375,0.9456329345703125,0.3102874755859375
1769661442878672100,4.422672119140625,0.0580291748046875,0.9482421875,0.3118743896484375
1769661442888660200,4.43266015625,0.057159423828125,0.9488372802734375,0.311065673828125
1769661442898648000,4.44264794921875,0.0564117431640625,0.94580078125,0.3116607666015625
1769661442908635100,4.45263525390625,0.06011962890625,0.9412384033203125,0.30987548828125
1769661442918623200,4.462623291015625,0.0667266845703125,0.9381561279296875,0.3102874755859375
1769661442928611000,4.472611083984375,0.0688018798828125,0.93841552734375,0.3104400634765625
1769661442938599200,4.48259912109375,0.0614166259765625,0.93914794921875,0.308929443359375
1769661442948587300,4.492587158203125,0.0546112060546875,0.9406890869140625,0.3099365234375
1769661442958575000,4.5025751953125,0.0543975830078125,0.9423675537109375,0.3090667724609375
1769661442968562200,4.512562255859375,0.05572509765625,0.9400787353515625,0.3048095703125
1769661442978550300,4.52255029296875,0.056976318359375,0.9391326904296875,0.308563232421875
1769661442988538000,4.5325380859375,0.0597381591796875,0.9444732666015625,0.3128509521484375
1769661442998526200,4.542526123046875,0.06085205078125,0.9512176513671875,0.313507080078125
1769661443008514000,4.55251416015625,0.057525634765625,0.9575958251953125,0.3152923583984375
1769661443018502000,4.562501953125,0.0518798828125,0.9594268798828125,0.318756103515625
1769661443028489200,4.5724892578125,0.053253173828125,0.958953857421875,0.3233642578125
1769661443038477000,4.58247705078125,0.060150146484375,0.954254150390625,0.32366943359375
1769661443048465000,4.59246484375,0.06976318359375,0.943695068359375,0.32000732421875
1769661443058453000,4.602452880859375,0.0745391845703125,0.9352264404296875,0.3177490234375
1769661443068441000,4.612441162109375,0.0727691650390625,0.9309234619140625,0.3134918212890625
1769661443078429000,4.622428955078125,0.06329345703125,0.9318389892578125,0.309356689453125
1769661443088416000,4.632416015625,0.057891845703125,0.93609619140625,0.307220458984375
1769661443098404000,4.642404052734375,0.0518646240234375,0.942474365234375,0.304290771484375
1769661443108392000,4.652391845703125,0.050201416015625,0.9474334716796875,0.305084228515625
1769661443118380000,4.662380126953125,0.0488128662109375,0.95184326171875,0.306610107421875
1769661443128368000,4.6723681640625,0.047119140625,0.9554443359375,0.30523681640625
1769661443138355000,4.68235498046875,0.049163818359375,0.9540557861328125,0.3061676025390625
1769661443148343000,4.692343017578125,0.0524444580078125,0.9521331787109375,0.309722900390625
1769661443158331100,4.7023310546875,0.05963134765625,0.950531005859375,0.3128509521484375
1769661443168319000,4.712319091796875,0.066070556640625,0.946197509765625,0.313690185546875
1769661443178307000,4.72230712890625,0.0713653564453125,0.9421844482421875,0.315704345703125
1769661443188295200,4.732295166015625,0.0719451904296875,0.9377899169921875,0.3141021728515625
1769661443198282000,4.742281982421875,0.0714569091796875,0.9351806640625,0.3111572265625
1769661443208270000,4.75227001953125,0.0744476318359375,0.9365386962890625,0.3094940185546875
1769661443218258200,4.762258056640625,0.0721588134765625,0.937896728515625,0.311859130859375
1769661443228246300,4.772246337890625,0.0640411376953125,0.9398193359375,0.3124542236328125
1769661443238234000,4.782234130859375,0.056976318359375,0.94232177734375,0.3130645751953125
1769661443248222200,4.79222216796875,0.053741455078125,0.9449920654296875,0.31243896484375
1769661443258209000,4.802208984375,0.0503082275390625,0.9472198486328125,0.3104248046875
1769661443268197000,4.812197021484375,0.05169677734375,0.9492645263671875,0.31134033203125
1769661443278185200,4.822185302734375,0.0579376220703125,0.9505767822265625,0.3105010986328125
1769661443288173300,4.83217333984375,0.0614166259765625,0.9482269287109375,0.3118743896484375
1769661443298161200,4.8421611328125,0.06201171875,0.9472808837890625,0.3115234375
1769661443308148200,4.852148193359375,0.0612030029296875,0.9432830810546875,0.31011962890625
1769661443318136300,4.86213623046875,0.0626373291015625,0.9412841796875,0.3100433349609375
1769661443328124200,4.872124267578125,0.0633697509765625,0.941192626953125,0.3087005615234375
1769661443338112000,4.882112060546875,0.0637969970703125,0.940277099609375,0.306854248046875
1769661443348100000,4.89210009765625,0.06207275390625,0.938720703125,0.3043670654296875
1769661443358088000,4.902087890625,0.0583038330078125,0.940765380859375,0.30401611328125
1769661443368075000,4.912074951171875,0.055694580078125,0.94384765625,0.3029937744140625
1769661443378063000,4.92206298828125,0.056671142578125,0.9457855224609375,0.302032470703125
1769661443388051000,4.932051025390625,0.058441162109375,0.9475860595703125,0.300689697265625
1769661443398039000,4.9420390625,0.05731201171875,0.9479217529296875,0.3024749755859375
1769661443408027100,4.952027099609375,0.056549072265625,0.9477691650390625,0.3043975830078125
1769661443418015000,4.962014892578125,0.0605316162109375,0.94842529296875,0.3070220947265625
1769661443428002000,4.972001953125,0.06231689453125,0.9472198486328125,0.3073883056640625
1769661443437990100,4.981990234375,0.06219482421875,0.9475860595703125,0.3091278076171875
1769661443447978000,4.99197802734375,0.0609588623046875,0.9463348388671875,0.3108062744140625
1769661443457966000,5.001966064453125,0.06170654296875,0.9469757080078125,0.31036376953125
1769661443467954200,5.0119541015625,0.0626373291015625,0.9462738037109375,0.309844970703125
1769661443477941000,5.02194091796875,0.0641326904296875,0.9420928955078125,0.3094329833984375
1769661443487929000,5.03192919921875,0.0680389404296875,0.9448699951171875,0.309356689453125
1769661443497917200,5.041917236328125,0.06884765625,0.9448699951171875,0.310699462890625
1769661443507905000,5.051905029296875,0.0687713623046875,0.9425506591796875,0.3098602294921875
1769661443517893000,5.06189306640625,0.0693359375,0.9422454833984375,0.3114471435546875
1769661443527881200,5.071881103515625,0.065887451171875,0.9400177001953125,0.3111114501953125
1769661443537868000,5.081867919921875,0.06353759765625,0.9390716552734375,0.3127899169921875
1769661443547856100,5.091856201171875,0.0614166259765625,0.9411773681640625,0.3119964599609375
1769661443557844200,5.10184423828125,0.060150146484375,0.94329833984375,0.30975341796875
1769661443567832000,5.11183203125,0.058502197265625,0.947723388671875,0.30975341796875
1769661443577820200,5.121820068359375,0.0582733154296875,0.9490203857421875,0.3074188232421875
1769661443587808300,5.131808349609375,0.058868408203125,0.9519805908203125,0.308441162109375
1769661443597795000,5.141795166015625,0.056976318359375,0.95245361328125,0.30987548828125
1769661443607783200,5.151783203125,0.0598602294921875,0.9512481689453125,0.312286376953125
1769661443617771300,5.161771240234375,0.0626220703125,0.9499359130859375,0.3127593994140625
1769661443627759000,5.171759033203125,0.0670166015625,0.9422607421875,0.3119354248046875
1769661443637747000,5.181746826171875,0.070831298828125,0.9370880126953125,0.310638427734375
1769661443647735000,5.191735107421875,0.0734710693359375,0.934173583984375,0.31103515625
1769661443657722000,5.20172216796875,0.072113037109375,0.936187744140625,0.311126708984375
1769661443667710000,5.2117099609375,0.07135009765625,0.9425201416015625,0.3112640380859375
1769661443677698000,5.221697998046875,0.065216064453125,0.9480743408203125,0.3120880126953125
1769661443687686100,5.23168603515625,0.0556488037109375,0.9467926025390625,0.310211181640625
1769661443697674000,5.241674072265625,0.0535736083984375,0.9449920654296875,0.3072052001953125
1769661443707662000,5.251662109375,0.05963134765625,0.940887451171875,0.3069000244140625
1769661443717649000,5.26164892578125,0.063934326171875,0.9370269775390625,0.307952880859375
1769661443727637000,5.271636962890625,0.072845458984375,0.939910888671875,0.3097991943359375
1769661443737625000,5.281625,0.0754852294921875,0.9464111328125,0.3125762939453125
1769661443747613200,5.29161328125,0.0707550048828125,0.952606201171875,0.316741943359375
1769661443757601300,5.301601318359375,0.0640716552734375,0.9551239013671875,0.320037841796875
1769661443767588000,5.311588134765625,0.06658935546875,0.955657958984375,0.31982421875
1769661443777576200,5.321576171875,0.0744171142578125,0.949981689453125,0.3173828125
1769661443787564300,5.331564208984375,0.076202392578125,0.9443359375,0.3167266845703125
1769661443797552000,5.34155224609375,0.071746826171875,0.9369659423828125,0.3104095458984375
1769661443807540200,5.351540283203125,0.0694427490234375,0.9351043701171875,0.316131591796875
1769661443817528300,5.3615283203125,0.06903076171875,0.9375457763671875,0.3141632080078125
1769661443827515100,5.37151513671875,0.0682220458984375,0.9389801025390625,0.3125457763671875
1769661443837503200,5.381503173828125,0.067474365234375,0.9415130615234375,0.3105621337890625
1769661443847491300,5.3914912109375,0.066925048828125,0.943084716796875,0.3079376220703125
1769661443857479400,5.4014794921875,0.0673065185546875,0.9442138671875,0.3066864013671875
1769661443867467300,5.41146728515625,0.0679779052734375,0.9479217529296875,0.30609130859375
1769661443877455400,5.421455322265625,0.0693817138671875,0.94976806640625,0.3082122802734375
1769661443887442200,5.431442138671875,0.0688629150390625,0.94970703125,0.3108978271484375
1769661443897430300,5.44143017578125,0.071563720703125,0.9503631591796875,0.312896728515625
1769661443907418400,5.45141845703125,0.0750732421875,0.950531005859375,0.3115692138671875
1769661443917406200,5.46140625,0.0745391845703125,0.9492645263671875,0.30999755859375
1769661443927394000,5.47139404296875,0.073944091796875,0.946990966796875,0.3079376220703125
1769661443937382100,5.481382080078125,0.07421875,0.9473876953125,0.3032684326171875
1769661443947369200,5.491369140625,0.0731658935546875,0.9444122314453125,0.30126953125
1769661443957357000,5.501357177734375,0.06817626953125,0.94366455078125,0.301788330078125
1769661443967345200,5.51134521484375,0.0654449462890625,0.944732666015625,0.300933837890625
1769661443977333200,5.521333251953125,0.0643310546875,0.944976806640625,0.3004302978515625
1769661443987321000,5.531321044921875,0.06280517578125,0.9439697265625,0.2996063232421875
1769661443997308200,5.54130810546875,0.061767578125,0.945281982421875,0.2989654541015625
1769661444007296300,5.551296142578125,0.0644989013671875,0.944366455078125,0.2999114990234375
1769661444017284000,5.5612841796875,0.0680389404296875,0.9458465576171875,0.3017730712890625
1769661444027272200,5.571272216796875,0.067108154296875,0.946441650390625,0.30487060546875
1769661444037260300,5.58126025390625,0.0637054443359375,0.947113037109375,0.3064117431640625
1769661444047248100,5.591248046875,0.06158447265625,0.946746826171875,0.308502197265625
1769661444057235200,5.601235107421875,0.0634307861328125,0.9434051513671875,0.3101043701171875
1769661444067223300,5.611223388671875,0.0662841796875,0.941192626953125,0.3111114501953125
1769661444077211100,5.621211181640625,0.069915771484375,0.941131591796875,0.3110504150390625
1769661444087199200,5.63119921875,0.071014404296875,0.9438629150390625,0.3105316162109375
1769661444097187300,5.641187255859375,0.0705718994140625,0.946044921875,0.310821533203125
1769661444107175200,5.651175048828125,0.0689697265625,0.9459075927734375,0.311248779296875
1769661444117162200,5.661162353515625,0.0676116943359375,0.945709228515625,0.3127288818359375
1769661444127150300,5.671150390625,0.0700836181640625,0.9462890625,0.3103179931640625
1769661444137138200,5.68113818359375,0.0728607177734375,0.949462890625,0.310333251953125
1769661444147126300,5.691126220703125,0.069854736328125,0.9462127685546875,0.3107452392578125
1769661444157114400,5.7011142578125,0.069580078125,0.9470672607421875,0.313232421875
1769661444167102500,5.7111025390625,0.07330322265625,0.9430999755859375,0.3122711181640625
1769661444177089300,5.72108935546875,0.07525634765625,0.942352294921875,0.311676025390625
1769661444187077400,5.731077392578125,0.074462890625,0.9427490234375,0.3090362548828125
1769661444197065200,5.741065185546875,0.0719451904296875,0.942413330078125,0.3071136474609375
1769661444207053300,5.75105322265625,0.0691070556640625,0.9442596435546875,0.3064727783203125
1769661444217041200,5.761041259765625,0.070465087890625,0.94598388671875,0.3068389892578125
1769661444227029200,5.771029296875,0.070281982421875,0.946685791015625,0.3083038330078125
1769661444237016300,5.781016357421875,0.0684814453125,0.9476470947265625,0.307708740234375
1769661444247004200,5.791004150390625,0.0689544677734375,0.948974609375,0.309600830078125
1769661444256992300,5.8009921875,0.0693817138671875,0.9491424560546875,0.310333251953125
1769661444266980000,5.81097998046875,0.0679473876953125,0.94659423828125,0.3096771240234375
1769661444276968200,5.82096826171875,0.0684814453125,0.9434661865234375,0.306427001953125
1769661444286955000,5.830955078125,0.071044921875,0.9439544677734375,0.30517578125
1769661444296943000,5.840943115234375,0.0702056884765625,0.943115234375,0.3061065673828125
1769661444306931200,5.85093115234375,0.0695648193359375,0.945281982421875,0.3066253662109375
1769661444316919300,5.860919189453125,0.068756103515625,0.9474029541015625,0.3060150146484375
1769661444326907100,5.8709072265625,0.0692901611328125,0.947052001953125,0.307342529296875
1769661444336895200,5.880895263671875,0.06817626953125,0.9475860595703125,0.308746337890625
1769661444346882000,5.890882080078125,0.0685272216796875,0.9461517333984375,0.309173583984375
1769661444356870100,5.9008701171875,0.0686187744140625,0.943756103515625,0.3090667724609375
1769661444366858200,5.910858154296875,0.0682373046875,0.9411163330078125,0.3084869384765625
1769661444376846300,5.920846435546875,0.068115234375,0.9387359619140625,0.30694580078125
1769661444386834200,5.930834228515625,0.069793701171875,0.9389190673828125,0.30609130859375
1769661444396822300,5.940822265625,0.073272705078125,0.9419097900390625,0.306854248046875
1769661444406809300,5.950809326171875,0.0722503662109375,0.9445648193359375,0.306640625
1769661444416797200,5.960797119140625,0.0674896240234375,0.9472808837890625,0.3067779541015625
1769661444426785300,5.970785400390625,0.0603790283203125,0.945404052734375,0.3067626953125
1769661444436773400,5.9807734375,0.0604095458984375,0.94586181640625,0.306793212890625
1769661444446761200,5.99076123046875,0.0621795654296875,0.947174072265625,0.3089752197265625
1769661444456749300,6.000749267578125,0.065185546875,0.9456634521484375,0.3101654052734375
1769661444466736400,6.010736328125,0.070220947265625,0.9478912353515625,0.30853271484375
1769661444476724200,6.02072412109375,0.0709381103515625,0.94842529296875,0.3096923828125
1769661444486712300,6.03071240234375,0.073486328125,0.9469451904296875,0.306976318359375
1769661444496700200,6.0407001953125,0.07330322265625,0.9461212158203125,0.3087615966796875
1769661444506688000,6.05068798828125,0.07501220703125,0.94635009765625,0.30712890625
1769661444516676000,6.060676025390625,0.07598876953125,0.9439697265625,0.306427001953125
1769661444526663400,6.070663330078125,0.0782623291015625,0.9442596435546875,0.3072967529296875
1769661444536651000,6.080651123046875,0.0759124755859375,0.9430999755859375,0.31060791015625
1769661444546639000,6.09063916015625,0.0719146728515625,0.94293212890625,0.3130340576171875
1769661444556627200,6.100627197265625,0.0691986083984375,0.9420928955078125,0.31207275390625
1769661444566615000,6.110614990234375,0.065673828125,0.941986083984375,0.31103515625
1769661444576602000,6.12060205078125,0.0647125244140625,0.9420013427734375,0.3092041015625
1769661444586590200,6.130590087890625,0.064208984375,0.9449005126953125,0.307586669921875
1769661444596578000,6.140578125,0.0653533935546875,0.948699951171875,0.306304931640625
1769661444606566100,6.150566162109375,0.064178466796875,0.9493255615234375,0.306640625
1769661444616554200,6.16055419921875,0.0635528564453125,0.9468231201171875,0.309234619140625
1769661444626542300,6.170542236328125,0.069915771484375,0.943511962890625,0.3107757568359375
1769661444636529200,6.180529052734375,0.076416015625,0.9488067626953125,0.313934326171875
1769661444646517200,6.190517333984375,0.0715179443359375,0.9452362060546875,0.3175811767578125
1769661444656505000,6.200505126953125,0.0741424560546875,0.9426116943359375,0.314422607421875
1769661444666493200,6.2104931640625,0.0754241943359375,0.943206787109375,0.3158416748046875
1769661444676481300,6.220481201171875,0.07867431640625,0.9434814453125,0.3154144287109375
1769661444686469400,6.230469482421875,0.0767974853515625,0.9424591064453125,0.3140411376953125
1769661444696456200,6.240456298828125,0.0726776123046875,0.9422454833984375,0.3130645751953125
1769661444706444300,6.2504443359375,0.0696258544921875,0.9450836181640625,0.31378173828125
1769661444716432400,6.260432373046875,0.069000244140625,0.942413330078125,0.3106689453125
1769661444726420200,6.270420166015625,0.06787109375,0.9430389404296875,0.3112945556640625
1769661444736408300,6.280408203125,0.0676727294921875,0.943328857421875,0.311492919921875
1769661444746396400,6.290396484375,0.0687103271484375,0.942047119140625,0.311370849609375
1769661444756382700,6.3003828125,0.0672454833984375,0.9425048828125,0.31243896484375
1769661444766370800,6.310370849609375,0.0660247802734375,0.9434661865234375,0.311553955078125
1769661444776359000,6.32035888671875,0.06585693359375,0.9437408447265625,0.311920166015625
1769661444786346800,6.3303466796875,0.06756591796875,0.94305419921875,0.3140411376953125
1769661444796334800,6.3403349609375,0.07080078125,0.9441680908203125,0.3143310546875
1769661444806322700,6.35032275390625,0.07269287109375,0.9442138671875,0.313507080078125
1769661444816309800,6.360309814453125,0.0723724365234375,0.9443206787109375,0.3123626708984375
1769661444826297900,6.3702978515625,0.072174072265625,0.9451141357421875,0.312408447265625
1769661444836286000,6.380285888671875,0.071624755859375,0.944488525390625,0.3130035400390625
1769661444846273500,6.3902734375,0.0702362060546875,0.9428253173828125,0.3135223388671875
1769661444856261600,6.40026171875,0.0730133056640625,0.9403839111328125,0.3132781982421875
1769661444866249000,6.4102490234375,0.0747528076171875,0.9408721923828125,0.311248779296875
1769661444876236800,6.42023681640625,0.0752105712890625,0.940887451171875,0.3126373291015625
1769661444886224600,6.430224609375,0.075531005859375,0.9395751953125,0.3128509521484375
1769661444896212700,6.440212646484375,0.0751190185546875,0.940582275390625,0.3135833740234375
1769661444906200600,6.45020068359375,0.073699951171875,0.9417266845703125,0.3120574951171875
1769661444916188700,6.460188720703125,0.0710906982421875,0.9403839111328125,0.311370849609375
1769661444926176800,6.4701767578125,0.0692596435546875,0.9419403076171875,0.311798095703125
1769661444936163600,6.48016357421875,0.0687408447265625,0.94415283203125,0.31011962890625
1769661444946151700,6.490151611328125,0.0672454833984375,0.9443206787109375,0.3108367919921875
1769661444956139800,6.500139892578125,0.066070556640625,0.945556640625,0.3155975341796875
1769661444966127900,6.5101279296875,0.068634033203125,0.94451904296875,0.3152618408203125
1769661444976115700,6.52011572265625,0.067840576171875,0.9397125244140625,0.3119049072265625
1769661444986102800,6.530102783203125,0.0694427490234375,0.9415283203125,0.314361572265625
1769661444996090600,6.540090576171875,0.06988525390625,0.93988037109375,0.3159942626953125
1769661445006078700,6.55007861328125,0.070892333984375,0.93951416015625,0.3155364990234375
1769661445016066800,6.56006689453125,0.072418212890625,0.9403839111328125,0.315277099609375
1769661445026055000,6.570054931640625,0.0742950439453125,0.9409332275390625,0.3160400390625
1769661445036042800,6.580042724609375,0.07421875,0.939910888671875,0.314544677734375
1769661445046029800,6.59002978515625,0.075469970703125,0.944854736328125,0.312957763671875
1769661445056018000,6.600017822265625,0.075225830078125,0.94805908203125,0.313720703125
1769661445066005800,6.610005859375,0.07257080078125,0.946929931640625,0.3115234375
1769661445075993900,6.619993896484375,0.07098388671875,0.9462890625,0.3114013671875
1769661445085982000,6.62998193359375,0.072296142578125,0.9451904296875,0.3094635009765625
1769661445095969800,6.6399697265625,0.0730133056640625,0.9418182373046875,0.3077545166015625
1769661445105956900,6.649956787109375,0.0693206787109375,0.94024658203125,0.3089752197265625
1769661445115945000,6.659945068359375,0.0667572021484375,0.94183349609375,0.3102264404296875
1769661445125932800,6.669932861328125,0.0681915283203125,0.9398956298828125,0.31195068359375
1769661445135920600,6.679920654296875,0.0712738037109375,0.9377593994140625,0.3150634765625
1769661445145908700,6.68990869140625,0.0723114013671875,0.943328857421875,0.318023681640625
1769661445155896600,6.699896484375,0.0765228271484375,0.94818115234375,0.322052001953125
1769661445165884000,6.7098837890625,0.0748138427734375,0.946563720703125,0.3230438232421875
1769661445175871700,6.719871826171875,0.0672760009765625,0.9434967041015625,0.3214111328125
1769661445185859600,6.729859619140625,0.0679779052734375,0.9437103271484375,0.323883056640625
1769661445195847700,6.73984765625,0.0785980224609375,0.93865966796875,0.321075439453125
1769661445205835800,6.749835693359375,0.0814208984375,0.932403564453125,0.3211517333984375
1769661445215823600,6.75982373046875,0.081451416015625,0.9367828369140625,0.324493408203125
1769661445225810700,6.769810791015625,0.0839996337890625,0.94189453125,0.3240966796875
1769661445235798800,6.779798828125,0.086090087890625,0.9444122314453125,0.3236541748046875
1769661445245786600,6.78978662109375,0.080413818359375,0.9470062255859375,0.322021484375
1769661445255774700,6.799774658203125,0.0791015625,0.9464569091796875,0.3189544677734375
1769661445265762800,6.8097626953125,0.082977294921875,0.9441375732421875,0.3173065185546875
1769661445275749600,6.81974951171875,0.0859527587890625,0.9410858154296875,0.3158721923828125
1769661445285737700,6.82973779296875,0.083038330078125,0.9387054443359375,0.3180999755859375
1769661445295725800,6.839725830078125,0.077606201171875,0.936492919921875,0.318878173828125
1769661445305713700,6.849713623046875,0.07183837890625,0.936248779296875,0.3179168701171875
1769661445315701800,6.85970166015625,0.0708160400390625,0.9346466064453125,0.3141021728515625
1769661445325689900,6.86968994140625,0.0730133056640625,0.9368438720703125,0.3140411376953125
1769661445335676700,6.8796767578125,0.0757293701171875,0.939361572265625,0.3112030029296875
1769661445345664800,6.889664794921875,0.07550048828125,0.9458770751953125,0.312774658203125
1769661445355652900,6.89965283203125,0.074371337890625,0.9509124755859375,0.312469482421875
1769661445365641000,6.909640869140625,0.0735015869140625,0.9512481689453125,0.313079833984375
1769661445375628800,6.91962890625,0.0732421875,0.95135498046875,0.316131591796875
1769661445385617000,6.929616943359375,0.075439453125,0.9488677978515625,0.319122314453125
1769661445395603700,6.939603759765625,0.080780029296875,0.9469451904296875,0.3187408447265625
1769661445405591800,6.949591796875,0.0812835693359375,0.9420928955078125,0.3175811767578125
1769661445415580000,6.959579833984375,0.0791015625,0.937957763671875,0.3191375732421875
1769661445425567700,6.969567626953125,0.0813446044921875,0.938079833984375,0.318603515625
1769661445435555600,6.9795556640625,0.083160400390625,0.9365081787109375,0.3182220458984375
1769661445445543700,6.989543701171875,0.0828857421875,0.939056396484375,0.3211822509765625
1769661445455531000,6.999531005859375,0.0805816650390625,0.93890380859375,0.3202667236328125
1769661445465518600,7.0095185546875,0.0782012939453125,0.939483642578125,0.31939697265625
1769661445475506700,7.019506591796875,0.0781707763671875,0.9398193359375,0.317047119140625
1769661445485494800,7.029494873046875,0.077178955078125,0.94195556640625,0.3170623779296875
1769661445495482600,7.039482666015625,0.07635498046875,0.9438629150390625,0.317047119140625
1769661445505470700,7.049470703125,0.0743255615234375,0.9447479248046875,0.3173065185546875
1769661445515457800,7.059457763671875,0.071014404296875,0.943756103515625,0.3178863525390625
1769661445525445600,7.069445556640625,0.0712890625,0.9434661865234375,0.318695068359375
1769661445535433700,7.079433837890625,0.071868896484375,0.941375732421875,0.3195343017578125
1769661445545421800,7.089421875,0.0753936767578125,0.938995361328125,0.3194580078125
1769661445555409700,7.09940966796875,0.076324462890625,0.937591552734375,0.3192291259765625
1769661445565397800,7.109397705078125,0.0755767822265625,0.9368896484375,0.3198699951171875
1769661445575384800,7.119384765625,0.0760955810546875,0.938323974609375,0.3203887939453125
1769661445585372700,7.12937255859375,0.0747528076171875,0.93902587890625,0.3192596435546875
1769661445595360800,7.13936083984375,0.0751190185546875,0.9397430419921875,0.320068359375
1769661445605348900,7.149348876953125,0.073699951171875,0.9402008056640625,0.3201751708984375
1769661445615336700,7.159336669921875,0.0775909423828125,0.9396820068359375,0.3209991455078125
1769661445625324800,7.16932470703125,0.07611083984375,0.94000244140625,0.321868896484375
1769661445635311900,7.179311767578125,0.0746002197265625,0.94134521484375,0.3226776123046875
1769661445645299700,7.1892998046875,0.070404052734375,0.9430084228515625,0.3234405517578125
1769661445655287800,7.199287841796875,0.0706939697265625,0.9440460205078125,0.3256988525390625
1769661445665276000,7.20927587890625,0.071990966796875,0.94451904296875,0.325714111328125
1769661445675264000,7.219263916015625,0.071197509765625,0.944244384765625,0.32391357421875
1769661445685251800,7.229251953125,0.07220458984375,0.9436187744140625,0.3217010498046875
1769661445695239000,7.239239013671875,0.0718994140625,0.9419708251953125,0.3182830810546875
1769661445705226800,7.249226806640625,0.072967529296875,0.9403533935546875,0.3191375732421875
1769661445715214800,7.25921484375,0.0746612548828125,0.9378204345703125,0.316162109375
1769661445725202700,7.26920263671875,0.0742950439453125,0.9364013671875,0.316070556640625
1769661445735190800,7.279190673828125,0.076141357421875,0.93560791015625,0.31500244140625
1769661445745178600,7.2891787109375,0.0760498046875,0.935699462890625,0.3173370361328125
1769661445755166000,7.299166015625,0.07379150390625,0.9375762939453125,0.31866455078125
1769661445765154000,7.309154052734375,0.0739288330078125,0.9411163330078125,0.3214569091796875
1769661445775142100,7.31914208984375,0.0733642578125,0.94219970703125,0.3219757080078125
1769661445785130000,7.3291298828125,0.0724945068359375,0.9434356689453125,0.3234405517578125
1769661445795118000,7.3391181640625,0.07305908203125,0.9428863525390625,0.3249664306640625
1769661445805106200,7.349106201171875,0.0739593505859375,0.941314697265625,0.3225250244140625
1769661445815093000,7.359093017578125,0.0761566162109375,0.941619873046875,0.3214263916015625
1769661445825081000,7.3690810546875,0.07440185546875,0.9420623779296875,0.3216705322265625
1769661445835069200,7.379069091796875,0.0727691650390625,0.943145751953125,0.3177337646484375
1769661445845057300,7.389057373046875,0.0720367431640625,0.9420928955078125,0.3196868896484375
1769661445855045000,7.399045166015625,0.071441650390625,0.9396820068359375,0.3189849853515625
1769661445865032200,7.4090322265625,0.07574462890625,0.9384002685546875,0.3173065185546875
1769661445875020000,7.41902001953125,0.0811614990234375,0.9347991943359375,0.31689453125
1769661445885008100,7.429008056640625,0.080841064453125,0.933929443359375,0.3181304931640625
1769661445894996200,7.438996337890625,0.0800628662109375,0.9367523193359375,0.31781005859375
1769661445904984300,7.448984375,0.0810089111328125,0.9370574951171875,0.318267822265625
1769661445914972200,7.45897216796875,0.0840301513671875,0.941070556640625,0.3160552978515625
1769661445924959200,7.468959228515625,0.0855712890625,0.945068359375,0.3177642822265625
1769661445934947300,7.478947265625,0.07940673828125,0.9469757080078125,0.3180084228515625
1769661445944935200,7.48893505859375,0.0720062255859375,0.9476776123046875,0.3168792724609375
1769661445954923300,7.49892333984375,0.0701904296875,0.9432373046875,0.311309814453125
1769661445964911000,7.5089111328125,0.0702056884765625,0.9394073486328125,0.3130035400390625
1769661445974899000,7.51889892578125,0.0771942138671875,0.9391021728515625,0.3163299560546875
1769661445984886300,7.52888623046875,0.08270263671875,0.9432830810546875,0.31396484375
1769661445994874000,7.5388740234375,0.077911376953125,0.9438323974609375,0.31378173828125
1769661446004862000,7.548862060546875,0.07421875,0.9500579833984375,0.3166046142578125
1769661446014850000,7.55885009765625,0.074462890625,0.9523162841796875,0.317291259765625
1769661446024838100,7.568838134765625,0.080902099609375,0.9473114013671875,0.3182525634765625
1769661446034826000,7.578825927734375,0.088531494140625,0.9427642822265625,0.3202667236328125
1769661446044813000,7.58881298828125,0.0874176025390625,0.9362945556640625,0.323455810546875
1769661446054801200,7.59880126953125,0.0834197998046875,0.9328765869140625,0.32733154296875
1769661446064789000,7.6087890625,0.0804290771484375,0.9333038330078125,0.325836181640625
1769661446074777000,7.618777099609375,0.0729522705078125,0.93511962890625,0.3228607177734375
1769661446084765200,7.62876513671875,0.067169189453125,0.9378509521484375,0.318939208984375
1769661446094753000,7.6387529296875,0.067413330078125,0.9399261474609375,0.31787109375
1769661446104740000,7.648739990234375,0.0693511962890625,0.9426422119140625,0.311920166015625
1769661446114728200,7.658728271484375,0.0709381103515625,0.9436492919921875,0.31109619140625
1769661446124716000,7.668716064453125,0.0658111572265625,0.9443359375,0.31072998046875
1769661446134704000,7.6787041015625,0.06341552734375,0.9439239501953125,0.313140869140625
1769661446144692200,7.688692138671875,0.06378173828125,0.9430084228515625,0.3173675537109375
1769661446154680300,7.698680419921875,0.0676422119140625,0.9420928955078125,0.320770263671875
1769661446164667100,7.708667236328125,0.0719757080078125,0.937774658203125,0.3250732421875
1769661446174655200,7.7186552734375,0.073455810546875,0.9357147216796875,0.329071044921875
1769661446184643000,7.72864306640625,0.07989501953125,0.933349609375,0.3300628662109375
1769661446194631200,7.738631103515625,0.0875701904296875,0.935211181640625,0.3274383544921875
1769661446204619300,7.748619384765625,0.0862274169921875,0.9353790283203125,0.32647705078125
1769661446214607400,7.758607421875,0.0814971923828125,0.9376373291015625,0.3260040283203125
1769661446224594200,7.76859423828125,0.0788116455078125,0.938262939453125,0.3253173828125
1769661446234582300,7.778582275390625,0.078887939453125,0.9376220703125,0.3233795166015625
1769661446244570400,7.7885703125,0.07855224609375,0.9364471435546875,0.3220977783203125
1769661446254558200,7.79855810546875,0.075347900390625,0.9374542236328125,0.3229522705078125
1769661446264546000,7.808546142578125,0.0732879638671875,0.939910888671875,0.3236236572265625
1769661446274534100,7.8185341796875,0.06890869140625,0.9384307861328125,0.324188232421875
1769661446284521200,7.828521240234375,0.0702056884765625,0.9380645751953125,0.3225555419921875
1769661446294509000,7.838509033203125,0.0749053955078125,0.9396514892578125,0.31964111328125
1769661446304497200,7.8484970703125,0.07501220703125,0.94232177734375,0.3191070556640625
1769661446314485000,7.858485107421875,0.074310302734375,0.9431915283203125,0.3178253173828125
1769661446324473000,7.86847314453125,0.0747833251953125,0.9433441162109375,0.3156280517578125
1769661446334461200,7.878461181640625,0.0790557861328125,0.9409027099609375,0.31671142578125
1769661446344448000,7.888447998046875,0.0788726806640625,0.93963623046875,0.31890869140625
1769661446354436000,7.89843603515625,0.0804290771484375,0.9387969970703125,0.32110595703125
1769661446364424200,7.908424072265625,0.0816192626953125,0.9386749267578125,0.32171630859375
1769661446374412000,7.918412109375,0.079010009765625,0.9376678466796875,0.3204803466796875
1769661446384400100,7.928400146484375,0.0758056640625,0.9394073486328125,0.3191680908203125
1769661446394388200,7.93838818359375,0.0763092041015625,0.9407501220703125,0.3197784423828125
1769661446404375000,7.948375,0.0759735107421875,0.940765380859375,0.3175506591796875
1769661446414363100,7.958363037109375,0.075225830078125,0.9420166015625,0.315887451171875
1769661446424351200,7.968351318359375,0.0745391845703125,0.941680908203125,0.31536865234375
1769661446434339000,7.978339111328125,0.0732879638671875,0.9428253173828125,0.316314697265625
1769661446444327200,7.9883271484375,0.0723419189453125,0.9422607421875,0.31732177734375
1769661446454315300,7.998315185546875,0.0736236572265625,0.9408416748046875,0.318634033203125
1769661446464302000,8.008302001953124,0.074432373046875,0.9385528564453125,0.320404052734375
1769661446474290200,8.018290283203125,0.078277587890625,0.939300537109375,0.322052001953125
1769661446484278300,8.0282783203125,0.08038330078125,0.9387969970703125,0.3215484619140625
1769661446494266000,8.03826611328125,0.08209228515625,0.9388427734375,0.3220367431640625
1769661446504254200,8.048254150390624,0.0832672119140625,0.937042236328125,0.320587158203125
1769661446514242000,8.058241943359375,0.0844879150390625,0.935699462890625,0.3194427490234375
1769661446524229000,8.06822900390625,0.0847930908203125,0.93707275390625,0.3196563720703125
1769661446534217200,8.07821728515625,0.0822601318359375,0.9366912841796875,0.3182830810546875
1769661446544205300,8.088205322265624,0.08038330078125,0.9387054443359375,0.3185272216796875
1769661446554193000,8.09819287109375,0.0795135498046875,0.9413909912109375,0.319854736328125
1769661446564181000,8.108180908203124,0.0805511474609375,0.9416961669921875,0.31805419921875
1769661446574169000,8.118169189453125,0.0793609619140625,0.94207763671875,0.317108154296875
1769661446584156200,8.12815625,0.0804443359375,0.9408721923828125,0.3162384033203125
1769661446594144000,8.13814404296875,0.0788726806640625,0.9401397705078125,0.3185272216796875
1769661446604132000,8.148132080078126,0.078338623046875,0.940032958984375,0.3201904296875
1769661446614120200,8.1581201171875,0.0793914794921875,0.939483642578125,0.3196563720703125
1769661446624108000,8.16810791015625,0.0791778564453125,0.93756103515625,0.32049560546875
1769661446634096000,8.17809619140625,0.081634521484375,0.9376068115234375,0.32183837890625
1769661446644083000,8.1880830078125,0.0800323486328125,0.9368133544921875,0.322540283203125
1769661446654071000,8.198071044921875,0.0834197998046875,0.93780517578125,0.319488525390625
1769661446664059100,8.20805908203125,0.0862884521484375,0.938751220703125,0.3180389404296875
1769661446674047200,8.218047119140625,0.084716796875,0.942535400390625,0.3189849853515625
1769661446684035000,8.22803515625,0.08135986328125,0.9463653564453125,0.3215179443359375
1769661446694023200,8.238023193359375,0.07647705078125,0.940948486328125,0.3199462890625
1769661446704010200,8.24801025390625,0.0781097412109375,0.9388580322265625,0.3178863525390625
1769661446713998000,8.257998046875,0.0843963623046875,0.933441162109375,0.317535400390625
1769661446723986200,8.267986083984376,0.0851898193359375,0.9292449951171875,0.3188934326171875
1769661446733974300,8.277974365234375,0.086517333984375,0.936614990234375,0.3203582763671875
1769661446743962000,8.287962158203126,0.0846405029296875,0.9437408447265625,0.3184814453125
1769661446753950200,8.2979501953125,0.0803375244140625,0.9464111328125,0.3186492919921875
1769661446763936500,8.3079365234375,0.0761566162109375,0.94842529296875,0.317291259765625
1769661446773924600,8.317924560546874,0.080657958984375,0.9487152099609375,0.3180999755859375
1769661446783912700,8.32791259765625,0.08941650390625,0.9433135986328125,0.3194580078125
1769661446793900500,8.337900634765624,0.096282958984375,0.940155029296875,0.3195648193359375
1769661446803888600,8.347888671875,0.0935211181640625,0.936553955078125,0.321380615234375
1769661446813876700,8.357876708984374,0.0854034423828125,0.9351043701171875,0.322357177734375
1769661446823863600,8.367863525390625,0.08026123046875,0.9362030029296875,0.3201446533203125
1769661446833851600,8.3778515625,0.0808258056640625,0.93798828125,0.3163909912109375
1769661446843839700,8.38783984375,0.083831787109375,0.939117431640625,0.314300537109375
1769661446853827800,8.397827880859374,0.0822296142578125,0.940521240234375,0.3123626708984375
1769661446863815400,8.4078154296875,0.082183837890625,0.94384765625,0.31256103515625
1769661446873803500,8.417803466796874,0.0805206298828125,0.946136474609375,0.3122100830078125
1769661446883790600,8.42779052734375,0.0800323486328125,0.946807861328125,0.314422607421875
1769661446893778700,8.43777880859375,0.08221435546875,0.943634033203125,0.315399169921875
1769661446903766500,8.4477666015625,0.0850677490234375,0.94287109375,0.31610107421875
1769661446913754600,8.457754638671876,0.0877838134765625,0.9410400390625,0.3195037841796875
1769661446923742500,8.467742431640625,0.0899810791015625,0.9385986328125,0.321502685546875
1769661446933730600,8.47773046875,0.0910186767578125,0.9390716552734375,0.32244873046875
1769661446943717400,8.48771728515625,0.092926025390625,0.941253662109375,0.3194427490234375
1769661446953705500,8.49770556640625,0.09539794921875,0.9405670166015625,0.31976318359375
1769661446963693600,8.507693603515625,0.0950469970703125,0.940277099609375,0.3207855224609375
1769661446973681700,8.517681640625,0.0922393798828125,0.9398956298828125,0.32147216796875
1769661446983669500,8.52766943359375,0.0881195068359375,0.9413604736328125,0.321319580078125
1769661446993657600,8.53765771484375,0.086212158203125,0.94097900390625,0.3189544677734375
1769661447003644700,8.547644775390625,0.084228515625,0.939697265625,0.3173828125
1769661447013632500,8.557632568359375,0.084197998046875,0.9387969970703125,0.318145751953125
1769661447023620600,8.56762060546875,0.085479736328125,0.9373931884765625,0.317626953125
1769661447033608700,8.577608642578125,0.0865020751953125,0.93975830078125,0.3189239501953125
1769661447043596500,8.587596435546875,0.08392333984375,0.94140625,0.3183135986328125
1769661447053584600,8.597584716796876,0.082366943359375,0.9422149658203125,0.317962646484375
1769661447063571700,8.60757177734375,0.0850372314453125,0.9420013427734375,0.3177490234375
1769661447073559600,8.6175595703125,0.087371826171875,0.9403228759765625,0.3172454833984375
1769661447083547600,8.627547607421874,0.0891265869140625,0.940673828125,0.3170928955078125
1769661447093535700,8.63753564453125,0.090240478515625,0.93951416015625,0.3170013427734375
1769661447103523600,8.647523681640624,0.0909576416015625,0.93975830078125,0.3173675537109375
1769661447113511700,8.65751171875,0.088775634765625,0.9417266845703125,0.3165130615234375
1769661447123498800,8.667498779296874,0.084625244140625,0.940399169921875,0.3189544677734375
1769661447133486600,8.677486572265625,0.08624267578125,0.940521240234375,0.319305419921875
1769661447143474700,8.687474609375,0.0895538330078125,0.940185546875,0.319610595703125
1769661447153462500,8.697462646484375,0.0908966064453125,0.940643310546875,0.3206939697265625
1769661447163450400,8.707450439453124,0.09112548828125,0.940673828125,0.3207855224609375
1769661447173438500,8.7174384765625,0.0917816162109375,0.9415130615234375,0.3223876953125
1769661447183425800,8.72742578125,0.091522216796875,0.9399871826171875,0.3211822509765625
1769661447193413400,8.737413330078125,0.0914459228515625,0.94000244140625,0.320343017578125
1769661447203401500,8.7474013671875,0.089813232421875,0.9400634765625,0.3202972412109375
1769661447213389600,8.7573896484375,0.088592529296875,0.9403076171875,0.3182373046875
1769661447223377700,8.767377685546874,0.08831787109375,0.93927001953125,0.3186798095703125
1769661447233365500,8.777365478515625,0.08746337890625,0.93939208984375,0.3175048828125
1769661447243352600,8.7873525390625,0.08758544921875,0.940185546875,0.317352294921875
1769661447253340400,8.79734033203125,0.0862274169921875,0.941131591796875,0.3155670166015625
1769661447263328500,8.80732861328125,0.0865020751953125,0.93988037109375,0.31756591796875
1769661447273316600,8.817316650390625,0.088775634765625,0.9394073486328125,0.3192291259765625
1769661447283304700,8.8273046875,0.0884552001953125,0.938262939453125,0.31878662109375
1769661447293292500,8.83729248046875,0.089385986328125,0.9389190673828125,0.3197479248046875
1769661447303279600,8.847279541015626,0.0879364013671875,0.9387969970703125,0.3207550048828125
1769661447313267700,8.857267822265625,0.0878448486328125,0.93951416015625,0.3207855224609375
1769661447323255600,8.867255615234376,0.088287353515625,0.938873291015625,0.3220977783203125
1769661447333243600,8.87724365234375,0.0904998779296875,0.938201904296875,0.3201751708984375
1769661447343231700,8.887231689453126,0.0904388427734375,0.9385986328125,0.31939697265625
1769661447353219600,8.897219482421875,0.0895233154296875,0.9395751953125,0.3172760009765625
1769661447363206700,8.90720654296875,0.087921142578125,0.9416046142578125,0.31817626953125
1769661447373194800,8.91719482421875,0.08367919921875,0.942138671875,0.3180389404296875
1769661447383182600,8.9271826171875,0.0824127197265625,0.9410552978515625,0.316070556640625
1769661447393170700,8.937170654296875,0.0845794677734375,0.93939208984375,0.3168487548828125
1769661447403158800,8.94715869140625,0.0835723876953125,0.9372100830078125,0.31597900390625
1769661447413146400,8.957146484375,0.085357666015625,0.9366455078125,0.3150482177734375
1769661447423134500,8.967134521484375,0.08868408203125,0.9386138916015625,0.3150482177734375
1769661447433121800,8.977121826171874,0.0918121337890625,0.9411468505859375,0.31585693359375
1769661447443109600,8.987109619140625,0.0932464599609375,0.9415130615234375,0.315521240234375
1769661447453097500,8.997097412109374,0.087921142578125,0.9392242431640625,0.3180389404296875
1769661447463085600,9.00708544921875,0.084136962890625,0.9392852783203125,0.31781005859375
1769661447473073400,9.017073486328124,0.08673095703125,0.94091796875,0.3180389404296875
1769661447483061500,9.0270615234375,0.0872955322265625,0.9415740966796875,0.3202667236328125
1769661447493048600,9.037048583984374,0.084503173828125,0.943084716796875,0.3222808837890625
1769661447503036400,9.047036376953125,0.08203125,0.9404144287109375,0.3186187744140625
1769661447513024500,9.0570244140625,0.093231201171875,0.9493255615234375,0.322265625
1769661447523012600,9.0670126953125,0.0965423583984375,0.94610595703125,0.3209686279296875
1769661447533000700,9.077000732421874,0.09039306640625,0.9413299560546875,0.31768798828125
1769661447542987500,9.086987548828125,0.091094970703125,0.9417266845703125,0.3172760009765625
1769661447552975600,9.0969755859375,0.0975189208984375,0.9382476806640625,0.31329345703125
1769661447562963500,9.10696337890625,0.096221923828125,0.937713623046875,0.3173828125
1769661447572951600,9.11695166015625,0.092529296875,0.937042236328125,0.318145751953125
1769661447582939600,9.126939697265625,0.0892333984375,0.9378204345703125,0.3165435791015625
1769661447592927700,9.136927734375,0.085968017578125,0.93878173828125,0.3163909912109375
1769661447602915600,9.14691552734375,0.08477783203125,0.9405517578125,0.31622314453125
1769661447612902700,9.156902587890626,0.085540771484375,0.941131591796875,0.3144683837890625
1769661447622890800,9.166890869140625,0.0861358642578125,0.940338134765625,0.3118133544921875
1769661447632878600,9.176878662109376,0.086334228515625,0.9415435791015625,0.3105316162109375
1769661447642866700,9.18686669921875,0.085296630859375,0.9426422119140625,0.3095703125
1769661447652854800,9.196854736328126,0.0857086181640625,0.945068359375,0.3111572265625
1769661447662842600,9.206842529296875,0.08709716796875,0.9455718994140625,0.311370849609375
1769661447672829700,9.21682958984375,0.088104248046875,0.9469451904296875,0.31243896484375
1769661447682817800,9.22681787109375,0.090911865234375,0.94866943359375,0.3130035400390625
1769661447692805600,9.2368056640625,0.09307861328125,0.9476470947265625,0.31488037109375
1769661447702793500,9.24679345703125,0.0911712646484375,0.9432220458984375,0.317230224609375
1769661447712781600,9.256781494140625,0.093658447265625,0.941009521484375,0.3168792724609375
1769661447722769400,9.266769287109375,0.094940185546875,0.936614990234375,0.3172454833984375
1769661447732756700,9.2767568359375,0.0943450927734375,0.9349822998046875,0.3195953369140625
1769661447742744600,9.28674462890625,0.0900115966796875,0.935943603515625,0.3196258544921875
1769661447752732400,9.296732421875,0.0879058837890625,0.9357757568359375,0.3178558349609375
1769661447762720800,9.306720703125,0.0860595703125,0.9378204345703125,0.3144683837890625
1769661447772708900,9.316708984375,0.0868377685546875,0.9398345947265625,0.3123321533203125
1769661447782697000,9.326697021484375,0.0861358642578125,0.941986083984375,0.3122406005859375
1769661447792683800,9.336683837890625,0.0854644775390625,0.941802978515625,0.3161773681640625
1769661447802671900,9.346671875,0.0839691162109375,0.941162109375,0.3168182373046875
1769661447812659700,9.35665966796875,0.080352783203125,0.94158935546875,0.3161773681640625
1769661447822647800,9.366647705078124,0.0814056396484375,0.9392547607421875,0.3137969970703125
1769661447832636000,9.376635986328125,0.086334228515625,0.9394073486328125,0.3120880126953125
1769661447842624000,9.3866240234375,0.0886077880859375,0.9403076171875,0.3102264404296875
1769661447852610800,9.39661083984375,0.087615966796875,0.9418792724609375,0.30938720703125
1769661447862599000,9.406598876953124,0.08441162109375,0.9412994384765625,0.310699462890625
1769661447872587000,9.4165869140625,0.0857086181640625,0.9406585693359375,0.3097076416015625
1769661447882574800,9.426574951171874,0.0888519287109375,0.941864013671875,0.3128509521484375
1769661447892563000,9.43656298828125,0.093536376953125,0.94439697265625,0.3167724609375
1769661447902551000,9.446551025390624,0.090087890625,0.9417572021484375,0.3182830810546875
1769661447912537900,9.456537841796875,0.0886688232421875,0.9388275146484375,0.3215789794921875
1769661447922526000,9.46652587890625,0.0951995849609375,0.9414825439453125,0.319488525390625
1769661447932514000,9.47651416015625,0.09417724609375,0.939605712890625,0.3216400146484375
1769661447942502000,9.486501953125,0.0855560302734375,0.9335784912109375,0.3160400390625
1769661447952489700,9.49648974609375,0.0916290283203125,0.9378662109375,0.309051513671875
1769661447962477800,9.506477783203126,0.0926361083984375,0.9420928955078125,0.3125457763671875
1769661447972465000,9.51646484375,0.089324951171875,0.9363555908203125,0.314361572265625
1769661447982453000,9.526452880859376,0.09344482421875,0.9459381103515625,0.314239501953125
1769661447992440800,9.53644091796875,0.0880584716796875,0.9508056640625,0.3184661865234375
1769661448002428700,9.5464287109375,0.078582763671875,0.948486328125,0.3180694580078125
1769661448012416800,9.556416748046875,0.079864501953125,0.9441375732421875,0.3194122314453125
1769661448022404900,9.56640478515625,0.0922088623046875,0.9385986328125,0.3213348388671875
1769661448032391700,9.5763916015625,0.101226806640625,0.935943603515625,0.316741943359375
1769661448042379800,9.5863798828125,0.099853515625,0.938446044921875,0.312042236328125
1769661448052368000,9.596367919921875,0.0916900634765625,0.9443511962890625,0.311492919921875
1769661448062355700,9.606355712890625,0.0873870849609375,0.9435882568359375,0.312164306640625
1769661448072343800,9.61634375,0.08367919921875,0.9401092529296875,0.3146820068359375
1769661448082332000,9.626331787109375,0.0851287841796875,0.9361419677734375,0.3160400390625
1769661448092320000,9.636320068359375,0.085418701171875,0.9345245361328125,0.3164825439453125
1769661448102306800,9.646306884765625,0.0842742919921875,0.936920166015625,0.3171234130859375
1769661448112295000,9.656294921875,0.082427978515625,0.9399261474609375,0.317138671875
1769661448122282800,9.66628271484375,0.0853729248046875,0.9424591064453125,0.3159332275390625
1769661448132270800,9.676270751953124,0.0865020751953125,0.944793701171875,0.3146514892578125
1769661448142259000,9.686259033203125,0.086029052734375,0.94415283203125,0.313507080078125
1769661448152247000,9.6962470703125,0.0876007080078125,0.9442138671875,0.313079833984375
1769661448162233900,9.70623388671875,0.08831787109375,0.9432220458984375,0.3139801025390625
1769661448172222000,9.716221923828124,0.0886688232421875,0.9416046142578125,0.3171844482421875
1769661448182209800,9.726209716796875,0.0921630859375,0.9395294189453125,0.3196868896484375
1769661448192198000,9.736197998046874,0.093841552734375,0.9383392333984375,0.31805419921875
1769661448202186000,9.74618603515625,0.0933685302734375,0.9374237060546875,0.318115234375
1769661448212173800,9.756173828125,0.0913848876953125,0.9374542236328125,0.31597900390625
1769661448222161000,9.766160888671875,0.09307861328125,0.940765380859375,0.3143310546875
1769661448232149000,9.77614892578125,0.09271240234375,0.941436767578125,0.314208984375
1769661448242136800,9.78613671875,0.0909881591796875,0.942352294921875,0.3155670166015625
1769661448252124700,9.796124755859376,0.083160400390625,0.941864013671875,0.3151092529296875
1769661448262112800,9.80611279296875,0.0801239013671875,0.940582275390625,0.3159942626953125
1769661448272100900,9.816100830078126,0.084075927734375,0.9375457763671875,0.31512451171875
1769661448282087700,9.826087646484375,0.0851287841796875,0.9362030029296875,0.3190765380859375
1769661448292075800,9.83607568359375,0.0873870849609375,0.9375,0.3200225830078125
1769661448302063900,9.84606396484375,0.09149169921875,0.940155029296875,0.318328857421875
1769661448312051700,9.8560517578125,0.0935516357421875,0.9428253173828125,0.3182525634765625
1769661448322039800,9.866039794921875,0.092254638671875,0.9422760009765625,0.318145751953125
1769661448332028000,9.87602783203125,0.09246826171875,0.9431915283203125,0.31732177734375
1769661448342014700,9.8860146484375,0.097747802734375,0.9415130615234375,0.317840576171875
1769661448352002800,9.8960029296875,0.0987396240234375,0.93817138671875,0.3187713623046875
1769661448361991000,9.905990966796875,0.0957794189453125,0.9379425048828125,0.3213653564453125
1769661448371978800,9.915978759765625,0.0895843505859375,0.937164306640625,0.322784423828125
1769661448381966800,9.925966796875,0.087158203125,0.9377288818359375,0.31988525390625
1769661448391955000,9.935954833984376,0.08447265625,0.936279296875,0.3176116943359375
1769661448401941800,9.945941650390624,0.0859222412109375,0.9377593994140625,0.315826416015625
1769661448411929900,9.955929931640625,0.085662841796875,0.9387359619140625,0.3137054443359375
1769661448421918000,9.96591796875,0.083404541015625,0.9413604736328125,0.3126373291015625
1769661448431905800,9.97590576171875,0.0845184326171875,0.94189453125,0.312225341796875
1769661448441894000,9.985893798828124,0.0827178955078125,0.942840576171875,0.312744140625
1769661448451882000,9.995882080078125,0.081756591796875,0.942413330078125,0.314788818359375
1769661448461868800,10.005868896484374,0.0843048095703125,0.9425048828125,0.31817626953125
1769661448471857000,10.01585693359375,0.0902557373046875,0.9426727294921875,0.320159912109375
1769661448481845000,10.025844970703124,0.0930023193359375,0.9433135986328125,0.32177734375
1769661448491832800,10.035832763671875,0.093505859375,0.9405975341796875,0.32342529296875
1769661448501821000,10.045821044921874,0.0944671630859375,0.938690185546875,0.3222808837890625
1769661448511808800,10.055808837890625,0.0994720458984375,0.9393463134765625,0.3206939697265625
1769661448521795800,10.0657958984375,0.102081298828125,0.9378204345703125,0.320831298828125
1769661448531784000,10.075783935546875,0.0977325439453125,0.936737060546875,0.322052001953125
1769661448541771800,10.085771728515626,0.0926971435546875,0.93701171875,0.3213958740234375
1769661448551760000,10.095759765625,0.0915069580078125,0.93756103515625,0.317626953125
1769661448561747700,10.105747802734374,0.088470458984375,0.937408447265625,0.3140716552734375
1769661448571735800,10.11573583984375,0.088897705078125,0.94134521484375,0.3138580322265625
1769661448581722600,10.12572265625,0.087799072265625,0.9436798095703125,0.3137359619140625
1769661448591710700,10.135710693359375,0.0861968994140625,0.9423370361328125,0.3158416748046875
1769661448601698800,10.14569873046875,0.087677001953125,0.939300537109375,0.317047119140625
1769661448611687000,10.15568701171875,0.0889129638671875,0.93853759765625,0.31719970703125
1769661448621674800,10.1656748046875,0.090850830078125,0.9366455078125,0.3168792724609375
1769661448631662800,10.175662841796875,0.0931396484375,0.9378204345703125,0.316558837890625
1769661448641650000,10.18564990234375,0.095184326171875,0.938018798828125,0.31683349609375
1769661448651637800,10.1956376953125,0.0966644287109375,0.9401397705078125,0.315216064453125
1769661448661625900,10.2056259765625,0.09515380859375,0.9412384033203125,0.315521240234375
1769661448671614000,10.215614013671875,0.093170166015625,0.9423980712890625,0.3166351318359375
1769661448681601800,10.225601806640626,0.091705322265625,0.942596435546875,0.3172149658203125
1769661448691590000,10.23558984375,0.090972900390625,0.94232177734375,0.3173370361328125
1769661448701578000,10.245577880859376,0.0902557373046875,0.9418182373046875,0.3162689208984375
1769661448711564800,10.255564697265624,0.0888824462890625,0.9430084228515625,0.316436767578125
1769661448721553000,10.265552978515625,0.0898284912109375,0.944793701171875,0.3164825439453125
1769661448731541000,10.275541015625,0.0904998779296875,0.94268798828125,0.316986083984375
1769661448741528800,10.28552880859375,0.0897216796875,0.941802978515625,0.316436767578125
1769661448751517000,10.295516845703125,0.091461181640625,0.9403839111328125,0.316162109375
1769661448761504800,10.3055048828125,0.094268798828125,0.9391632080078125,0.31695556640625
1769661448771491800,10.315491943359374,0.0963897705078125,0.94000244140625,0.316650390625
1769661448781480000,10.32547998046875,0.0961151123046875,0.941680908203125,0.31610107421875
1769661448791467800,10.3354677734375,0.0955810546875,0.9416961669921875,0.316619873046875
1769661448801455600,10.34545556640625,0.0966644287109375,0.9416351318359375,0.3169403076171875
1769661448811443700,10.355443603515624,0.095703125,0.942108154296875,0.320037841796875
1769661448821431800,10.365431884765625,0.0930328369140625,0.94061279296875,0.3209381103515625
1769661448831419000,10.3754189453125,0.0886688232421875,0.9398345947265625,0.3209381103515625
1769661448841406700,10.38540673828125,0.089874267578125,0.939910888671875,0.31793212890625
1769661448851394600,10.39539453125,0.0926971435546875,0.9397735595703125,0.31787109375
1769661448861382700,10.405382568359375,0.0938873291015625,0.9405670166015625,0.31695556640625
1769661448871370800,10.415370849609374,0.0951690673828125,0.939056396484375,0.31756591796875
1769661448881358800,10.42535888671875,0.09149169921875,0.9386749267578125,0.3189697265625
1769661448891345700,10.435345703125,0.0921630859375,0.938232421875,0.3208465576171875
1769661448901333800,10.445333740234375,0.09149169921875,0.93682861328125,0.3217010498046875
1769661448911321900,10.45532177734375,0.092010498046875,0.9363861083984375,0.3236846923828125
1769661448921309700,10.465309814453125,0.09088134765625,0.9366607666015625,0.3248443603515625
1769661448931297800,10.4752978515625,0.0915679931640625,0.9387359619140625,0.3219757080078125
1769661448941286000,10.485285888671875,0.0919647216796875,0.9404754638671875,0.3199462890625
1769661448951272700,10.495272705078126,0.0913543701171875,0.939971923828125,0.319671630859375
1769661448961260800,10.5052607421875,0.088775634765625,0.9399566650390625,0.3196258544921875
1769661448971249000,10.515248779296876,0.089447021484375,0.9378662109375,0.319793701171875
1769661448981236700,10.52523681640625,0.08990478515625,0.937225341796875,0.3197021484375
1769661448991224800,10.535224853515626,0.0892486572265625,0.9357757568359375,0.32012939453125
1769661449001213000,10.545212890625,0.0891265869140625,0.9383392333984375,0.3213348388671875
1769661449011199700,10.55519970703125,0.08990478515625,0.9374237060546875,0.3209991455078125
1769661449021187800,10.565187744140625,0.0932464599609375,0.9384002685546875,0.320892333984375
1769661449031176000,10.575176025390626,0.097198486328125,0.939483642578125,0.3209075927734375
1769661449041163800,10.585163818359375,0.098358154296875,0.942047119140625,0.3213653564453125
1769661449051152000,10.59515185546875,0.0962982177734375,0.9414215087890625,0.31939697265625
1769661449061139700,10.6051396484375,0.0912628173828125,0.94085693359375,0.318267822265625
1769661449071126800,10.615126708984375,0.09027099609375,0.9412689208984375,0.3189544677734375
1769661449081115000,10.625114990234374,0.0904693603515625,0.9362335205078125,0.3183135986328125
1769661449091102700,10.635102783203125,0.0880279541015625,0.9345550537109375,0.32269287109375
1769661449101090600,10.645090576171874,0.08978271484375,0.937408447265625,0.3216552734375
1769661449111078700,10.65507861328125,0.0908966064453125,0.94012451171875,0.3195343017578125
1769661449121066800,10.665066650390624,0.089569091796875,0.94140625,0.318878173828125
1769661449131054800,10.675054931640625,0.0891876220703125,0.9441986083984375,0.321685791015625
1769661449141041700,10.685041748046874,0.093841552734375,0.9439544677734375,0.322418212890625
1769661449151029800,10.69502978515625,0.099578857421875,0.940185546875,0.32330322265625
1769661449161017600,10.705017578125,0.1034088134765625,0.9372711181640625,0.322296142578125
1769661449171005700,10.715005615234375,0.1019134521484375,0.9363555908203125,0.3220062255859375
1769661449180993800,10.724993896484374,0.0949859619140625,0.9340362548828125,0.3217315673828125
1769661449190982000,10.73498193359375,0.08941650390625,0.93328857421875,0.321197509765625
1769661449200968700,10.74496875,0.086700439453125,0.9328460693359375,0.3211212158203125
1769661449210956800,10.754956787109375,0.0887603759765625,0.9340972900390625,0.321533203125
1769661449220945000,10.76494482421875,0.08734130859375,0.9351348876953125,0.3210296630859375
1769661449230932700,10.7749326171875,0.0877685546875,0.9383697509765625,0.3188629150390625
1769661449240920800,10.7849208984375,0.0893096923828125,0.940155029296875,0.3178558349609375
1769661449250909000,10.794908935546875,0.0876007080078125,0.9442291259765625,0.320220947265625
1769661449260895700,10.804895751953126,0.0861053466796875,0.943389892578125,0.3190765380859375
1769661449270883800,10.8148837890625,0.0924224853515625,0.949249267578125,0.3275299072265625
1769661449280872000,10.824871826171876,0.0989837646484375,0.94342041015625,0.3206634521484375
1769661449290859800,10.83485986328125,0.093780517578125,0.9375457763671875,0.3224334716796875
1769661449300847900,10.844847900390626,0.091094970703125,0.936553955078125,0.3277435302734375
1769661449310835700,10.854835693359375,0.0975341796875,0.9337158203125,0.3272247314453125
1769661449320822800,10.86482275390625,0.100372314453125,0.930511474609375,0.3245086669921875
1769661449330811000,10.874810791015625,0.1017913818359375,0.932708740234375,0.3234100341796875
1769661449340799000,10.884799072265626,0.0982666015625,0.936370849609375,0.3263092041015625
1769661449350786600,10.89478662109375,0.0934906005859375,0.9378814697265625,0.325836181640625
1769661449360774700,10.904774658203126,0.0900726318359375,0.9394378662109375,0.324127197265625
1769661449370762800,10.9147626953125,0.089263916015625,0.9424285888671875,0.32232666015625
1769661449380749800,10.924749755859375,0.0894927978515625,0.9421539306640625,0.324676513671875
1769661449390737700,10.934737548828124,0.088592529296875,0.9410858154296875,0.3260040283203125
1769661449400725800,10.944725830078125,0.087799072265625,0.941650390625,0.3289031982421875
1769661449410713600,10.954713623046874,0.0870361328125,0.9381256103515625,0.328369140625
1769661449420701700,10.96470166015625,0.08905029296875,0.9369964599609375,0.32794189453125
1769661449430689800,10.974689697265624,0.0893096923828125,0.935546875,0.3290863037109375
1769661449440676600,10.984676513671875,0.0898895263671875,0.9327850341796875,0.3254241943359375
1769661449450664700,10.994664794921874,0.0929107666015625,0.9320068359375,0.32415771484375
1769661449460652800,11.00465283203125,0.0950775146484375,0.9337310791015625,0.323760986328125
1769661449470640600,11.014640625,0.0922393798828125,0.93646240234375,0.3242950439453125
1769661449480628700,11.024628662109375,0.0901947021484375,0.93707275390625,0.3268890380859375
1769661449490616800,11.034616943359374,0.0912322998046875,0.938018798828125,0.3270416259765625
1769661449500605000,11.04460498046875,0.0926361083984375,0.9395751953125,0.3266143798828125
1769661449510591700,11.054591796875,0.093597412109375,0.939727783203125,0.3277130126953125
1769661449520579800,11.064579833984375,0.094757080078125,0.93939208984375,0.3271942138671875
1769661449530567700,11.074567626953124,0.09295654296875,0.937713623046875,0.32708740234375
1769661449540555800,11.0845556640625,0.0947723388671875,0.9380340576171875,0.3270721435546875
1769661449550544000,11.0945439453125,0.092254638671875,0.935150146484375,0.3265380859375
1769661449560532000,11.104531982421875,0.0931396484375,0.934478759765625,0.32391357421875
1769661449570518800,11.114518798828126,0.0917816162109375,0.934967041015625,0.322967529296875
1769661449580507000,11.1245068359375,0.088134765625,0.9357147216796875,0.320770263671875
1769661449590495000,11.134494873046876,0.086334228515625,0.9355621337890625,0.320953369140625
1769661449600482800,11.14448291015625,0.0891265869140625,0.936798095703125,0.31988525390625
1769661449610470700,11.154470703125,0.0897979736328125,0.9398040771484375,0.3248748779296875
1769661449620458800,11.164458740234375,0.08935546875,0.93768310546875,0.3251800537109375
1769661449630445800,11.17444580078125,0.0882720947265625,0.9372100830078125,0.3268585205078125
1769661449640433700,11.18443359375,0.0900421142578125,0.9374237060546875,0.327667236328125
1769661449650421800,11.194421875,0.089447021484375,0.9356231689453125,0.3274078369140625
1769661449660409600,11.20440966796875,0.0889739990234375,0.9334259033203125,0.3257904052734375
1769661449670397700,11.214397705078126,0.08831787109375,0.933807373046875,0.3250274658203125
1769661449680385800,11.2243857421875,0.0877685546875,0.9321441650390625,0.3257598876953125
1769661449690373600,11.23437353515625,0.0919342041015625,0.9320068359375,0.32568359375
1769661449700360700,11.244360595703125,0.0959320068359375,0.9330291748046875,0.3255767822265625
1769661449710348800,11.254348876953125,0.09600830078125,0.9343109130859375,0.3253936767578125
1769661449720336600,11.264336669921875,0.094390869140625,0.9367523193359375,0.325714111328125
1769661449730324700,11.27432470703125,0.09112548828125,0.9362640380859375,0.324432373046875
1769661449740312800,11.284312744140625,0.0911407470703125,0.93487548828125,0.3263397216796875
1769661449750300700,11.29430078125,0.0910491943359375,0.93743896484375,0.3256378173828125
1769661449760287700,11.304287841796874,0.0902252197265625,0.939239501953125,0.324188232421875
1769661449770275800,11.31427587890625,0.0889739990234375,0.94171142578125,0.3244171142578125
1769661449780263700,11.324263671875,0.0916900634765625,0.946044921875,0.3219757080078125
1769661449790251800,11.334251708984375,0.093109130859375,0.9465179443359375,0.32012939453125
1769661449800239900,11.344239990234374,0.09283447265625,0.94378662109375,0.31866455078125
1769661449810227700,11.354227783203125,0.09515380859375,0.9439239501953125,0.3152313232421875
1769661449820214800,11.36421484375,0.098663330078125,0.9423675537109375,0.3134765625
1769661449830203000,11.374202880859375,0.0991668701171875,0.9442291259765625,0.314666748046875
1769661449840190700,11.384190673828124,0.098785400390625,0.94775390625,0.31219482421875
1769661449850178800,11.3941787109375,0.0903778076171875,0.9420166015625,0.3143310546875
1769661449860167000,11.4041669921875,0.084808349609375,0.9373779296875,0.3123016357421875
1769661449870154500,11.414154541015625,0.082122802734375,0.932647705078125,0.30938720703125
1769661449880141800,11.424141845703126,0.0812835693359375,0.9281463623046875,0.312164306640625
1769661449890130000,11.4341298828125,0.0840911865234375,0.9265594482421875,0.3119659423828125
1769661449900117800,11.44411767578125,0.0853118896484375,0.932586669921875,0.312652587890625
1769661449910105600,11.454105712890625,0.084686279296875,0.9440460205078125,0.320648193359375
1769661449920093700,11.46409375,0.08282470703125,0.9510498046875,0.3218994140625
1769661449930081500,11.47408154296875,0.084259033203125,0.947967529296875,0.31976318359375
1769661449940069600,11.484069580078126,0.098052978515625,0.9463653564453125,0.319793701171875
1769661449950056700,11.494056640625,0.1101837158203125,0.9414520263671875,0.32000732421875
1769661449960044500,11.50404443359375,0.10675048828125,0.937469482421875,0.321807861328125
1769661449970032600,11.51403271484375,0.0983428955078125,0.9370574951171875,0.3217620849609375
1769661449980020700,11.524020751953126,0.092864990234375,0.9368438720703125,0.3179473876953125
1769661449990008800,11.5340087890625,0.0897369384765625,0.9350433349609375,0.3165283203125
1769661449999996700,11.54399658203125,0.0900726318359375,0.934600830078125,0.314544677734375
1769661450009983700,11.553983642578125,0.09100341796875,0.9358367919921875,0.314727783203125
1769661450019971600,11.5639716796875,0.0918731689453125,0.9368743896484375,0.3142547607421875
1769661450029959700,11.573959716796875,0.09039306640625,0.93902587890625,0.3166046142578125
1769661450039947800,11.58394775390625,0.090789794921875,0.9397125244140625,0.3182525634765625
1769661450049936000,11.593935791015625,0.093170166015625,0.9380950927734375,0.321990966796875
1769661450059923700,11.603923828125,0.095916748046875,0.9355010986328125,0.32470703125
1769661450069910800,11.613910888671874,0.0973968505859375,0.9322509765625,0.3214263916015625
1769661450079899000,11.62389892578125,0.09765625,0.9375152587890625,0.32958984375
1769661450089886700,11.63388671875,0.1014862060546875,0.9390411376953125,0.3309173583984375
1769661450099874800,11.643874755859375,0.1007080078125,0.935760498046875,0.3240814208984375
1769661450109863000,11.65386279296875,0.0998382568359375,0.9337005615234375,0.3248138427734375
1769661450119850800,11.663850830078125,0.101806640625,0.9355621337890625,0.32781982421875
1769661450129838600,11.673838623046874,0.104949951171875,0.9376373291015625,0.3324737548828125
1769661450139826000,11.683825927734375,0.107696533203125,0.9388580322265625,0.3311309814453125
1769661450149813800,11.693813720703124,0.1078338623046875,0.939910888671875,0.32763671875
1769661450159801600,11.703801513671875,0.1009368896484375,0.9347381591796875,0.324127197265625
1769661450169789700,11.713789794921874,0.098236083984375,0.9339447021484375,0.3222503662109375
1769661450179777500,11.723777587890625,0.0974273681640625,0.931884765625,0.3248443603515625
1769661450189765600,11.733765625,0.101165771484375,0.93145751953125,0.3244781494140625
1769661450199752700,11.743752685546875,0.103607177734375,0.9362335205078125,0.3224945068359375
1769661450209740500,11.753740478515626,0.10125732421875,0.9356842041015625,0.321563720703125
1769661450219728600,11.763728759765625,0.1051483154296875,0.9333343505859375,0.326416015625
1769661450229716700,11.773716796875,0.1108551025390625,0.93170166015625,0.3303680419921875
1769661450239704600,11.78370458984375,0.11456298828125,0.9329986572265625,0.3369140625
1769661450249692700,11.793692626953124,0.1200408935546875,0.9335479736328125,0.340118408203125
1769661450259680800,11.8036806640625,0.1281585693359375,0.935546875,0.338714599609375
1769661450269667600,11.81366748046875,0.12481689453125,0.934356689453125,0.34014892578125
1769661450279655700,11.82365576171875,0.11907958984375,0.925689697265625,0.3373565673828125
1769661450289643800,11.833643798828126,0.1181182861328125,0.9256134033203125,0.3431854248046875
1769661450299631900,11.8436318359375,0.1198883056640625,0.9307403564453125,0.33984375
1769661450309619700,11.85361962890625,0.1338958740234375,0.9385833740234375,0.331146240234375
1769661450319607800,11.86360791015625,0.12774658203125,0.938507080078125,0.329437255859375
1769661450329594600,11.8735947265625,0.1150360107421875,0.931854248046875,0.3287506103515625
1769661450339582700,11.883582763671875,0.1121368408203125,0.9220428466796875,0.337615966796875
1769661450349570800,11.89357080078125,0.1284942626953125,0.9233551025390625,0.3392333984375
1769661450359559000,11.903558837890625,0.1348419189453125,0.93182373046875,0.3326873779296875
1769661450369546800,11.913546630859376,0.1157989501953125,0.9445953369140625,0.3270416259765625
1769661450379534800,11.923534912109375,0.095672607421875,0.95562744140625,0.3038787841796875
1769661450389522000,11.93352197265625,0.069366455078125,0.951263427734375,0.2941436767578125
1769661450399509800,11.943509765625,0.051177978515625,0.934967041015625,0.30352783203125
1769661450409497900,11.953497802734375,0.0736083984375,0.9357757568359375,0.308929443359375
1769661450419485700,11.963485595703125,0.091552734375,0.93768310546875,0.3134765625
1769661450429473500,11.9734736328125,0.0904541015625,0.9344940185546875,0.3186798095703125
1769661450439461600,11.983461669921875,0.09295654296875,0.9409027099609375,0.3217926025390625
1769661450449449700,11.99344970703125,0.0972900390625,0.9373626708984375,0.321136474609375
1769661450459436500,12.0034365234375,0.10955810546875,0.9318695068359375,0.32354736328125
1769661450469424600,12.013424560546875,0.1124267578125,0.92742919921875,0.321014404296875
1769661450479412700,12.023412841796874,0.118499755859375,0.9285430908203125,0.31512451171875
1769661450489400600,12.033400634765625,0.1241302490234375,0.9344940185546875,0.31622314453125
1769661450499388700,12.043388671875,0.1198272705078125,0.9379730224609375,0.3212432861328125
1769661450509376800,12.053376708984375,0.1107025146484375,0.93902587890625,0.3255462646484375
1769661450519363600,12.063363525390624,0.108795166015625,0.938873291015625,0.3269500732421875
1769661450529351700,12.0733515625,0.1082763671875,0.940643310546875,0.32354736328125
1769661450539339800,12.08333984375,0.105743408203125,0.944854736328125,0.320953369140625
1769661450549327600,12.09332763671875,0.0974273681640625,0.9456024169921875,0.32183837890625
1769661450559315700,12.103315673828124,0.0953521728515625,0.9459991455078125,0.3183441162109375
1769661450569303800,12.1133037109375,0.0984039306640625,0.9445953369140625,0.3172760009765625
1769661450579292000,12.1232919921875,0.1020965576171875,0.939910888671875,0.31793212890625
1769661450589278700,12.13327880859375,0.11029052734375,0.937408447265625,0.313262939453125
1769661450599266800,12.143266845703126,0.1140899658203125,0.9349517822265625,0.3122406005859375
1769661450609255000,12.1532548828125,0.1136474609375,0.9308319091796875,0.3101043701171875
1769661450619242800,12.16324267578125,0.1160736083984375,0.934967041015625,0.311737060546875
1769661450629230800,12.17323095703125,0.120269775390625,0.94036865234375,0.3148040771484375
1769661450639218700,12.18321875,0.116607666015625,0.9423675537109375,0.3196258544921875
1769661450649205800,12.193205810546875,0.1087188720703125,0.94549560546875,0.3253631591796875
1769661450659193900,12.20319384765625,0.1020965576171875,0.9427947998046875,0.3302459716796875
1769661450669181700,12.213181640625,0.0985870361328125,0.9391326904296875,0.3346710205078125
1769661450679169500,12.22316943359375,0.100067138671875,0.936370849609375,0.3355712890625
1769661450689157600,12.23315771484375,0.102386474609375,0.9374542236328125,0.3336944580078125
1769661450699145700,12.243145751953126,0.1062774658203125,0.9409942626953125,0.33233642578125
1769661450709133600,12.253133544921875,0.1079254150390625,0.940826416015625,0.3301849365234375
1769661450719120600,12.26312060546875,0.106201171875,0.9390716552734375,0.3275146484375
1769661450729108700,12.273108642578125,0.107421875,0.9351654052734375,0.3258056640625
1769661450739096600,12.2830966796875,0.114715576171875,0.931121826171875,0.3238372802734375
1769661450749084700,12.293084716796875,0.11279296875,0.9260406494140625,0.324981689453125
1769661450759072800,12.30307275390625,0.1073150634765625,0.9222564697265625,0.327667236328125
1769661450769060400,12.313060302734375,0.101776123046875,0.9255828857421875,0.3291015625
1769661450779047200,12.323047119140625,0.0915679931640625,0.9301605224609375,0.3319549560546875
1769661450789035300,12.33303515625,0.0834197998046875,0.934783935546875,0.3352813720703125
1769661450799023400,12.3430234375,0.08477783203125,0.938568115234375,0.33563232421875
1769661450809011500,12.353011474609374,0.0878448486328125,0.9382476806640625,0.3358154296875
1769661450818999300,12.362999267578125,0.0952301025390625,0.93829345703125,0.3336334228515625
1769661450828987400,12.3729873046875,0.103363037109375,0.9363250732421875,0.332122802734375
1769661450838975500,12.3829755859375,0.108734130859375,0.932525634765625,0.32958984375
1769661450848962300,12.39296240234375,0.1099700927734375,0.9309539794921875,0.3284759521484375
1769661450858950400,12.402950439453125,0.10906982421875,0.9307708740234375,0.3296966552734375
1769661450868938500,12.4129384765625,0.105010986328125,0.9287261962890625,0.3308563232421875
1769661450878926300,12.42292626953125,0.1011199951171875,0.9262542724609375,0.331695556640625
1769661450888914400,12.43291455078125,0.102142333984375,0.926361083984375,0.3334808349609375
1769661450898902500,12.442902587890625,0.102996826171875,0.9252777099609375,0.3342742919921875
1769661450908889300,12.452889404296876,0.1017608642578125,0.924102783203125,0.3351287841796875
1769661450918877400,12.46287744140625,0.1014862060546875,0.9254913330078125,0.3383026123046875
1769661450928865500,12.472865478515626,0.1008148193359375,0.9308624267578125,0.34197998046875
1769661450938853400,12.482853271484375,0.0982513427734375,0.9338226318359375,0.34130859375
1769661450948841200,12.49284130859375,0.097808837890625,0.9393768310546875,0.3367919921875
1769661450958829300,12.502829345703125,0.09637451171875,0.939300537109375,0.3360595703125
1769661450968816400,12.51281640625,0.1005859375,0.9368896484375,0.33135986328125
1769661450978804200,12.52280419921875,0.1056976318359375,0.935028076171875,0.3305816650390625
1769661450988792300,12.532792236328126,0.1081695556640625,0.9326934814453125,0.330657958984375
1769661450998780200,12.5427802734375,0.1082763671875,0.9315338134765625,0.329071044921875
1769661451008768300,12.552768310546876,0.1078338623046875,0.932342529296875,0.3293609619140625
1769661451018756400,12.56275634765625,0.107940673828125,0.9332122802734375,0.3291778564453125
1769661451028744400,12.572744384765626,0.1088409423828125,0.9347381591796875,0.3280181884765625
1769661451038731300,12.582731201171875,0.1055450439453125,0.935577392578125,0.329681396484375
1769661451048719400,12.59271923828125,0.101409912109375,0.9390869140625,0.329315185546875
1769661451058707200,12.602707275390625,0.0980377197265625,0.9382171630859375,0.3289337158203125
1769661451068695300,12.6126953125,0.094573974609375,0.937744140625,0.328887939453125
1769661451078683400,12.622683349609375,0.0947723388671875,0.936248779296875,0.32958984375
1769661451088671500,12.63267138671875,0.09527587890625,0.9359283447265625,0.3301849365234375
1769661451098658300,12.642658203125,0.0974578857421875,0.9346923828125,0.3321075439453125
1769661451108646400,12.652646484375,0.0995635986328125,0.9339599609375,0.332611083984375
1769661451118634500,12.662634521484375,0.1027374267578125,0.9334869384765625,0.3337554931640625
1769661451128622300,12.672622314453125,0.110382080078125,0.932525634765625,0.333251953125
1769661451138610400,12.6826103515625,0.114227294921875,0.9307861328125,0.335113525390625
1769661451148598500,12.6925986328125,0.11248779296875,0.9293060302734375,0.3359527587890625
1769661451158586400,12.70258642578125,0.1122589111328125,0.9297943115234375,0.33740234375
1769661451168573400,12.712573486328125,0.110870361328125,0.9297943115234375,0.33831787109375
1769661451178561500,12.7225615234375,0.1111907958984375,0.93231201171875,0.3383636474609375
1769661451188549400,12.73254931640625,0.109527587890625,0.9354400634765625,0.3391876220703125
1769661451198537500,12.742537353515624,0.1056671142578125,0.936676025390625,0.3388824462890625
1769661451208525300,12.752525390625,0.104766845703125,0.9366912841796875,0.3361358642578125
1769661451218513200,12.76251318359375,0.1006317138671875,0.93572998046875,0.3345794677734375
1769661451228500500,12.77250048828125,0.100830078125,0.9333038330078125,0.33172607421875
1769661451238488300,12.78248828125,0.10394287109375,0.9314117431640625,0.329742431640625
1769661451248476200,12.79247607421875,0.1056060791015625,0.9310760498046875,0.332916259765625
1769661451258464300,12.80246435546875,0.10687255859375,0.9315032958984375,0.33135986328125
1769661451268452400,12.812452392578125,0.10577392578125,0.9324188232421875,0.3319244384765625
1769661451278440200,12.822440185546874,0.1042938232421875,0.9335174560546875,0.33154296875
1769661451288428300,12.83242822265625,0.104095458984375,0.9327392578125,0.33245849609375
1769661451298415400,12.842415283203126,0.102569580078125,0.9326629638671875,0.33392333984375
1769661451308403200,12.8524033203125,0.100860595703125,0.93206787109375,0.333892822265625
1769661451318391300,12.862391357421876,0.10064697265625,0.9327850341796875,0.3329620361328125
1769661451328379400,12.87237939453125,0.100738525390625,0.9324493408203125,0.3334503173828125
1769661451338367500,12.882367431640626,0.102294921875,0.9319000244140625,0.3336181640625
1769661451348355300,12.892355224609375,0.104644775390625,0.9311981201171875,0.3351593017578125
1769661451358342400,12.90234228515625,0.107086181640625,0.9317169189453125,0.33612060546875
1769661451368330200,12.912330322265625,0.109710693359375,0.93017578125,0.335113525390625
1769661451378318300,12.922318359375,0.1016387939453125,0.919342041015625,0.3331298828125
1769661451388306400,12.932306396484375,0.1121063232421875,0.9318084716796875,0.336822509765625
1769661451398294500,12.94229443359375,0.120086669921875,0.9354400634765625,0.3358917236328125
1769661451408282400,12.952282470703125,0.1104278564453125,0.9292755126953125,0.336578369140625
1769661451418270500,12.9622705078125,0.1031951904296875,0.92626953125,0.3371124267578125
1769661451428257500,12.972257568359375,0.1020050048828125,0.916656494140625,0.3352203369140625
1769661451438245400,12.982245361328125,0.105865478515625,0.922393798828125,0.335601806640625
1769661451448233500,12.9922333984375,0.109649658203125,0.9340057373046875,0.3409881591796875
1769661451458221300,13.00222119140625,0.100982666015625,0.935302734375,0.340362548828125
1769661451468209200,13.012209228515625,0.09521484375,0.9386444091796875,0.343353271484375
1769661451478197200,13.022197265625,0.0916595458984375,0.9373016357421875,0.343231201171875
1769661451488184600,13.0321845703125,0.0925750732421875,0.9361114501953125,0.3377532958984375
1769661451498172200,13.042172119140625,0.0950164794921875,0.9342803955078125,0.3381500244140625
1769661451508160300,13.05216015625,0.1032562255859375,0.93524169921875,0.3334503173828125
1769661451518148400,13.0621484375,0.110809326171875,0.9397735595703125,0.3339691162109375
1769661451528136200,13.07213623046875,0.1176300048828125,0.9398193359375,0.3344268798828125
1769661451538124300,13.082124267578125,0.12359619140625,0.9385223388671875,0.334259033203125
1769661451548112400,13.0921123046875,0.1283111572265625,0.9352264404296875,0.3357391357421875
1769661451558099200,13.10209912109375,0.12646484375,0.933685302734375,0.3356475830078125
1769661451568087300,13.11208740234375,0.1217041015625,0.933563232421875,0.33465576171875
1769661451578075400,13.122075439453125,0.118194580078125,0.9344940185546875,0.333831787109375
1769661451588063200,13.132063232421874,0.11529541015625,0.9333038330078125,0.33245849609375
1769661451598051300,13.14205126953125,0.1118927001953125,0.9311981201171875,0.3295440673828125
1769661451608039400,13.152039306640624,0.10638427734375,0.9306182861328125,0.33123779296875
