time,seconds_elapsed,z,y,x
1769661438528975600,0.0729755859375,0.06043320894241333,0.08991739153862,-0.1807669699192047
1769661438538963000,0.082962890625,0.06855611503124237,0.0930418148636818,-0.23289649188518524
1769661438548950800,0.09295068359375,0.08406927436590195,0.09334246814250946,-0.2771904170513153
1769661438558938600,0.102938720703125,0.09064222127199173,0.1035357192158699,-0.3078548312187195
1769661438568926700,0.1129267578125,0.08209329843521118,0.1300884187221527,-0.3177121579647064
1769661438578914800,0.122914794921875,0.06454706192016602,0.17324388027191162,-0.3003044128417969
1769661438588902700,0.132902587890625,0.047468699514865875,0.2156490832567215,-0.23439668118953705
1769661438598889700,0.1428896484375,0.05411914736032486,0.19440743327140808,-0.23284433782100677
1769661438608877600,0.152877685546875,0.07569156587123871,0.13437560200691223,-0.22729459404945374
1769661438618865700,0.16286572265625,0.08595751971006393,0.09234212338924408,-0.20028801262378693
1769661438628853800,0.172853759765625,0.08649251610040665,0.07248492538928986,-0.1517028510570526
1769661438638841900,0.182841796875,0.07441641390323639,0.05970947816967964,-0.09736238420009613
1769661438648828700,0.19282861328125,0.06203540787100792,0.03251897171139717,-0.0526258610188961
1769661438658816800,0.202816650390625,0.055637430399656296,-0.024977341294288635,-0.019680429250001907
1769661438668804600,0.2128046875,0.052423860877752304,-0.10081920027732849,-0.003909055143594742
1769661438678792700,0.222792724609375,0.04558912292122841,-0.14808444678783417,0.007328152656555176
1769661438688780800,0.23278076171875,0.04081600159406662,-0.1582878828048706,0.015749750658869743
1769661438698769000,0.242768798828125,0.03248509764671326,-0.16534791886806488,0.015446948818862438
1769661438708755700,0.252755615234375,0.03412763029336929,-0.15358321368694305,0.011854823678731918
1769661438718743800,0.262743896484375,0.02308749407529831,-0.1482081562280655,0.005570029374212027
1769661438728732000,0.27273193359375,0.02005394920706749,-0.12789708375930786,0.0046671004965901375
1769661438738719700,0.2827197265625,0.01735350489616394,-0.10739394277334213,-0.0008653500117361546
1769661438748708000,0.2927080078125,0.015378975309431553,-0.08512160181999207,0.007211335469037294
1769661438758696200,0.3026962890625,0.019077839329838753,-0.07107023149728775,0.016048502177000046
1769661438768683300,0.312683349609375,0.029788650572299957,-0.06921153515577316,0.012029847130179405
1769661438778671000,0.322671142578125,0.041926804929971695,-0.06059248000383377,-0.004514774307608604
1769661438788659200,0.3326591796875,0.05090762674808502,-0.052431173622608185,-0.014644334092736244
1769661438798647000,0.34264697265625,0.05560065060853958,-0.048088088631629944,-0.013790259137749672
1769661438808635000,0.352634765625,0.05817871168255806,-0.041853517293930054,-0.006215943023562431
1769661438818623000,0.362623046875,0.055146172642707825,-0.03009352833032608,0.004555211402475834
1769661438828610300,0.3726103515625,0.05033169314265251,-0.030825935304164886,0.01096893846988678
1769661438838598000,0.382597900390625,0.04923074319958687,-0.04316702112555504,0.013823048211634159
1769661438848586000,0.3925859375,0.045313652604818344,-0.055181920528411865,0.016370587050914764
1769661438858574000,0.402573974609375,0.04139721021056175,-0.07212681323289871,0.021132051944732666
1769661438868562000,0.41256201171875,0.03743729740381241,-0.09526802599430084,0.022939126938581467
1769661438878549000,0.422549072265625,0.031690727919340134,-0.11584068089723587,0.025702156126499176
1769661438888537000,0.432537109375,0.028577396646142006,-0.1352522075176239,0.02794978767633438
1769661438898525000,0.44252490234375,0.02660825476050377,-0.14661698043346405,0.030499763786792755
1769661438908513000,0.452512939453125,0.02787928655743599,-0.1500338315963745,0.032478149980306625
1769661438918501000,0.462501220703125,0.02945028617978096,-0.14177510142326355,0.03459323197603226
1769661438928489200,0.4724892578125,0.028237057849764824,-0.12070275843143463,0.029067758470773697
1769661438938476000,0.48247607421875,0.027864480391144753,-0.09269881993532181,0.019403677433729172
1769661438948464000,0.492464111328125,0.027535945177078247,-0.057765889912843704,0.0033454145304858685
1769661438958452000,0.502451904296875,0.03267664462327957,-0.024997824802994728,-0.013799218460917473
1769661438968440000,0.512440185546875,0.03635047748684883,0.0020013032481074333,-0.0332951545715332
1769661438978428200,0.52242822265625,0.042982812970876694,0.020331574603915215,-0.04887411370873451
1769661438988416300,0.532416259765625,0.051283419132232666,0.020252389833331108,-0.05423785373568535
1769661438998403000,0.542403076171875,0.05367573723196983,0.025359269231557846,-0.04954163357615471
1769661439008391200,0.55239111328125,0.05195942148566246,0.027553725987672806,-0.04707680270075798
1769661439018379300,0.562379150390625,0.049397725611925125,0.02294406108558178,-0.053187958896160126
1769661439028367000,0.5723671875,0.04419669136404991,0.018447186797857285,-0.05813154950737953
1769661439038355200,0.582355224609375,0.03680828586220741,0.012936841696500778,-0.0658123716711998
1769661439048342000,0.592342041015625,0.03612339869141579,0.006782252341508865,-0.07080542296171188
1769661439058330000,0.602330078125,0.035520993173122406,-0.0017033778131008148,-0.07216203212738037
1769661439068318200,0.612318115234375,0.03750421851873398,-0.012659460306167603,-0.0708535686135292
1769661439078306300,0.622306396484375,0.04117831587791443,-0.0205280352383852,-0.06210587918758392
1769661439088294100,0.632294189453125,0.03979386016726494,-0.026182077825069427,-0.0515083484351635
1769661439098282000,0.642281982421875,0.03663881495594978,-0.022485876455903053,-0.043179310858249664
1769661439108269300,0.652269287109375,0.030073652043938637,-0.014487430453300476,-0.050127096474170685
1769661439118257200,0.662257080078125,0.026289567351341248,-0.00590193085372448,-0.0679100900888443
1769661439128245000,0.672244873046875,0.02529953606426716,0.0014753805007785559,-0.08449305593967438
1769661439138233000,0.682233154296875,0.026603685691952705,0.007548453286290169,-0.09225057810544968
1769661439148221000,0.692220947265625,0.03268488496541977,0.010993163101375103,-0.08775010704994202
1769661439158209000,0.702208984375,0.036691609770059586,0.019288377836346626,-0.07309872657060623
1769661439168196000,0.712196044921875,0.03997649624943733,0.030122267082333565,-0.059020739048719406
1769661439178184000,0.722183837890625,0.04105480760335922,0.03258595988154411,-0.05296497792005539
1769661439188172000,0.732172119140625,0.03807734698057175,0.03942161798477173,-0.05526958405971527
1769661439198160100,0.74216015625,0.03456330671906471,0.042889054864645004,-0.06759016215801239
1769661439208148000,0.75214794921875,0.03240397945046425,0.030428053811192513,-0.0767873153090477
1769661439218135000,0.762135009765625,0.030272919684648514,0.012181139551103115,-0.08297623693943024
1769661439228123100,0.772123046875,0.027203381061553955,-0.0032433480955660343,-0.08357976377010345
1769661439238111000,0.782111083984375,0.027400720864534378,-0.011832309886813164,-0.08217627555131912
1769661439248099000,0.79209912109375,0.02352534793317318,-0.012983391061425209,-0.08382835239171982
1769661439258087200,0.802087158203125,0.025846026837825775,-0.013038251549005508,-0.08628671616315842
1769661439268075000,0.812074951171875,0.027151774615049362,-0.00793084129691124,-0.09173660725355148
1769661439278062000,0.82206201171875,0.028856197372078896,0.0009294949704781175,-0.09259281307458878
1769661439288050200,0.83205029296875,0.034815382212400436,0.010297976434230804,-0.08629542589187622
1769661439298038000,0.8420380859375,0.03791343793272972,0.01520085521042347,-0.07749980688095093
1769661439308026000,0.852026123046875,0.04189235717058182,0.021298646926879883,-0.0694938525557518
1769661439318014200,0.86201416015625,0.04135040193796158,0.0363236702978611,-0.06584372371435165
1769661439328002300,0.872002197265625,0.0379609540104866,0.04660117253661156,-0.06709186732769012
1769661439337989000,0.881989013671875,0.03624508157372475,0.043166760355234146,-0.07208609580993652
1769661439347977200,0.891977294921875,0.03978576511144638,0.03602102771401405,-0.07528696954250336
1769661439357965000,0.901965087890625,0.04627881571650505,0.027851250022649765,-0.07307947427034378
1769661439367953200,0.911953125,0.05031104385852814,0.024053407832980156,-0.06887847185134888
1769661439377941200,0.921941162109375,0.05298645421862602,0.030411703512072563,-0.06144212186336517
1769661439387928000,0.931927978515625,0.0502132885158062,0.03501281142234802,-0.05303768813610077
1769661439397916200,0.941916259765625,0.04073350131511688,0.036841604858636856,-0.05136336013674736
1769661439407904300,0.951904296875,0.03549835830926895,0.029822027310729027,-0.052980098873376846
1769661439417892000,0.96189208984375,0.03471751883625984,0.014789548702538013,-0.05775248631834984
1769661439427880000,0.9718798828125,0.03258030489087105,0.0019452885026112199,-0.05928454175591469
1769661439437868000,0.981867919921875,0.035503923892974854,-0.012874137610197067,-0.055181678384542465
1769661439447855000,0.991855224609375,0.035366497933864594,-0.022405831143260002,-0.047682199627161026
1769661439457843000,1.001843017578125,0.0321001298725605,-0.029843773692846298,-0.038653284311294556
1769661439467831000,1.0118310546875,0.02826196700334549,-0.037183746695518494,-0.03377194330096245
1769661439477819100,1.021819091796875,0.02237771265208721,-0.04613782837986946,-0.03222890943288803
1769661439487807000,1.031806884765625,0.021388236433267593,-0.045674748718738556,-0.03322231024503708
1769661439497794000,1.0417939453125,0.017800159752368927,-0.04305020347237587,-0.032711781561374664
1769661439507782000,1.051781982421875,0.016452349722385406,-0.03845488280057907,-0.0342647060751915
1769661439517770000,1.06177001953125,0.012422189116477966,-0.04108448699116707,-0.03218024969100952
1769661439527758000,1.071758056640625,0.011249005794525146,-0.03527900576591492,-0.0339047908782959
1769661439537746200,1.08174609375,0.009028994478285313,-0.027519885450601578,-0.03733627498149872
1769661439547734000,1.091734130859375,0.007969384081661701,-0.021398136392235756,-0.03955214470624924
1769661439557721000,1.10172119140625,0.009204824455082417,-0.014104271307587624,-0.03331342339515686
1769661439567709200,1.111709228515625,0.010585925541818142,-0.010906150564551353,-0.030706964433193207
1769661439577697000,1.121697021484375,0.00825406238436699,-0.009820645675063133,-0.02560674399137497
1769661439587685000,1.13168505859375,0.007686228957027197,-0.010825328528881073,-0.02387559413909912
1769661439597673200,1.141673095703125,0.004393762908875942,-0.017752744257450104,-0.024005023762583733
1769661439607660000,1.151659912109375,0.001731761498376727,-0.026088692247867584,-0.024023588746786118
1769661439617648000,1.161648193359375,-0.0027780355885624886,-0.039879076182842255,-0.02596849575638771
1769661439627636200,1.17163623046875,-0.004354296252131462,-0.042441654950380325,-0.026844007894396782
1769661439637624000,1.1816240234375,-0.005068023223429918,-0.03428226336836815,-0.024900168180465698
1769661439647612200,1.191612060546875,-0.005476805381476879,-0.020799411460757256,-0.019772805273532867
1769661439657600300,1.201600341796875,-0.0010932423174381256,-0.01553434319794178,-0.013217967003583908
1769661439667587000,1.211587158203125,0.0001916524488478899,-0.011917710304260254,-0.014131533913314342
1769661439677575200,1.2215751953125,0.002585833892226219,-0.017575595527887344,-0.01692172884941101
1769661439687563300,1.231563232421875,0.0031989743001759052,-0.02029314450919628,-0.017541343346238136
1769661439697551000,1.241551025390625,0.0049883523024618626,-0.020181026309728622,-0.010728711262345314
1769661439707539200,1.251539306640625,0.00614781491458416,-0.016291720792651176,-0.008548226207494736
1769661439717527000,1.261527099609375,0.007397370412945747,-0.005798334255814552,-0.00672236317768693
1769661439727514000,1.27151416015625,0.0063873715698719025,0.0020435284823179245,-0.0075402273796498775
1769661439737502200,1.281502197265625,0.008819902315735817,0.008359214290976524,-0.012690247967839241
1769661439747490000,1.291489990234375,0.005250798538327217,0.016371507197618484,-0.02004842460155487
1769661439757478000,1.301477783203125,0.008623692207038403,0.022401703521609306,-0.027308201417326927
1769661439767465700,1.3114658203125,0.006999180652201176,0.01612759754061699,-0.0259055495262146
1769661439777452800,1.321452880859375,0.009679651819169521,0.0026874232571572065,-0.029122915118932724
1769661439787441000,1.33144091796875,0.008842578157782555,0.0027644902002066374,-0.03220224753022194
1769661439797428700,1.3414287109375,0.007746953517198563,0.008619982749223709,-0.031036317348480225
1769661439807416600,1.35141650390625,0.006389020476490259,0.012615585699677467,-0.027345996350049973
1769661439817404700,1.36140478515625,0.0054180314764380455,0.011431809514760971,-0.024752343073487282
1769661439827392800,1.371392822265625,0.001986476592719555,0.012109058909118176,-0.029255347326397896
1769661439837379600,1.381379638671875,0.0034062075428664684,0.01050503645092249,-0.036176905035972595
1769661439847367700,1.39136767578125,0.003605879843235016,0.006338072940707207,-0.038961105048656464
1769661439857355800,1.401355712890625,0.0034871031530201435,0.002050117589533329,-0.039025288075208664
1769661439867343600,1.411343505859375,0.0038605809677392244,0.0001383370254188776,-0.03347172960639
1769661439877331700,1.421331787109375,0.004982837475836277,0.0029165467713028193,-0.02925035171210766
1769661439887318800,1.43131884765625,0.005345529410988092,0.005356164649128914,-0.021197158843278885
1769661439897306600,1.441306640625,0.006737829651683569,0.005951381288468838,-0.01755368895828724
1769661439907294700,1.451294677734375,0.0035940459929406643,0.007027807645499706,-0.0212567001581192
1769661439917282800,1.46128271484375,0.0011785589158535004,0.0150529770180583,-0.032532792538404465
1769661439927270700,1.471270751953125,0.00018568907398730516,0.01899242401123047,-0.04548446089029312
1769661439937258800,1.4812587890625,0.000775046763010323,0.014563586562871933,-0.055617522448301315
1769661439947245800,1.491245849609375,0.006007217336446047,0.004459933377802372,-0.05488886311650276
1769661439957233700,1.501233642578125,0.011354045942425728,-0.0017311170231550932,-0.0405069962143898
1769661439967221800,1.5112216796875,0.013650229200720787,0.005439157597720623,-0.016750285401940346
1769661439977209900,1.5212099609375,0.014218013733625412,0.014368204399943352,0.0008593351813033223
1769661439987198000,1.531197998046875,0.008757133036851883,0.012871617451310158,0.002684815088286996
1769661439997184800,1.541184814453125,0.007258039899170399,0.011708615347743034,-0.0066580865532159805
1769661440007172900,1.5511728515625,0.008970391936600208,0.005732011515647173,-0.016395552083849907
1769661440017160700,1.56116064453125,0.007717907894402742,0.00499005476012826,-0.02441060170531273
1769661440027148800,1.571148681640625,0.00895688682794571,0.0015534864505752921,-0.02263708971440792
1769661440037137000,1.581136962890625,0.008941708132624626,-0.0041933488100767136,-0.02027779445052147
1769661440047124700,1.591124755859375,0.010917803272604942,-0.0067741163074970245,-0.015161920338869095
1769661440057111800,1.60111181640625,0.012339930981397629,0.00193308899179101,-0.011357596144080162
1769661440067100000,1.611099853515625,0.012967324815690517,0.012512624263763428,-0.01059397216886282
1769661440077088000,1.621087890625,0.013330579735338688,0.015743304044008255,-0.011511963792145252
1769661440087075600,1.63107568359375,0.012534577399492264,0.014773949980735779,-0.012242505326867104
1769661440097063700,1.641063720703125,0.014390533789992332,0.010586662217974663,-0.014371702447533607
1769661440107050800,1.65105078125,0.01604037545621395,0.010239452123641968,-0.01871640607714653
1769661440117038800,1.661038818359375,0.018108053132891655,0.008919590152800083,-0.01895262859761715
1769661440127026700,1.671026611328125,0.01944182999432087,0.005084014032036066,-0.016260836273431778
1769661440137014800,1.681014892578125,0.01920294389128685,0.0017441436648368835,-0.018511738628149033
1769661440147002600,1.691002685546875,0.01749955676496029,0.0035427408292889595,-0.023457970470190048
1769661440156990700,1.70099072265625,0.01707291789352894,0.011570307426154613,-0.0280348788946867
1769661440166977800,1.710977783203125,0.015077879652380943,0.013161102309823036,-0.03227982670068741
1769661440176965600,1.720965576171875,0.016011850908398628,0.010923782363533974,-0.03565271943807602
1769661440186953700,1.73095361328125,0.014690892770886421,0.013490699231624603,-0.03816189244389534
1769661440196941800,1.74094189453125,0.011042095720767975,0.02105088159441948,-0.03647424653172493
1769661440206929700,1.7509296875,0.010864084586501122,0.03228377923369408,-0.03770759701728821
1769661440216917800,1.760917724609375,0.017149677500128746,0.03951452672481537,-0.03818962723016739
1769661440226904800,1.77090478515625,0.020615454763174057,0.03654223680496216,-0.04084468260407448
1769661440236892700,1.780892578125,0.02316436730325222,0.0323173962533474,-0.04164709523320198
1769661440246880800,1.790880859375,0.02396804466843605,0.030947823077440262,-0.042303431779146194
1769661440256868900,1.800868896484375,0.023638611659407616,0.026407666504383087,-0.037369392812252045
1769661440266856700,1.810856689453125,0.024215199053287506,0.021855328232049942,-0.0375923253595829
1769661440276843800,1.82084375,0.023067109286785126,0.014550808817148209,-0.03452862426638603
1769661440286831900,1.830831787109375,0.019906552508473396,0.013831699267029762,-0.03195750713348389
1769661440296819700,1.84081982421875,0.014977041631937027,0.024256110191345215,-0.02920273318886757
1769661440306807800,1.850807861328125,0.008687891066074371,0.032408833503723145,-0.03073279559612274
1769661440316796000,1.8607958984375,0.009488703683018684,0.03285464644432068,-0.032195668667554855
1769661440326783700,1.87078369140625,0.008838878944516182,0.02915172278881073,-0.03578079491853714
1769661440336770800,1.880770751953125,0.010979528538882732,0.01989457570016384,-0.03968552500009537
1769661440346759000,1.890759033203125,0.013680223375558853,0.016988761723041534,-0.042169149965047836
1769661440356746800,1.900746826171875,0.016621951013803482,0.02056671865284443,-0.03681912645697594
1769661440366734800,1.91073486328125,0.0165842417627573,0.02552453801035881,-0.02870841510593891
1769661440376722700,1.92072265625,0.015492877922952175,0.028813008219003677,-0.01961984485387802
1769661440386709800,1.930709716796875,0.007589839864522219,0.03502635285258293,-0.012699143029749393
1769661440396697900,1.94069775390625,-0.0022809007205069065,0.03400023654103279,-0.015373488888144493
1769661440406686000,1.95068603515625,-0.013072952628135681,0.02810920961201191,-0.023776579648256302
1769661440416673500,1.960673583984375,-0.02691792882978916,0.02661277912557125,-0.0383259616792202
1769661440426661600,1.97066162109375,-0.027992263436317444,0.03349727764725685,-0.05677470564842224
1769661440436649700,1.980649658203125,-0.027639660984277725,0.024660645052790642,-0.07630766183137894
1769661440446636800,1.99063671875,-0.023004790768027306,0.00909285806119442,-0.08843950182199478
1769661440456624600,2.000624755859375,-0.021244442090392113,0.0020181708969175816,-0.09732300788164139
1769661440466612700,2.01061279296875,-0.020494069904088974,0.01767854578793049,-0.09833746403455734
1769661440476600600,2.0206005859375,-0.017137421295046806,0.033969368785619736,-0.09083906561136246
1769661440486588700,2.030588623046875,-0.01923547126352787,0.03945062682032585,-0.08590047806501389
1769661440496575700,2.04057568359375,-0.02614504285156727,0.029529552906751633,-0.0904582142829895
1769661440506563600,2.0505634765625,-0.03159782662987709,0.016466941684484482,-0.10279297828674316
1769661440516551700,2.0605517578125,-0.03273313492536545,0.008830860257148743,-0.12060020864009857
1769661440526539800,2.070539794921875,-0.03019009530544281,0.006440071389079094,-0.13862952589988708
1769661440536528000,2.08052783203125,-0.01700771227478981,-0.004213105421513319,-0.1486233025789261
1769661440546515700,2.090515625,-0.004742975812405348,-0.00983748771250248,-0.15602357685565948
1769661440556502800,2.100502685546875,0.008356047794222832,-0.0012482607271522284,-0.1485012173652649
1769661440566490600,2.11049072265625,0.020373450592160225,0.02054113894701004,-0.1387397050857544
1769661440576478700,2.120478759765625,0.026434272527694702,0.0501544252038002,-0.12960372865200043
1769661440586466800,2.130466796875,0.0311698280274868,0.0736485943198204,-0.12458778917789459
1769661440596455000,2.140454833984375,0.03145825117826462,0.09041452407836914,-0.12912873923778534
1769661440606441700,2.150441650390625,0.031126495450735092,0.08960117399692535,-0.14187531173229218
1769661440616429800,2.160429931640625,0.033253561705350876,0.07846516370773315,-0.15914803743362427
1769661440626418000,2.17041796875,0.03482962027192116,0.06236851587891579,-0.17205318808555603
1769661440636405800,2.18040576171875,0.04420607537031174,0.04541376605629921,-0.18691734969615936
1769661440646393900,2.190393798828125,0.05367795377969742,0.035728324204683304,-0.1958438903093338
1769661440656382000,2.2003818359375,0.06395243108272552,0.026891425251960754,-0.20036274194717407
1769661440666368800,2.21036865234375,0.07519905269145966,0.02490871213376522,-0.20142899453639984
1769661440676356900,2.22035693359375,0.07740228623151779,0.03243773430585861,-0.1994052678346634
1769661440686345000,2.230344970703125,0.06822342425584793,0.0444946251809597,-0.18747852742671967
1769661440696332800,2.240332763671875,0.05827491730451584,0.056180842220783234,-0.17822377383708954
1769661440706320600,2.250320556640625,0.04427296668291092,0.05778269097208977,-0.17064446210861206
1769661440716308700,2.260308837890625,0.029217055067420006,0.043437305837869644,-0.16501054167747498
1769661440726295800,2.2702958984375,0.02148071676492691,0.018222084268927574,-0.16166670620441437
1769661440736284000,2.280283935546875,0.012073099613189697,0.003235412063077092,-0.1537850797176361
1769661440746271700,2.290271728515625,0.010493247769773006,0.014245808124542236,-0.14781148731708527
1769661440756259600,2.300259521484375,0.007493996061384678,0.03256675973534584,-0.14566205441951752
1769661440766247700,2.31024755859375,0.010238027200102806,0.043993547558784485,-0.1513778120279312
1769661440776234800,2.32023486328125,0.019737789407372475,0.05035131052136421,-0.1631481796503067
1769661440786222600,2.33022265625,0.026873789727687836,0.06381165981292725,-0.17339187860488892
1769661440796210700,2.340210693359375,0.02714410051703453,0.07479746639728546,-0.18090173602104187
1769661440806198800,2.35019873046875,0.02982936054468155,0.07576396316289902,-0.1865295171737671
1769661440816186600,2.3601865234375,0.026368318125605583,0.06881151348352432,-0.19250032305717468
1769661440826174700,2.3701748046875,0.014914769679307938,0.06988898664712906,-0.19265061616897583
1769661440836161800,2.380161865234375,0.009156748652458191,0.08166894316673279,-0.19602270424365997
1769661440846149600,2.390149658203125,0.009514346718788147,0.09497977793216705,-0.20192600786685944
1769661440856137700,2.4001376953125,0.016836974769830704,0.10594960302114487,-0.20889709889888763
1769661440866125800,2.410125732421875,0.018094584345817566,0.11661653965711594,-0.21010683476924896
1769661440876113700,2.42011376953125,0.02377430722117424,0.12184619158506393,-0.20141081511974335
1769661440886100700,2.430100830078125,0.03625400364398956,0.12494435906410217,-0.19210225343704224
1769661440896088800,2.4400888671875,0.04352762922644615,0.13518473505973816,-0.18024159967899323
1769661440906076700,2.45007666015625,0.046782564371824265,0.15397924184799194,-0.16464455425739288
1769661440916064800,2.460064697265625,0.04761000722646713,0.1750568300485611,-0.1536100059747696
1769661440926052900,2.470052978515625,0.04130915179848671,0.18053820729255676,-0.14647763967514038
1769661440936041000,2.480041015625,0.032548416405916214,0.17969664931297302,-0.14238037168979645
1769661440946027800,2.49002783203125,0.026780329644680023,0.18525904417037964,-0.1429288238286972
1769661440956015900,2.500015869140625,0.020544538274407387,0.1920948475599289,-0.14774541556835175
1769661440966003700,2.510003662109375,0.009371872991323471,0.1965593695640564,-0.15631166100502014
1769661440975991800,2.51999169921875,-0.00007063138764351606,0.20838381350040436,-0.16676004230976105
1769661440985980000,2.52997998046875,-0.008657950907945633,0.2149239033460617,-0.18019230663776398
1769661440995966700,2.539966796875,-0.010662512853741646,0.2093147486448288,-0.1951954960823059
1769661441005954800,2.549954833984375,-0.01088701281696558,0.1857297569513321,-0.2128722369670868
1769661441015943000,2.55994287109375,-0.009679802693426609,0.16517548263072968,-0.23344381153583527
1769661441025931000,2.569930908203125,0.01144883781671524,0.1424526572227478,-0.2617621123790741
1769661441035918600,2.579918701171875,0.02745576575398445,0.10642994195222855,-0.2864381670951843
1769661441045906700,2.58990673828125,0.03398973494768143,0.07742893695831299,-0.3043818175792694
1769661441055893800,2.599893798828125,0.04061488062143326,0.05316220968961716,-0.30286863446235657
1769661441065881900,2.6098818359375,0.04212890565395355,0.021883385255932808,-0.2797694504261017
1769661441075869700,2.61986962890625,0.03990676626563072,0.02116619609296322,-0.23365788161754608
1769661441085857800,2.62985791015625,0.03714548796415329,0.05396008491516113,-0.17451123893260956
1769661441095845600,2.639845703125,0.03191956505179405,0.09748412668704987,-0.1184261366724968
1769661441105832700,2.649832763671875,0.021394897252321243,0.12334007024765015,-0.09036470204591751
1769661441115820500,2.659820556640625,0.02732735499739647,0.1213512271642685,-0.07901270687580109
1769661441125808600,2.66980859375,0.031730767339468,0.09988150745630264,-0.07559802383184433
1769661441135796700,2.679796630859375,0.02474449761211872,0.07573328912258148,-0.07603691518306732
1769661441145784800,2.689784912109375,0.014142653904855251,0.05215854570269585,-0.07465273886919022
1769661441155772700,2.699772705078125,0.004837303422391415,0.0155965406447649,-0.05450991541147232
1769661441165759700,2.709759765625,-0.004710236098617315,-0.0195093285292387,-0.02924802526831627
1769661441175747800,2.719747802734375,-0.010938837192952633,-0.038070760667324066,-0.013893570750951767
1769661441185735700,2.729735595703125,-0.01579904928803444,-0.0638405978679657,0.01204817183315754
1769661441195723800,2.739723876953125,-0.01808430626988411,-0.07966563105583191,0.035538315773010254
1769661441205712000,2.7497119140625,-0.01994597353041172,-0.09808103740215302,0.05279502645134926
1769661441215698700,2.75969873046875,-0.023167598992586136,-0.10560020804405212,0.06129317358136177
1769661441225686800,2.769686767578125,-0.02343902736902237,-0.09653891623020172,0.05894198268651962
1769661441235675000,2.7796748046875,-0.019909273833036423,-0.09110207110643387,0.05499570816755295
1769661441245662700,2.789662841796875,-0.018050607293844223,-0.0878845676779747,0.042711783200502396
1769661441255650800,2.79965087890625,-0.010997224599123001,-0.08585576713085175,0.027841489762067795
1769661441265639000,2.809638916015625,-0.00738140381872654,-0.07472121715545654,0.012969238683581352
1769661441275625700,2.819625732421875,-0.0034777424298226833,-0.060730040073394775,-0.004714949056506157
1769661441285613800,2.82961376953125,0.0007122090319171548,-0.049582578241825104,-0.015894632786512375
1769661441295602000,2.839601806640625,0.004150616470724344,-0.031293850392103195,-0.02368597686290741
1769661441305589800,2.84958984375,0.006747405044734478,-0.013684170320630074,-0.026663541793823242
1769661441315577900,2.859577880859375,0.00552527979016304,-0.0023162008728832006,-0.03050301969051361
1769661441325565700,2.869565673828125,0.00658327154815197,0.0013925705570727587,-0.03415857255458832
1769661441335552800,2.879552734375,0.004670323804020882,0.003606189973652363,-0.03896318003535271
1769661441345540900,2.889540771484375,0.0023207885678857565,0.0015108030056580901,-0.042342014610767365
1769661441355528700,2.89952880859375,0.000605979235842824,0.0003363490104675293,-0.04231218621134758
1769661441365516500,2.9095166015625,-0.003607829101383686,-0.006424303632229567,-0.040493205189704895
1769661441375504600,2.919504638671875,-0.007720815017819405,-0.01830892637372017,-0.03744335100054741
1769661441385492000,2.929491943359375,-0.01287846826016903,-0.021667126566171646,-0.028371207416057587
1769661441395479600,2.9394794921875,-0.01762901432812214,-0.025653347373008728,-0.019637903198599815
1769661441405467600,2.949467529296875,-0.013582308776676655,-0.03428538143634796,-0.01563044637441635
1769661441415455700,2.959455810546875,-0.011852851137518883,-0.03926948457956314,-0.02043265849351883
1769661441425443600,2.969443603515625,-0.012157328426837921,-0.04485704377293587,-0.02337236888706684
1769661441435431700,2.979431640625,-0.008016911335289478,-0.043941713869571686,-0.022656777873635292
1769661441445418800,2.989418701171875,-0.005724556744098663,-0.04349644482135773,-0.011146672070026398
1769661441455406600,2.999406494140625,-0.0037567471154034138,-0.03171035647392273,-0.00512819504365325
1769661441465394700,3.009394775390625,0.0029968274757266045,-0.01792486198246479,-0.006495860405266285
1769661441475382800,3.0193828125,0.010203341022133827,-0.007445588707923889,-0.01931365393102169
1769661441485371000,3.029370849609375,0.013520888984203339,0.0038391631096601486,-0.023720216006040573
1769661441495358700,3.039358642578125,0.014548868872225285,0.013789531774818897,-0.019121203571558
1769661441505345800,3.049345703125,0.01853087544441223,0.013982751406729221,-0.005094960331916809
1769661441515333600,3.059333740234375,0.019650999456644058,0.008589050732553005,0.009662147611379623
1769661441525321700,3.06932177734375,0.011240827850997448,0.008411192335188389,0.01569190062582493
1769661441535309800,3.079309814453125,0.00503885792568326,0.006882271729409695,0.012464948929846287
1769661441545298000,3.0892978515625,0.006531890016049147,0.0042054373770952225,0.0019152380991727114
1769661441555284700,3.09928466796875,0.009552713483572006,0.00005303649231791496,-0.0076324609108269215
1769661441565272800,3.10927294921875,0.01039529126137495,-0.006043611094355583,-0.013121671974658966
1769661441575261000,3.119260986328125,0.01207494642585516,-0.00019291252829134464,-0.012921137735247612
1769661441585248800,3.129248779296875,0.012789897620677948,0.006402594968676567,-0.007360778748989105
1769661441595236900,3.13923681640625,0.01265247818082571,0.00931103341281414,-0.0047245146706700325
1769661441605225000,3.149224853515625,0.010982831940054893,0.014801623299717903,-0.004399915691465139
1769661441615211800,3.159211669921875,0.0135439932346344,0.023826809599995613,-0.008068153634667397
1769661441625199900,3.169199951171875,0.01277280692011118,0.030775971710681915,-0.00992077961564064
1769661441635188000,3.17918798828125,0.015198147855699062,0.04030023515224457,-0.00650634104385972
1769661441645175800,3.18917578125,0.01499914936721325,0.04948234558105469,-0.004984761588275433
1769661441655163600,3.19916357421875,0.018941160291433334,0.05375565588474274,-0.009287364780902863
1769661441665151000,3.20915087890625,0.01838826760649681,0.06236031651496887,-0.017100227996706963
1769661441675138800,3.219138916015625,0.015539216808974743,0.07543936371803284,-0.024571195244789124
1769661441685126700,3.229126708984375,0.010357551276683807,0.07989976555109024,-0.024762503802776337
1769661441695114800,3.23911474609375,0.013135228306055069,0.0855877473950386,-0.02755189873278141
1769661441705102600,3.2491025390625,0.014171107672154903,0.08506465703248978,-0.03144180402159691
1769661441715090700,3.259090576171875,0.015134106390178204,0.06999942660331726,-0.03303197771310806
1769661441725077800,3.269077880859375,0.01669006235897541,0.06745629012584686,-0.03430204093456268
1769661441735065600,3.279065673828125,0.01999025233089924,0.07524523138999939,-0.024074172601103783
1769661441745053700,3.2890537109375,0.019885405898094177,0.07770887017250061,-0.011196358129382133
1769661441755041800,3.299041748046875,0.021978383883833885,0.06943576037883759,0.0011031856993213296
1769661441765030000,3.30902978515625,0.017199775204062462,0.05844118446111679,0.0018820965196937323
1769661441775017700,3.319017822265625,0.01604156568646431,0.03460003435611725,-0.002766184974461794
1769661441785004800,3.3290048828125,0.01304556056857109,0.03140941262245178,-0.006086189299821854
1769661441794993000,3.338992919921875,0.007126419339329004,0.026356862857937813,-0.00591468159109354
1769661441804980700,3.348980712890625,0.00460073770955205,0.013334475457668304,-0.011011555790901184
1769661441814968800,3.35896875,-0.00012237834744155407,0.006738091353327036,-0.012373763136565685
1769661441824957000,3.36895703125,0.0009187629912048578,0.010314233601093292,-0.016278183087706566
1769661441834943700,3.37894384765625,-0.0010037729516625404,0.016905291005969048,-0.017418015748262405
1769661441844931800,3.388931884765625,-0.001289193518459797,0.024690672755241394,-0.024482470005750656
1769661441854920000,3.398919921875,0.0003936580615118146,0.03141968324780464,-0.03598812595009804
1769661441864907800,3.40890771484375,-0.0070306784473359585,0.04287591949105263,-0.044598959386348724
1769661441874896000,3.418895751953125,0.0009915615664795041,0.04854125902056694,-0.05943543091416359
1769661441884884000,3.428884033203125,0.004778117407113314,0.04277126491069794,-0.07094788551330566
1769661441894870800,3.438870849609375,0.00674406299367547,0.05013730004429817,-0.0776718333363533
1769661441904859000,3.44885888671875,0.00800449401140213,0.06284786760807037,-0.07428101450204849
1769661441914847000,3.458846923828125,0.0070646642707288265,0.06453897058963776,-0.06724894046783447
1769661441924834800,3.468834716796875,0.0066650486551225185,0.05973953381180763,-0.06045333296060562
1769661441934823000,3.478822998046875,0.004272730555385351,0.06486878544092178,-0.059850387275218964
1769661441944810800,3.488810791015625,0.0022119595669209957,0.06395022571086884,-0.06723476946353912
1769661441954797800,3.4987978515625,-0.0005579941207543015,0.060695040971040726,-0.07895933091640472
1769661441964786000,3.508785888671875,0.0015905594918876886,0.04986577108502388,-0.08700485527515411
1769661441974773800,3.518773681640625,0.003755709622055292,0.04320547357201576,-0.08740831911563873
1769661441984761900,3.528761962890625,0.009207474067807198,0.04604208841919899,-0.08276909589767456
1769661441994749700,3.538749755859375,0.010943588800728321,0.05597008764743805,-0.07028313726186752
1769661442004737000,3.548737060546875,0.0112980417907238,0.05633300915360451,-0.05949491262435913
1769661442014724600,3.558724609375,0.011124404147267342,0.056313835084438324,-0.05668101832270622
1769661442024712700,3.568712646484375,0.012269314378499985,0.06143300235271454,-0.057986270636320114
1769661442034700800,3.57870068359375,0.012971590273082256,0.07000066339969635,-0.05639183521270752
1769661442044689000,3.58868896484375,0.014248179271817207,0.06804101914167404,-0.0529710091650486
1769661442054676700,3.5986767578125,0.016228772699832916,0.05899052694439888,-0.04696717858314514
1769661442064663800,3.608663818359375,0.01755194365978241,0.04587584361433983,-0.04289330169558525
1769661442074652000,3.61865185546875,0.02140314131975174,0.03896387293934822,-0.034563466906547546
1769661442084639700,3.6286396484375,0.02151709422469139,0.04588000103831291,-0.032602787017822266
1769661442094627800,3.6386279296875,0.02186703309416771,0.056371260434389114,-0.036518435925245285
1769661442104616000,3.648615966796875,0.0205930657684803,0.06904102116823196,-0.04271232336759567
1769661442114603800,3.658603759765625,0.02523016184568405,0.07406480610370636,-0.0462961383163929
1769661442124590800,3.6685908203125,0.027026638388633728,0.07534897327423096,-0.0457041934132576
1769661442134579000,3.678578857421875,0.023565327748656273,0.07723662257194519,-0.05077245458960533
1769661442144566800,3.68856689453125,0.01930185966193676,0.08250987529754639,-0.06010840833187103
1769661442154555000,3.698554931640625,0.014968628995120525,0.07962194085121155,-0.06693622469902039
1769661442164543000,3.70854296875,0.014820646494626999,0.06592006236314774,-0.07249227911233902
1769661442174529800,3.71852978515625,0.018084082752466202,0.04186133295297623,-0.08213158696889877
1769661442184518000,3.728517822265625,0.022200148552656174,0.01357332244515419,-0.08314362913370132
1769661442194506000,3.738506103515625,0.022684577852487564,0.012046531774103642,-0.08063866198062897
1769661442204493800,3.748493896484375,0.01828690990805626,0.018976405262947083,-0.06959668546915054
1769661442214482000,3.75848193359375,0.016871707513928413,0.020612651482224464,-0.06308126449584961
1769661442224470000,3.768469970703125,0.017991235479712486,0.024703357368707657,-0.07317610830068588
1769661442234456800,3.778456787109375,0.020259717479348183,0.03609156608581543,-0.08233951032161713
1769661442244445000,3.78844482421875,0.029194887727499008,0.04095955938100815,-0.08396483957767487
1769661442254433000,3.79843310546875,0.033515602350234985,0.03274530544877052,-0.08831990510225296
1769661442264420900,3.8084208984375,0.03130224719643593,0.016021186485886574,-0.08258505910634995
1769661442274408700,3.81840869140625,0.028040142729878426,0.005178659223020077,-0.04997331649065018
1769661442284396000,3.82839599609375,0.021173575893044472,-0.00026502157561481,-0.020295580849051476
1769661442294383900,3.8383837890625,0.019741328433156013,-0.010337628424167633,-0.00039058132097125053
1769661442304371700,3.848371826171875,0.01502483431249857,-0.025023438036441803,0.009371042251586914
1769661442314359800,3.85835986328125,0.012120657600462437,-0.03233594447374344,0.020694537088274956
1769661442324347600,3.86834765625,0.005096214823424816,-0.03824181109666824,0.024613818153738976
1769661442334335700,3.878335693359375,0.0008468747837468982,-0.04309888556599617,0.018217172473669052
1769661442344322800,3.88832275390625,0.001629448845051229,-0.041114650666713715,0.002872567856684327
1769661442354310700,3.898310546875,0.004987694788724184,-0.033115580677986145,-0.01609046943485737
1769661442364298800,3.908298828125,0.005581709090620279,-0.025927888229489326,-0.028202790766954422
1769661442374286800,3.918286865234375,0.009454743936657906,-0.016998840495944023,-0.028814785182476044
1769661442384275000,3.92827490234375,0.014490463770925999,-0.0042477380484342575,-0.023933101445436478
1769661442394262800,3.9382626953125,0.016913941130042076,0.008234763517975807,-0.018252843990921974
1769661442404249900,3.948249755859375,0.0166728924959898,0.014762867242097855,-0.020282912999391556
1769661442414237700,3.95823779296875,0.015410556457936764,0.010610733181238174,-0.02403157763183117
1769661442424225800,3.968225830078125,0.011706506833434105,0.0015641262289136648,-0.026086758822202682
1769661442434214000,3.9782138671875,0.005799615290015936,-0.005526806227862835,-0.0320810005068779
1769661442444202000,3.988201904296875,0.0035594115033745766,-0.019612658768892288,-0.0330028161406517
1769661442454188800,3.998188720703125,0.0038275918923318386,-0.03111857920885086,-0.029225390404462814
1769661442464177000,4.008177001953125,0.00020971777848899364,-0.03555796667933464,-0.019686270505189896
1769661442474165000,4.0181650390625,-0.005901438184082508,-0.03173765912652016,-0.005879645235836506
1769661442484152800,4.02815283203125,-0.008322423323988914,-0.03478856757283211,0.004470807500183582
1769661442494141000,4.038140869140625,-0.012601856142282486,-0.04267498850822449,0.005727553274482489
1769661442504129000,4.04812890625,-0.017056632786989212,-0.04973803088068962,0.0026345031801611185
1769661442514115800,4.05811572265625,-0.017979685217142105,-0.06143250688910484,-0.0014020497910678387
1769661442524104000,4.06810400390625,-0.017574477940797806,-0.06217537447810173,-0.004665506072342396
1769661442534092000,4.078092041015625,-0.014754455536603928,-0.057459715753793716,-0.004092393908649683
1769661442544080000,4.088079833984375,-0.01147837657481432,-0.05285979062318802,-0.0027759745717048645
1769661442554068000,4.09806787109375,-0.008961422368884087,-0.04431823268532753,0.001842212863266468
1769661442564055800,4.108055908203125,-0.008807385340332985,-0.03420799970626831,0.006899344269186258
1769661442574043000,4.11804296875,-0.0036547009367495775,-0.025878695771098137,0.0119463000446558
1769661442584031000,4.128031005859375,-0.002600604435428977,-0.024019239470362663,0.014638720080256462
1769661442594018800,4.138018798828125,-0.0022213703487068415,-0.023548658937215805,0.009619460441172123
1769661442604006700,4.148006591796875,-0.0021389788016676903,-0.02900255098938942,0.0065033528953790665
1769661442613994800,4.157994873046875,0.0009545491775497794,-0.03230700269341469,0.0043730903416872025
1769661442623982000,4.167982177734375,-0.0012462453451007605,-0.029744349420070648,0.003977268934249878
1769661442633969700,4.1779697265625,-0.00233254861086607,-0.028901193290948868,0.008527013473212719
1769661442643957800,4.187957763671875,-0.0026107889134436846,-0.02461170218884945,0.013527780771255493
1769661442653945900,4.19794580078125,-0.0017452616011723876,-0.01992134377360344,0.019137730821967125
1769661442663933700,4.20793359375,0.0017264997586607933,-0.012815852649509907,0.01612289994955063
1769661442673921800,4.217921875,0.004383535590022802,-0.0076224226504564285,0.017488569021224976
1769661442683908900,4.227908935546875,0.006318227853626013,-0.0017839870415627956,0.016991812735795975
1769661442693896700,4.237896728515625,0.007600539829581976,0.0021018313709646463,0.017218181863427162
1769661442703884800,4.247884765625,0.009809399954974651,0.0011026912834495306,0.0210418738424778
1769661442713873000,4.257872802734375,0.006783783435821533,0.009567548520863056,0.02358732372522354
1769661442723860700,4.26786083984375,0.007187015376985073,0.015142976306378841,0.021479373797774315
1769661442733848800,4.277848876953125,0.008178510703146458,0.014223653823137283,0.014812415465712547
1769661442743836000,4.2878359375,0.007832624949514866,0.013881106860935688,0.007603389210999012
1769661442753824000,4.297823974609375,0.00692368857562542,0.015202034264802933,0.0006522724870592356
1769661442763812000,4.30781201171875,0.006883320398628712,0.017130747437477112,-0.003766138106584549
1769661442773800200,4.31780029296875,0.006055875681340694,0.020759303122758865,-0.00694595230743289
1769661442783788300,4.327788330078125,0.007654991932213306,0.023223474621772766,-0.011921309866011143
1769661442793775000,4.337775146484375,0.00806352123618126,0.02962225303053856,-0.011798538267612457
1769661442803763200,4.34776318359375,0.005941763985902071,0.038419436663389206,-0.008699381723999977
1769661442813751000,4.3577509765625,0.0020199930295348167,0.04231511056423187,-0.0063866921700537205
1769661442823739100,4.3677392578125,0.0012275055050849915,0.042160265147686005,-0.005960468202829361
1769661442833727200,4.377727294921875,-0.0007379072485491633,0.039143968373537064,-0.010671067982912064
1769661442843715000,4.387715087890625,-0.002784203505143523,0.035600073635578156,-0.016546152532100677
1769661442853702100,4.3977021484375,-0.0033330810256302357,0.03236007317900658,-0.0212588831782341
1769661442863690200,4.407690185546875,-0.0013548495480790734,0.03133030980825424,-0.02272076904773712
1769661442873678000,4.417677978515625,-0.0032305140048265457,0.02855663001537323,-0.020441902801394463
1769661442883666000,4.427666015625,-0.002752030733972788,0.028096769005060196,-0.016979338601231575
1769661442893654000,4.437654052734375,-0.005073508247733116,0.0283668152987957,-0.009478545747697353
1769661442903642000,4.44764208984375,-0.007132458500564098,0.026741016656160355,-0.008915968239307404
1769661442913629000,4.45762890625,-0.005709265358746052,0.02353377267718315,-0.012935211881995201
1769661442923617000,4.467616943359375,-0.0050784568302333355,0.020811742171645164,-0.02316262573003769
1769661442933605000,4.477605224609375,-0.007597807329148054,0.023037079721689224,-0.026808492839336395
1769661442943593000,4.487593017578125,-0.007589065935462713,0.0224145594984293,-0.025591067969799042
1769661442953581000,4.4975810546875,-0.005234032869338989,0.016025369986891747,-0.020138777792453766
1769661442963569200,4.507569091796875,-0.005479339975863695,0.01945541985332966,-0.021656455472111702
1769661442973556000,4.517555908203125,-0.0048162126913666725,0.028218286111950874,-0.027564145624637604
1769661442983544000,4.5275439453125,-0.0008224361226893961,0.03336883708834648,-0.034043293446302414
1769661442993532200,4.5375322265625,-0.0006053885444998741,0.03269132599234581,-0.039037253707647324
1769661443003520000,4.54752001953125,0.003577697789296508,0.049512580037117004,-0.03374992683529854
1769661443013508000,4.557508056640625,0.00606402475386858,0.048442523926496506,-0.015589296817779541
1769661443023495200,4.5674951171875,0.004431691020727158,0.0299980491399765,0.01017056405544281
1769661443033483000,4.57748291015625,0.0008859586669132113,0.01873847097158432,0.02712957374751568
1769661443043471000,4.58747119140625,-0.005237292964011431,0.008282851427793503,0.026513278484344482
1769661443053459200,4.597459228515625,-0.008559053763747215,-0.010532114654779434,0.014953293837606907
1769661443063447000,4.607447021484375,-0.01138375699520111,-0.02836858667433262,0.0008385810069739819
1769661443073435100,4.61743505859375,-0.013916157186031342,-0.04048969969153404,-0.006941844243556261
1769661443083422200,4.627422119140625,-0.016489533707499504,-0.04008695110678673,-0.008241808041930199
1769661443093410000,4.63741015625,-0.013370439410209656,-0.026965821161866188,-0.002636652672663331
1769661443103398100,4.647398193359375,-0.007547455839812756,-0.012541914358735085,0.0028244631830602884
1769661443113386200,4.65738623046875,0.0004441577475517988,-0.0002943030558526516,0.006140098907053471
1769661443123374000,4.6673740234375,0.005371336825191975,0.012546573765575886,0.00688778143376112
1769661443133362200,4.677362060546875,0.007869914174079895,0.022876441478729248,0.007186587899923325
1769661443143349200,4.687349365234375,0.0075522419065237045,0.02636188268661499,0.003196828067302704
1769661443153337000,4.697337158203125,0.006926665082573891,0.025116588920354843,-0.002951079048216343
1769661443163325200,4.7073251953125,0.0030959146097302437,0.018908560276031494,-0.007278067525476217
1769661443173313000,4.71731298828125,0.0004687058972194791,0.00825698021799326,-0.010512476786971092
1769661443183301000,4.727301025390625,-0.004027478862553835,-0.005128765478730202,-0.005244002211838961
1769661443193288200,4.7372880859375,-0.0096121272072196,-0.018698902800679207,0.0018972638063132763
1769661443203276000,4.747276123046875,-0.011484909802675247,-0.03364257141947746,0.008341142907738686
1769661443213264000,4.757263916015625,-0.013154711574316025,-0.03532062843441963,0.011202177032828331
1769661443223252000,4.767251953125,-0.013340459205210209,-0.030994173139333725,0.009657259099185467
1769661443233240000,4.777239990234375,-0.013384134508669376,-0.03161122649908066,0.004201240837574005
1769661443243228200,4.787228271484375,-0.009752226993441582,-0.029144391417503357,-0.0022673511411994696
1769661443253215000,4.797215087890625,-0.009241432882845402,-0.022633761167526245,-0.005297228693962097
1769661443263203000,4.807203125,-0.00479710241779685,-0.022427493706345558,-0.009604986757040024
1769661443273191200,4.817191162109375,-0.004055944737046957,-0.02111189253628254,-0.01123963575810194
1769661443283179000,4.827178955078125,-0.0016557448543608189,-0.02070663310587406,-0.010514246299862862
1769661443293167000,4.8371669921875,-0.00012495985720306635,-0.01834680698812008,-0.00833418220281601
1769661443303155200,4.8471552734375,-0.0015312681207433343,-0.016497699543833733,-0.00400089705362916
1769661443313142000,4.85714208984375,-0.002937683369964361,-0.01791982725262642,0.0005970504134893417
1769661443323130000,4.867130126953125,-0.0038404306396842003,-0.025337884202599525,-0.0002776633482426405
1769661443333118200,4.8771181640625,-0.00432192999869585,-0.028050845488905907,-0.0022143139503896236
1769661443343106000,4.88710595703125,-0.003029338549822569,-0.029181700199842453,-0.004886053968220949
1769661443353094100,4.89709423828125,-0.0006045303889550269,-0.02585381269454956,-0.006612580735236406
1769661443363081000,4.9070810546875,-0.0012455279938876629,-0.016775501891970634,-0.006214747205376625
1769661443373069000,4.917069091796875,0.0016591817839071155,-0.007503441069275141,-0.0042261648923158646
1769661443383057200,4.92705712890625,0.0024970900267362595,-0.0001835001166909933,-0.005801578052341938
1769661443393045200,4.937045166015625,0.0038313334807753563,0.00685363681986928,-0.007584031671285629
1769661443403033000,4.947033203125,0.003638864727690816,0.016299579292535782,-0.010148277506232262
1769661443413021200,4.957021240234375,0.003838868113234639,0.01798216626048088,-0.013982696458697319
1769661443423008300,4.96700830078125,0.005170280113816261,0.018785621970891953,-0.024094123393297195
1769661443432996000,4.97699609375,0.004629924893379211,0.01918882504105568,-0.02948382869362831
1769661443442984200,4.986984130859375,0.006706341169774532,0.02121245115995407,-0.03178948536515236
1769661443452972300,4.99697216796875,0.00586424907669425,0.022434042766690254,-0.029419273138046265
1769661443462960000,5.006960205078125,0.006325417663902044,0.019788416102528572,-0.026854736730456352
1769661443472948000,5.016947998046875,0.008336903527379036,0.0056755272671580315,-0.023933516815304756
1769661443482935300,5.026935302734375,0.007246996276080608,0.008641870692372322,-0.02307462878525257
1769661443492923100,5.036923095703125,0.0066512469202280045,0.006212268024682999,-0.02138192392885685
1769661443502911000,5.046910888671875,0.006735330913215876,-0.001635796157643199,-0.014500446617603302
1769661443512899000,5.056899169921875,0.004602937959134579,-0.0038944229017943144,-0.009156547486782074
1769661443522887000,5.066886962890625,0.00253131240606308,-0.0018236753530800343,-0.0072892336174845695
1769661443532875000,5.076875,0.0006492562824860215,-0.0000172534491866827,-0.005781618878245354
1769661443542862000,5.086862060546875,-0.000962854886893183,-0.001971207093447447,-0.007516992278397083
1769661443552850000,5.096849853515625,-0.0037061769980937243,-0.002235925290733576,-0.008925005793571472
1769661443562838000,5.106838134765625,-0.0016386406496167183,-0.001708505442366004,-0.014977287501096725
1769661443572826000,5.116826171875,0.0013065491802990437,-0.0041325148195028305,-0.014846259728074074
1769661443582814000,5.12681396484375,0.004812291823327541,0.00756392627954483,-0.016106922179460526
1769661443592802000,5.136802001953125,0.008114345371723175,0.013810903765261173,-0.015905054286122322
1769661443602789000,5.1467890625,0.010275216773152351,0.01775713451206684,-0.01368873380124569
1769661443612777000,5.15677685546875,0.010253645479679108,0.023438191041350365,-0.010386945679783821
1769661443622765000,5.16676513671875,0.008300251327455044,0.025253746658563614,-0.01216388400644064
1769661443632753200,5.176753173828125,0.007280527148395777,0.01993807777762413,-0.016268881037831306
1769661443642741200,5.1867412109375,0.0064439112320542336,0.00963241420686245,-0.019429806619882584
1769661443652728000,5.19672802734375,0.005777854938060045,0.007297621574252844,-0.023465029895305634
1769661443662716200,5.206716064453125,0.008351679891347885,0.003542692866176367,-0.02973014861345291
1769661443672704000,5.2167041015625,0.0112422751262784,0.009874891489744186,-0.02389250136911869
1769661443682692000,5.226692138671875,0.010870705358684063,0.014297407120466232,-0.004770892672240734
1769661443692680200,5.23668017578125,0.012258478440344334,0.018264450132846832,0.014059253968298435
1769661443702668300,5.246668212890625,0.011214389465749264,0.02758808061480522,0.015640107914805412
1769661443712655000,5.256655029296875,0.013043714687228203,0.03719143941998482,0.007845035754144192
1769661443722643200,5.266643310546875,0.015413065440952778,0.040594782680273056,-0.012349316850304604
1769661443732631300,5.27663134765625,0.014903602190315723,0.04265899583697319,-0.02869446948170662
1769661443742619100,5.286619140625,0.016173839569091797,0.04391704127192497,-0.03108581341803074
1769661443752607200,5.296607177734375,0.014035321772098541,0.03669508174061775,-0.02117779105901718
1769661443762595000,5.306594970703125,0.007620766758918762,0.029874544590711594,-0.009894642047584057
1769661443772582400,5.31658251953125,-0.0022286679595708847,-0.008351670578122139,-0.006940663792192936
1769661443782570200,5.3265703125,-0.0024973510298877954,-0.03405613452196121,-0.009486169554293156
1769661443792558000,5.33655810546875,-0.012108433060348034,-0.02592470496892929,-0.013147217221558094
1769661443802546200,5.346546142578125,-0.015682879835367203,-0.03172173351049423,-0.014561718329787254
1769661443812534300,5.3565341796875,-0.01603308692574501,-0.04373791813850403,-0.014855731278657913
1769661443822522000,5.366522216796875,-0.01571548357605934,-0.04477846622467041,-0.01589120738208294
1769661443832509200,5.37650927734375,-0.011470137163996696,-0.03425977751612663,-0.014061084017157555
1769661443842497000,5.3864970703125,-0.011033173650503159,-0.020650960505008698,-0.01025264710187912
1769661443852485000,5.396485107421875,-0.008685862645506859,-0.016678854823112488,-0.007685092743486166
1769661443862473200,5.40647314453125,-0.011012150906026363,-0.015373678877949715,-0.0037204083055257797
1769661443872461300,5.41646142578125,-0.01156049594283104,-0.012613046914339066,-0.0005943896248936653
1769661443882448100,5.4264482421875,-0.012690681964159012,-0.011477271094918251,0.0006534508429467678
1769661443892436200,5.436436279296875,-0.01475836057215929,-0.010976596735417843,0.0010446690721437335
1769661443902424300,5.44642431640625,-0.014715934172272682,-0.015520799905061722,-0.003009096020832658
1769661443912412200,5.456412109375,-0.016600918024778366,-0.01851019822061062,-0.0014000141527503729
1769661443922400300,5.466400146484375,-0.01714608632028103,-0.01988336257636547,-0.0009459084831178188
1769661443932388400,5.476388427734375,-0.01817859336733818,-0.026454180479049683,-0.0005632122047245502
1769661443942375200,5.486375244140625,-0.019406139850616455,-0.027361266314983368,0.002144080586731434
1769661443952363300,5.49636328125,-0.01576186902821064,-0.015660401433706284,0.0032106766011565924
1769661443962351400,5.506351318359375,-0.012994603253901005,-0.00036465516313910484,0.0033393464982509613
1769661443972339200,5.516339111328125,-0.011114944703876972,0.012755141593515873,0.004948694724589586
1769661443982327300,5.526327392578125,-0.006352117285132408,0.022847555577754974,0.009732740931212902
1769661443992315400,5.5363154296875,-0.00753642525523901,0.030140088871121407,0.013654777780175209
1769661444002302200,5.54630224609375,-0.0049802931025624275,0.03588169813156128,0.01451572123914957
1769661444012290300,5.556290283203125,-0.0006459986907429993,0.03568968176841736,0.011968674138188362
1769661444022278400,5.5662783203125,0.0007755019469186664,0.03379349783062935,0.00924045592546463
1769661444032266200,5.576266357421875,0.001420253305695951,0.034370340406894684,0.011307600885629654
1769661444042254300,5.58625439453125,0.004129516892135143,0.034631162881851196,0.011608747765421867
1769661444052242200,5.5962421875,0.0024349477607756853,0.03392622619867325,0.007519995793700218
1769661444062229200,5.606229248046875,0.0021661403588950634,0.034222621470689774,0.001442852197214961
1769661444072217300,5.61621728515625,0.002179455943405628,0.03252432495355606,-0.00975014828145504
1769661444082205200,5.626205078125,0.003025340847671032,0.027293255552649498,-0.015321345999836922
1769661444092193000,5.636193115234375,0.004652798175811768,0.02440798655152321,-0.020626364275813103
1769661444102181000,5.64618115234375,0.005296874791383743,0.02307359129190445,-0.021487077698111534
1769661444112168200,5.656168212890625,0.00495891971513629,0.016195710748434067,-0.021127818152308464
1769661444122156000,5.666156005859375,0.0016533398302271962,0.011210628785192966,-0.019906627014279366
1769661444132144000,5.67614404296875,0.0009971369290724397,0.006339706480503082,-0.017318034544587135
1769661444142132200,5.68613232421875,0.0005256560398265719,0.0062511982396245,-0.010083366185426712
1769661444152120000,5.6961201171875,0.00017145555466413498,0.010111716575920582,-0.0022595319896936417
1769661444162108200,5.706108154296875,0.0007244596490636468,0.0073219831101596355,-0.00036440929397940636
1769661444172095200,5.71609521484375,0.0010994327021762729,0.007246615830808878,-0.0008320605847984552
1769661444182083000,5.7260830078125,0.0013058147160336375,0.0008360560750588775,-0.0023428502026945353
1769661444192071200,5.7360712890625,-0.001182909356430173,-0.0060420893132686615,-0.001312739448621869
1769661444202059300,5.746059326171875,-0.002257275627925992,-0.01240052655339241,-0.0005848021246492863
1769661444212047400,5.75604736328125,-0.002696963492780924,-0.011750714853405952,0.000650105532258749
1769661444222035200,5.76603515625,-0.001886842423118651,-0.008577619679272175,0.0033284665551036596
1769661444232022300,5.776022216796875,-0.0019185340497642756,-0.005375168286263943,0.005392416380345821
1769661444242010000,5.786010009765625,-0.0012701191008090973,-0.005217689089477062,0.002700093435123563
1769661444251998200,5.795998291015625,-0.0009007386979646981,-0.006596140563488007,0.004440469201654196
1769661444261986300,5.805986328125,-0.0020577404648065567,-0.009115071967244148,0.0041757323779165745
1769661444271974400,5.815974365234375,-0.0017653253162279725,-0.01144267525523901,0.0028042043559253216
1769661444281962200,5.825962158203125,-0.001840112847276032,-0.013810617849230766,0.00011378386989235878
1769661444291949300,5.83594921875,-0.0007479505147784948,-0.011096857488155365,-0.00317335594445467
1769661444301937200,5.845937255859375,0.00028616772033274174,-0.006743591744452715,-0.003695355961099267
1769661444311925200,5.85592529296875,0.0019594316836446524,-0.005432251375168562,-0.003665528493002057
1769661444321913300,5.865913330078125,0.0045331805013120174,-0.003393706167116761,-0.0020456798374652863
1769661444331901200,5.875901123046875,0.0035195816308259964,0.0001829192042350769,-0.0003532411064952612
1769661444341889000,5.885888916015625,0.004675287287682295,0.003456143895164132,0.0037948377430438995
1769661444351876400,5.89587646484375,0.004587669391185045,0.005022348836064339,0.007859354838728905
1769661444361864400,5.905864501953125,0.004150332883000374,0.009383234195411205,0.007695416919887066
1769661444371852000,5.91585205078125,0.005353815853595734,0.013759074732661247,0.008674660697579384
1769661444381840100,5.925840087890625,0.003264226019382477,0.011820023879408836,0.010365640744566917
1769661444391828200,5.935828125,0.005725253373384476,0.0140118058770895,0.004065933637320995
1769661444401815300,5.945815185546875,0.00941131729632616,0.014837878756225109,-0.0018230772111564875
1769661444411803100,5.95580322265625,0.01066966075450182,0.013925746083259583,0.0014041411923244596
1769661444421791200,5.965791259765625,0.01119864173233509,0.011413294821977615,0.004862635396420956
1769661444431779000,5.975779052734375,0.008821237832307816,0.011711036786437035,0.0008921285625547171
1769661444441767200,5.98576708984375,0.009520825929939747,0.01523001678287983,-0.008373502641916275
1769661444451755300,5.99575537109375,0.007181238383054733,0.015732023864984512,-0.01845170184969902
1769661444461742000,6.0057421875,0.009373783133924007,0.01437426172196865,-0.025989703834056854
1769661444471730200,6.015730224609375,0.01098020188510418,0.016978299245238304,-0.023824553936719894
1769661444481718300,6.02571826171875,0.010978528298437595,0.024463407695293427,-0.016167012974619865
1769661444491706000,6.0357060546875,0.00766635499894619,0.02152327634394169,-0.005587873049080372
1769661444501694200,6.045694091796875,0.001338529516942799,0.022605640813708305,0.006772427354007959
1769661444511682300,6.055682373046875,0.000406689359806478,0.010466154664754868,0.0162197258323431
1769661444521669000,6.065669189453125,0.000043459003791213036,-0.0074216453358531,0.020233601331710815
1769661444531657200,6.0756572265625,-0.002610114635899663,-0.012543436139822006,0.018208269029855728
1769661444541645300,6.085645263671875,-0.001508553745225072,-0.018375517800450325,0.017973490059375763
1769661444551633200,6.095633056640625,0.0011841683881357312,-0.016401583328843117,0.010876165702939034
1769661444561621200,6.105621337890625,0.003628404811024666,-0.008488863706588745,0.004238525405526161
1769661444571609300,6.115609375,0.006183174904435873,-0.0027444246225059032,-0.0024923481978476048
1769661444581596200,6.12559619140625,0.008424208499491215,0.0018383050337433815,-0.006840720772743225
1769661444591584300,6.135584228515625,0.010840760543942451,0.004589882679283619,-0.012883965857326984
1769661444601572400,6.145572265625,0.015285970643162727,0.010101652704179287,-0.011908713728189468
1769661444611560200,6.155560302734375,0.02035742811858654,0.017921756953001022,-0.008096931502223015
1769661444621548300,6.16554833984375,0.02168983779847622,0.024158449843525887,-0.007961167022585869
1769661444631536000,6.1755361328125,0.022069072350859642,0.027278874069452286,-0.012596134096384048
1769661444641523200,6.185523193359375,0.02250731736421585,0.022500580176711082,-0.009546853601932526
1769661444651511300,6.19551123046875,0.01954854466021061,0.019575096666812897,-0.006430955603718758
1769661444661499100,6.2054990234375,0.016841979697346687,0.0092262988910079,-0.004465294070541859
1769661444671487200,6.2154873046875,0.016588181257247925,-0.013700056821107864,-0.006705012638121843
1769661444681475000,6.22547509765625,0.013044863007962704,-0.025456538423895836,-0.003975311294198036
1769661444691463200,6.235463134765625,0.01362143736332655,-0.02270868793129921,0.0024570217356085777
1769661444701450000,6.245449951171875,0.01237906701862812,-0.017407117411494255,0.008394826203584671
1769661444711438000,6.25543798828125,0.011246956884860992,-0.01334286667406559,0.016077779233455658
1769661444721426200,6.26542626953125,0.01420507114380598,-0.007205459289252758,0.02032097429037094
1769661444731414300,6.275414306640625,0.016260767355561256,-0.0009563518688082695,0.019737476482987404
1769661444741402000,6.285402099609375,0.01638694852590561,0.003734160680323839,0.019237443804740906
1769661444751389200,6.29538916015625,0.01741253212094307,0.006507576443254948,0.01558864675462246
1769661444761376800,6.305376708984375,0.017949240282177925,0.007568260654807091,0.01273863110691309
1769661444771364600,6.315364501953125,0.016140155494213104,0.0129547705873847,0.00807330571115017
1769661444781352700,6.325352783203125,0.014706374146044254,0.015304923057556152,0.0006642590742558241
1769661444791340800,6.3353408203125,0.011237073689699173,0.012923523783683777,-0.006092979572713375
1769661444801328600,6.34532861328125,0.009124559350311756,0.008031018078327179,-0.01452941820025444
1769661444811315700,6.355315673828125,0.00971844419836998,-0.00029508909210562706,-0.01813853345811367
1769661444821303800,6.3653037109375,0.008062087930738926,-0.008230413310229778,-0.018576093018054962
1769661444831291600,6.375291748046875,0.005129947327077389,-0.006576057523488998,-0.018358778208494186
1769661444841279700,6.38527978515625,0.006871039979159832,-0.0033032558858394623,-0.014230972155928612
1769661444851267800,6.395267822265625,0.006551726721227169,-0.0029181628488004208,-0.008101972751319408
1769661444861255700,6.405255615234375,0.005868028849363327,0.0014300676994025707,-0.004645590204745531
1769661444871242800,6.41524267578125,0.005934874527156353,0.001683866954408586,-0.0017946762964129448
1769661444881230800,6.42523095703125,0.0041512008756399155,-0.00182133330963552,-0.005327320657670498
1769661444891218700,6.43521875,0.002708033425733447,-0.009136770851910114,-0.007874900475144386
1769661444901206800,6.445206787109375,0.0007097219349816442,-0.014651264995336533,-0.011715691536664963
1769661444911195000,6.45519482421875,-0.0004788468359038234,-0.0169740729033947,-0.014965815469622612
1769661444921183000,6.465182861328125,-0.0033973874524235725,-0.01713275909423828,-0.01787642017006874
1769661444931169800,6.475169677734375,-0.0014756503514945507,-0.017347410321235657,-0.01745697297155857
1769661444941158000,6.485157958984375,-0.000029275077395141125,-0.014951035380363464,-0.01768309623003006
1769661444951145700,6.495145751953125,0.004943379200994968,-0.012061240151524544,-0.01564311422407627
1769661444961133800,6.5051337890625,0.0091388039290905,-0.00887436605989933,-0.017042111605405807
1769661444971121700,6.51512158203125,0.009094862267374992,-0.0028327186591923237,-0.017885267734527588
1769661444981109800,6.52510986328125,0.008866061456501484,-0.0005467443261295557,-0.02040640451014042
1769661444991096800,6.535096923828125,0.008075368590652943,0.0001946797128766775,-0.01861489564180374
1769661445001085000,6.5450849609375,0.006022226065397263,-0.00011083739809691906,-0.017603999003767967
1769661445011072800,6.55507275390625,0.003066649427637458,-0.006857689470052719,-0.016098780557513237
1769661445021060600,6.565060546875,0.004412924870848656,-0.015222005546092987,-0.01376727782189846
1769661445031048700,6.575048583984375,0.006502174306660891,-0.019161352887749672,-0.012804280035197735
1769661445041035800,6.585035888671875,0.008228126913309097,-0.010743526741862297,-0.01621970720589161
1769661445051023600,6.595023681640625,0.0060845487751066685,-0.0055101485922932625,-0.013478249311447144
1769661445061011700,6.60501171875,0.008918448351323605,-0.0008947926107794046,-0.012650062330067158
1769661445070999800,6.614999755859375,0.008333884179592133,0.008531732484698296,-0.01094963401556015
1769661445080987600,6.624987548828125,0.00944247655570507,0.022229483351111412,-0.013103162869811058
1769661445090975700,6.634975830078125,0.01274879090487957,0.0188472680747509,-0.014175618067383766
1769661445100962800,6.644962890625,0.016557518392801285,0.024361761286854744,-0.015142897143959999
1769661445110950700,6.65495068359375,0.016983091831207275,0.03476326912641525,-0.012163084000349045
1769661445120938800,6.664938720703125,0.016237501055002213,0.036923106759786606,-0.013619225472211838
1769661445130926800,6.6749267578125,0.018115030601620674,0.037404075264930725,-0.012806694954633713
1769661445140914700,6.684914794921875,0.019789425656199455,0.03690304607152939,-0.016474265605211258
1769661445150902800,6.69490283203125,0.022189998999238014,0.030975915491580963,-0.021081801503896713
1769661445160889900,6.704889892578125,0.02509724721312523,0.0196019746363163,-0.020884746685624123
1769661445170877700,6.714877685546875,0.023492425680160522,0.010969603434205055,-0.011652899906039238
1769661445180865800,6.72486572265625,0.018492117524147034,0.013517344370484352,-0.007044641766697168
1769661445190854000,6.73485400390625,0.014482195489108562,0.00016159145161509514,-0.013874318450689316
1769661445200841700,6.744841796875,0.013936677947640419,-0.006813582964241505,-0.021055877208709717
1769661445210829800,6.754829833984375,0.014972114935517311,0.0013972092419862747,-0.031045658513903618
1769661445220817000,6.76481689453125,0.01325935311615467,0.009305506944656372,-0.03808049112558365
1769661445230804700,6.7748046875,0.014011429622769356,0.008731063455343246,-0.03984377160668373
1769661445240792800,6.784792724609375,0.011859063059091568,0.01640469580888748,-0.03129955008625984
1769661445250781000,6.794781005859375,0.009775938466191292,0.008345438167452812,-0.016995713114738464
1769661445260768800,6.804768798828125,0.005744535010308027,-0.010565634816884995,-0.005538168363273144
1769661445270756600,6.814756591796875,0.0046574329026043415,-0.026749931275844574,-0.008785361424088478
1769661445280744000,6.824743896484375,0.003922701813280582,-0.039793215692043304,-0.008110856637358665
1769661445290731800,6.834731689453125,0.0031820761505514383,-0.04980483651161194,-0.008361992426216602
1769661445300719600,6.8447197265625,0.0031651267781853676,-0.028169037774205208,-0.004284083843231201
1769661445310707700,6.854707763671875,0.002778968308120966,-0.011471549980342388,-0.005354141816496849
1769661445320695800,6.86469580078125,0.009085487574338913,-0.0021135215647518635,-0.006133155431598425
1769661445330683600,6.87468359375,0.009008522145450115,-0.0005787420086562634,-0.00631664739921689
1769661445340670700,6.884670654296875,0.010759220458567142,0.0005364124663174152,-0.012643920257687569
1769661445350658600,6.894658447265625,0.012505454942584038,0.003201171290129423,-0.010026033036410809
1769661445360646700,6.904646728515625,0.011610366404056549,0.004509049467742443,-0.005395328626036644
1769661445370634800,6.914634765625,0.01513585913926363,0.0027558908332139254,-0.0008796725887805223
1769661445380622800,6.924622802734375,0.014340491034090519,0.005205234512686729,0.004692212678492069
1769661445390610700,6.934610595703125,0.01763055846095085,0.0024531236849725246,0.004595806356519461
1769661445400597800,6.94459765625,0.016811229288578033,0.0009866326581686735,0.006008898839354515
1769661445410585900,6.9545859375,0.014371506869792938,-0.0004568006843328476,0.007027824409306049
1769661445420573700,6.96457373046875,0.012040909379720688,-0.00877669733017683,0.007132088765501976
1769661445430561800,6.974561767578125,0.0072608026675879955,-0.013233764097094536,0.006127011030912399
1769661445440550000,6.9845498046875,0.00596410920843482,-0.009603874757885933,0.003676370484754443
1769661445450537700,6.994537841796875,0.0031201192177832127,-0.004385677166283131,0.003444675588980317
1769661445460524800,7.00452490234375,0.000601296778768301,-0.005041590891778469,0.004333388525992632
1769661445470513000,7.014512939453125,0.0019413994159549475,-0.004700972232967615,0.005393592640757561
1769661445480500700,7.024500732421875,0.0034763619769364595,-0.009130924940109253,0.007268876768648624
1769661445490488800,7.03448876953125,0.005672937259078026,-0.016914812847971916,0.007953308522701263
1769661445500477000,7.044476806640625,0.0046143196523189545,-0.023915158584713936,0.00694667175412178
1769661445510464800,7.05446484375,0.0020718001760542393,-0.029135221615433693,0.008486511185765266
1769661445520451800,7.064451904296875,0.003232676303014159,-0.029576797038316727,0.008239887654781342
1769661445530440000,7.07443994140625,0.002703239908441901,-0.02346058189868927,0.006236124783754349
1769661445540427800,7.084427734375,0.0018190661212429404,-0.018209069967269897,0.0023601758293807507
1769661445550416000,7.094415771484375,0.0025501037016510963,-0.00907602533698082,0.0008981003193184733
1769661445560403700,7.10440380859375,0.0036845263093709946,-0.0029036703053861856,-0.00019896868616342545
1769661445570390800,7.114390869140625,0.004109832923859358,-0.00020322483032941818,0.0010937296319752932
1769661445580379000,7.12437890625,0.0018945327028632164,-0.001427704468369484,0.005537387449294329
1769661445590366700,7.13436669921875,0.0029715150594711304,-0.003203766653314233,0.00893424917012453
1769661445600354600,7.1443544921875,0.0033815596252679825,-0.005133178550750017,0.01103272382169962
1769661445610342700,7.1543427734375,0.0009239946957677603,-0.004480970092117786,0.008635878562927246
1769661445620330800,7.164330810546875,0.0019907201640307903,-0.0026938975788652897,0.00720203435048461
1769661445630317600,7.174317626953125,0.0031385424081236124,0.001097378320991993,0.006224121432751417
1769661445640305700,7.1843056640625,0.003026518039405346,0.0030484239105135202,0.010404028929769993
1769661445650293800,7.194293701171875,0.0019170452142134309,-0.00011594407260417938,0.011949727311730385
1769661445660281600,7.204281494140625,-0.0017600222490727901,-0.0050341542810201645,0.009941775351762772
1769661445670269700,7.214269775390625,-0.0018910497892647982,-0.014414340257644653,0.012031557969748974
1769661445680257800,7.2242578125,-0.0029599368572235107,-0.02095952443778515,0.010158350691199303
1769661445690244600,7.23424462890625,-0.0024382234551012516,-0.022732123732566833,0.00830558966845274
1769661445700232700,7.244232666015625,-0.0022257682867348194,-0.020607903599739075,0.008456725627183914
1769661445710220800,7.254220703125,0.0001737398561090231,-0.01061865221709013,0.006799706723541021
1769661445720208600,7.264208740234375,0.003431945573538542,0.0030042293947190046,0.004177101422101259
1769661445730196700,7.27419677734375,0.003921434748917818,0.015382069163024426,-0.0004996759817004204
1769661445740184800,7.284184814453125,0.006273716222494841,0.01952352747321129,-0.005740610416978598
1769661445750171600,7.294171630859375,0.005224697291851044,0.019340569153428078,-0.006167781073600054
1769661445760160300,7.30416015625,0.0026607064064592123,0.015138449147343636,-0.0053818016313016415
1769661445770148000,7.314148193359375,0.003962193615734577,0.00404771463945508,-0.006357050966471434
1769661445780136200,7.32413623046875,0.0022136266343295574,-0.005100596230477095,-0.00490496214479208
1769661445790124300,7.334124267578125,0.00002903561107814312,-0.010067392140626907,-0.0037068058736622334
1769661445800112000,7.344112060546875,0.0031381514854729176,-0.013602051883935928,-0.002722787670791149
1769661445810099200,7.35409912109375,0.002840144094079733,-0.011828118935227394,-0.007414478342980146
1769661445820087300,7.36408740234375,0.005343450699001551,-0.006524349562823772,-0.010580843314528465
1769661445830075100,7.3740751953125,0.0043008229695260525,-0.0038161808624863625,-0.00919999461621046
1769661445840063000,7.38406298828125,0.004575980827212334,0.000003983965143561363,-0.004712418653070927
1769661445850051000,7.394051025390625,0.003929365426301956,0.0007877523312345147,-0.0008279320318251848
1769661445860039200,7.4040390625,0.002280613873153925,-0.0009179478511214256,0.0005507699679583311
1769661445870026000,7.41402587890625,-0.00007175630889832973,-0.0022495281882584095,-0.003750767558813095
1769661445880014000,7.42401416015625,-0.0010935638565570116,0.0010425448417663574,-0.00714452937245369
1769661445890002200,7.434002197265625,-0.0037135817110538483,0.0032058306969702244,-0.009952566586434841
1769661445899990000,7.443989990234375,-0.004672431852668524,0.0013271821662783623,-0.014424318447709084
1769661445909978000,7.45397802734375,-0.0032175469677895308,-0.0007373001426458359,-0.020985547453165054
1769661445919966200,7.46396630859375,-0.0027189559768885374,-0.0011893650516867638,-0.028073113411664963
1769661445929953000,7.473953125,-0.006501177325844765,-0.008343680761754513,-0.02589544653892517
1769661445939941000,7.483941162109375,-0.0046516889706254005,-0.017158983275294304,-0.019163623452186584
1769661445949929200,7.49392919921875,-0.008507413789629936,-0.016492126509547234,-0.014836250804364681
1769661445959917000,7.5039169921875,-0.009345871396362782,-0.010522132739424706,-0.008953404612839222
1769661445969905200,7.5139052734375,-0.006324781104922295,-0.006656820885837078,-0.012798209674656391
1769661445979893200,7.523893310546875,-0.0017541814595460892,0.0002196852583438158,-0.02214740961790085
1769661445989880000,7.533880126953125,0.0034546954557299614,0.014144555665552616,-0.018758539110422134
1769661445999868200,7.5438681640625,0.006337922066450119,0.029260952025651932,-0.000915528042241931
1769661446009856300,7.553856201171875,0.0062873223796486855,0.032839175313711166,0.017360148951411247
1769661446019844000,7.563843994140625,0.006721026264131069,0.026177696883678436,0.028192803263664246
1769661446029832200,7.573832275390625,0.00546561274677515,0.018720846623182297,0.02924848161637783
1769661446039820300,7.5838203125,0.000342383049428463,0.00899544544517994,0.022927941754460335
1769661446049807000,7.59380712890625,-0.004913099110126495,-0.0038934554904699326,0.01994280517101288
1769661446059795200,7.603795166015625,-0.0074844397604465485,-0.022913411259651184,0.021105650812387466
1769661446069783300,7.613783203125,-0.009163295850157738,-0.018575921654701233,0.022662268951535225
1769661446079771100,7.623771240234375,-0.010309283621609211,-0.014773464761674404,0.02661660872399807
1769661446089759200,7.63375927734375,-0.008167303167283535,-0.01378436665982008,0.02566692605614662
1769661446099747000,7.6437470703125,-0.007721046917140484,-0.014821706339716911,0.02212642692029476
1769661446109734100,7.653734130859375,-0.002617098856717348,-0.0032662516459822655,0.012278057634830475
1769661446119722200,7.66372216796875,0.0019061618950217962,0.018191508948802948,0.011643385514616966
1769661446129710000,7.6737099609375,0.006203971803188324,0.0386752150952816,0.01400747336447239
1769661446139698000,7.683697998046875,0.009689321741461754,0.05079231783747673,0.012767108157277107
1769661446149686000,7.69368603515625,0.013147169724106789,0.05668535828590393,0.01086294837296009
1769661446159674000,7.703674072265625,0.010245762765407562,0.05622310936450958,0.00314516294747591
1769661446169661000,7.713660888671875,0.009170644916594028,0.050715427845716476,-0.00243815453723073
1769661446179649000,7.72364892578125,0.00611300952732563,0.03276684880256653,-0.014145294204354286
1769661446189637000,7.73363720703125,0.0022562197409570217,0.0071807969361543655,-0.019394651055336
1769661446199625200,7.743625244140625,-0.0011913018533959985,-0.0020246177446097136,-0.019733557477593422
1769661446209613000,7.753613037109375,-0.0014717326266691089,-0.0019868009258061647,-0.015405388548970222
1769661446219600100,7.76360009765625,-0.0033803186379373074,-0.005151960998773575,-0.007803877349942923
1769661446229588000,7.773587890625,-0.005275424104183912,-0.00942633394151926,-0.0015683523379266262
1769661446239576000,7.783576171875,-0.003944744355976582,-0.010578691028058529,0.000224970281124115
1769661446249564200,7.793564208984375,-0.006130932830274105,-0.009883872233331203,-0.001110338605940342
1769661446259552300,7.80355224609375,-0.006695173215121031,-0.008090538904070854,-0.004938008729368448
1769661446269540000,7.8135400390625,-0.0035603665746748447,-0.003695524064823985,-0.005514848977327347
1769661446279527200,7.823527099609375,-0.004412726499140263,0.00046472426038235426,-0.010803844779729843
1769661446289515300,7.833515380859375,0.0008544735610485077,0.006563362665474415,-0.0213792584836483
1769661446299503000,7.843503173828125,0.0009054047986865044,0.009232031181454659,-0.027516912668943405
1769661446309491200,7.8534912109375,0.003650857601314783,0.01038997434079647,-0.029634656384587288
1769661446319479300,7.863479248046875,0.0052835941314697266,0.012861248105764389,-0.02471730299293995
1769661446329467100,7.873467041015625,0.005503571126610041,0.012602122500538826,-0.018537437543272972
1769661446339454200,7.8834541015625,0.006305846385657787,0.011564655229449272,-0.016105441376566887
1769661446349442300,7.8934423828125,0.00417345343157649,0.009903907775878906,-0.014120588079094887
1769661446359430100,7.90343017578125,0.0015145643847063184,0.0069598364643752575,-0.01821095310151577
1769661446369418200,7.913418212890625,-0.0013344852486625314,0.0004864910151809454,-0.018006954342126846
1769661446379406300,7.92340625,-0.005107047036290169,0.0007208426250144839,-0.01601477898657322
1769661446389394000,7.933393798828125,-0.0032841134816408157,0.0013797086430713534,-0.01396787166595459
1769661446399381200,7.94338134765625,-0.00046518200542777777,0.005062208045274019,-0.012178721837699413
1769661446409369300,7.953369384765625,0.0011699990136548877,0.012523053213953972,-0.013559038750827312
1769661446419357200,7.963357177734375,0.004601186141371727,0.01834622398018837,-0.011585313826799393
1769661446429345000,7.973344970703125,0.007946648634970188,0.023972151800990105,-0.012198373675346375
1769661446439333000,7.9833330078125,0.009620771743357182,0.025557195767760277,-0.009180058725178242
1769661446449321000,7.993321044921875,0.010397614911198616,0.025918319821357727,-0.012946833856403828
1769661446459308000,8.00330810546875,0.009595992043614388,0.02574915438890457,-0.014401702210307121
1769661446469296000,8.013296142578126,0.009368292056024075,0.021968264132738113,-0.015808917582035065
1769661446479284000,8.023283935546875,0.005569091532379389,0.02090664952993393,-0.013303283601999283
1769661446489272000,8.03327197265625,0.00521782087162137,0.018697556108236313,-0.010682201012969017
1769661446499260200,8.04326025390625,0.003288697451353073,0.01972258649766445,-0.007429543882608414
1769661446509248300,8.053248291015626,0.0008329965639859438,0.02038491517305374,-0.0068673500791192055
1769661446519235000,8.063235107421875,0.0005908558377996087,0.01964089833199978,-0.007006787229329348
1769661446529223200,8.07322314453125,-0.0018597848247736692,0.01844167709350586,-0.006293326150625944
1769661446539211000,8.0832109375,-0.0022401493042707443,0.017544008791446686,-0.005826340056955814
1769661446549199000,8.09319921875,-0.005758984014391899,0.011937789618968964,-0.006810910999774933
1769661446559187200,8.103187255859375,-0.005987837910652161,0.0042947581969201565,-0.006298883818089962
1769661446569175300,8.11317529296875,-0.01043318584561348,0.0015844593290239573,-0.0048583801835775375
1769661446579162000,8.123162109375,-0.008500630967319012,0.0008217277936637402,-0.006204394623637199
1769661446589150200,8.133150146484375,-0.007609271444380283,0.007020501419901848,-0.0053742872551083565
1769661446599138000,8.143137939453124,-0.008556397631764412,0.015232020989060402,-0.005732807330787182
1769661446609126100,8.153126220703125,-0.008304995484650135,0.01810450665652752,-0.007133630104362965
1769661446619114200,8.1631142578125,-0.007896360009908676,0.020887846127152443,-0.007870468311011791
1769661446629102300,8.173102294921875,-0.008904899470508099,0.019575174897909164,-0.013597063720226288
1769661446639089200,8.183089111328124,-0.010856742039322853,0.0163889117538929,-0.010794335976243019
1769661446649077200,8.1930771484375,-0.013159576803445816,0.0059021832421422005,-0.013592252507805824
1769661446659065300,8.2030654296875,-0.01209312304854393,0.0002854223130270839,-0.01737605221569538
1769661446669053200,8.21305322265625,-0.010773793794214725,0.002261221641674638,-0.014938727021217346
1769661446679041000,8.223041015625,-0.00873568095266819,-0.004050184972584248,-0.011818548664450645
1769661446689029000,8.233029052734375,-0.011640923097729683,-0.006102949380874634,-0.004021877888590097
1769661446699016200,8.24301611328125,-0.012353704310953617,-0.000844934955239296,-0.0053087561391294
1769661446709004300,8.25300439453125,-0.010721985250711441,0.0027593872509896755,-0.01663491316139698
1769661446718992100,8.2629921875,-0.00955271627753973,0.00920705497264862,-0.02896270528435707
1769661446728980000,8.27297998046875,-0.007148680277168751,0.008511170744895935,-0.03979671001434326
1769661446738968000,8.282968017578124,-0.003588767722249031,0.013686144724488258,-0.050212468951940536
1769661446748956200,8.2929560546875,-0.004571207799017429,0.028541523963212967,-0.04158436134457588
1769661446758942700,8.302942626953126,-0.0031035577412694693,0.030049894005060196,-0.020222308114171028
1769661446768930600,8.3129306640625,-0.003739254316315055,0.021389028057456017,-0.0018486259505152702
1769661446778918400,8.32291845703125,-0.00800485722720623,0.014403512701392174,0.002970669884234667
1769661446788906500,8.332906494140625,-0.008100997656583786,0.0007116682827472687,-0.006756260059773922
1769661446798894600,8.34289453125,-0.008572707884013653,-0.011824811808764935,-0.01407529041171074
1769661446808882700,8.352882568359375,-0.010781800374388695,-0.01616603136062622,-0.01654350757598877
1769661446818869500,8.362869384765625,-0.010163052938878536,-0.010800013318657875,-0.01629016548395157
1769661446828857600,8.372857666015625,-0.00979740172624588,-0.005015361122786999,-0.01702360063791275
1769661446838845400,8.382845458984375,-0.0027321944944560528,0.001492145354859531,-0.017150577157735825
1769661446848833500,8.39283349609375,-0.0017103396821767092,0.00655880942940712,-0.01784166693687439
1769661446858821600,8.402821533203126,0.002968941815197468,0.012196983210742474,-0.01795855350792408
1769661446868809700,8.412809814453125,0.003738329280167818,0.017296403646469116,-0.015031471848487854
1769661446878797600,8.422797607421876,0.007720280904322863,0.01672595739364624,-0.011622332036495209
1769661446888784600,8.43278466796875,0.008685410022735596,0.01799735054373741,-0.010159457102417946
1769661446898772500,8.4427724609375,0.009091181680560112,0.01928364299237728,-0.011989923194050789
1769661446908760600,8.452760498046874,0.010285343043506145,0.025496264919638634,-0.014614202082157135
1769661446918748700,8.462748779296875,0.0089946324005723,0.026504915207624435,-0.019459538161754608
1769661446928736800,8.47273681640625,0.007668910548090935,0.02437784895300865,-0.021301113069057465
1769661446938723600,8.4827236328125,0.00506702670827508,0.016223102807998657,-0.02125241607427597
1769661446948711700,8.492711669921874,0.0024890871718525887,0.003545125015079975,-0.017082972452044487
1769661446958699800,8.50269970703125,-0.00006345310248434544,-0.007396746426820755,-0.01316566951572895
1769661446968687600,8.5126875,-0.000945758365560323,-0.012106546200811863,-0.00802310649305582
1769661446978675700,8.52267578125,-0.001201871084049344,-0.011328410357236862,-0.003762489650398493
1769661446988663600,8.53266357421875,-0.0030575618147850037,-0.008691081777215004,-0.0008268870878964663
1769661446998650600,8.542650634765625,-0.0020022932440042496,-0.006812376901507378,0.005191611126065254
1769661447008638700,8.552638671875,-0.0014182620216161013,-0.004232306033372879,0.004923430271446705
1769661447018626800,8.562626708984375,0.0012143314816057682,-0.0033530022483319044,0.000079029006883502
1769661447028614400,8.572614501953124,0.0029384619556367397,-0.007825781591236591,-0.001516470918431878
1769661447038602500,8.5826025390625,0.0018348481971770525,-0.007312057539820671,-0.002024335553869605
1769661447048590600,8.592590576171874,0.0028042388148605824,-0.0053226761519908905,-0.0014719960745424032
1769661447058578400,8.602578369140625,0.0011926949955523014,-0.0009731163736432791,-0.0014995592646300793
1769661447068565500,8.6125654296875,0.0017357135657221079,0.0025696868542581797,-0.004681237507611513
1769661447078553600,8.6225537109375,0.0009580409387126565,0.008989137597382069,-0.0073123835027217865
1769661447088541400,8.63254150390625,0.0006208847044035792,0.011124992743134499,-0.008258339017629623
1769661447098529500,8.642529541015625,0.004582839552313089,0.005679262802004814,-0.010660453699529171
1769661447108517600,8.652517578125,0.003968714736402035,0.00551654351875186,-0.009881213307380676
1769661447118505500,8.66250537109375,0.002675158903002739,0.013515420258045197,-0.0051736980676651
1769661447128492500,8.672492431640626,0.0016700817504897714,0.012466668151319027,0.0006285305134952068
1769661447138480600,8.682480712890625,0.003601932665333152,0.012199297547340393,0.0027806542348116636
1769661447148468500,8.692468505859376,0.0033723681699484587,0.014522640034556389,0.003603837452828884
1769661447158456600,8.70245654296875,0.0025854213163256645,0.012308263219892979,0.0000016067642718553543
1769661447168444700,8.712444580078126,-0.0002449860330671072,0.00969570130109787,-0.0008226416539400816
1769661447178432800,8.722432861328125,-0.00035085552372038364,-0.00005748053081333637,-0.0003062351606786251
1769661447188419600,8.732419677734375,-0.0037751481868326664,-0.00586397061124444,0.002522840863093734
1769661447198407700,8.74240771484375,-0.004335411824285984,-0.00605500303208828,0.0019727637991309166
1769661447208395500,8.7523955078125,-0.006688048597425222,-0.006753283552825451,0.002914191223680973
1769661447218383600,8.762383544921875,-0.005822958890348673,-0.0073476871475577354,0.004924952983856201
1769661447228371700,8.772371826171875,-0.0043433066457509995,-0.006118105724453926,0.005601662211120129
1769661447238359800,8.78235986328125,-0.004390089772641659,-0.004861065186560154,0.0060662152245640755
1769661447248346600,8.7923466796875,-0.002994060516357422,-0.008368714712560177,0.007373294327408075
1769661447258334700,8.802334716796874,-0.004537327215075493,-0.005638890899717808,0.007830748334527016
1769661447268322800,8.81232275390625,-0.0038283937610685825,-0.0033112885430455208,0.006416076794266701
1769661447278310700,8.822310546875,-0.003787931054830551,0.002787574427202344,0.003996900282800198
1769661447288298500,8.832298583984375,-0.0010054605081677437,0.0075429147109389305,0.0027777052018791437
1769661447298286600,8.84228662109375,-0.0017503217095509171,0.011974718421697617,0.001648459117859602
1769661447308273700,8.852273681640625,0.0009919351432472467,0.013074603863060474,0.003665537340566516
1769661447318261500,8.862261474609374,-0.0009651636355556548,0.010623087175190449,0.0037269475869834423
1769661447328249600,8.87224951171875,-0.0037020943127572536,0.006185461767017841,0.0039663659408688545
1769661447338237400,8.882237548828124,-0.004498367663472891,-0.001630596350878477,0.003496035933494568
1769661447348225500,8.8922255859375,-0.007173513062298298,-0.0054628849029541016,0.0032299859449267387
1769661447358213600,8.902213623046874,-0.0056255594827234745,-0.005975697189569473,0.0010850955732166767
1769661447368200400,8.912200439453125,-0.006306796334683895,-0.005853991024196148,0.00418900977820158
1769661447378188500,8.9221884765625,-0.006901740096509457,-0.0004323376342654228,0.004830807447433472
1769661447388176600,8.9321767578125,-0.006325964815914631,0.004656696692109108,0.0024419520050287247
1769661447398164500,8.94216455078125,-0.006072952877730131,0.008119391277432442,0.00009409431368112564
1769661447408152600,8.952152587890625,-0.006256977096199989,0.010234739631414413,-0.000657449709251523
1769661447418140700,8.962140625,-0.0035320487804710865,0.01094949059188366,-0.004341361578553915
1769661447428127500,8.97212744140625,-0.0005530368071049452,0.008235995657742023,-0.009296172298491001
1769661447438115600,8.982115478515626,0.00026461866218596697,0.013851452618837357,-0.014217030256986618
1769661447448103700,8.992103759765625,0.0010345386108383536,0.018038207665085793,-0.011983701959252357
1769661447458091500,9.002091552734376,0.003679674118757248,0.014518804848194122,-0.007203505374491215
1769661447468079600,9.01207958984375,0.0021334425546228886,0.019109562039375305,-0.010191572830080986
1769661447478067700,9.022067626953126,-0.0014044493436813354,0.02118055708706379,-0.015339418314397335
1769661447488054500,9.032054443359375,0.00016521778889000416,0.008884474635124207,-0.014058438129723072
1769661447498042600,9.042042724609376,-0.0022484050132334232,0.005978966131806374,-0.005836193449795246
1769661447508030700,9.05203076171875,-0.002046271227300167,0.015052622184157372,-0.01070631667971611
1769661447518018600,9.0620185546875,-0.0007123585673980415,0.005363329313695431,-0.00886540673673153
1769661447528006700,9.072006591796875,-0.004853574093431234,0.005005134269595146,-0.0002285083755850792
1769661447537994500,9.081994384765625,-0.007780855987221003,0.001649465411901474,0.009036495350301266
1769661447547981600,9.091981689453124,-0.00988208968192339,-0.011485777795314789,0.008698539808392525
1769661447557969700,9.1019697265625,-0.012592371553182602,-0.023738406598567963,0.007020710036158562
1769661447567957800,9.111957763671874,-0.01513755414634943,-0.032353200018405914,0.0027274279855191708
1769661447577945600,9.121945556640625,-0.016237303614616394,-0.033379144966602325,0.004988186527043581
1769661447587933400,9.131933349609374,-0.013520346954464912,-0.02781953103840351,0.006102452985942364
1769661447597921500,9.141921630859375,-0.014675969257950783,-0.019727755337953568,0.008426745422184467
1769661447607908600,9.15190869140625,-0.01447463408112526,-0.010343575850129128,0.007979068905115128
1769661447617896400,9.161896484375,-0.015243909321725368,-0.005585782695561647,0.0033484012819826603
1769661447627884500,9.171884521484374,-0.014091293327510357,-0.004817993380129337,-0.00028015580028295517
1769661447637872600,9.18187255859375,-0.011534593068063259,-0.0012952464167028666,-0.005206872243434191
1769661447647860500,9.191860595703124,-0.01096520945429802,0.0022273166105151176,-0.00922052189707756
1769661447657848600,9.2018486328125,-0.009968547150492668,0.008579823188483715,-0.013728396967053413
1769661447667835600,9.211835693359374,-0.00811472162604332,0.01300866063684225,-0.014176072552800179
1769661447677823500,9.221823486328125,-0.005298991221934557,0.014442674815654755,-0.010182606056332588
1769661447687811600,9.2318115234375,-0.0024379570968449116,0.014221898280084133,-0.003954538609832525
1769661447697799700,9.241799560546875,-0.004347709938883781,0.00821806862950325,0.005844562314450741
1769661447707787500,9.25178759765625,-0.003927729558199644,-0.001963462680578232,0.011118954047560692
1769661447717775600,9.261775634765625,-0.0036706924438476562,-0.011093154549598694,0.01212661899626255
1769661447727762700,9.2717626953125,-0.005051008891314268,-0.012650039047002792,0.008039997890591621
1769661447737750500,9.28175048828125,-0.005162075161933899,-0.012030912563204765,0.004819189198315144
1769661447747738600,9.291738525390626,-0.005614279769361019,-0.010987219400703907,0.006162754260003567
1769661447757727000,9.30172705078125,-0.004314769059419632,-0.010425614193081856,0.008015211671590805
1769661447767714800,9.31171484375,-0.005039148963987827,-0.011521504260599613,0.009440802037715912
1769661447777703000,9.321702880859375,-0.0028794913087040186,-0.012742296792566776,0.00926029309630394
1769661447787690000,9.33168994140625,-0.002868572250008583,-0.014575350098311901,0.009989732876420021
1769661447797677800,9.341677734375,-0.003055591369047761,-0.014298832975327969,0.007489692885428667
1769661447807666000,9.351666015625,-0.003844419727101922,-0.012247932143509388,0.006712582428008318
1769661447817654000,9.361654052734375,-0.004035350400954485,-0.01160633284598589,0.003339648712426424
1769661447827641900,9.371641845703126,-0.004173302091658115,-0.008413203060626984,-0.0027310268487781286
1769661447837629700,9.381629638671875,-0.0012727405410259962,-0.004848501645028591,-0.012629429809749126
1769661447847617800,9.39161767578125,0.002747833728790283,0.008125354535877705,-0.019554980099201202
1769661447857604900,9.40160498046875,0.004944183398038149,0.020083894953131676,-0.018785130232572556
1769661447867592700,9.4115927734375,0.010453997179865837,0.029885392636060715,-0.015151247382164001
1769661447877580800,9.421580810546875,0.013509318232536316,0.03624410927295685,-0.010692602023482323
1769661447887569000,9.43156884765625,0.01401505246758461,0.02952681854367256,-0.009607097133994102
1769661447897556700,9.441556640625,0.010978966020047665,0.022566158324480057,-0.007145632058382034
1769661447907544800,9.451544921875,0.01007375679910183,0.016003862023353577,-0.0019042643252760172
1769661447917531600,9.46153173828125,0.003752046264708042,0.009373391978442669,-0.003466421039775014
1769661447927519700,9.471519775390625,0.0018002154538407922,-0.00891853030771017,-0.0010123183019459248
1769661447937507800,9.4815078125,-0.0014097692910581827,-0.015294373035430908,0.008040715008974075
1769661447947496000,9.491495849609375,-0.0016419969033449888,-0.015929536893963814,0.006106195040047169
1769661447957483800,9.50148388671875,0.005288701504468918,-0.0061775511130690575,-0.000319646205753088
1769661447967471900,9.511471923828125,0.011570831760764122,0.012458717450499535,-0.009563478641211987
1769661447977459000,9.521458984375,0.014743255451321602,0.026878053322434425,-0.01854991726577282
1769661447987446800,9.53144677734375,0.015646865591406822,0.025242339819669724,-0.012455806136131287
1769661447997435000,9.541434814453124,0.01307687908411026,0.016696704551577568,0.002132269786670804
1769661448007423000,9.551423095703125,0.003587770275771618,0.009574878960847855,0.00914277508854866
1769661448017410800,9.561410888671874,-0.0025240599643439054,-0.015098396688699722,0.0030984836630523205
1769661448027399000,9.57139892578125,-0.0029480350203812122,-0.041039980947971344,-0.009599468670785427
1769661448037386000,9.581385986328126,-0.004794931039214134,-0.03900720551609993,-0.01728910207748413
1769661448047373800,9.591373779296875,-0.0009152383427135646,-0.018114972859621048,-0.010622676461935043
1769661448057362000,9.60136181640625,0.00239800033159554,0.005776511505246162,0.005786656402051449
1769661448067350000,9.61135009765625,0.007180770859122276,0.022565079852938652,0.019939493387937546
1769661448077337900,9.621337890625,0.008021607995033264,0.03136812895536423,0.023477084934711456
1769661448087325700,9.63132568359375,0.00905544776469469,0.022277427837252617,0.01724928431212902
1769661448097313000,9.64131298828125,0.00446041114628315,0.009687824174761772,0.00650959275662899
1769661448107300900,9.65130078125,0.004053213633596897,-0.0017829425632953644,-0.0042501105926930904
1769661448117288700,9.661288818359376,0.004029902629554272,-0.00490911491215229,-0.009142318740487099
1769661448127276800,9.67127685546875,0.007399599999189377,0.00022039934992790222,-0.011207599192857742
1769661448137264600,9.6812646484375,0.013423380441963673,0.012646069750189781,-0.006144632585346699
1769661448147252700,9.691252685546875,0.014133378863334656,0.02444174326956272,0.00374608114361763
1769661448157239800,9.70123974609375,0.0177485141903162,0.03143175691366196,0.012461775913834572
1769661448167227600,9.7112275390625,0.01606140099465847,0.026850320398807526,0.013908671215176582
1769661448177215700,9.7212158203125,0.014395606704056263,0.01609538123011589,0.010295518673956394
1769661448187203800,9.731203857421875,0.008955834433436394,0.0010048452531918883,0.005056015215814114
1769661448197192000,9.74119189453125,0.005060705356299877,-0.002491035033017397,0.0020335791632533073
1769661448207179800,9.7511796875,-0.0002597577404230833,0.005697919055819511,0.005259199999272823
1769661448217166800,9.761166748046875,0.002140922239050269,0.005639133043587208,0.005215316079556942
1769661448227154700,9.77115478515625,0.004388097673654556,0.007215458434075117,0.004884817637503147
1769661448237142800,9.781142822265625,0.006473093293607235,0.007343544624745846,0.0050009083934128284
1769661448247131000,9.791130859375,0.004640838131308556,0.009525739587843418,0.006975376047194004
1769661448257119000,9.801118896484375,0.0035435915924608707,0.009024236351251602,0.008742976933717728
1769661448267106800,9.81110693359375,0.004810723941773176,0.005501140840351582,0.0018400638364255428
1769661448277094000,9.821093994140625,0.00167688203509897,0.004728743340820074,-0.007404648698866367
1769661448287082000,9.83108203125,0.002128021325916052,0.0159078948199749,-0.018981143832206726
1769661448297069800,9.84106982421875,0.002970656380057335,0.022335484623908997,-0.02410321682691574
1769661448307058000,9.851057861328124,0.0030500185675919056,0.02495150826871395,-0.02241876721382141
1769661448317046000,9.8610458984375,0.00256192684173584,0.028457211330533028,-0.012685847468674183
1769661448327033900,9.871033935546874,-0.00006608047988265753,0.03076910227537155,-0.004664672538638115
1769661448337021000,9.88102099609375,-0.004173106513917446,0.01145221572369337,0.003076682798564434
1769661448347009000,9.891009033203124,-0.005296161398291588,-0.0022617329377681017,0.0020745352376252413
1769661448356996900,9.900996826171875,-0.005457466933876276,-0.010326895862817764,-0.00028173415921628475
1769661448366985000,9.91098486328125,-0.007977616041898727,-0.021659178659319878,0.000598707003518939
1769661448376972800,9.920972900390625,-0.007838333025574684,-0.023102080449461937,0.0045777359046041965
1769661448386960600,9.930960693359374,-0.007935005240142345,-0.018404530361294746,0.007436372805386782
1769661448396948700,9.94094873046875,-0.005218876991420984,-0.009440960362553596,0.0062702312134206295
1769661448406935800,9.950935791015626,-0.0056588314473629,-0.003314624773338437,0.00350427208468318
1769661448416923600,9.960923583984375,-0.002834560349583626,0.0015868712216615677,-0.004165084566920996
1769661448426911700,9.970911865234376,0.0016280986601486802,0.006400801241397858,-0.00848393328487873
1769661448436899800,9.98089990234375,0.003631850238889456,0.014432314783334732,-0.008434385992586613
1769661448446887700,9.9908876953125,0.005574360024183989,0.02224443294107914,-0.00754781998693943
1769661448456875800,10.000875732421875,0.008913128636777401,0.030298270285129547,-0.00902019813656807
1769661448466862800,10.01086279296875,0.010885465890169144,0.03324639052152634,-0.014414430595934391
1769661448476850700,10.0208505859375,0.011875136755406857,0.03295598924160004,-0.014356710948050022
1769661448486838800,10.0308388671875,0.007897972129285336,0.02442348748445511,-0.01536764670163393
1769661448496827000,10.040826904296875,0.0051765418611466885,0.008119214326143265,-0.010531732812523842
1769661448506815000,10.05081494140625,0.0007626187289133668,-0.010028098709881306,-0.005949763581156731
1769661448516802800,10.060802734375,0.0001972115132957697,-0.020018992945551872,-0.005255171097815037
1769661448526790000,10.070789794921875,-0.00033621955662965775,-0.02198866754770279,-0.005925755016505718
1769661448536777700,10.08077783203125,-0.002904163673520088,-0.017893102020025253,-0.004253043793141842
1769661448546765800,10.090765869140625,-0.0030266691464930773,-0.011898859404027462,-0.004872494842857122
1769661448556754000,10.10075390625,-0.0012905178591609001,-0.0084680812433362,-0.002951374277472496
1769661448566742000,10.110741943359375,0.0004133726470172405,-0.010339750908315182,-0.003670161124318838
1769661448576729900,10.120729736328125,0.001213995274156332,-0.015043191611766815,-0.004395489580929279
1769661448586717000,10.130717041015625,0.0003114501014351845,-0.01572549343109131,-0.004883114248514175
1769661448596705000,10.140705078125,0.0013095664326101542,-0.012248295359313488,-0.005814339499920607
1769661448606692900,10.15069287109375,0.0026829584967345,-0.005317152477800846,-0.009981388226151466
1769661448616681000,10.160680908203124,0.004931881092488766,0.0007275801617652178,-0.01529950462281704
1769661448626669000,10.1706689453125,0.0022013422567397356,0.004670389927923679,-0.02023247629404068
1769661448636656600,10.18065673828125,0.0023187329061329365,0.0056329816579818726,-0.020914653316140175
1769661448646644000,10.19064404296875,0.0020247199572622776,0.004390084650367498,-0.018506089225411415
1769661448656632000,10.200632080078124,-0.00022880558390170336,-0.0011856232304126024,-0.01582569070160389
1769661448666620000,10.210619873046875,0.00018425064627081156,-0.0040011173114180565,-0.01195238996297121
1769661448676607700,10.220607666015624,0.0001496246550232172,-0.0063990880735218525,-0.008411727845668793
1769661448686595800,10.230595947265625,-0.00010550615843385458,-0.007339716423302889,-0.006902780383825302
1769661448696583700,10.240583740234374,0.002669482957571745,-0.008676661178469658,-0.004656603559851646
1769661448706570800,10.25057080078125,0.0032894667237997055,-0.005522679537534714,-0.0035130425821989775
1769661448716558800,10.260558837890626,0.0033552534878253937,-0.004838787950575352,-0.004663819447159767
1769661448726546700,10.270546630859375,0.0060951136983931065,-0.004583125002682209,-0.0018845447339117527
1769661448736534800,10.28053466796875,0.006984792649745941,0.0025315466336905956,-0.0016465475782752037
1769661448746523000,10.29052294921875,0.00787402130663395,0.005887395702302456,-0.0015128571540117264
1769661448756510700,10.3005107421875,0.009357686154544353,0.005879716016352177,-0.002662317594513297
1769661448766497800,10.310497802734375,0.008761138655245304,0.00169668928720057,-0.0022228958550840616
1769661448776485600,10.320485595703126,0.01012987270951271,-0.0029929708689451218,-0.0009754681959748268
1769661448786473700,10.3304736328125,0.00936900731176138,-0.011298837140202522,0.0023271178361028433
1769661448796461800,10.3404619140625,0.008984684012830257,-0.019155792891979218,0.004195648245513439
1769661448806449700,10.35044970703125,0.009718917310237885,-0.023838695138692856,0.006655610166490078
1769661448816437800,10.360437744140626,0.010158316232264042,-0.018966810777783394,0.007386410143226385
1769661448826424800,10.3704248046875,0.010222764685750008,-0.011038847267627716,0.010067680850625038
1769661448836412700,10.38041259765625,0.0111393416300416,-0.004848295822739601,0.009637491777539253
1769661448846400800,10.39040087890625,0.012210996821522713,-0.0005265176296234131,0.007228130474686623
1769661448856388900,10.400388916015626,0.013763471506536007,0.004901397041976452,0.0035554058849811554
1769661448866377000,10.410376953125,0.01658828742802143,0.008378420025110245,0.003955146297812462
1769661448876364800,10.42036474609375,0.01747896708548069,0.008557163178920746,0.0037085511721670628
1769661448886352000,10.430351806640624,0.01735885813832283,0.0058513907715678215,0.006498212460428476
1769661448896339700,10.440339599609375,0.013902134262025356,0.0007303247693926096,0.004569441080093384
1769661448906327800,10.450327880859374,0.01082431897521019,-0.004604252986609936,0.005327376537024975
1769661448916316000,10.46031591796875,0.008747556246817112,-0.009165013208985329,0.005180425476282835
1769661448926303700,10.4703037109375,0.007466309703886509,-0.011200467124581337,0.004545261617749929
1769661448936291600,10.48029150390625,0.007956225425004959,-0.011538753286004066,0.005493551958352327
1769661448946279700,10.49027978515625,0.009933887980878353,-0.009656431153416634,0.00632339296862483
1769661448956267000,10.50026708984375,0.010756189934909344,-0.0008509198669344187,0.007193890865892172
1769661448966254600,10.510254638671874,0.013393251225352287,0.0074605392292141914,0.006692417897284031
1769661448976242700,10.52024267578125,0.013801057823002338,0.01195432897657156,-0.00012995349243283272
1769661448986230800,10.530230712890624,0.017176082357764244,0.013655822724103928,-0.0028343936428427696
1769661448996218600,10.540218505859375,0.015002911910414696,0.013394735753536224,-0.005616807844489813
1769661449006206700,10.550206787109374,0.01220659352838993,0.012328671291470528,-0.0028742849826812744
1769661449016193800,10.56019384765625,0.010095086880028248,0.006445808336138725,-0.0025544045493006706
1769661449026181600,10.570181640625,0.008796529844403267,0.0005042961565777659,-0.002775446977466345
1769661449036169700,10.580169677734375,0.008600123226642609,-0.0009661377407610416,-0.0014521176926791668
1769661449046157800,10.59015771484375,0.008076545782387257,-0.004227444529533386,0.0022009406238794327
1769661449056145700,10.600145751953125,0.006950036156922579,-0.006603525020182133,0.007174634374678135
1769661449066133800,10.6101337890625,0.006779592949897051,-0.004852229729294777,0.0049218665808439255
1769661449076120800,10.620120849609375,0.006846504285931587,-0.0018967313226312399,-0.00035053095780313015
1769661449086108700,10.630108642578126,0.007549312897026539,0.0053433384746313095,-0.009945367462933064
1769661449096096800,10.6400966796875,0.007444074377417564,0.013119153678417206,-0.016172530129551888
1769661449106084900,10.6500849609375,0.008088826201856136,0.01223711483180523,-0.017225010320544243
1769661449116072700,10.66007275390625,0.008301867172122002,0.011902034282684326,-0.009933525696396828
1769661449126060800,10.670060791015626,0.006582264322787523,0.010365122929215431,-0.003759786020964384
1769661449136047900,10.6800478515625,0.0016238960670307279,0.002204384421929717,0.002128387801349163
1769661449146035700,10.69003564453125,-0.0007652256754226983,-0.008324689231812954,0.0026908472646027803
1769661449156023800,10.70002392578125,-0.00041854067239910364,-0.01440327987074852,-0.0006385263986885548
1769661449166012000,10.710011962890626,-0.002507790457457304,-0.019798045977950096,-0.002389022149145603
1769661449176000000,10.72,-0.0034832116216421127,-0.0248939897865057,0.0010270894272252917
1769661449185987600,10.729987548828126,-0.0022328575141727924,-0.022262785583734512,0.0058316984213888645
1769661449195975000,10.739974853515625,-0.0008501330157741904,-0.01498910877853632,0.010236285626888275
1769661449205962800,10.749962646484375,0.00041699910070747137,-0.0030680017080157995,0.006568048149347305
1769661449215950800,10.759950927734375,0.001786604174412787,-0.0010732193477451801,0.001573133165948093
1769661449225938700,10.769938720703125,0.0022238953970372677,-0.0003909175284206867,-0.006841124035418034
1769661449235926800,10.7799267578125,0.007756783626973629,-0.000035933684557676315,-0.013756097294390202
1769661449245914600,10.78991455078125,0.009347756393253803,0.009543457068502903,-0.01721314527094364
1769661449255902700,10.79990283203125,0.004807093180716038,0.01884539984166622,-0.011870654299855232
1769661449265889500,10.8098896484375,0.016199829056859016,0.013891119509935379,-0.007543549872934818
1769661449275877600,10.819877685546874,0.018087569624185562,0.010422157123684883,-0.0075476933270692825
1769661449285865700,10.82986572265625,0.01698608696460724,0.020114198327064514,-0.003585708560422063
1769661449295853800,10.839853759765624,0.012646453455090523,0.0239805206656456,0.0018319778610020876
1769661449305841700,10.849841552734375,0.009797404520213604,0.013070880435407162,0.0038341423496603966
1769661449315829800,10.859829833984374,0.009014198556542397,-0.003414787584915757,0.0030231536366045475
1769661449325816800,10.86981689453125,0.008508730679750443,-0.002154313726350665,-0.0060723405331373215
1769661449335804700,10.8798046875,0.009226656518876553,-0.0037151623982936144,-0.005545210558921099
1769661449345792800,10.889792724609375,0.008204269222915173,-0.004222494550049305,-0.00008945842273533344
1769661449355780900,10.89978076171875,0.010368564166128635,-0.00024627684615552425,0.007568857632577419
1769661449365768700,10.909768798828125,0.009025265462696552,0.0039513977244496346,0.013881348073482513
1769661449375756800,10.9197568359375,0.01255697850137949,0.005357828456908464,0.01651555672287941
1769661449385744000,10.929743896484375,0.01261663343757391,0.008034572005271912,0.017387740314006805
1769661449395731700,10.939731689453126,0.01476064883172512,0.013117731548845768,0.013903718441724777
1769661449405719800,10.9497197265625,0.013664491474628448,0.018242985010147095,0.009734805673360825
1769661449415708000,10.9597080078125,0.013728460296988487,0.02780606783926487,0.0036027911119163036
1769661449425695700,10.96969580078125,0.012170244939625263,0.031143540516495705,-0.0018873154185712337
1769661449435683800,10.979683837890626,0.012650152668356895,0.025233173742890358,-0.003259131917729974
1769661449445671000,10.9896708984375,0.012848557904362679,0.014219405129551888,-0.002970178844407201
1769661449455658800,10.99965869140625,0.013149258680641651,0.006671037990599871,-0.000030370661988854408
1769661449465646800,11.009646728515625,0.012925286777317524,0.0005763940280303359,0.001862870529294014
1769661449475634700,11.019634765625,0.009354100562632084,-0.0030670177657157183,0.006126892752945423
1769661449485622500,11.02962255859375,0.006189465988427401,-0.004437214694917202,0.011140559799969196
1769661449495610600,11.039610595703126,0.00458635576069355,-0.003409172408282757,0.009992504492402077
1769661449505598700,11.0495986328125,0.0009338308591395617,-0.0017574802041053772,0.007553847972303629
1769661449515585500,11.05958544921875,0.0024927796330302954,-0.004355048760771751,0.011078412644565105
1769661449525573600,11.06957373046875,0.0014701257459819317,-0.0067319199442863464,0.012061385437846184
1769661449535561700,11.079561767578125,-0.00011892721522599459,-0.005681158974766731,0.012156332843005657
1769661449545549800,11.0895498046875,0.0022526178508996964,-0.005671304650604725,0.01551857404410839
1769661449555537700,11.09953759765625,0.00027765706181526184,-0.0022908165119588375,0.014680679887533188
1769661449565525800,11.10952587890625,-0.0015772345941513777,-0.0006303356494754553,0.013175993226468563
1769661449575512600,11.1195126953125,-0.0012441788567230105,0.005266106687486172,0.010584941133856773
1769661449585500700,11.129500732421874,-0.003955276682972908,0.003879931289702654,0.01231359876692295
1769661449595488800,11.13948876953125,-0.0038923786487430334,0.0056633250787854195,0.010056473314762115
1769661449605476900,11.149476806640624,-0.005168565548956394,0.0011223690817132592,0.009891358204185963
1769661449615464700,11.159464599609375,-0.005257599055767059,-0.002119465032592416,0.007662205025553703
1769661449625452800,11.169452880859374,-0.008028884418308735,-0.0003111788537353277,0.005314095877110958
1769661449635439900,11.17943994140625,-0.00900966115295887,0.002577206352725625,-0.0005628385115414858
1769661449645427700,11.189427734375,-0.009654679335653782,0.0029231510125100613,-0.005495279561728239
1769661449655415800,11.199415771484375,-0.008552574552595615,0.003096543252468109,-0.011487822979688644
1769661449665404000,11.20940380859375,-0.007680123671889305,0.008889185264706612,-0.01567324623465538
1769661449675391700,11.219391845703125,-0.006292959675192833,0.012575028464198112,-0.020337888970971107
1769661449685379800,11.2293798828125,-0.005390414036810398,0.0158749520778656,-0.022854309529066086
1769661449695367000,11.239366943359375,-0.005432331934571266,0.019055766984820366,-0.027451518923044205
1769661449705354800,11.249354736328126,-0.004181445110589266,0.021528512239456177,-0.027198785915970802
1769661449715342800,11.2593427734375,-0.004572433419525623,0.02162722498178482,-0.026756351813673973
1769661449725331000,11.2693310546875,-0.004821172449737787,0.02835863083600998,-0.02011549472808838
1769661449735318800,11.27931884765625,-0.0051455930806696415,0.030770516023039818,-0.017263153567910194
1769661449745306600,11.289306640625,-0.00453359866514802,0.024929137900471687,-0.017995789647102356
1769661449755294000,11.2992939453125,-0.005495608784258366,0.022779464721679688,-0.019612709060311317
1769661449765281800,11.30928173828125,-0.0068729957565665245,0.02483968622982502,-0.022745918482542038
1769661449775269600,11.31926953125,-0.007657088804990053,0.02196114882826805,-0.025521887466311455
1769661449785257700,11.3292578125,-0.010105599649250507,0.017644697800278664,-0.02772538736462593
1769661449795245600,11.33924560546875,-0.0096353804692626,0.01614239439368248,-0.023899298161268234
1769661449805233700,11.349233642578126,-0.013733718544244766,0.02481045015156269,-0.02038152888417244
1769661449815221800,11.3592216796875,-0.013403533957898617,0.03251829743385315,-0.01773371919989586
1769661449825208600,11.36920849609375,-0.01209592167288065,0.033206190913915634,-0.01658749394118786
1769661449835196700,11.37919677734375,-0.012453357689082623,0.03662928193807602,-0.01667957566678524
1769661449845184800,11.389184814453126,-0.013618224300444126,0.035516079515218735,-0.00674918107688427
1769661449855172600,11.399172607421875,-0.014318395406007767,0.028471171855926514,0.0003436880651861429
1769661449865160700,11.40916064453125,-0.018680652603507042,0.024336880072951317,0.0031855471897870302
1769661449875148800,11.419148681640625,-0.02098967134952545,0.02268393151462078,-0.0006769923493266106
1769661449885135600,11.429135498046875,-0.019338246434926987,0.020178161561489105,-0.010887552052736282
1769661449895123700,11.439123779296875,-0.01559943426400423,0.03634834289550781,-0.017324944958090782
1769661449905111800,11.44911181640625,-0.003140900516882539,0.04850887134671211,-0.012785054743289948
1769661449915099600,11.459099609375,0.005563415586948395,0.06301206350326538,0.00345643050968647
1769661449925087700,11.469087646484375,0.008341625332832336,0.07002948969602585,0.02709784545004368
1769661449935075800,11.479075927734375,0.0055247703567147255,0.06060073524713516,0.037748415023088455
1769661449945062700,11.489062744140625,0.002758544869720936,0.035519618541002274,0.03001166507601738
1769661449955050800,11.49905078125,-0.0006018244312144816,0.009306121617555618,0.021592585369944572
1769661449965038800,11.509038818359375,-0.005668221972882748,-0.0067410217598080635,0.01616186648607254
1769661449975026700,11.519026611328124,-0.009380296804010868,-0.006648280657827854,0.013821277767419815
1769661449985014800,11.529014892578125,-0.004012961871922016,0.010819126851856709,0.008225975558161736
1769661449995002600,11.539002685546874,-0.000654307019431144,0.03524259850382805,0.004873568192124367
1769661450004990700,11.54899072265625,0.009470764547586441,0.05663284286856651,0.00033980258740484715
1769661450014977800,11.558977783203124,0.016108019277453423,0.07960458844900131,-0.006608097814023495
1769661450024966000,11.5689658203125,0.018518179655075073,0.09459951519966125,-0.009647829458117485
1769661450034953700,11.57895361328125,0.021624822169542313,0.0896424949169159,-0.009704692289233208
1769661450044941600,11.588941650390625,0.02065276727080345,0.08173822611570358,-0.009489509277045727
1769661450054929700,11.5989296875,0.017041435465216637,0.07419854402542114,-0.01438637264072895
1769661450064917800,11.608917724609375,0.0052279201336205006,0.07372982800006866,-0.021914329379796982
1769661450074904600,11.618904541015626,0.011081662960350513,0.07931084930896759,-0.03000309318304062
1769661450084892700,11.628892578125,0.017096413299441338,0.06706510484218597,-0.032998617738485336
1769661450094880800,11.638880859375,0.018754279240965843,0.06392564624547958,-0.033891137689352036
1769661450104868600,11.64886865234375,0.018836038187146187,0.06773342937231064,-0.030347537249326706
1769661450114856700,11.658856689453126,0.017279401421546936,0.07024873793125153,-0.028083542361855507
1769661450124844800,11.6688447265625,0.02043444849550724,0.06857627630233765,-0.028906192630529404
1769661450134831600,11.67883154296875,0.019329160451889038,0.05333024263381958,-0.033229418098926544
1769661450144819700,11.68881982421875,0.019961394369602203,0.030431583523750305,-0.03729899600148201
1769661450154807800,11.698807861328126,0.018615053966641426,0.012479687109589577,-0.03760555759072304
1769661450164795600,11.708795654296875,0.017657913267612457,0.013422712683677673,-0.0411643385887146
1769661450174783700,11.71878369140625,0.0171013493090868,0.021405896171927452,-0.04462280496954918
1769661450184771800,11.728771728515625,0.016513323411345482,0.020027177408337593,-0.04739861935377121
1769661450194759700,11.738759765625,0.018007593229413033,0.02700403332710266,-0.0518345907330513
1769661450204746800,11.748746826171875,0.017893876880407333,0.04012303054332733,-0.051979467272758484
1769661450214734800,11.75873486328125,0.021782169118523598,0.047234971076250076,-0.05356898903846741
1769661450224722700,11.76872265625,0.01932620070874691,0.04671512171626091,-0.05262463539838791
1769661450234710800,11.778710693359375,0.020140033215284348,0.053070396184921265,-0.054725281894207
1769661450244699000,11.788698974609375,0.01719590835273266,0.04945222660899162,-0.05482408404350281
1769661450254686700,11.798686767578126,0.013950355350971222,0.003438803367316723,-0.06573352217674255
1769661450264673800,11.808673828125,0.00831617135554552,-0.033451568335294724,-0.06397344172000885
1769661450274662000,11.818661865234375,-0.004547297488898039,-0.058294229209423065,-0.0491524264216423
1769661450284649700,11.828649658203124,-0.008200355805456638,-0.05472053214907646,-0.03532981872558594
1769661450294637600,11.838637451171875,-0.015023267827928066,-0.05125010386109352,-0.0196653101593256
1769661450304625700,11.848625732421874,-0.02313152886927128,-0.07751499116420746,-0.01587616465985775
1769661450314613800,11.85861376953125,-0.024261394515633583,-0.108255535364151,-0.006081025116145611
1769661450324600600,11.8686005859375,-0.02744067646563053,-0.09942422807216644,0.011803966015577316
1769661450334588700,11.878588623046875,-0.032923705875873566,-0.0867854580283165,0.03729810565710068
1769661450344576800,11.88857666015625,-0.0393373966217041,-0.09881522506475449,0.04650172218680382
1769661450354564600,11.898564697265625,-0.04175190255045891,-0.12779463827610016,0.044643811881542206
1769661450364552700,11.908552734375,-0.04005520045757294,-0.1281677484512329,0.04020432382822037
