time,seconds_elapsed,z,y,x
1769661897157656300,0.07465625,0.11029639450702816,-0.023511808490753173,-0.02190904946923256
1769661897167645200,0.084645263671875,0.09402509519644081,-0.037864743492007254,-0.05276099158972501
1769661897177633300,0.09463330078125,0.04487674114592373,-0.04907645785808563,-0.0385097633972764
1769661897187621400,0.104621337890625,-0.002928454667329788,-0.06372048476040362,0.005517302116751671
1769661897197609200,0.114609130859375,-0.010975567522644995,-0.06301788944900036,-0.017920856615900992
1769661897207597300,0.124597412109375,0.009801847568154335,-0.06767126821279526,0.006647182929515838
1769661897217586700,0.134586669921875,-0.017258008792996406,-0.09076748163998126,0.01498392638117075
1769661897227574800,0.14457470703125,0.06005202538073062,-0.07072013438940047,-0.04189385287761688
1769661897237562600,0.154562744140625,0.06086684889495372,0.03895721490383148,0.027397125491499898
1769661897247550700,0.16455078125,0.03995433618240058,0.03439385251104832,-0.008833879318833351
1769661897257538800,0.174538818359375,0.05405125059597194,0.014814707294106482,-0.00907090294510126
1769661897267528000,0.18452783203125,0.09298048151433468,0.012183774268627165,0.00073415949344635
1769661897277515800,0.194515869140625,0.12079729372262954,-0.008492518535256385,-0.01416734930127859
1769661897287503600,0.204503662109375,0.05436174131724983,-0.007065700602531433,0.00907967077344656
1769661897297491700,0.21449169921875,0.004400317318178713,-0.03187573221027851,0.014493804776668548
1769661897307479800,0.224479736328125,0.004932122639939189,-0.024075872114300727,0.018728958128392696
1769661897317468700,0.23446875,-0.011225231434777378,-0.03750701609551906,0.02403378653824329
1769661897327456800,0.244456787109375,0.008369695873185992,-0.06577975537776946,0.008678688757121562
1769661897337444900,0.25444482421875,-0.002744330272078514,-0.0845785638719797,-0.010925883162021637
1769661897347433000,0.264432861328125,-0.016317001615837216,-0.07748422169685364,-0.0038578444719314575
1769661897357420800,0.2744208984375,-0.021582886254787444,-0.06503565901219845,0.002771218279004097
1769661897367409700,0.28440966796875,-0.0008106953283771872,-0.06050678341090679,0.021197686329483986
1769661897377397800,0.294397705078125,0.037140520870685576,-0.09116963270008563,0.035759003384411334
1769661897387385900,0.3043857421875,0.03890811506509781,-0.11213877097070217,0.032519290810823435
1769661897397373700,0.314373779296875,0.04583239790294319,-0.1029138465076685,0.02400134557336569
1769661897407361800,0.32436181640625,0.04899583036992699,-0.045509120765328405,0.0022948329389095305
1769661897417350700,0.3343505859375,-0.021259645649790763,-0.05215864178240299,-0.04447247119396925
1769661897427338800,0.3443388671875,-0.0552209154298529,-0.05437397974431515,-0.0628986469835043
1769661897437326600,0.35432666015625,-0.03941485901083797,-0.005323240849375724,-0.04554039268642664
1769661897447314700,0.364314697265625,-0.001270166066288948,-0.00921557211279869,-0.03488689672499895
1769661897457302800,0.374302734375,0.020635960793495178,-0.0009387421548366546,-0.0036772272080183026
1769661897467292000,0.3842919921875,0.01140522764418274,-0.010315057787299155,0.042248365403711796
1769661897477279700,0.39427978515625,-0.005200454719923436,-0.10353986945152283,-0.062082362164556974
1769661897487267800,0.404267822265625,-0.0720914227426052,-0.10986205821037291,-0.03304126885831356
1769661897497255700,0.414255615234375,-0.05388005874752998,-0.07793079642057418,-0.014501695822179316
1769661897507243800,0.424243896484375,-0.00450838080253452,-0.022259178081154823,-0.024830489873886107
1769661897517232600,0.434232666015625,-0.012387735875509679,-0.018287936362624168,-0.012713351100683211
1769661897527220700,0.444220703125,0.0018406959632411598,-0.020647066709399222,0.01669657551795244
1769661897537208800,0.454208740234375,0.05427636458873748,-0.0900251388400793,0.03477759113162756
1769661897547197000,0.464197021484375,0.07741470012459903,-0.12886077319085598,-0.01329202777147293
1769661897557184800,0.474184814453125,0.054306759727001185,-0.009320786052942275,-0.06710194389224051
1769661897567173600,0.484173583984375,-0.018093290573358536,-0.03485445576012134,0.004469546629488468
1769661897577161700,0.49416162109375,-0.028443967663310466,0.006699789899587631,-0.06205781224519014
1769661897587149800,0.50414990234375,0.04624737191200256,-0.06384907957613468,-0.04630260923057794
1769661897597137700,0.5141376953125,0.09885788564775139,-0.05557166509628295,0.015987842726707457
1769661897607125800,0.524125732421875,0.07030284055909142,-0.030828853505849838,0.018014672379195688
1769661897617115000,0.534114990234375,0.1648836882084608,-0.06494505811929703,0.008395780162513255
1769661897627103000,0.54410302734375,0.13688329959418624,-0.029925182664394378,-0.0015925298884510992
1769661897637090600,0.554090576171875,0.1008826329410076,-0.032552608558535576,-0.003495440900325775
1769661897647078700,0.56407861328125,0.059958465345762664,-0.0364858563542366,0.008491934013366698
1769661897657066800,0.574066650390625,0.03655190732777119,-0.04624503382444382,0.041644262030720705
1769661897667055900,0.584055908203125,-0.0042740240573883054,-0.06869476604163646,0.06366612422466278
1769661897677043700,0.594043701171875,0.004206219518184662,-0.05022562789320945,0.06980185050070285
1769661897687031800,0.60403173828125,-0.005783844098448753,-0.05334872834980488,0.037543548713624475
1769661897697020000,0.61402001953125,-0.052423430198431015,-0.0473567944586277,0.017572481569647788
1769661897707007700,0.6240078125,-0.10511630672169849,-0.02301964105963707,-0.0474742833584547
1769661897716996600,0.63399658203125,-0.18574934783829375,-0.0101911391466856,-0.08312836506366729
1769661897726984700,0.643984619140625,-0.19102115076137705,-0.019597265395522118,-0.05290449171364307
1769661897736972800,0.653972900390625,-0.07827743616746738,-0.05585340464711189,-0.04926642747223377
1769661897746960600,0.663960693359375,0.015562292524706572,-0.0687760145843029,-0.003940262058377266
1769661897756948700,0.67394873046875,0.05270633879303932,-0.05451017334461212,0.04227729923725128
1769661897766937900,0.683937744140625,0.07714110734760761,-0.061086044603586194,0.0888511266246438
1769661897776925700,0.69392578125,0.15926643284857273,-0.06837620161175728,0.11478168669492006
1769661897786913800,0.703913818359375,0.2143669733017683,-0.09456161322593688,0.15689093588888645
1769661897796901600,0.713901611328125,0.2550754157871008,-0.059932198393344877,0.22736761691123245
1769661897806889700,0.7238896484375,0.33890637616217134,-0.08042553584575653,0.21469225973337888
1769661897816878800,0.73387890625,0.30817104615867136,-0.10661737720072269,0.20342121639549732
1769661897826867000,0.743866943359375,0.18026247739242388,-0.09557926583588122,0.15609364803135395
1769661897836854800,0.753854736328125,0.1572323332050815,-0.06625088002085686,0.09072773415148258
1769661897846843000,0.7638427734375,0.08603228807793929,-0.04800386019051075,0.07481763283610343
1769661897856830700,0.773830810546875,0.03697102778898552,-0.07662848165035248,0.01768470977246761
1769661897866819800,0.78381982421875,0.00202715844605118,-0.09730418993234634,-0.01097059908658266
1769661897876807700,0.7938076171875,0.005883231086004525,-0.06678980920314788,-0.030368542517721652
1769661897886795800,0.803795654296875,-0.028818079939018932,-0.029919921967387197,-0.07936988931298256
1769661897896784000,0.813783935546875,-0.08739243398262188,0.009164718708395957,-0.10942015966176986
1769661897906771700,0.823771728515625,-0.10954113742662593,0.031494623938202855,-0.1400087746709585
1769661897916760600,0.833760498046875,-0.09817631485806777,0.0319154796987772,-0.15332301427423953
1769661897926748700,0.843748779296875,-0.09176761685954406,0.013131284251809119,-0.15700404087454078
1769661897936736800,0.85373681640625,-0.08185235377848148,-0.012998013260960579,-0.1479936359450221
1769661897946724600,0.863724609375,-0.04204054960561916,-0.0328565599411726,-0.12076631406247615
1769661897956712700,0.873712646484375,-0.010081249031424521,-0.0502495932906866,-0.09640694883167743
1769661897966701800,0.883701904296875,-0.004687262767087668,-0.06577157207131386,-0.05785276177078485
1769661897976690000,0.89368994140625,-0.018229484173655507,-0.07609832029640674,-0.005559387692809104
1769661897986677800,0.903677734375,0.00007596957935020327,-0.08350771977007389,0.03931669586598873
1769661897996665600,0.91366552734375,0.046261966692935676,-0.06178630182743072,0.06099135205745697
1769661898006653700,0.92365380859375,0.08168695235000922,-0.021587562429904936,0.08632160814702511
1769661898016642800,0.933642822265625,0.09714227736890316,0.024539982494711874,0.09535773203969002
1769661898026630700,0.943630615234375,0.09967327541755512,0.021813772401213644,0.09922960503697395
1769661898036618800,0.95361865234375,0.08105155878961086,-0.007549100205302238,0.09347411025017499
1769661898046606800,0.96360693359375,0.080281177205313,-0.049444706648588174,0.08545943835973739
1769661898056595000,0.973594970703125,0.0901104973022826,-0.08566519006490707,0.06938742448091506
1769661898066583800,0.983583740234375,0.1049918218255043,-0.12782733848989009,0.04364624950289726
1769661898076571600,0.993571533203125,0.05429682285487652,-0.17116437591314315,-0.00383767846673727
1769661898086559700,1.003559814453125,0.012513426348101347,-0.1446411106467247,-0.054745151144266126
1769661898096547800,1.0135478515625,0.009131400960683822,-0.08361702536344527,-0.10709580836743116
1769661898106535700,1.02353564453125,0.012953005075454712,-0.021495792493224142,-0.15215046336352825
1769661898116524800,1.03352490234375,-0.038169279396533966,0.03896890534162521,-0.1422033621057868
1769661898126512600,1.0435126953125,-0.11430851622521877,0.07162205166518688,-0.10273790541887283
1769661898136500700,1.053500732421875,-0.1284124266351573,0.06738426796495914,-0.08725596638768911
1769661898146488600,1.063488525390625,-0.06921964843226597,0.024502573093771934,-0.04201455664783716
1769661898156476700,1.0734765625,-0.018613515055179594,-0.02448796004652977,-0.005460018971562385
1769661898166465800,1.0834658203125,-0.012561959931254385,-0.07294950087666512,0.0017030045256018638
1769661898176454000,1.093453857421875,0.009236596634518354,-0.08726970265209674,0.010370002844929695
1769661898186441700,1.103441650390625,0.0070435070370323954,-0.08029284937679768,0.0022562544941902157
1769661898196429800,1.113429931640625,0.03328676805198193,-0.09088087888658046,-0.0166612119436264
1769661898206418000,1.12341796875,0.04690262095034122,-0.14615034616589545,0.00705839407891035
1769661898216406500,1.133406494140625,0.04554126946926117,-0.18312895447313784,-0.0005146715238690376
1769661898226394600,1.14339453125,0.03987491427063942,-0.1837929713398218,-0.007157470539212226
1769661898236382700,1.1533828125,-0.026561259189248083,-0.13536708634495734,-0.009261164820194245
1769661898246370800,1.163370849609375,-0.10295419678436592,-0.052070378977060315,-0.010251637162268162
1769661898256358700,1.173358642578125,-0.14286356131387873,0.033521161329746245,-0.029103929409384725
1769661898266347500,1.183347412109375,-0.12048046459211036,0.08473930739164352,-0.0487096703723073
1769661898276335600,1.193335693359375,-0.07665242878152057,0.06903671134710311,-0.05542553462386131
1769661898286323700,1.20332373046875,-0.015976134022604675,0.03922083427608013,-0.038324469958245753
1769661898296311600,1.2133115234375,0.03155952413426712,-0.027386019575595853,-0.04420680599510669
1769661898306299600,1.223299560546875,0.04430792828202247,-0.08491115682721137,-0.028306349290907383
1769661898316288800,1.233288818359375,0.025594459983706474,-0.10157470685839652,-0.009867314019799232
1769661898326276900,1.24327685546875,0.04884790979921817,-0.07377601482868194,0.014949147328734397
1769661898336264700,1.2532646484375,0.052180269092321395,-0.024402035328745842,0.038244682720303534
1769661898346252800,1.263252685546875,0.04576981752812862,-0.04512508988380432,0.064704527361691
1769661898356240600,1.27324072265625,0.04554828373193741,-0.07469955941438675,0.09649725746363401
1769661898366229800,1.283229736328125,0.03437984225200489,-0.1050526121020317,0.11838175701349973
1769661898376217600,1.293217529296875,0.01770925969183445,-0.14791560227274894,0.18029314652532338
1769661898386205700,1.303205810546875,0.035076555811893194,-0.12313245867192744,0.20863252130299806
1769661898396193800,1.31319384765625,0.009742226335406303,-0.06489595828056335,0.19785890609323978
1769661898406181600,1.323181640625,0.010516151583660394,-0.007814473143219947,0.17944500526338814
1769661898416170500,1.33317041015625,0.016601572444569317,0.04065525099337101,0.14600129308402537
1769661898426158600,1.34315869140625,0.03637362815141677,0.04561258113980293,0.1090586328729987
1769661898436146700,1.353146728515625,0.06241875451207161,-0.05793664066195488,0.08947393469810486
1769661898446134500,1.363134521484375,0.09322656522989273,-0.22589374496638773,0.15959727223813533
1769661898456122600,1.37312255859375,0.09651857424629852,-0.321327464851737,0.20575170516967772
1769661898466111700,1.38311181640625,0.08291270388583652,-0.32346506140232084,0.198761115629971
1769661898476099800,1.393099853515625,0.07864100878285243,-0.2114648221194744,0.09231792595237492
1769661898486087700,1.403087646484375,0.07296470757895149,-0.044917584612965585,-0.024482699349522588
1769661898496075500,1.413075439453125,0.06148702661991119,0.051752399069070816,-0.1185354862704873
1769661898506063600,1.423063720703125,0.06457153036547825,0.04895779991447925,-0.17799919036924838
1769661898516052700,1.433052734375,0.10927578275501727,0.005534837773442268,-0.18825638048946855
1769661898526040600,1.44304052734375,0.10136369445621966,-0.039755087283253665,-0.1386100137889385
1769661898536028700,1.453028564453125,0.005475801062583923,-0.09283610460758208,-0.10613806925117969
1769661898546016800,1.463016845703125,-0.060595639871293676,-0.07311725865900516,-0.041622050198912616
1769661898556004900,1.4730048828125,-0.0681078969312366,0.04430792828202247,-0.02889204022437334
1769661898565993700,1.48299365234375,-0.017550278870994224,0.13573241252601145,-0.024564532414078712
1769661898575981600,1.492981689453125,-0.03227379161715507,0.1175701483696699,-0.1000838837787509
1769661898585969700,1.5029697265625,-0.01206277367088478,0.08005144183635711,-0.14489713123440742
1769661898595957800,1.512957763671875,0.07530687765777111,-0.032412323305010794,-0.12259294496774673
1769661898605945600,1.522945556640625,0.1304933428287506,-0.11413608226776123,-0.09583733225017785
1769661898615934700,1.532934814453125,0.08094225319623946,-0.13015724274218082,0.015776245802640913
1769661898625922600,1.542922607421875,0.00045476259675342586,-0.12189444130957126,-0.005798164884746075
1769661898635910700,1.55291064453125,-0.007385434076189994,-0.055637131547927855,-0.043187692080438135
1769661898645898500,1.5628984375,0.019018008769419975,0.04860650225877761,-0.07458265503644942
1769661898655886600,1.572886474609375,0.06446399660408496,0.09329963046610355,-0.09798281984627247
1769661898665875700,1.582875732421875,0.06346563321650028,0.04818798458576202,-0.14384703765958548
1769661898675863800,1.59286376953125,0.0691372491121292,-0.04111702328622341,-0.170910985673964
1769661898685851600,1.6028515625,0.05154197118878364,-0.08788929585516453,-0.15453502041250466
1769661898695839700,1.61283984375,0.013293196815252303,-0.12016074938476085,-0.11953268061429262
1769661898705827800,1.622827880859375,-0.007596446478366851,-0.1535118148446083,-0.10721037465780973
1769661898715816700,1.632816650390625,-0.03941781815290451,-0.16531681892871855,-0.06231032570153475
1769661898725804500,1.642804443359375,-0.06379706169452984,-0.11956453705728054,0.03245850053429603
1769661898735792600,1.652792724609375,-0.014725275444984436,0.008080430603027343,0.18974281965494155
1769661898745780700,1.66278076171875,0.030350705466931683,0.040136780077219006,0.22740239596366882
1769661898755768800,1.672768798828125,0.04928804564899765,-0.03474982634186744,0.0981336264938116
1769661898765757400,1.68275732421875,-0.061920741862058634,-0.11783259869813918,-0.0025736498802900313
1769661898775745500,1.69274560546875,-0.10975916409147903,-0.1111480063676834,-0.03985825539678335
1769661898785733600,1.702733642578125,-0.021419201859366147,0.006519172635674476,-0.05367576834708452
1769661898795721700,1.7127216796875,0.06951954469429329,0.20833879905343056,-0.023276830691099166
1769661898805709600,1.72270947265625,0.13805004181861877,0.2859995463609695,-0.0793850868821144
1769661898815698700,1.73269873046875,0.15301612201584502,0.16485212402641772,-0.07630641008913516
1769661898825686800,1.742686767578125,0.12965161304129286,0.07106441778242588,-0.0974517817094922
1769661898835675000,1.7526748046875,0.224238963496685,0.012905658802390097,-0.00779693748652935
1769661898845662700,1.762662841796875,0.28188683207882564,-0.023251111727952956,0.033496026888489724
1769661898855650600,1.772650634765625,0.23663665451062843,-0.06361001012325286,0.05828676927387714
1769661898865639700,1.7826396484375,0.09634325421201065,-0.10541501567363738,0.07231061845123768
1769661898875627800,1.792627685546875,0.11261279995692894,-0.05469722034931183,0.04590571886748075
1769661898885615600,1.80261572265625,0.1370785481716506,-0.02853343604505062,0.0412850733295083
1769661898895603700,1.812603759765625,0.13425296935690567,-0.02201952410638332,0.03455138116031885
1769661898905591800,1.822591796875,0.11576921816123649,0.02562543964385986,-0.005483692108094692
1769661898915580700,1.83258056640625,0.06049916636003181,0.04765490062236786,-0.03351268576234579
1769661898925568500,1.842568603515625,0.04158054914474487,0.058812838974595064,-0.08426262979060412
1769661898935556600,1.852556640625,0.013314239603281021,0.03665887483358383,-0.10950082368254661
1769661898945544700,1.862544677734375,0.03458732925653457,-0.007620996397733688,-0.1142263908997178
1769661898955532800,1.87253271484375,0.036814357656240464,-0.015761048233509063,-0.08822627272456884
1769661898965521700,1.882521728515625,0.008238251513242721,-0.001357259827852249,-0.02883972551524639
1769661898975509800,1.892509765625,-0.04840542672872543,0.035813656181097026,-0.015675123515725135
1769661898985497600,1.90249755859375,-0.08651040871739386,0.020239070430397986,-0.009776713126897811
1769661898995485700,1.912485595703125,-0.07821368674887344,0.02704115166068077,0.03188742264807224
1769661899005473500,1.9224736328125,-0.06481997043490409,0.013066402322053909,0.06832271785885095
1769661899015462700,1.932462646484375,-0.048133039528131485,-0.04104395805001258,0.1067930260285735
1769661899025450800,1.94245068359375,-0.014703072746330871,-0.057064534002542494,0.12001520343422889
1769661899035438800,1.95243896484375,0.0254559100295417,-0.12082009007632731,0.12882891674786806
1769661899045426700,1.9624267578125,0.060469958531856535,-0.15471183828413484,0.13349778534173964
1769661899055414800,1.972414794921875,0.06567921761274337,-0.1754927605062723,0.13863748631775377
1769661899065403600,1.982403564453125,0.06057749229324981,-0.16193126814365386,0.11808978832960128
1769661899075391700,1.992391845703125,0.04028641768097877,-0.14004209241867063,0.09960486809015273
1769661899085379600,2.002379638671875,0.043364491685759274,-0.10762509293854236,0.09161065446585416
1769661899095367700,2.01236767578125,0.04838907838212326,-0.08880173452496529,0.049396775853633876
1769661899105355800,2.022355712890625,0.042539165043830866,-0.07351999424099921,0.021098025347292423
1769661899115344600,2.0323447265625,0.03521512403236702,-0.03548340131342411,-0.015925591145455838
1769661899125332500,2.04233251953125,0.039766184066003185,-0.03148468706607818,-0.06268909588605165
1769661899135320600,2.052320556640625,0.06274725581407546,-0.019704232901334762,-0.09557751227021216
1769661899145308700,2.06230859375,0.06005494799017906,-0.006404021823406219,-0.11955489244610071
1769661899155296500,2.072296630859375,0.04772038534032181,-0.023876550149917602,-0.09563537993729114
1769661899165285600,2.08228564453125,0.06978024145709351,-0.0364770885258913,-0.05605360339432954
1769661899175273700,2.092273681640625,0.04783727145195007,-0.03245674696862697,-0.03939385275542736
1769661899185261800,2.10226171875,0.038387908849585796,-0.09786942259967327,-0.042618075498938555
1769661899195249700,2.112249755859375,0.023751480731833724,-0.1506657777637243,-0.028225100748240944
1769661899205237500,2.122237548828125,0.020978490620851515,-0.14935586420893668,-0.006073182433843612
1769661899215226600,2.1322265625,0.016199421384464948,-0.13195990824997425,-0.006798866359889507
1769661899225214700,2.142214599609375,-0.02717325360774994,-0.10552841292023658,0.032170623503625394
1769661899235202800,2.152202880859375,-0.08357144178920425,-0.11576806738376617,0.04911942021697759
1769661899245191000,2.16219091796875,-0.11201192972064018,-0.09731997202336788,0.0441413395434618
1769661899255178800,2.1721787109375,-0.12968085740208626,-0.045807226929068565,0.058444297923147676
1769661899265167600,2.182167724609375,-0.12407059803856536,-0.0015039748221635817,0.07142009935230016
1769661899275155700,2.19215576171875,-0.1045604446709156,0.029299159720540046,0.06509498798400164
1769661899285143800,2.202143798828125,-0.05101824870877899,0.04783960953950882,0.02904050878435373
1769661899295131600,2.212131591796875,0.03319149098396301,0.01128653316795826,0.024290683908760546
1769661899305119700,2.22211962890625,0.11672200710773467,-0.03793722420632839,0.011158522874116897
1769661899315108900,2.23210888671875,0.15771922167288138,-0.08560673787593841,-0.013766659545898436
1769661899325097000,2.242096923828125,0.13017538118707014,-0.09711597388386725,-0.011451076079905033
1769661899335084800,2.252084716796875,0.10687750770794227,-0.13489187004864214,0.011694237186014651
1769661899345072600,2.26207275390625,0.14053075271844864,-0.130701432621479,-0.02870148608833551
1769661899355060700,2.272060791015625,0.11261632535457611,-0.11863222464323044,-0.02105857011973858
1769661899365049900,2.2820498046875,0.074752157251304,-0.07504384280741214,-0.04286941991150379
1769661899375037700,2.29203759765625,0.03361583560956642,-0.039703649356961246,-0.026197978834807872
1769661899385025800,2.30202587890625,0.02229952835785225,-0.02547171038687229,-0.006232172387838363
1769661899395014000,2.312013916015625,-0.004117353924643248,-0.011823124262690544,0.009525660975277423
1769661899405001700,2.322001708984375,-0.026546646142005918,-0.02373801846206188,0.04782850362360477
1769661899414990600,2.331990478515625,-0.018553893822431562,-0.023201427367329597,0.08696808935701847
1769661899424978700,2.341978759765625,-0.00999651162372902,-0.04157704201340675,0.09781535432487726
1769661899434966800,2.351966796875,0.005833528459072113,-0.030285832670331,0.11455226185321807
1769661899444955000,2.361954833984375,0.00438740303767845,-0.03523381046652794,0.08475771983116864
1769661899454942700,2.371942626953125,0.01341475910199806,-0.034977205356955525,0.08837707937210798
1769661899464930800,2.381930908203125,0.043673137509822844,-0.0647673634648323,0.03128974901586771
1769661899474919700,2.391919677734375,0.06736264065504073,-0.07950783647894859,0.007786123831570148
1769661899484907800,2.40190771484375,0.06602994901286438,-0.08590425951778888,-0.013181553134322165
1769661899494895600,2.4118955078125,0.0610837247823365,-0.10597674120962619,-0.04816577275395393
1769661899504883700,2.4218837890625,0.045472277619969095,-0.10996844119429587,-0.0499687305226922
1769661899514871800,2.431871826171875,0.037021260138880456,-0.1041723221361637,-0.05594225197434425
1769661899524861000,2.44186083984375,0.024548768589366225,-0.09843056361377239,-0.03197802354097366
1769661899534848800,2.451848876953125,-0.013738584228884429,-0.062221770635247226,-0.008425883039832115
1769661899544836900,2.4618369140625,-0.012854805397987366,-0.049997079834342,0.013378244750201702
1769661899554824700,2.47182470703125,-0.014251812714338301,-0.036702129453420634,0.0347670697376132
1769661899564813800,2.481813720703125,0.014938023146521298,-0.024707740277051925,0.032326398587226864
1769661899574801700,2.4918017578125,0.03787232401026413,-0.05338847583830356,0.02494710199087858
1769661899584789800,2.501789794921875,0.03738950892938301,-0.08660217865407466,0.015773030932247637
1769661899594777900,2.51177783203125,0.05578910723924636,-0.08716916488707065,0.014216449140012263
1769661899604765700,2.521765625,0.03278466374874115,-0.05729717371463775,-0.01247252808213234
1769661899614753800,2.53175390625,0.0001087393377907574,-0.013743278670310973,-0.039327801781892775
1769661899624742700,2.54174267578125,-0.018897574427258222,0.014458733463287353,-0.06934621568769216
1769661899634730800,2.551730712890625,-0.031801516196597365,0.0357715706050396,-0.09674041856974362
1769661899644718600,2.561718505859375,-0.0025099552606232464,0.01916705728471279,-0.11673486658930778
1769661899654706700,2.571706787109375,-0.005053794524539261,0.0024088147073984146,-0.09846095875203609
1769661899664694800,2.58169482421875,-0.03430560797201469,-0.010907178461551665,-0.053746495495736596
1769661899674684000,2.591683837890625,-0.06418284157514571,-0.028085692277550697,-0.01101151561886072
1769661899684671700,2.601671630859375,-0.05691372735500335,-0.044157121634483334,0.014302958379685878
1769661899694659600,2.61165966796875,-0.03662612334145233,-0.04901099140644073,0.031028759992122647
1769661899704647700,2.621647705078125,0.009745148944854736,-0.06770809309184551,0.015487491989135741
1769661899714635800,2.6316357421875,0.0478033874486573,-0.05889350299537181,0.014236030623316765
1769661899724625000,2.641625,0.0410626444841735,-0.018949030619859693,0.0015869769304990768
1769661899734612700,2.65161279296875,0.028262820676434784,-0.0022989245921373365,-0.021972177833318708
1769661899744600800,2.661600830078125,0.020077176133263853,-0.010961538997292518,-0.048963352872431275
1769661899754589000,2.6715888671875,0.05805823948131874,-0.01739244882762432,-0.0599573328346014
1769661899764576800,2.68157666015625,0.06807108118534087,-0.0586895048558712,-0.03671440441310406
1769661899774565600,2.691565673828125,0.045101709008216855,-0.07137362986207008,-0.021116145525872706
1769661899784553700,2.7015537109375,-0.012436305991280823,-0.05533318016529083,0.029278701454401014
1769661899794541800,2.711541748046875,-0.021197101807594296,-0.0197591779589653,0.051883916494250296
1769661899804529700,2.72152978515625,-0.025485154390335083,-0.011087211203575134,0.043186523036658764
1769661899814518800,2.731518798828125,-0.03458263481510803,-0.011854688444733618,0.049452597694098946
1769661899824507000,2.7415068359375,-0.042813890331983566,-0.04332943863868713,0.05052256501317024
1769661899834494700,2.75149462890625,-0.010209259325265884,-0.08665010944902897,0.0576262595385313
1769661899844482600,2.761482666015625,-0.006465981143712997,-0.11423720455467701,0.05796528223454952
1769661899854470700,2.771470703125,0.004196885434258729,-0.10813362698256969,0.06799100168645382
1769661899864458800,2.781458740234375,-0.017326379587780685,-0.0663835664898157,0.056363399995863435
1769661899874448000,2.79144775390625,-0.036787469649314876,-0.005157821154594421,0.05721271030157804
1769661899884435700,2.801435791015625,-0.060889626982342446,0.01090308680832386,0.05016571439951658
1769661899894423800,2.811423828125,-0.07606030810726806,-0.010177695143222809,0.02518324883431196
1769661899904412000,2.821411865234375,-0.056153848898410796,-0.062201896890997886,0.04290682931244373
1769661899914400800,2.83140087890625,-0.028648568591009824,-0.12142448571026325,0.05471884765923023
1769661899924388600,2.841388671875,-0.005422025048732757,-0.12207096692025661,0.05599573572725057
1769661899934376700,2.851376708984375,-0.012255085939168929,-0.09325637584626674,0.0612426964700222
1769661899944364800,2.86136474609375,-0.03424247960792854,-0.02625380067527294,0.020758418129384518
1769661899954353000,2.871352783203125,-0.04531798210740089,0.0048965398699045174,0.0094242464274168
1769661899964340700,2.8813408203125,-0.007618658310174942,0.0008054711639881133,0.0008887655332684517
1769661899974329600,2.89132958984375,-0.01082653270708397,-0.03795651342868805,0.0007829670712351798
1769661899984317700,2.901317626953125,0.005609053787123412,-0.08481178810596465,0.03232084562927484
1769661899994305800,2.911305908203125,0.026317495294939725,-0.09471125082969666,0.022346564103662966
1769661900004293600,2.921293701171875,0.010315624042879789,-0.10512333925068378,-0.00028232407271862027
1769661900014281700,2.93128173828125,0.005126275238860398,-0.07540624637901783,-0.01905862847417593
1769661900024270800,2.941270751953125,0.016739519610535353,-0.035759295645356175,-0.03990881654024124
1769661900034259000,2.951259033203125,0.04443767387522384,0.009012743017077446,-0.05105038827955723
1769661900044246800,2.961246826171875,0.03457678959621116,-0.0032119477838277815,-0.03836655553430319
1769661900054234600,2.971234619140625,0.03260695082796737,-0.039138416689634324,-0.01768441751152277
1769661900064222700,2.98122265625,0.024155951613187787,-0.0792939014673233,0.004896247608959675
1769661900074211800,2.9912119140625,0.0040904659177176655,-0.09734393742084503,0.019570669649541378
1769661900084199700,3.00119970703125,-0.00469369250787422,-0.09738719204068183,0.008521744629740714
1769661900094187800,3.011187744140625,0.019147768062353132,-0.08621873229444027,-0.04508855726569891
1769661900104175900,3.02117578125,0.04778347717178985,-0.03169920659959316,-0.06810965963006019
1769661900114164000,3.0311640625,0.03614800270199776,0.008179799324274062,-0.09648293667733669
1769661900124152600,3.041152587890625,0.042479543811082834,0.03304126885831356,-0.09569237082153559
1769661900134140700,3.051140625,0.0532581091905944,0.03385726141631603,-0.07683832500874996
1769661900144128800,3.061128662109375,0.04105795004274696,0.004804769933223724,-0.04182604833841324
1769661900154116900,3.071116943359375,0.028088596620690076,-0.033522914895415305,0.0009478022441267967
1769661900164104700,3.081104736328125,0.013614665588270873,-0.049965515652298925,0.029630291371047494
1769661900174093800,3.09109375,0.038882377835642544,-0.052099020549654956,0.01752279720902443
1769661900184082000,3.10108203125,0.03907411928176879,-0.07129062775373458,0.008913958817720412
1769661900194069800,3.11106982421875,0.053580783540010446,-0.0658393766105175,0.005062836347520351
1769661900204057600,3.1210576171875,0.06823357827067375,-0.08643734348118305,0.008737140946090221
1769661900214045400,3.13104541015625,0.08210547002302482,-0.08916764522790908,0.025167759004235266
1769661900224034600,3.14103466796875,0.07556698989868163,-0.08833703962266444,0.031016485032439232
1769661900234022700,3.151022705078125,0.04871988123906776,-0.06207856277227401,0.0313119608476758
1769661900244010800,3.1610107421875,0.013255787414312362,-0.059137833145260804,0.02132511210143566
1769661900253998600,3.17099853515625,0.018364526996482163,-0.054853287693858145,-0.039836628086864945
1769661900263986700,3.180986572265625,-0.00314591507660225,0.05843874496519565,0.01840893239378929
1769661900273975600,3.1909755859375,-0.05586860221624374,0.027478374034166333,-0.00044832828938961026
1769661900283963600,3.200963623046875,-0.02034253080487251,0.019428338569402695,0.018950784185528754
1769661900293951700,3.21095166015625,0.030126276460755615,-0.025385201147198676,0.04228577480465173
1769661900303939600,3.220939697265625,0.034132552960049356,-0.06110650286972522,0.04997662156820297
1769661900313927700,3.230927734375,0.02320434997677803,-0.095572251573205,0.06731178725063801
1769661900323916800,3.240916748046875,0.024886585708986966,-0.11364274579286575,0.07402765150219201
1769661900333904600,3.250904541015625,0.025383447581529616,-0.1044336034208536,0.05092325476855039
1769661900343892500,3.260892578125,0.0035269868160597976,-0.07412497439682483,0.04458031548261642
1769661900353880600,3.270880615234375,0.0034440029740333555,-0.041571781316399575,0.045099078659713264
1769661900363869700,3.28086962890625,0.003988777375221252,-0.018488427370786667,0.01633417194634676
1769661900373857800,3.29085791015625,0.022859482061862946,0.020839958932995794,0.0014352935001254081
1769661900383845600,3.300845703125,0.043511809468269345,0.01881459058523178,-0.005632452929019927
1769661900393833700,3.310833740234375,0.05936521216034889,-0.011461305212974547,0.007696691982448101
1769661900403821800,3.32082177734375,0.06308394042253494,-0.05657295109331607,0.010442775820195675
1769661900413809700,3.3308095703125,0.08238249686611816,-0.08167758173346519,0.02706979323327541
1769661900423798500,3.340798583984375,0.0721241377021186,-0.08540390878021717,0.02176467256247997
1769661900433786600,3.35078662109375,0.035354221975803374,-0.08687807298600674,0.03634586336165666
1769661900443774700,3.360774658203125,0.003424129229784012,-0.0702045860826969,0.03405366077125072
1769661900453762600,3.370762451171875,-0.00910215659989044,-0.041675241690874096,0.010864800624549389
1769661900463750700,3.380750732421875,0.0007376848910935223,-0.01925298200249672,-0.004034662343561649
1769661900473739500,3.390739501953125,-0.00745966835618019,-0.017937807750701903,-0.03493775012940168
1769661900483727600,3.4007275390625,0.019212065470218656,-0.02389876198172569,-0.04333557611852884
1769661900493715500,3.410715576171875,0.05860182657241821,-0.04526186800599098,-0.06385112540274858
1769661900503703600,3.42070361328125,0.09825929870009421,-0.04547697206139564,-0.06364303561002016
1769661900513691600,3.430691650390625,0.10815757411373779,-0.01667524046897888,-0.028394904357194897
1769661900523680800,3.4406806640625,0.05940028347373008,0.017530980515480042,-0.017732932828366757
1769661900533668600,3.450668701171875,0.010054945546388626,-0.009718260937929152,-0.021079028385877607
1769661900543656700,3.46065673828125,0.018108488142490387,-0.06471943266987801,-0.037004911792278286
1769661900553644500,3.47064453125,0.04103343665599823,-0.11174597226083278,-0.026339433132112025
1769661900563633700,3.480633544921875,0.04019170686854049,-0.15792612415552137,-0.021798867093026638
1769661900573621800,3.490621826171875,-0.013747954845428467,-0.15304010567963122,-0.002285480588674545
1769661900583609600,3.500609619140625,-0.06040918652163818,-0.10920388656258583,0.011682254487276077
1769661900593597700,3.51059765625,-0.05329202972650528,-0.07610533455908298,-0.02436374914497137
1769661900603585800,3.520585693359375,-0.042720348563324656,-0.028546295526623723,-0.022435119169950484
1769661900613573600,3.53057373046875,-0.007665420061349868,0.04660159217715263,-0.03183978411406278
1769661900623562500,3.5405625,0.011103577816486358,0.07550678414404392,-0.054695174522697926
1769661900633550600,3.550550537109375,0.03071660703672096,0.1008615901529789,-0.03920885157734155
1769661900643538700,3.56053857421875,0.08841359372390434,0.07570902871787548,-0.039133448253571984
1769661900653526500,3.570526611328125,0.12597381957769394,-0.0027642040163278576,-0.03435615084916353
1769661900663515600,3.580515625,0.11313304270505904,-0.08389584230482577,-0.014410218146443367
1769661900673503700,3.590503662109375,0.05816109706759452,-0.14155834220051763,-0.014459902507066726
1769661900683491600,3.60049169921875,0.00305936930431053,-0.13483575594723224,-0.0180228556856513
1769661900693479400,3.6104794921875,-0.008937339693307875,-0.10053133528530597,-0.02273585568219423
1769661900703467500,3.620467529296875,-0.001169043779373169,-0.06159457864761352,-0.05567629451453685
1769661900713456600,3.63045654296875,-0.016636662024259567,-0.02791851901710033,-0.07404109550565481
1769661900723444700,3.64044482421875,-0.01719546495079994,0.006960486662387848,-0.05991407821476459
1769661900733432600,3.6504326171875,0.00826281969891861,0.0036982699960470197,-0.08693126447796821
1769661900743420700,3.660420654296875,0.006614431437384337,0.07664192565381527,-0.05951221941560506
1769661900753408800,3.67040869140625,-0.07054830322014168,0.06998188324272632,-0.021145371620357036
1769661900763397600,3.680397705078125,-0.06740238814353942,0.052101358637213706,-0.02917173394858837
1769661900773385500,3.690385498046875,-0.01367196699976921,0.021972177833318708,-0.012417875285446644
1769661900783373600,3.70037353515625,0.04196163915051147,-0.04841068742573261,0.007065408341586589
1769661900793361700,3.710361572265625,0.06088146194219589,-0.14209376425147055,-0.015185001911222934
1769661900803349800,3.720349853515625,0.03700138639463112,-0.1820493425428867,-0.021327157928049564
1769661900813338600,3.730338623046875,0.11533318309783935,-0.11405950990021228,0.027780864112079143
1769661900823326500,3.740326416015625,0.14818448234200476,-0.08323650161325931,0.01332388421446085
1769661900833314600,3.750314453125,0.042667759859561914,-0.0766799195766449,-0.010683598838746547
1769661900843302700,3.760302734375,0.014497293641697615,-0.033087446087598796,-0.025409166544675826
1769661900853290500,3.77029052734375,0.04526307358238846,-0.004781973579525947,-0.058092708006501195
1769661900863279600,3.780279541015625,0.018336451679468155,-0.045098201876878734,-0.051178106312453744
1769661900873267700,3.790267822265625,-0.0377799878180027,-0.02930500493943691,-0.00786795689612627
1769661900883255800,3.800255859375,-0.0818588383181952,-0.011088964769244194,0.025753742198646068
1769661900893243600,3.81024365234375,-0.0178898769557476,-0.014723521879315376,0.08904811050146817
1769661900903231700,3.820231689453125,0.005611410140991211,-0.059172904458642005,0.05654109465032816
1769661900913220600,3.830220703125,-0.02857490056660026,-0.07898995008468628,0.011020575708150864
1769661900923208700,3.840208740234375,-0.09256484991814941,-0.04840601125061512,0.015848141995072364
1769661900933196500,3.850196533203125,-0.09746781952884048,-0.031875147688388825,0.0010503858357667922
1769661900943184600,3.8601845703125,-0.14886018964648245,-0.009108020085096358,0.011211422105133532
1769661900953172700,3.8701728515625,-0.1893043917050585,0.026057985842227935,0.04602788394242525
1769661900963160600,3.88016064453125,-0.14654661547448486,0.0002934299886226654,0.08897124587297439
1769661900973149400,3.8901494140625,-0.10251107439305633,-0.08501403267979621,0.12013532268255948
1769661900983137500,3.900137451171875,-0.05901800615787506,-0.14309154311716557,0.14278729947358368
1769661900993125600,3.910125732421875,-0.025870938837528227,-0.14100772258043287,0.17584785755425691
1769661901003113700,3.92011376953125,0.0240075195858255,-0.14039865077137947,0.16838702015429735
1769661901013102600,3.9301025390625,0.04145549799297005,-0.09451777408421039,0.1006409331396222
1769661901023090700,3.940090576171875,0.06743278328180313,-0.04150865295231342,0.053801148292422295
1769661901033078800,3.950078857421875,0.13695347875356673,-0.008985270488262176,0.02767506565004587
1769661901043066600,3.960066650390625,0.15832359904050827,-0.03264087136387825,0.03781652043610811
1769661901053054500,3.970054443359375,0.19243512747883795,-0.05748655880689621,-0.00005728314518928528
1769661901063043600,3.980043701171875,0.13953706550598144,-0.07838263184130191,0.0027440380111336707
1769661901073031700,3.99003173828125,0.06247603765726089,-0.09208265589177608,0.02488222006112337
1769661901083019800,4.000019775390625,0.02435118192434311,-0.08676584478318691,-0.023991408701241015
1769661901093007600,4.010007568359375,0.0012543839752674102,-0.03197042475640774,-0.06820522895902395
1769661901102995700,4.01999560546875,-0.014940416033007204,0.009342997884750365,-0.10387158562391996
1769661901112984600,4.029984619140625,0.01349657390024513,0.03298983093202114,-0.12666793932169676
1769661901122972700,4.03997265625,0.031867000914551316,0.07547346639633178,-0.1222390169635415
1769661901132960500,4.04996044921875,0.039409634846448896,0.07780570873618126,-0.09604512978196143
1769661901142948600,4.059948486328125,0.056890309946797786,0.05655833804607391,-0.0833762023448944
1769661901152936700,4.069936767578125,0.07794358283691108,0.028640403550863263,-0.07000994029343127
1769661901162925800,4.07992578125,0.08359477699901909,-0.01082242278754711,-0.050475511001050466
1769661901172913700,4.08991357421875,0.10887078215070069,-0.03321136472821235,-0.027979017032682893
1769661901182901500,4.099901611328125,0.07618658310174942,-0.05430968233644962,-0.027400340361893174
1769661901192889600,4.1098896484375,0.023765454458259044,-0.05159750076830387,-0.0012836100697517395
1769661901202877400,4.11987744140625,-0.046329168443940576,-0.030187632992863655,0.032034137642383574
1769661901212867000,4.1298671875,-0.1352081329235807,-0.031955227187275885,0.04379588710665703
1769661901222855000,4.13985498046875,-0.14397124856114388,-0.03291384308636188,0.02633621826171875
1769661901232843000,4.149843017578125,-0.09093056324720382,-0.05793664066195488,-0.014304711945354938
1769661901242831000,4.1598310546875,-0.03047817690465599,-0.06292144333720207,-0.05146393751651048
1769661901252819000,4.16981884765625,0.014582652103900908,-0.07648936544060707,-0.07249094345420598
1769661901262807800,4.179807861328125,0.04650225998852402,-0.0964350058823824,-0.08963555500060319
1769661901272796000,4.1897958984375,0.10131634818315505,-0.09949263988733291,-0.08363046936690807
1769661901282784000,4.199783935546875,0.12441782230734824,-0.07644786438643932,-0.07617869205623864
1769661901292771800,4.209771728515625,0.12896189547777176,-0.04935293671190739,-0.038136838431656356
1769661901302760000,4.219760009765625,0.13241411829087882,-0.017668927681446074,-0.010786182430386542
1769661901312748800,4.229748779296875,0.11704349414706229,0.017233458873629568,0.00924655177295208
1769661901322737000,4.23973681640625,0.09294482567906379,0.0317716873139143,0.01182370878458023
1769661901332724700,4.249724853515625,0.0604582680940628,-0.007397124513983726,0.025913901196420192
1769661901342712800,4.259712890625,0.03791676594018936,-0.04706277994811535,0.012747253370285034
1769661901352701000,4.269700927734375,-0.0020142258992418647,-0.07161796001195907,0.0053182724133133885
1769661901362690000,4.27968994140625,-0.032209530741907653,-0.08303250347375869,0.02164396879225969
1769661901372678100,4.28967822265625,-0.023328268617391585,-0.060714873203635215,-0.004607201534509659
1769661901382666000,4.299666015625,0.003565583527088165,-0.028826281511783597,-0.022470190483331678
1769661901392653800,4.30965380859375,-0.0014952069938182829,0.018001520636677742,-0.03255670021176338
1769661901402642000,4.319641845703125,0.013473266089893876,0.049861470755934716,-0.031633155626058576
1769661901412631000,4.329631103515625,0.02683660553190857,0.09603110125660896,0.021117022308707236
1769661901422619000,4.339618896484375,0.08131634720563888,0.048640404528379436,0.00017331074029207228
1769661901432607000,4.34960693359375,0.09787928640656172,-0.01886252138018608,-0.008465630528330803
1769661901442595000,4.359594970703125,0.13705986173748969,-0.05114508082568645,0.013512684784829615
1769661901452583000,4.3695830078125,0.08763966847565025,-0.118228320017457,0.019169395372271535
1769661901462571800,4.37957177734375,0.05373042114377021,-0.12790274181365965,0.02861088519543409
1769661901472559900,4.389559814453125,0.038854302518628536,-0.0783177499115467,0.03707622346282005
1769661901482548000,4.3995478515625,-0.025862755531072614,-0.054098085412383076,0.019040800556540487
1769661901492535800,4.409535888671875,-0.03413140218257904,-0.05643325036168098,0.023837679444253444
1769661901502524000,4.41952392578125,-0.02359360502269119,-0.06823065566122531,0.025471418125927448
1769661901512513000,4.429512939453125,-0.0050326969375833865,-0.09576046762168407,0.04712181665897369
1769661901522500900,4.4395009765625,-0.00791325734257698,-0.07598550757169723,0.05149316361099481
1769661901532488700,4.44948876953125,0.010411540431715547,-0.05678922419250011,0.02011515178978443
1769661901542476800,4.459476806640625,-0.02046761848926544,-0.031125790625810622,0.03612053017318249
1769661901552465000,4.46946484375,-0.007678316075541079,-0.025644144344329833,0.040019291177392
1769661901562454000,4.4794541015625,0.03751457834746688,-0.08055471518337726,0.030590076313912865
1769661901572441900,4.48944189453125,0.0574561271360144,-0.08603928407430649,0.047675943410396576
1769661901582430000,4.499429931640625,0.05507010878231376,-0.08851824140846729,0.06405746162980795
1769661901592418000,4.50941796875,0.0532429298877716,-0.08871639432907104,0.05840542721748352
1769661901602406100,4.51940625,0.0356406377017498,-0.07914718647301197,0.0672097881808877
1769661901612394800,4.529394775390625,0.02779869202971458,-0.0844651666253805,0.0439800115019083
1769661901622382800,4.5393828125,0.036382980501651764,-0.07451251240968704,0.03473345972895622
1769661901632371000,4.549370849609375,-0.0029296237111091613,-0.06786240687072277,0.023252573032677172
1769661901642359000,4.559359130859375,-0.0021955007502809164,-0.05233166026175022,0.030815409502387044
1769661901652348200,4.56934814453125,-0.050773909425735474,-0.029852117428183556,0.03428863857090473
1769661901662336000,4.5793359375,-0.1011748938858509,-0.024585575202107426,0.052070378977060315
1769661901672323800,4.58932373046875,-0.08243395305871963,-0.03072247052192688,0.06466185726374388
1769661901682312000,4.59931201171875,-0.07897709060311317,-0.05068213948905468,0.08178659506589174
1769661901692299800,4.6092998046875,-0.038783063913322986,-0.07589549120068549,0.0941533246859908
1769661901702289000,4.619288818359375,-0.027898097283579407,-0.08941606703102588,0.10024170468896627
1769661901712277000,4.629277099609375,-0.012120718969777226,-0.10721534309387207,0.1124947448015213
1769661901722265000,4.63926513671875,-0.028549218136072158,-0.12820727771818638,0.09659721070677041
1769661901732253000,4.6492529296875,0.04825462008118629,-0.1245329731196165,0.06313859321922063
1769661901742241000,4.659240966796875,0.055381074427627026,-0.0913625249236822,0.0497115408912301
1769661901752230000,4.66922998046875,0.030958617365360257,-0.0654033232808113,0.03504325633049011
1769661901762218000,4.679218017578125,0.03352240343876183,-0.06131751527190208,0.0023518238231539723
1769661901772205800,4.689205810546875,0.049651590864919125,-0.03332826910614967,0.0010258359163999556
1769661901782194000,4.69919384765625,0.03640983197595924,-0.03508417286276817,0.011601882727444172
1769661901792182000,4.70918212890625,0.011228702033497392,-0.017851883032917976,0.0003667874857783317
1769661901802171000,4.7191708984375,-0.01712645483519882,-0.025640637212991712,-0.0010822422787547111
1769661901812158700,4.72915869140625,-0.009676175361871719,-0.004850362640619278,-0.007743161472678184
1769661901822146800,4.739146728515625,-0.0023696517407894133,-0.015541852524876594,-0.03313508462160825
1769661901832135000,4.749135009765625,0.01107084459066391,-0.008901683858036994,-0.04334112907648086
1769661901842123000,4.759123046875,-0.017906207036040723,-0.02354337267279625,-0.05480857176929712
1769661901852112000,4.76911181640625,0.008945559532381594,-0.028542203873395917,-0.03771189101785421
1769661901862100000,4.779099853515625,-0.025921207720041275,-0.05399170242846012,-0.04001023108810186
1769661901872088000,4.789088134765625,-0.0029892449438571928,-0.04231061698496341,-0.03650777592509985
1769661901882076000,4.799075927734375,0.0010100172927603125,-0.02735270182788372,-0.054389761835336684
1769661901892063700,4.809063720703125,0.03710541302468628,-0.04377192170917987,-0.04768091184645891
1769661901902052900,4.819052978515625,0.07130936898682266,-0.05021978267431259,-0.06730652655363083
1769661901912041000,4.829041015625,0.059512548209168015,-0.05304536148905754,-0.06769611039310694
1769661901922029000,4.839029052734375,0.07045476145148277,-0.059869070029258724,-0.08016659264862537
1769661901932017000,4.849016845703125,0.0477355281105265,-0.0672463207989931,-0.05622895996123552
1769661901942005000,4.8590048828125,0.023273360092379153,-0.07384323484599589,-0.06365764865726233
1769661901951993900,4.868993896484375,0.0021931626627221703,-0.06802022778093815,-0.02930500493943691
1769661901961982000,4.87898193359375,-0.012259725581668317,-0.0599573328346014,-0.023467677088081836
1769661901971969800,4.8889697265625,-0.010649952297471463,-0.04592646939456463,-0.04107815258055925
1769661901981958000,4.8989580078125,-0.02922843257188797,-0.033710546422004696,-0.03545066808760166
1769661901991946000,4.908946044921875,-0.027582418930530546,-0.030858664122223853,-0.06291676716208458
1769661902001935000,4.91893505859375,-0.0015057283878326415,-0.026857027265429496,-0.05035802210122346
1769661902011923000,4.9289228515625,0.016967464881204066,-0.05400339286625385,-0.05124591085165739
1769661902021910800,4.938910888671875,0.00893500160574913,-0.0505634815454483,-0.031141864977777003
1769661902031899000,4.94889892578125,0.018315408891439438,-0.06868658273518086,-0.028050913225114344
1769661902041888000,4.958887939453125,0.01808273264672607,-0.08540975399911403,-0.0390977924183011
1769661902051875800,4.968875732421875,0.02356788605954498,-0.09147767573595046,-0.04599690428227186
1769661902061864000,4.978864013671875,0.03559153786301612,-0.06613514468669891,-0.0328369784578681
1769661902071852000,4.98885205078125,0.03441902348492294,-0.04515256241261959,-0.028002982430160046
1769661902081840000,4.998840087890625,-0.000508497511409223,-0.023030162453651425,-0.010609656819701194
1769661902091828700,5.008828857421875,-0.048434616290591655,-0.013922726890444754,-0.022867665368318555
1769661902101816800,5.01881689453125,-0.072557834677957,0.012259762114286423,-0.002441547933220863
1769661902111805000,5.028804931640625,-0.0911667100906372,-0.006488192975521087,-0.005715455037355423
1769661902121793000,5.03879296875,-0.07383914319276809,-0.02563479199409485,0.002897475007176399
1769661902131780900,5.04878076171875,-0.06616787791252136,-0.030834114202857015,0.03166179719865322
1769661902141770000,5.05877001953125,-0.05739657896850258,-0.03514788574874401,0.0553498390391469
1769661902151758000,5.068758056640625,-0.024348843836784363,-0.040298692640662194,0.07427022808641195
1769661902161746000,5.078745849609375,0.04590367304086685,-0.026206454402208326,0.06303425606191158
1769661902171733800,5.088733642578125,0.11308628095388412,-0.03622399054765701,0.05536094495505094
1769661902181721900,5.098721923828125,0.11375026128794997,-0.03377367478609085,0.06667933456599712
1769661902191711000,5.1087109375,0.09758943661451339,-0.019921090522408483,0.07881780838817358
1769661902201699000,5.118698974609375,0.10311075731925666,-0.03976794676482677,0.05229278955608606
1769661902211687000,5.12868701171875,0.0828536397755146,-0.05842997713685035,0.03496054648309946
1769661902221675000,5.138675048828125,0.04617489119768142,-0.07839490680098533,0.01652063442915678
1769661902231663000,5.1486630859375,-0.014340660041570663,-0.09094108464121818,-0.015686813953518865
1769661902241652000,5.15865185546875,-0.06331541109085083,-0.08401976094543934,-0.026319559387862682
1769661902251639800,5.168639892578125,-0.049480947005748746,-0.07758125233054161,-0.04299041594266891
1769661902261628000,5.1786279296875,0.006301182503439486,-0.08681494462192058,-0.06406944432854653
1769661902271616000,5.188615966796875,0.02055065713021904,-0.05905424651503562,-0.07594517556130885
1769661902281603800,5.198603759765625,0.018149404674768447,-0.0021866963893175124,-0.08260638701617717
1769661902291593000,5.208593017578125,0.014047266585566102,0.025777415335178373,-0.08108575332015752
1769661902301580800,5.218580810546875,0.02384502250049263,0.0460147321999073,-0.04849690440446138
1769661902311569000,5.22856884765625,0.017975217151641843,0.02115910788476467,-0.010483107830584048
1769661902321556700,5.238556640625,0.02802314843535423,-0.005352466943860054,0.00597176788598299
1769661902331544800,5.248544921875,0.050706068353913725,-0.043012627774477,0.01810439648926258
1769661902341534000,5.258533935546875,0.05846968809273093,-0.060329088756442065,0.019788696314394474
1769661902351522000,5.26852197265625,0.05287581360843032,-0.05962123274803161,0.010280278734862805
1769661902361510100,5.27851025390625,0.03954988356735557,-0.08123100700974464,-0.0050192894667387
1769661902371498000,5.288498046875,0.04641684672739357,-0.08037643600702285,-0.008539572547376155
1769661902381485800,5.29848583984375,0.03637826779391616,-0.060222705772519106,-0.023873335279524326
1769661902391475000,5.308474853515625,-0.005422061581350863,-0.054578562405705446,-0.022009879495203492
1769661902401463000,5.318463134765625,-0.023938546002842485,-0.05648644185364246,-0.01728343549519777
1769661902411451000,5.328450927734375,-0.02432783758137375,-0.016048633003234863,0.017135259196162222
1769661902421439000,5.33843896484375,-0.04712886745426804,-0.01927694739997387,-0.0020361820027232167
1769661902431427800,5.348427734375,-0.05841251454539597,-0.045854573202133174,0.020407412734627723
1769661902441416000,5.358416015625,-0.015225662715174258,-0.03936111952960491,0.02798866164386272
1769661902451403800,5.36840380859375,0.03839490484595299,-0.04239011196196079,0.02549216865301132
1769661902461392000,5.378391845703125,0.03685640669967979,-0.0658259326070547,0.026646599385142324
1769661902471380000,5.3883798828125,0.05237312478329986,-0.07069207733869552,0.05483604429811239
1769661902481369000,5.398369140625,0.09889642755985259,-0.09027472968697547,0.039698096399009224
1769661902491357000,5.40835693359375,0.07162143061067909,-0.08789514107406139,0.02627601250708103
1769661902501345000,5.418344970703125,0.04072831622958183,-0.07499123583734035,0.007384265032410621
1769661902511332900,5.428332763671875,0.01800678133368492,-0.05567512547075748,-0.006660334672033787
1769661902521320700,5.43832080078125,0.019572167486883698,-0.04397358176112175,-0.03223638221621513
1769661902531309800,5.448309814453125,0.00028057050704956055,-0.014684358912706374,-0.025010522615909574
1769661902541298000,5.4582978515625,-0.02868128355052322,-0.027461422899365425,-0.034058629207313056
1769661902551286000,5.4682861328125,-0.04479775762557983,-0.03884790931046009,-0.021323650796711443
1769661902561273900,5.47827392578125,-0.027786965059302747,-0.028397242444753647,-0.008956628915667533
1769661902571262000,5.488261962890625,-0.008898797781206667,-0.054200376743078225,0.005775368531048298
1769661902581250800,5.498250732421875,0.00437342931125313,-0.046916064953804015,0.011499299135804176
1769661902591239000,5.508239013671875,0.04220014234781265,-0.041648353683948515,0.005697627119719982
1769661902601226800,5.518226806640625,0.05821721116900444,-0.06280979965627193,0.007292787356674671
1769661902611214800,5.52821484375,0.0680301281204447,-0.04018354182839393,0.014828443558514117
1769661902621203000,5.538202880859375,0.06670563805103302,-0.026267244678735733,-0.008298749528825283
1769661902631192000,5.548192138671875,0.03728665134310722,-0.027060440883040427,-0.014348551087081432
1769661902641180200,5.55818017578125,0.018916297394037246,-0.02985270195007324,-0.008219254551827907
1769661902651167700,5.568167724609375,0.024019210023619234,-0.03477554530501365,-0.003684241470694542
1769661902661155800,5.57815576171875,0.025468751244805753,-0.04482172302305698,-0.0032487726628780363
1769661902671145000,5.58814501953125,0.03713697720672935,-0.04189560644328594,-0.0008650923967361449
1769661902681133000,5.598133056640625,0.04042900448944419,-0.056145665591955184,-0.030847265945374965
1769661902691121000,5.608120849609375,0.0544540227105841,-0.05049333891868591,-0.043914837311208245
1769661902701109000,5.61810888671875,0.04490063347816467,-0.030025135907530785,-0.03336772433370352
1769661902711097000,5.62809716796875,0.01845686318874359,-0.03704290571510792,-0.0024660978525876997
1769661902721086000,5.6380859375,-0.00790975021123886,-0.03304068433642387,0.033736557646095754
1769661902731073800,5.64807373046875,-0.023317747223377226,-0.03634498657882213,0.05863777466863394
1769661902741062000,5.658061767578125,-0.03221764098312706,-0.041055063965916634,0.09487608600258826
1769661902751050000,5.668050048828125,-0.055854573690891265,-0.06411094538271427,0.09313830242455005
1769661902761037800,5.678037841796875,-0.06310030703544617,-0.06679623894393444,0.08810293860584496
1769661902771027000,5.68802685546875,-0.05738481546547264,-0.06833996125459671,0.06764204211831093
1769661902781015000,5.69801513671875,-0.06192428552601486,-0.07360942609012126,0.06048632514476776
1769661902791003000,5.7080029296875,-0.05582070795390755,-0.07737374705970287,0.05380640898942947
1769661902800990700,5.71799072265625,-0.03543368042018264,-0.08689327055513858,0.04312427145540714
1769661902810978800,5.727978759765625,-0.012639737875200808,-0.07542612012326717,0.031521511945128436
1769661902820968000,5.737968017578125,0.002833725588582456,-0.08710077582597732,0.01878010379374027
1769661902830956000,5.7479560546875,0.013199673312902449,-0.0915238529652357,0.024784312644600865
1769661902840943900,5.75794384765625,0.0105529947290197,-0.0836462514579296,0.008107318609952925
1769661902850932000,5.767931884765625,0.02083115457203239,-0.04876783030033111,0.0018774843096733091
1769661902860920000,5.777920166015625,0.008815686075016855,-0.042086745101213456,0.011464520083367824
1769661902870909000,5.787908935546875,0.019133666471764444,-0.011182488271594047,0.0017217092260718345
1769661902880896800,5.797896728515625,0.011630816560983658,-0.013081015369296073,0.00279635272026062
1769661902890884900,5.807884765625,-0.020665223420597612,-0.036647768917679784,0.020588906781375406
1769661902900873000,5.817873046875,-0.016292963153123854,-0.05673486365675926,0.017572189308702944
1769661902910862000,5.827862060546875,0.01330134358908981,-0.09068389500975609,0.003910159181058407
1769661902920850000,5.837849853515625,-0.005051438170671462,-0.10597674120962619,0.0012245733588933945
1769661902930837800,5.847837646484375,0.02953709666226059,-0.02826630954146385,0.0038607670813798904
1769661902940825900,5.857825927734375,0.02250759988427162,-0.0629547610849142,-0.07289221773147582
1769661902950814000,5.86781396484375,-0.05061378696057945,-0.1492073956489563,-0.0158639240860939
1769661902960803000,5.877802978515625,-0.07153850156757981,-0.1527139424651861,-0.057848085595667356
1769661902970791000,5.887791015625,-0.05744918593857437,-0.08253682891130447,-0.058502750112116336
1769661902980779000,5.897779052734375,-0.0683271383056417,0.06525485472083091,-0.004968143801391125
1769661902990767000,5.90776708984375,-0.07837382748033851,0.1647451565206051,0.03091886987686157
1769661903000755000,5.9177548828125,-0.05591653301119804,0.18748948777019978,0.03847381530106067
1769661903010743800,5.927743896484375,0.07503270035889,0.11066811389625072,0.013905191233754157
1769661903020732000,5.93773193359375,0.18916644453909248,-0.026547230663895607,-0.010419394944608211
1769661903030720000,5.947719970703125,0.26771336356401443,-0.1228027883261442,0.02304565228372812
1769661903040707800,5.957707763671875,0.18576934944670645,-0.20412381170690058,0.07411562204658985
1769661903050696000,5.967696044921875,0.04673720125555992,-0.2596662507086992,0.0777317667171359
1769661903060684800,5.977684814453125,-0.011427439475990831,-0.1750666440486908,0.02381868248283863
1769661903070673000,5.9876728515625,-0.052472530037164684,-0.05858779804706573,-0.02936170356273651
1769661903080660700,5.99766064453125,-0.1393301447570324,0.05899520980417728,-0.06319558410346508
1769661903090648800,6.00764892578125,-0.14907996987700461,0.12276362535953521,-0.13069763322919606
1769661903100637000,6.017636962890625,-0.09440613040328025,0.14917992312014103,-0.133014093478024
1769661903110626000,6.0276259765625,-0.050570532340742644,0.08519055829048157,-0.10096183565706014
1769661903120614000,6.03761376953125,0.00374444722533226,0.017487725895643232,-0.0555956304937601
1769661903130602000,6.04760205078125,0.05561378720495849,-0.029829905596375463,-0.00796118813753128
1769661903140590000,6.057590087890625,0.09670213238596916,-0.04976560916602611,0.012473112604022025
1769661903150578000,6.067577880859375,0.10872929132077842,-0.07143032848536968,0.0015317396119236945
1769661903160566800,6.07756689453125,0.11611523685362189,-0.06843816093206405,-0.029721184524893758
1769661903170555000,6.087554931640625,0.10831424424648284,-0.04231529316008091,-0.06774959414601325
1769661903180543000,6.09754296875,0.09046762191057205,-0.02838087583184242,-0.06736117935031652
1769661903190531000,6.107531005859375,0.03835987006518989,-0.042839609295129776,-0.07990881849527358
1769661903200520000,6.11752001953125,0.018785364490747452,-0.045532501640915865,-0.06689736123085022
1769661903210507800,6.1275078125,-0.0015104045629501341,-0.06621990036070347,-0.06468786848783492
1769661903220495600,6.13749560546875,-0.009897161168791354,-0.028919220492243766,-0.04822130233347416
1769661903230483700,6.147483642578125,-0.046788602649234234,-0.003929740664362907,-0.010252806206047535
1769661903240471800,6.157471923828125,-0.03835278273727745,0.02223521268367767,0.00040302784293889997
1769661903250461000,6.1674609375,-0.012846658624149859,0.009662731358408927,-0.008126023310422897
1769661903260448800,6.17744873046875,0.012249240720272064,-0.0120341366648674,-0.002150456032156944
1769661903270436900,6.187436767578125,0.02284428449273109,-0.03710311146974563,-0.006813187146186828
1769661903280425000,6.197425048828125,0.018628749156929553,-0.04147708877027034,-0.0196916656807065
1769661903290412800,6.207412841796875,0.007115969485044479,-0.05265197825729847,-0.017971710020303726
1769661903300401700,6.217401611328125,0.018619323741458357,-0.048365094718337054,-0.01990384712666273
1769661903310389800,6.2273896484375,0.015800759189389644,-0.07228314592242241,-0.02840484122931957
1769661903320377900,6.2373779296875,-0.0026256723284721374,-0.06155892281234264,-0.029096622885763642
1769661903330366000,6.247365966796875,-0.0263385928818956,-0.03861176246702671,-0.019480068756639955
1769661903340353800,6.257353759765625,-0.016428572231531144,-0.016287117934226988,-0.008156710709631443
1769661903350342700,6.2673427734375,-0.005906009173393249,-0.025531916141510007,0.00001432078629732132
1769661903360330800,6.277330810546875,0.010424399913288652,-0.035006431451439855,0.01431464881747961
1769661903370318800,6.28731884765625,0.051840040819905696,-0.05222177014648914,0.009318447965383529
1769661903380306700,6.297306640625,0.060976154488325114,-0.06789397105276584,-0.009107435563206673
1769661903390294800,6.307294677734375,0.06170096163153648,-0.06732113960087299,-0.002704582783579826
1769661903400284000,6.317283935546875,0.01732643438670784,-0.06125847856104374,-0.00910538973659277
1769661903410272000,6.32727197265625,0.02276245142817497,-0.04987433023750782,-0.012711013013124465
1769661903420259800,6.337259765625,0.04527242593262344,-0.05073182384967804,-0.014554887314140796
1769661903430247700,6.34724755859375,0.07292732557747512,-0.04747311431467533,-0.04155833731293678
1769661903440235800,6.35723583984375,0.07930212130639702,-0.03537292667627334,-0.027736440448462962
1769661903450225000,6.367224853515625,0.061591108048893506,-0.02251812127828598,-0.004803308628499508
1769661903460212700,6.377212646484375,0.04594458957314491,-0.010464110869169235,-0.015012275692820548
1769661903470200800,6.387200927734375,0.037734395110607145,-0.01170037466585636,0.010566402199864386
1769661903480189000,6.39718896484375,0.028277963446639475,-0.032413492348790165,0.0010097615644335746
1769661903490177800,6.407177734375,0.012595277678966522,-0.05158697937428951,-0.00772591807693243
1769661903500165600,6.41716552734375,-0.0003647781917825341,-0.054983051553368564,-0.021039865419268607
1769661903510153700,6.42715380859375,-0.008339994854666292,-0.04180325198471546,-0.012852175049483775
1769661903520141800,6.437141845703125,-0.037594109857082364,-0.029101006799936293,-0.008488134621083736
1769661903530130000,6.4471298828125,-0.02666592514012009,-0.016657704812288284,-0.017827333113551138
1769661903540118800,6.457118896484375,0.012554324614070356,-0.018921558091044424,-0.014214111052453517
1769661903550107000,6.46710693359375,0.04350592771675437,-0.041187165912985796,-0.0346887438043952
1769661903560094700,6.4770947265625,0.06041263885404914,-0.07946516638100147,-0.02210895595550537
1769661903570082800,6.487082763671875,0.04514028745293617,-0.0760264241039753,0.006243570564687251
1769661903580070700,6.497070556640625,0.021988544446229934,-0.06213292330801486,0.011292086125910282
1769661903590059800,6.507059814453125,-0.007825579059123993,-0.047208910420536994,0.018301964887976644
1769661903600047900,6.5170478515625,-0.00992401264309883,-0.03510696921646595,0.005922083525359631
1769661903610036000,6.527035888671875,-0.002773008377291262,-0.008919804036617279,-0.006083996088802814
1769661903620023800,6.53702392578125,0.01729245905186981,-0.005136778366565704,-0.003960135802626609
1769661903630012000,6.547011962890625,0.02749360813591629,-0.03790449098050594,0.0032280221357941625
1769661903640000800,6.557000732421875,0.07519874110817909,-0.05821721116900444,-0.015086509972810745
1769661903649988900,6.56698876953125,0.07713467760682105,-0.07404898655116558,-0.024999124439060688
1769661903659976700,6.576976806640625,0.0735468822479248,-0.0621878683656454,-0.03703501466959715
1769661903669964800,6.58696484375,0.06936758726928383,-0.03307049495279789,-0.04856675477027893
1769661903679953000,6.596952880859375,0.03804536075592041,-0.030349545556306836,-0.04680208318531513
1769661903689941800,6.606941650390625,0.016530279040336607,-0.049454058998823165,-0.06704232265949249
1769661903699929600,6.6169296875,-0.03099251963496208,-0.07568272523283957,-0.06356383289396762
1769661903709917700,6.626917724609375,-0.029058957756496966,-0.10010872595906257,-0.08308920209705829
1769661903719905800,6.63690576171875,0.013214907414652406,-0.029833412727713584,-0.049205052673816675
1769661903729895000,6.64689501953125,-0.05295066894292831,-0.010613163951039313,-0.002954465891420841
1769661903739882800,6.6568828125,-0.08026650935914367,0.003424129229784012,0.02808423097282648
1769661903749870800,6.666870849609375,-0.04589077702667564,0.04411795866787433,0.027613106329739092
1769661903759859000,6.67685888671875,0.024420155507326124,0.03558569264411926,0.035656419792771336
1769661903769847000,6.686846923828125,0.056720798598788674,0.0026361937224864958,0.03946808703541756
1769661903779835600,6.696835693359375,0.07634670556690544,-0.027341011390089986,0.05329582911878824
1769661903789823700,6.70682373046875,0.12426230295207351,-0.019049568384885786,0.04762421322315931
1769661903799811800,6.716811767578125,0.14316227026581763,-0.0323380890250206,0.02319119823426008
1769661903809800000,6.726800048828125,0.09477207763884216,-0.03710135790407657,-0.011646890912950039
1769661903819787800,6.736787841796875,0.04668225619792938,-0.023254034337401388,-0.014262626369297503
1769661903829776600,6.746776611328125,0.00779518392086029,0.00338671982884407,-0.015459142677485943
1769661903839764700,6.7567646484375,-0.027998598515987395,-0.001204115092754364,-0.020239070430397986
1769661903849752800,6.7667529296875,-0.009249437849782407,-0.020040332987904547,-0.032736732953786846
1769661903859740700,6.77674072265625,-0.008396035890839993,-0.0052069209933280946,-0.011385901889204979
1769661903869728800,6.786728759765625,0.001474164205789566,-0.019307927060127256,-0.01904518447071314
1769661903879718000,6.7967177734375,0.03308865166399628,-0.03983516678214073,-0.03382540497332811
1769661903889706000,6.8067060546875,0.035754034948348994,-0.05948270106017589,-0.048343175147473806
1769661903899693800,6.81669384765625,0.03770520554874092,-0.08211363506317138,-0.04965250418037176
1769661903909682000,6.826681884765625,0.03647997460272163,-0.06746142485439777,-0.052177931004762645
1769661903919669800,6.836669677734375,0.032439795833826064,-0.03494505665302276,-0.06125847856104374
1769661903929659000,6.846658935546875,0.04291329558584839,0.0034703064590692516,-0.07048135719746351
1769661903939646700,6.856646728515625,0.048522367639280854,0.008730418944358826,-0.04323386930972337
1769661903949634800,6.866634765625,0.048476738399267194,-0.026293548163771628,-0.028519992041587828
1769661903959623000,6.876622802734375,0.026866964137554166,-0.07963175511956215,-0.0185872115701437
1769661903969611800,6.88661181640625,0.0031715792408213016,-0.09949205536544323,-0.002377250525355339
1769661903979599600,6.896599609375,0.005702595555782318,-0.12145312728285788,-0.008090075214207171
1769661903989587700,6.906587646484375,-0.021192462165094912,-0.10201485184133052,-0.017817980763316154
1769661903999575800,6.916575927734375,-0.04484104877803474,-0.07629062799811363,-0.021525018587708472
1769661904009563600,6.926563720703125,-0.04969725663755089,-0.0303729264318943,-0.025059330193698406
1769661904019552800,6.936552734375,-0.044450588155724106,-0.0023100305080413818,-0.02195171956717968
1769661904029540900,6.946540771484375,-0.017625673061609268,0.019597265395522118,-0.012296294732391834
1769661904039529000,6.956529052734375,0.010526033656857907,-0.007504092019796371,0.0020849895805120466
1769661904049516800,6.966516845703125,0.03441427424456924,-0.03599076631367206,0.02717325360774994
1769661904059504600,6.976504638671875,0.02059972043633461,-0.08070610635280609,0.045400984215736385
1769661904069493800,6.98649365234375,0.015004640375636516,-0.10683131221234798,0.06733662943094969
1769661904079481900,6.99648193359375,0.003283807443641126,-0.10312018273472785,0.07149433363229035
1769661904089470000,7.006469970703125,-0.008798260016180575,-0.07190905191302299,0.06712503250688313
1769661904099457800,7.016457763671875,-0.02631988818142563,-0.035191724890470504,0.07859510554820298
1769661904109446000,7.02644580078125,-0.04374324360396713,-0.020605565655231476,0.0764902422234416
1769661904119434800,7.036434814453125,-0.03850592747237533,-0.016050386568903924,0.06389905619770288
1769661904129422800,7.0464228515625,-0.03529226265549659,-0.04796761983335018,0.04241524640321731
1769661904139410700,7.05641064453125,-0.026429741764068603,-0.07136603107750415,0.04373685039579868
1769661904149398800,7.066398681640625,-0.05120532311294228,-0.10614800612330436,0.017730594740808008
1769661904159387000,7.076386962890625,-0.05405073913931846,-0.09342880980372428,0.012695815443992614
1769661904169376000,7.0863759765625,-0.05540215374827385,-0.06471183388531207,0.022221184158325195
1769661904179363800,7.09636376953125,-0.04438625421524048,-0.03988134401142597,0.04639379464536905
1769661904189351700,7.1063515625,-0.03057045829799026,-0.03157236534953117,0.06201718797385692
1769661904199339800,7.11633984375,-0.008820471847988665,-0.026533786660432813,0.05400953034609556
1769661904209329000,7.126328857421875,0.008284976731799542,-0.05809387705028057,0.04354132782369852
1769661904219316500,7.13631640625,0.01491115340590477,-0.09471534248292446,0.031128713235259054
1769661904229304300,7.14630419921875,0.0003156418204307556,-0.09625614218413829,0.0006508651241660118
1769661904239292400,7.15629248046875,0.013923347944952546,-0.06328969212770462,-0.012491232782602309
1769661904249280500,7.166280517578125,-0.0003916296660900116,-0.03347498410046101,-0.017984277240931986
1769661904259269400,7.176269287109375,0.005195194022916257,-0.022525720062851903,-0.01626958227753639
1769661904269257200,7.18625732421875,0.0011328034222126005,-0.034579145950078966,-0.021959318351745603
1769661904279245300,7.196245361328125,0.03060436056759208,-0.050689153751730914,-0.014549334356188773
1769661904289233400,7.2062333984375,0.018891747474670408,-0.06306582024395466,-0.0042120647370815275
1769661904299221200,7.21622119140625,0.0026104382267221806,-0.08295067040920256,-0.010250760379433631
1769661904309210400,7.22621044921875,-0.01480827755331993,-0.06342004050910473,0.0018505963027477263
1769661904319198500,7.236198486328125,-0.0538964253604412,-0.05262567477226257,0.02375993803292513
1769661904329186600,7.2461865234375,-0.05774257939457893,-0.01703296786546707,0.05857786117494106
1769661904339174100,7.256174072265625,-0.0650678077161312,-0.003937339448928833,0.06534165622144937
1769661904349162200,7.266162353515625,-0.04228895314242691,-0.0032516952723264693,0.056039574868977066
1769661904359151400,7.2761513671875,-0.02401683540344238,0.005591536396741867,0.04055968166440725
1769661904369139500,7.286139404296875,0.0019475538711994885,-0.03336334041953087,0.007052256599068641
1769661904379127300,7.296127197265625,-0.0062251946577802295,-0.059148939061164856,-0.0010477554872632027
1769661904389115400,7.306115478515625,0.0015630115330219267,-0.08417933542132378,-0.002272328846156597
1769661904399103500,7.316103515625,0.01025021239016205,-0.10618015482723712,0.01573503700941801
1769661904409092400,7.32609228515625,0.004198072744347155,-0.075978493309021,0.03501315345317125
1769661904419080400,7.33608056640625,-0.00641921939253807,-0.07006254726350307,0.05037409645318985
1769661904429068300,7.346068359375,-0.010252477412484586,-0.057604632228612895,0.03831044143289328
1769661904439056400,7.356056396484375,0.009355820833705366,-0.04209492840766906,0.014192191481590271
1769661904449044500,7.36604443359375,0.03419102341532707,-0.03193184631168842,-0.018919512264430522
1769661904459033600,7.37603369140625,0.031900866651535034,-0.02488251232206821,-0.030246377442777157
1769661904469021400,7.386021484375,0.030789032952114936,-0.018651508978009223,-0.04503273542523384
1769661904479009300,7.39600927734375,0.007840740095637738,-0.011812602868676185,-0.05545622202306986
1769661904488997400,7.405997314453125,-0.01731003124117851,-0.05612520732581615,-0.056169046467542644
1769661904498986500,7.415986572265625,-0.036925416815280915,-0.09321545931398868,-0.050044426107406614
1769661904508974300,7.425974365234375,-0.014189816861413419,-0.0685924747109413,-0.03156856595724821
1769661904518962400,7.43596240234375,-0.00481642383839935,-0.09178045807480811,-0.03520692245960235
1769661904528950500,7.445950439453125,-0.021088380736112595,-0.07903378922641277,-0.009366378760337829
1769661904538938400,7.4559384765625,-0.008502418874762952,-0.03232522954344749,-0.021662673492729663
1769661904548927200,7.46592724609375,0.0229354699075222,0.01068564466536045,-0.01765869854837656
1769661904558915300,7.475915283203125,0.024687830000184475,0.03635784606039524,0.004916705875098705
1769661904568903400,7.4859033203125,0.009313771790266037,0.04776245265007019,0.04257891253232956
1769661904578891300,7.495891357421875,0.01688336679432541,0.024341245052218435,0.049737844376266
1769661904588879400,7.50587939453125,0.017742577439546586,-0.025722470277547836,0.07925181589126587
1769661904598868500,7.515868408203125,0.052483014898560935,-0.08175473862290382,0.047750177690386766
1769661904608856300,7.525856201171875,0.04811082769632339,-0.13551146325170993,0.0428013231113553
1769661904618844200,7.53584423828125,0.004533588309027254,-0.14182313061654567,0.004210311171412468
1769661904628832300,7.545832275390625,-0.020851064848899842,-0.1252566112190485,-0.024728198543190954
1769661904638820400,7.5558203125,-0.07163662817981094,-0.08477554774880408,-0.03209142078757286
1769661904648809500,7.5658095703125,-0.06504672839548438,-0.05729658919274807,-0.05853548333793878
1769661904658797300,7.57579736328125,-0.04790156885981559,-0.024607202512025833,-0.07132686811089516
1769661904668785400,7.585785400390625,-0.04563015332911163,-0.008674304842948913,-0.05748597428500652
1769661904678773500,7.5957734375,-0.031013562422990797,-0.027590017715096473,-0.0373135393500328
1769661904688761600,7.60576171875,-0.04426003401968628,-0.028934418061375616,-0.027550270226597784
1769661904698750500,7.61575048828125,-0.053790078909136355,-0.030195816299319264,-0.003546586565673351
1769661904708738300,7.62573828125,-0.05291910476088524,-0.035411505120992656,0.02284136188328266
1769661904718726400,7.635726318359375,-0.052131132720969614,-0.006439677658677101,0.04159983836710453
1769661904728714500,7.645714599609375,0.020113361691497265,0.033707623812556264,0.0512824434697628
1769661904738703600,7.65570361328125,0.024359328698180614,0.026319851648807523,0.023552140501141548
1769661904748691200,7.665691162109375,0.02126373730301857,-0.0077495912134647365,0.012011632572114466
1769661904758679300,7.67567919921875,0.041215807485580444,-0.0522539188504219,-0.012552315320074557
1769661904768667400,7.68566748046875,0.13794596038963644,-0.060712535116076466,-0.000481061515212059
1769661904778655200,7.6956552734375,0.09340071622040122,-0.1104728835850954,-0.04498275880366564
1769661904788644400,7.705644287109375,0.016255517219565807,-0.12009411388933658,-0.04035363769829273
1769661904798632400,7.715632568359375,0.01735208028461784,-0.043753217008709905,0.006760872437059879
1769661904808620500,7.72562060546875,0.007429309750534594,-0.01724164218008518,0.0063338791966438285
1769661904818608400,7.7356083984375,-0.035801929210685195,-0.007325812843441963,-0.006355214245617389
1769661904828596500,7.745596435546875,-0.024083434366248546,-0.04803659341633319,-0.017571604786813258
1769661904838585300,7.75558544921875,0.03969601403977722,-0.07372282333672046,-0.038592765505611894
1769661904848573400,7.765573486328125,0.04647299736142158,-0.10213701691627503,-0.029082594360411166
1769661904858561300,7.775561279296875,0.041246202623844146,-0.10525661024153232,-0.04092266975790262
1769661904868549400,7.78554931640625,0.034021548599936065,-0.11072364347577095,-0.048072249251604075
1769661904878537500,7.795537353515625,0.0032546178817749022,-0.08242518523037433,-0.0435790294855833
1769661904888526300,7.8055263671875,-0.03188800716996193,-0.09501169508099555,-0.020713702204823492
1769661904898514200,7.81551416015625,-0.06794244983699173,-0.0977940192759037,-0.022381927677989005
1769661904908502300,7.825502197265625,-0.0632207185447216,-0.09114858991205692,-0.01729571045488119
1769661904918490400,7.835490478515625,-0.06768416422698646,-0.05985971767902374,0.0010725976675748825
1769661904928478500,7.845478515625,-0.0818599525630474,-0.02983575081527233,0.00668283876478672
1769661904938467300,7.85546728515625,-0.06988777521848678,-0.026590485283732413,0.010442191298305988
1769661904948455400,7.865455322265625,-0.028173991615511474,-0.03368599650263786,0.03394406291693449
1769661904958443500,7.875443603515625,0.011780417632125317,-0.07044774718880653,0.037167408877611156
1769661904968431400,7.885431396484375,0.003946655266545713,-0.1067559088885784,0.044724692389369006
1769661904978420500,7.89542041015625,0.022075090218521654,-0.12235679812431335,0.036030806063115595
1769661904988408300,7.905408203125,0.011332746929861604,-0.1112567274391651,0.0299415492773056
1769661904998396400,7.915396484375,-0.007038776062987744,-0.07769815670847892,0.015163082340359686
1769661905008384500,7.925384521484375,-0.009188684105873108,-0.0637654929459095,0.017620996886491776
1769661905018372400,7.935372314453125,-0.016004209339618682,-0.0435007035523653,0.010581307508051394
1769661905028361200,7.945361328125,-0.003014927374385297,-0.03381283775269985,0.01350508600026369
1769661905038349300,7.955349365234375,0.011615655524469911,-0.03676525781750679,0.009545242458581923
1769661905048337400,7.96533740234375,0.015707272219657897,-0.04125146332085133,0.03158376352638006
1769661905058325200,7.9753251953125,0.018287315308116375,-0.03189151430130005,0.028354864607751367
1769661905068313300,7.985313232421875,0.02758358797430992,-0.03308043182492256,0.026632570859789848
1769661905078302500,7.995302490234375,0.02666592514012009,-0.039894788014888764,0.008647124575078487
1769661905088290600,8.00529052734375,0.023929157119989393,-0.04854571198225021,0.01064560491591692
1769661905098278400,8.0152783203125,-0.001253214931488037,-0.02744154915511608,-0.0017187866166234016
1769661905108266200,8.025266357421875,-0.027466683596372603,-0.03079904288947582,-0.01282411799877882
1769661905118254300,8.03525439453125,-0.05424016076419502,-0.023636311653256414,0.006750935564935207
1769661905128243500,8.045243408203126,-0.05444233227279037,-0.02100479410588741,0.010637129348516464
1769661905138231300,8.055231201171875,-0.03706456955764442,0.007823240971565245,0.006108546008169651
1769661905148219400,8.065219482421876,-0.005931728136539459,0.011406944677233695,0.017509060944616794
1769661905158207500,8.07520751953125,-0.001031096613407135,0.0015232640445232391,0.025007307745516297
1769661905168195600,8.085195556640626,0.006289419000409543,-0.027782909938693045,0.005028349556028842
1769661905178184200,8.09518408203125,0.03795651342868805,-0.03492342934310436,-0.005131225408613682
1769661905188172300,8.10517236328125,0.02325703001208603,-0.04614741866886615,-0.011766717900335788
1769661905198160400,8.115160400390625,0.02362520573735237,-0.04884498718976974,-0.00995323873758316
1769661905208148500,8.1251484375,0.018051278062537313,-0.0323509485065937,-0.005989011281728744
1769661905218136800,8.13513671875,0.03316920608691871,-0.03248655758500099,-0.024452011950314042
1769661905228125700,8.145125732421874,0.0453963811058551,-0.01582125398814678,-0.01273819328099489
1769661905238113800,8.15511376953125,0.0332312384724617,0,-0.0017161562681198119
1769661905248102000,8.165101806640624,0.013712810466811061,0.006517419070005416,-0.005594166745245457
1769661905258089700,8.17508984375,0.006128127491474151,-0.029568039789795875,-0.030916531789302825
1769661905268078800,8.185078857421875,-0.016948869778588414,-0.05742986018359661,-0.03449877419024706
1769661905278067000,8.19506689453125,0.013963022368215023,-0.09123042297661305,-0.044399405957758424
1769661905288055000,8.205054931640625,0.01878887162208557,-0.09472352578938006,-0.02906973487883806
1769661905298043000,8.21504296875,0.001515007672831416,-0.057931379964947696,-0.02196224096119404
1769661905308030700,8.22503076171875,-0.011892609302327037,0.0005038578689098358,-0.028071371491253376
1769661905318019800,8.235019775390626,-0.0012380173623561857,0.04090893349349498,-0.028391981747746466
1769661905328008000,8.245008056640625,0.014835092495009302,0.04286941991150379,-0.027027415396273135
1769661905337995800,8.254995849609376,0.04684705483820289,0.015015198302268981,-0.014981588293612003
1769661905347984000,8.26498388671875,0.09112824124377221,-0.023590718945860862,-0.001011222869157791
1769661905357972000,8.274971923828126,0.10164258446283637,-0.061758244776725764,-0.012448270423710345
1769661905367960800,8.2849609375,0.07564177216794342,-0.11543021373152733,-0.018974457322061062
1769661905377949000,8.294948974609374,0.04930325235128402,-0.13023907580673694,-0.015517010344564914
1769661905387936800,8.304936767578125,0.03286072465963662,-0.10585574517846107,-0.025965923644602297
1769661905397924900,8.3149248046875,0.02355148291401565,-0.056095396709442136,-0.03377104443758726
1769661905407913000,8.324912841796875,0.014725275444984436,-0.03447568557560444,-0.0257478969797492
1769661905417902000,8.334902099609375,-0.01849547816608101,-0.016347908210754394,-0.03499620231837034
1769661905427890000,8.344889892578125,-0.016747757715918122,0.003949614408612251,-0.03285334507077932
1769661905437878000,8.3548779296875,-0.013294365859031676,0.027488310906291006,-0.028592472755908965
1769661905447865900,8.364865966796875,-0.01645900390241295,0.019788988575339315,-0.039192192703485486
1769661905457855000,8.37485498046875,-0.026412206107378003,-0.0068003276646137235,-0.037781449122726914
1769661905467842800,8.3848427734375,-0.008061798967793583,-0.02442424716055393,-0.03007365122437477
1769661905477831000,8.394830810546875,0.03125314333252609,-0.031626725885272024,-0.024838965441286564
1769661905487819000,8.404819091796876,0.003427709426358342,-0.044411388656497,-0.007829378451406955
1769661905497806800,8.414806884765625,0.029461072283983227,-0.044238954699039455,0.029861762039363384
1769661905507795700,8.424795654296876,0.039810616862773894,-0.045313890454173084,0.016883914783596993
1769661905517783800,8.43478369140625,0.047338016692921515,-0.09361001158952713,0.004589665877819061
1769661905527772000,8.44477197265625,0.052428179438784715,-0.0946048678457737,-0.012452069815993309
1769661905537759700,8.454759765625,0.07038929499983787,-0.09603577743172645,-0.01686053390800953
1769661905547747800,8.464747802734376,0.055962125718593596,-0.08408756548464298,-0.004456102626025677
1769661905557737000,8.474737060546875,-0.04581248762607574,-0.08241232574880122,-0.014605156196653842
1769661905567725000,8.48472509765625,-0.10117142328713088,-0.04798340192437172,0.0014738719448447227
1769661905577713000,8.494712890625,-0.10603460887670517,-0.04483224441707134,-0.006605974136292934
1769661905587700700,8.50470068359375,-0.10413027309272438,-0.03580664191842079,0.010604396122694015
1769661905597688800,8.514688720703125,-0.08655841257758438,-0.03394786230921745,0.0076256725728511806
1769661905607678000,8.524677978515625,-0.03604980302453041,-0.018894085562229157,0.011449322514235973
1769661905617665800,8.534665771484375,-0.014076456147432326,-0.021792729613184927,0.008445756784081458
1769661905627654000,8.54465380859375,0.010519019394181667,-0.07231997080147266,0.016490823812782763
1769661905637642000,8.55464208984375,0.07214760990925133,-0.10360358233749865,0.024547873540222642
1769661905647630800,8.564630859375,0.06756371618509292,-0.1336918466091156,0.024943594859540463
1769661905657619000,8.574618896484376,0.038384456517174835,-0.10781155542135239,0.04272036682963371
1769661905667606800,8.584606689453125,0.00714979868941009,-0.03123042004406452,0.0440562916085124
1769661905677595000,8.594594970703126,-0.030848763782717285,0.02573357619345188,0.03596417056769132
1769661905687583000,8.6045830078125,-0.04574585213065147,0.0433089803725481,0.030169805075228213
1769661905697572000,8.614572021484374,-0.04120170589499175,0.02390051554739475,0.025010230354964733
1769661905707560000,8.624559814453125,-0.016428608764149248,-0.01582826825082302,0.027916765451431274
1769661905717547800,8.6345478515625,-0.020850005402974783,-0.0696995591700077,0.03075286566019058
1769661905727535900,8.644535888671875,-0.011723244084790349,-0.0831061532318592,0.026481471951305863
1769661905737523700,8.654523681640624,0.010292224900983273,-0.08049801656007766,0.005459434449672698
1769661905747512800,8.664512939453125,0.007649053448438644,-0.02774082436263561,0.017905074524879456
1769661905757501000,8.6745009765625,-0.003000862316414714,0.0010877952367067335,0.006885083338618278
1769661905767489000,8.684489013671875,0.005328501546382904,0.01944412066042423,0.003370645476877689
1769661905777476900,8.694476806640624,0.012678279787302016,0.00753682524561882,0.01673895335495472
1769661905787465000,8.70446484375,0.007672397791408002,-0.01076455512046814,0.012458207295835017
1769661905797453800,8.714453857421875,0.020793745171092448,-0.04163432515859604,0.003190320473909378
1769661905807442000,8.72444189453125,0.01823704642560333,-0.06338263110816478,0.006056231299042702
1769661905817429800,8.7344296875,0.019071853281930087,-0.06200374397039413,-0.0027159809604287146
1769661905827417900,8.74441796875,0.010370660432055591,-0.049477439874410625,-0.005350128856301308
1769661905837406000,8.754406005859375,-0.009147804106213152,-0.058573184999823565,-0.013660568822920322
1769661905847394800,8.764394775390626,-0.008832125753164291,-0.04854395841658115,-0.017105448579788206
1769661905857382700,8.774382568359375,-0.0033867563614621756,-0.07409048760533332,-0.04439560656547546
1769661905867370800,8.784370849609376,0.015886099385283885,-0.07764379617273807,-0.03975216467380523
1769661905877358800,8.79435888671875,0.01889876173734665,-0.03520166176259518,-0.05554097769707441
1769661905887347000,8.804346923828126,0.002709916545823216,0.0005740004956722259,-0.0670329703092575
1769661905897335800,8.814335693359375,-0.021370156819559633,0.0007581248909235,-0.08984393705427646
1769661905907324000,8.824323974609374,-0.027571897536516187,0.029354104778170582,-0.080448916721344
1769661905917312000,8.83431201171875,-0.032084443057514726,0.007905658558011055,-0.06372048476040362
1769661905927300000,8.844300048828124,-0.027682956695556638,-0.02659633050262928,-0.06992518461942672
1769661905937289000,8.8542890625,-0.010531951940990984,-0.04332826959490776,-0.08002835322171449
1769661905947276800,8.86427685546875,-0.0053426031369715925,-0.060602060478925704,-0.06876753901690244
1769661905957265000,8.874264892578125,0.01270867492556572,-0.06936053647398949,-0.0756666508808732
1769661905967253000,8.8842529296875,-0.01052840827703476,-0.0493085130482912,-0.05739508113116026
1769661905977240800,8.89424072265625,-0.0070341364204883575,-0.05652034412324428,-0.027334289388358593
1769661905987230000,8.90422998046875,-0.0018307225584983824,-0.06380231782495975,-0.024526830752193925
1769661905997217800,8.9142177734375,-0.0072200509140267965,-0.0839648158878088,-0.015604396367073059
1769661906007206000,8.924205810546875,0.029035540348291394,-0.11764788978099823,-0.03342617652267217
1769661906017193700,8.93419384765625,0.05185067181177437,-0.0660831222385168,-0.0534630023792386
1769661906027181800,8.944181884765625,0.013445245571807027,-0.02127835035026073,-0.0239919932231307
1769661906037171000,8.9541708984375,-0.06330138256549835,-0.029828736552596092,0.006313713191449642
1769661906047159000,8.964158935546875,-0.07652202560119331,-0.014504910692572592,0.029329262597858903
1769661906057147000,8.97414697265625,-0.08011226864550262,-0.03566577214300632,0.05533142659962177
1769661906067135000,8.984135009765625,-0.06975099709630012,-0.049721185502409934,0.10117343258112668
1769661906077122800,8.994122802734376,-0.02810852516386658,-0.0745581051170826,0.08438333356082439
1769661906087112000,9.00411181640625,-0.028033779427222905,-0.06041968964934349,0.0723161714091897
1769661906097099800,9.014099853515624,0.00637837592549622,-0.026264322069287298,0.05605068078488111
1769661906107088000,9.024087890625,0.047211833029985426,-0.017261515924334524,0.03645604573786258
1769661906117076000,9.034075927734374,0.04621346964240074,-0.016992635855078698,0.04277385058254003
1769661906127064000,9.04406396484375,0.0747066467422992,-0.017600538620352744,0.0696320468917489
1769661906137052700,9.054052734375,0.12056114687919615,-0.03650514557659626,0.056309039460122584
1769661906147040800,9.064040771484375,0.1720516801416874,-0.042080315360426904,0.022510522493720053
1769661906157028900,9.07402880859375,0.13983758282251654,-0.04522679669260978,-0.0043473815545439715
1769661906167017000,9.084016845703125,0.08763276381082832,-0.031332126852869985,-0.010807517479360103
1769661906177005800,9.094005859375,0.03884045665636658,-0.010125088173151015,-0.006704758335649967
1769661906186994000,9.103993896484376,-0.02979658784866333,-0.011874562188982963,0.028589550146460533
1769661906196982000,9.11398193359375,-0.06331891822218895,-0.022630349481105802,0.06318856984078884
1769661906206969900,9.123969970703126,-0.03439677512049675,-0.03208031487166881,0.08016016290783881
1769661906216958000,9.1339580078125,0.011671806158497928,-0.021382395246624945,0.03861585412025451
1769661906226947000,9.143947021484376,0.08577047707028687,-0.02207622272968292,-0.012886954101920128
1769661906236935200,9.15393505859375,0.10092939469218254,-0.01053834514915943,-0.057119186799228186
1769661906246923300,9.16392333984375,0.03377835096120834,-0.035227380725741386,-0.07851151891797781
1769661906256911000,9.1739111328125,-0.01701433623023331,-0.06930091524124145,-0.05695142901688814
1769661906266899200,9.183899169921874,-0.014347674304246901,-0.07511398543417454,-0.019784604661166667
1769661906276888000,9.19388818359375,-0.004533478711172938,-0.09392097723484039,0.012976385951042174
1769661906286876200,9.203876220703124,-0.01197553834542632,-0.055118076109886165,0.04665156879872084
1769661906296864000,9.213864013671875,-0.04138542843144387,-0.007311784318089484,0.05718903716504573
1769661906306852000,9.22385205078125,-0.06885068725571036,-0.006910217779874802,0.022926994340121746
1769661906316840200,9.233840087890625,-0.05223872128129005,-0.005752279916405678,-0.008161094623804092
1769661906326829300,9.243829345703125,0.0023929595511406657,-0.029060090267658233,-0.006334171457588672
1769661906336817200,9.253817138671875,0.04542432855870574,-0.042675358644127845,0.0376928940564394
1769661906346805000,9.263804931640625,0.032282047988846894,-0.05880991636514663,0.05176818116009235
1769661906356793000,9.27379296875,0.028675401799008248,-0.040597967848181725,0.04940408237725496
1769661906366781200,9.28378125,0.04125785652901977,-0.008897592204809188,0.020808687011897562
1769661906376770000,9.29377001953125,0.04423661661148071,-0.0014209727138280869,-0.019448504574596882
1769661906386758100,9.303758056640625,0.06052603610064834,-0.019205051207542418,-0.037576281939446926
1769661906396746200,9.313746337890626,0.11305128270573914,-0.037379590323567385,-0.024314357045292855
1769661906406734300,9.323734375,0.1222983459353447,-0.05019523275494575,-0.02949672811925411
1769661906416723000,9.333722900390624,0.08036587808039039,-0.0386947645753622,-0.022023615759611127
1769661906426711000,9.3437109375,0.046865869136527176,-0.03431552657783031,-0.02827244702130556
1769661906436699100,9.35369921875,0.026153920497372744,-0.020184125372767446,-0.03638882572054863
1769661906446687200,9.363687255859375,0.014245967495441436,0.007568973949551582,-0.021145956142246722
1769661906456675000,9.373675048828124,0.031161994450353083,0.011044541105628013,-0.04316927964091301
1769661906466664200,9.383664306640625,0.028784195935726165,0.011535539492964745,-0.042102819453179834
1769661906476652000,9.393652099609374,-0.00660385524444282,0.012544424274563789,-0.04994476512521505
1769661906486640000,9.40364013671875,-0.0043791649322956795,0.0038578444719314575,-0.05724836613684892
1769661906496628000,9.4136279296875,-0.004254186845757067,-0.009048983374238014,-0.07877309246361255
1769661906506616000,9.423615966796875,0.013704700225591658,-0.020476970839500425,-0.06547375816851854
1769661906516605200,9.433605224609375,0.020636033858731386,-0.04892155955731869,-0.07040799970030784
1769661906526593300,9.44359326171875,0.014330211712792515,-0.05219020596444607,-0.03985270243883133
1769661906536581000,9.4535810546875,0.01588153280802071,-0.05217208578586578,-0.014636720378696918
1769661906546569200,9.4635693359375,0.04290854634549469,-0.0530599745362997,-0.010505904184281826
1769661906556557000,9.47355712890625,0.04090126164369285,-0.047531566503643985,-0.0022086159601807593
1769661906566546200,9.483546142578126,0.0238893730988726,-0.04657528869211673,-0.012198679576814173
1769661906576534000,9.493533935546875,0.019226167060807348,-0.020175357544422148,-0.009708616326749324
1769661906586522000,9.503522216796876,0.01474872938580811,-0.023512977534532544,-0.0064668579265475265
1769661906596510200,9.51351025390625,-0.0012380538949742913,-0.04027472724318504,-0.010940203948318957
1769661906606499000,9.5234990234375,-0.0063420990357175465,-0.056221653437614434,0.0026087211936712262
1769661906616487000,9.53348681640625,0.004416610865853727,-0.0585065495043993,0.005086801744997501
1769661906626475000,9.54347509765625,-0.003541070140339434,-0.05473872140347957,-0.02694353650510311
1769661906636463000,9.553463134765625,0.03983513024952262,-0.009665069445967674,-0.04071399544328451
1769661906646451200,9.563451171875,0.06752272658757864,0.04846563248336315,-0.021401684468984602
1769661906656440000,9.573440185546875,0.049113830726407466,0.03551087384223938,-0.0012830255478620527
1769661906666428200,9.58342822265625,0.050962125474214554,0.00955284124314785,-0.005818915411829948
1769661906676416300,9.593416259765625,0.04280453798174858,-0.03745440912544727,0.013031331008672714
1769661906686404400,9.603404296875,0.06172784963846206,-0.10196575200259685,0.011549860279262065
1769661906696392000,9.613391845703125,0.06610124241709708,-0.11811316920518874,0.025260990245640276
1769661906706381000,9.623381103515625,0.0366775795340538,-0.10119184502065182,0.007870879505574703
1769661906716369200,9.633369140625,0.014359291676804423,-0.06726093384623527,-0.002070961055159569
1769661906726357200,9.643357177734375,-0.003591302490234375,-0.036548400196433066,-0.013090952241420746
1769661906736345000,9.653344970703126,-0.006938311363197862,-0.00826923117339611,-0.015732114399969577
1769661906746333200,9.663333251953125,0.012957644717954098,-0.011544891843199729,-0.02051554928421974
1769661906756322000,9.673322021484376,0.0218985280752182,-0.02908113305568695,-0.0283665550455451
1769661906766310100,9.68331005859375,0.0427682245593518,-0.03892448167800903,-0.030909225265681742
1769661906776298000,9.693298095703126,0.039221418797969816,-0.05008943429291248,-0.024486498741805553
1769661906786286000,9.7032861328125,0.03518003445267677,-0.046340310892462724,-0.0429079983562231
1769661906796274200,9.713274169921876,0.02511924368739128,-0.07161269931495189,-0.05044014742672443
1769661906806263300,9.72326318359375,0.022058687072992324,-0.07514379605054855,-0.047641164357960224
1769661906816251100,9.733251220703124,0.029513752319291233,-0.04083119208216667,-0.030911855614185333
1769661906826239200,9.7432392578125,0.04582651615142822,-0.03423661612272262,-0.029049568873643874
1769661906836227000,9.75322705078125,0.05272621253728866,-0.0184346513569355,-0.00803483789563179
1769661906846216200,9.76321630859375,0.05785009488966315,-0.016506313642859458,-0.006812894885241985
1769661906856204000,9.7732041015625,0.03131623516399413,-0.05918401037454605,-0.019054829081892967
1769661906866192100,9.783192138671875,-0.0072247636217623945,-0.08485738081336021,-0.035222412289679046
1769661906876180200,9.79318017578125,-0.023139979503676293,-0.08951777383983135,-0.018285306014120577
1769661906886168300,9.803168212890625,-0.0075052610635757445,-0.0841997936874628,-0.012282850728929042
1769661906896157000,9.813156982421875,-0.01971826142668724,-0.0870581057280302,-0.013657646213471888
1769661906906145000,9.82314501953125,-0.04787234276533127,-0.08150164064466953,-0.025736498802900312
1769661906916133000,9.833133056640625,-0.02510864922814071,-0.04744271917641162,-0.04492021496146917
1769661906926121200,9.843121337890626,-0.002564918584562838,-0.009992401704192161,-0.04671469716280698
1769661906936109000,9.853109130859375,-0.010077157378196715,0.01571720909178257,-0.035809856788814064
1769661906946098200,9.86309814453125,-0.004002842433191835,0.025946342161297795,-0.013979717774689197
1769661906956086300,9.873086181640625,0.043455622301623226,-0.0035813656181097027,-0.0034770284608006477
1769661906966074000,9.88307421875,0.07471592602729797,-0.07761515460014343,-0.008617606219649314
1769661906976062000,9.89306201171875,0.046968744989112014,-0.12695873896181584,0.02689560571014881
1769661906986050000,9.903050048828124,0.0241337397813797,-0.13952771315574644,0.04172171118110418
1769661906996039200,9.9130390625,0.02065934166908264,-0.11491817255616188,-0.0008528174370527267
1769661907006027300,9.92302734375,0.003623999183438718,-0.0867050545066595,0.007812719577550888
1769661907016015000,9.93301513671875,0.03010404636263847,-0.06880816328823566,-0.007670096236467361
1769661907026003200,9.943003173828124,-0.0204302090883255,-0.05294482372403145,0.006430325308442115
1769661907035991300,9.9529912109375,-0.060499184626340866,-0.06905015535056591,0.0273512405231595
1769661907045980200,9.962980224609375,-0.0440063149869442,-0.0762479579001665,0.018685703508555886
1769661907055968000,9.972968017578125,-0.024811785173416135,-0.048565585726499556,0.019805062927305696
1769661907065956000,9.9829560546875,-0.02375387361831963,-0.021343232280015945,0.03090484135150909
1769661907075944200,9.992944091796875,0.04163549420237541,-0.020752865171432495,0.01953472155332565
1769661907085933300,10.002933349609375,0.06855740339756011,0.010730652850866317,0.0320963892236352
1769661907095921200,10.012921142578126,0.04297514530830085,0.006885083338618278,0.04871054715514183
1769661907105909000,10.022908935546875,0.02205291491933167,-0.01202887596786022,0.05138648836612701
1769661907115897000,10.03289697265625,0.0432522817492485,-0.022912089031934736,0.023861352580785748
1769661907125885200,10.04288525390625,0.037547421171143645,-0.04241933805644512,0.0024488544568419457
1769661907135874000,10.0528740234375,0.005407996523380279,-0.048885903722047805,-0.01545095937103033
1769661907145862100,10.062862060546875,-0.017880561138130722,-0.028455694633722304,-0.0331637261942029
1769661907155850200,10.072850341796874,-0.041541970700025556,-0.024974866780638694,-0.06080898122787475
1769661907165838300,10.08283837890625,-0.06614208588413893,-0.018974165061116217,-0.05755757821649313
1769661907175826200,10.092826171875,-0.07564531583189964,-0.02801496512889862,-0.0457554967418313
1769661907185815000,10.10281494140625,-0.08779054818842559,-0.023036007672548292,-0.016446400149166582
1769661907195803100,10.11280322265625,-0.0852232184510678,-0.03207446965277195,-0.006933598655462264
1769661907205791200,10.122791259765625,-0.07810023470334708,-0.02944178306162357,0.004680559031665325
1769661907215779000,10.132779052734374,-0.03442249408364296,-0.03463818266093731,0.02774783862531185
1769661907225766700,10.1427666015625,0.010432546687126159,-0.054421326017379756,0.02300385896861553
1769661907235755800,10.152755859375,0.030228038068488238,-0.07862871555685996,0.005483107586205006
1769661907245743900,10.162743896484375,0.041115233187936244,-0.0891448488742113,0.002437456279993057
1769661907255731700,10.172731689453125,0.009845650177262723,-0.08837152641415595,-0.03071574852019548
1769661907265719600,10.182719482421875,-0.012476071746088564,-0.09113923756182193,-0.030185879427194594
1769661907275707600,10.192707763671875,-0.05533792940564453,-0.07241232526004314,-0.018694179075956344
1769661907285696800,10.20269677734375,-0.08552841194272041,-0.04622574460208416,-0.03014847002625465
1769661907295684900,10.212684814453125,-0.07090016713142394,-0.02490355511009693,-0.020630407835543155
1769661907305672700,10.222672607421876,-0.06524323734827339,-0.04423661661148071,0.003520283080637455
1769661907315660800,10.232660888671875,-0.07756959842536598,-0.04027706533074379,0.01464578046798706
1769661907325649000,10.24264892578125,-0.07800678426623343,-0.04428980810344219,0.058629006840288635
1769661907335637800,10.2526376953125,-0.06071538466028869,-0.04123275862038135,0.09372516240179538
1769661907345625600,10.26262548828125,-0.037457258669659495,-0.08350129002928733,0.10171674567759037
1769661907355613700,10.27261376953125,0.007831424278020858,-0.08114683585762977,0.08674889364838599
1769661907365601800,10.282601806640624,0.03459079985525459,-0.09029168082177638,0.06381050113141537
1769661907375591000,10.2925908203125,0.019015666115283963,-0.07464227626919746,0.044697804382443425
1769661907385578800,10.302578857421874,-0.012339257091283798,-0.05029752408564091,0.004100128795206546
1769661907395566600,10.312566650390625,-0.07167995586488396,-0.043111411973834037,0.000011105915904045104
1769661907405554700,10.3225546875,-0.08938048426099121,-0.003194412127137184,0.0020899580165743828
1769661907415542800,10.332542724609375,-0.07288754155635833,0.008255202648043632,-0.008618190741539002
1769661907425532000,10.342531982421875,-0.07391162390708923,-0.002769464713335037,-0.0055991351813077924
1769661907435519700,10.352519775390626,-0.06263385856747627,-0.02231763027012348,-0.006667056673765182
1769661907445507800,10.3625078125,-0.04186002367325127,-0.03795592890679836,-0.02778320219963789
1769661907455496000,10.372495849609376,-0.027900325773283836,-0.06632102264761924,-0.027771219500899315
1769661907465483800,10.38248388671875,-0.030247875280119477,-0.05275134697854519,0.009130524177849292
1769661907475472600,10.39247265625,-0.02189158687777817,-0.045401568737626075,0.02324906590133905
1769661907485460700,10.402460693359375,-0.019777955724671482,-0.03110533235967159,0.06668693335056304
1769661907495448800,10.41244873046875,-0.026753603423573077,-0.017051088044047355,0.08383417524546384
1769661907505436700,10.422436767578125,0.010692074406147003,-0.027287819898128507,0.07951134361028671
1769661907515424800,10.4324248046875,0.018465046495199203,-0.038731004932522774,0.05423252544701099
1769661907525413600,10.44241357421875,0.009411971467733383,-0.053421793586015696,0.04740706334114075
1769661907535401700,10.452401611328124,-0.0014426365563645958,-0.06721008044183253,0.048724283419549465
1769661907545389600,10.4623896484375,-0.011374832505919039,-0.07493921338915824,0.028688626606762406
1769661907555377700,10.472377685546874,-0.027722704184055327,-0.08296002275943756,0.02791647319048643
1769661907565365800,10.48236572265625,-0.01815758798122406,-0.07233516837060451,0.011257891595363617
1769661907575355000,10.49235498046875,0.0043932665228843685,-0.0602928483992815,-0.00023059388548135756
1769661907585342700,10.5023427734375,0.0021381810724735257,-0.03434124554097652,-0.005940495964884758
1769661907595330800,10.512330810546874,-0.03703885059449821,-0.032362638944387435,-0.034248598821461196
1769661907605319000,10.52231884765625,-0.01644610788822174,-0.03704524380266666,-0.0371089566886425
1769661907615307800,10.532307861328125,-0.016277765583992004,-0.048670215144753455,-0.04015606929957866
1769661907625295600,10.542295654296876,0.00808857737686485,-0.07783259674310684,-0.025281156250834463
1769661907635283700,10.55228369140625,0.021455460482835767,-0.083315412068367,-0.0053159343257546425
1769661907645271800,10.562271728515626,0.015494469719193875,-0.06805822170376777,0.001535246743261814
1769661907655260000,10.572260009765625,0.014110358417034148,-0.04673427864611149,-0.004331891724467277
1769661907665248800,10.582248779296876,0.007533281581662595,-0.02453238371014595,-0.01617898138463497
1769661907675236600,10.592236572265625,0.03683189331293106,-0.03108662765920162,0.010248714552819728
1769661907685224700,10.602224609375,0.05317278726100921,-0.04093114532530308,0.005631283885240554
1769661907695212800,10.612212890625,0.042789413477852936,-0.08102642434835433,-0.008702069632709026
1769661907705200600,10.62220068359375,0.02388356441259384,-0.1243669689029455,-0.004365501733124256
1769661907715189800,10.632189697265625,0.023742110115289688,-0.14529168350994587,0.00030687399208545685
1769661907725177900,10.642177734375,0.019198000412248072,-0.13181611586511136,-0.004144552458822727
1769661907735166000,10.652166015625,-0.03573642622642219,-0.09992226347625255,-0.02113251213878393
1769661907745153800,10.66215380859375,-0.07465162861943245,-0.03863631238639355,-0.007702829462289809
1769661907755141600,10.6721416015625,-0.07958970607612281,0.03442190956175327,-0.018938509225845335
1769661907765130800,10.682130859375,-0.029198073966242372,0.09655717095732688,-0.0184913499802351
1769661907775118800,10.692118896484375,-0.0028244463035836816,0.08933364944458007,0.0011389409020543097
1769661907785106700,10.702106689453124,0.03999298769235611,0.06389350323975086,0.003743278181552887
1769661907795094800,10.7120947265625,0.05598894066028297,0.01733282759487629,0.006013268940150737
1769661907805083600,10.722083740234375,0.06004325755238533,-0.03146481332182884,-0.016949673496186732
1769661907815071700,10.73207177734375,0.06311784269213676,-0.07404898655116558,-0.025746727935969826
1769661907825059600,10.7420595703125,0.045357693063281475,-0.08836275858581065,-0.032095512440800666
1769661907835047700,10.752047607421876,0.035552922885678705,-0.0824222626209259,-0.014716215355694293
1769661907845035800,10.762035888671875,0.02877608569450676,-0.08426701370477675,0.013783610680699348
1769661907855025000,10.77202490234375,0.032635099210217594,-0.09754968912601471,0.023161387617886064
1769661907865012700,10.7820126953125,0.036905506538413464,-0.0928793592274189,0.0018535189121961593
1769661907875000800,10.792000732421876,0.020983130263350903,-0.04916179805397987,-0.0031897359520196913
1769661907884988700,10.80198876953125,0.01923657885696739,0.002042319482564926,-0.03455050437748432
1769661907894976800,10.811976806640626,0.00034136078357696533,0.027777064719796178,-0.04807955577522516
1769661907904965600,10.821965576171875,-0.013468589914776384,0.03423077090382576,-0.05174333897978067
1769661907914953700,10.83195361328125,-0.019175861645676195,0.04676116665303707,-0.023243220682442188
1769661907924941800,10.84194189453125,-0.015914119903370737,0.037190205231308934,-0.005192307946085929
1769661907934930000,10.851929931640624,0.0036567689418792724,0.028722821137309073,0.0020958032354712487
1769661907944917800,10.861917724609375,0.012573065847158432,0.03442249408364296,0.012136427995562553
1769661907954906600,10.87190673828125,0.0159597856760025,-0.0015092355191707611,0.00523497804403305
1769661907964894700,10.881894775390625,0.019663279836438594,-0.0321767609834671,-0.020037410378456116
1769661907974882800,10.8918828125,0.022438626301288605,-0.05230886390805244,-0.025128011515736577
1769661907984870700,10.90187060546875,0.03539747659564018,-0.04973696759343147,-0.0279155964076519
1769661907994859800,10.91185986328125,0.026601518134400245,-0.05677870279848575,-0.04772445872724056
1769661908004847900,10.921847900390626,0.006698547790572047,-0.04680032961964607,-0.05383475830107927
1769661908014835700,10.931835693359375,-0.006224062146618962,-0.033168110108375545,-0.04520692294836044
1769661908024823600,10.941823486328126,0.02143555020596832,-0.03261339883506298,-0.055121875502169126
1769661908034811600,10.951811767578125,0.02818454954214394,-0.03712123164832592,-0.06174743112176656
1769661908044800800,10.96180078125,0.03744805244989693,-0.03409633086919785,-0.05901975972354412
1769661908054788900,10.971788818359375,0.020389292556047437,-0.056384735044836994,-0.04604162020683288
1769661908064776700,10.981776611328126,-0.022364976543188093,-0.07164250993132591,-0.032571313259005544
1769661908074764800,10.991764892578125,-0.05811207029409706,-0.054144847163558,-0.024855916576087475
1769661908084753000,11.0017529296875,-0.05431501609869301,0.0015150807380676268,-0.029149229855835436
1769661908094741800,11.01174169921875,-0.05335515809059143,0.04334522072970867,-0.03386193759143352
1769661908104729600,11.0217294921875,-0.0475404439298436,0.06718845313191414,-0.04053659304976463
1769661908114717700,11.0317177734375,-0.009428338080644607,0.039426585981249804,-0.03577595451921224
1769661908124705800,11.041705810546874,0.006794482445716858,-0.008545710027217865,-0.03579553600251675
1769661908134694000,11.05169384765625,0.018745617002248763,-0.05218903692066669,-0.021711773331463336
1769661908144682800,11.061682861328125,0.012615151423215865,-0.07553250310719013,-0.007959142310917378
1769661908154670600,11.071670654296875,0.024800094735622405,-0.06736147161126137,-0.009464578437805175
1769661908164658700,11.08165869140625,0.02015782188773155,-0.07697802574038505,-0.03405161494463682
1769661908174646800,11.091646728515625,0.024291524158976972,-0.07725625815987587,-0.04323503835350275
1769661908184634600,11.101634521484375,0.005914192479848862,-0.042594694623351095,-0.030438685144484043
1769661908194623700,11.111623779296876,-0.00557988249156624,-0.03336684755086899,-0.025601766507327556
1769661908204611800,11.12161181640625,0.002096095496416092,-0.03794131585955619,-0.01962941409945488
1769661908214600000,11.131599853515626,0.009471592700481415,-0.029408465313911437,-0.016502221989631652
1769661908224588000,11.141588134765625,0.03618548516817391,-0.021862872239947317,-0.018458324493467806
1769661908234577200,11.1515771484375,0.030681627054885027,-0.009867314019799232,0.008223638466000556
1769661908244565200,11.161565185546875,0.04128591357972473,-0.003407762616872787,0.0031067338436841963
1769661908254553300,11.17155322265625,0.05496376233100891,0.003359247300028801,0.004481821589171886
1769661908264541200,11.181541259765625,0.05142616278938949,-0.0009592004209756851,0.0067018357262015335
1769661908274529300,11.191529296875,0.06290036401655524,-0.04049567651748657,0.0012444471031427384
1769661908284518100,11.20151806640625,0.07654657552056014,-0.07275719317495823,-0.009304419440031051
1769661908294506200,11.21150634765625,0.1022070864778012,-0.08652735985219479,-0.01248158817142248
1769661908304494000,11.221494140625,0.06855506531000137,-0.10330664521753788,-0.005545943689346313
1769661908314482200,11.231482177734375,0.020228037579730154,-0.09319500104784965,-0.020073066213726995
1769661908324470300,11.24147021484375,-0.003941942558810115,-0.07622633059024811,-0.008036591461300849
1769661908334459400,11.25145947265625,-0.0013058219015598296,-0.03526888177990913,-0.023930326163768768
1769661908344447500,11.261447509765626,-0.0014986410599201916,-0.004901800566911697,-0.012817688257992267
1769661908354435300,11.271435302734375,-0.020999533408880233,0.011221651238203048,-0.022514321886003018
1769661908364423200,11.281423095703126,-0.028390228182077405,0.018373861080408095,-0.025662849044799804
1769661908374412300,11.291412353515625,-0.019321955585479736,-0.0001993219643831253,-0.00878770208954811
1769661908384400400,11.301400390625,-0.0011737199544906616,-0.0438274512887001,0.007524550285935402
1769661908394388200,11.31138818359375,0.030971549912169574,-0.07211597266197205,0.00024520693272352215
1769661908404376300,11.321376220703126,0.0549988336443901,-0.07111234857738018,-0.017692600817978382
1769661908414364400,11.331364501953125,0.07865089085604995,-0.048098552736639974,-0.037116263212263585
1769661908424353300,11.341353271484374,0.10381455820705741,-0.023597148686647414,-0.05653963334560394
1769661908434341000,11.351341064453125,0.08460950699951499,-0.020111060136556624,-0.044133156237006185
1769661908444329200,11.3613291015625,0.06536014172621071,-0.017261515924334524,-0.01653407843261957
1769661908454317300,11.3713173828125,0.015105287738516927,-0.023567922592163084,0.006066168171167373
1769661908464305200,11.38130517578125,-0.011523264533281325,-0.042355040648579596,0.013586334542930125
1769661908474294300,11.391294189453125,-0.024922771267220378,-0.04098901299238205,-0.002497369773685932
1769661908484282400,11.401282470703125,-0.03078326079845428,-0.02719838804900646,-0.007040858422219753
1769661908494270200,11.411270263671875,-0.03493804239034653,-0.019609540355205533,-0.015305997942388056
1769661908504258000,11.421258056640625,-0.03255089152548462,-0.020381109249591828,-0.024974866780638694
1769661908514246100,11.43124609375,-0.023649755656719205,-0.021045710638165474,-0.02587473822981119
1769661908524235300,11.4412353515625,0.002262026647850871,-0.003974164327979088,0.0031000118419528006
1769661908534223400,11.451223388671876,-0.0002034866828471422,-0.01109656355381012,0.02548398534655571
1769661908544211200,11.461211181640625,-0.015293430721759795,-0.028334114080667494,0.018549509908258915
1769661908554199300,11.47119921875,-0.03033200989961624,-0.05890636247694492,0.014974866291880606
1769661908564188200,11.481188232421875,-0.006061528528667986,-0.06372457641363144,0.00044423663616180415
1769661908574176300,11.49117626953125,0.016042714719101785,-0.06452478688061238,-0.003848492121696472
1769661908584164000,11.5011640625,0.0210837045609951,-0.051371875318884846,-0.005664601632952689
1769661908594152200,11.511152099609374,0.002639700853824615,-0.025429624810814858,-0.014641981075704098
1769661908604140300,11.521140380859375,0.02299271652009338,-0.020484569624066352,-0.022347148625552652
1769661908614129400,11.53112939453125,0.014582652103900908,-0.017732056045532227,-0.025423195070028305
1769661908624117200,11.5411171875,-0.0030184710383415222,-0.025354806008934975,-0.010604396122694015
1769661908634105000,11.55110498046875,0.0037339258313179016,-0.0140688573628664,0.0020528408765792846
1769661908644093200,11.56109326171875,0.019093918983265755,-0.011405775633454322,0.003155249160528183
1769661908654081300,11.571081298828124,0.018200769535824654,-0.00006137479841709136,-0.01067863040268421
1769661908664070400,11.5810703125,0.00041625265069305894,-0.009933949515223502,0.0013709960922598837
1769661908674058200,11.591058349609375,-0.01401098969578743,-0.04130231672525406,0.0167637955352664
1769661908684046300,11.60104638671875,-0.005209259080886841,-0.056422728967666626,0.011409867286682128
1769661908694034400,11.611034423828125,0.00932074952032417,-0.0778249979585409,0.01279664546996355
1769661908704022300,11.621022216796876,-0.0231798365900293,-0.09951543624103068,0.02499327922016382
1769661908714011100,11.63101123046875,-0.022687669158913192,-0.09126081811487674,0.012565467062592506
1769661908723999200,11.640999267578126,0.0017605799317359924,-0.04709200604259967,-0.004132569760084152
1769661908733987300,11.6509873046875,-0.0058733124801889055,0.005503273591399192,-0.011055647021532057
1769661908743975200,11.66097509765625,-0.027775311154127118,0.020929975304007527,-0.017496785984933375
1769661908753964300,11.67096435546875,-0.007744915038347244,0.030750527572631834,-0.006830722802877426
1769661908763952000,11.6809521484375,0.0017022008080035448,0.029643443113565444,-0.0033420039042830465
1769661908773940200,11.690940185546875,0.040384690423682326,-0.012855389919877051,0.02744330272078514
1769661908783928000,11.700927978515624,0.07466562061216682,-0.056765843316912645,0.03656155193895101
1769661908793916200,11.710916259765625,0.0729939976055175,-0.07890519441068172,0.03312719357609749
1769661908803905300,11.7209052734375,0.053687166523933405,-0.11137480086088179,0.028072832795977592
1769661908813893400,11.730893310546875,0.04266538523938507,-0.13455226283073424,0.015643851594626904
1769661908823881200,11.740881103515624,0.02363580019660294,-0.12992168042063712,-0.01858107409030199
1769661908833869300,11.750869384765625,0.04536832405515015,-0.11487374889254569,-0.04427957897037267
1769661908843857400,11.760857421875,0.01557396469619125,-0.06246610078513622,-0.04020750722587108
1769661908853846300,11.77084619140625,-0.04690554355978965,-0.03333528336882591,-0.022478958311676976
1769661908863834000,11.780834228515625,-0.1047649542670697,0.006689853027462959,-0.03402472693771124
1769661908873822200,11.790822265625,-0.10444587838053702,-0.0016956980019807815,-0.029125848980247972
1769661908883810300,11.800810302734375,-0.06252283594105393,-0.011754150679707526,-0.020742343777418137
1769661908893799400,11.81079931640625,-0.005115735578536987,-0.03469838841557502,-0.0036669980749487875
1769661908903787300,11.820787353515625,0.008128361397981643,-0.053014966350793835,0.009227847072482108
1769661908913775000,11.830775146484376,0.035686230409145356,-0.06000000293254852,0.009318447965383529
1769661908923763200,11.84076318359375,0.05945639757514,-0.06511398494541645,0.009069733901321887
1769661908933751300,11.850751220703126,0.07815532589145004,-0.04150689938664436,-0.006366904683411121
1769661908943740400,11.860740478515625,0.07130589838810264,-0.016291209587454794,-0.018351356987655162
1769661908953728300,11.870728271484374,0.04353409436531365,-0.007858896806836128,-0.02236643784791231
1769661908963716400,11.88071630859375,0.021601664020493624,0.004469838890433312,-0.026545477098226546
1769661908973704400,11.890704345703124,0.023887035011313854,-0.007106617134809493,-0.04438917682468891
1769661908983692300,11.9006923828125,0.0420586880505085,-0.014967267507314681,-0.05705079773813486
1769661908993681200,11.91068115234375,0.02456519000120461,-0.02822013231217861,-0.04614478832036256
1769661909003669200,11.920669189453125,0.024424795149825512,-0.03551087384223938,-0.047398003251850604
1769661909013657300,11.9306572265625,0.012430442506074904,-0.018818682238459585,-0.04616700015217066
1769661909023645200,11.940645263671875,0.0009036708414554595,-0.012017185530066489,-0.02782499551475048
1769661909033634300,11.95063427734375,-0.010201112551428377,-0.02942833905816078,-0.036947628647089004
1769661909043622100,11.9606220703125,-0.002028327489830553,-0.025319150173664092,-0.024641397042572497
1769661909053610200,11.9706103515625,-0.01115037610027939,-0.014510755911469459,-0.02230447852760553
1769661909063598000,11.98059814453125,0.004538191418908536,-0.033928573086857795,-0.02327478486448526
1769661909073586200,11.990586181640625,0.016013561689853666,-0.03719838853776455,-0.017663666984438896
1769661909083575300,12.0005751953125,0.016195932519435883,-0.04031096760034561,-0.025545944666862486
1769661909093563400,12.0105634765625,0.02026650642659515,-0.03065700407028198,-0.01591711557805538
1769661909103551200,12.02055126953125,-0.008412439036369323,-0.0398497798293829,-0.013193243572115897
