time,seconds_elapsed,z,y,x
1769661897142674200,0.059674072265625,-0.039642333984375,0.921722412109375,0.3823394775390625
1769661897152662300,0.069662353515625,-0.040283203125,0.918853759765625,0.3846435546875
1769661897162651400,0.0796513671875,-0.03863525390625,0.9174041748046875,0.3836669921875
1769661897172639500,0.089639404296875,-0.0423736572265625,0.9160614013671875,0.383758544921875
1769661897182627300,0.09962744140625,-0.047119140625,0.914581298828125,0.3857269287109375
1769661897192615200,0.109615234375,-0.0518341064453125,0.913116455078125,0.3889007568359375
1769661897202603300,0.119603271484375,-0.0478057861328125,0.9141845703125,0.3853912353515625
1769661897212593000,0.129593017578125,-0.0494537353515625,0.9136962890625,0.391632080078125
1769661897222580700,0.139580810546875,-0.0480804443359375,0.9102325439453125,0.385467529296875
1769661897232568800,0.14956884765625,-0.0402374267578125,0.9194183349609375,0.387451171875
1769661897242557000,0.159556884765625,-0.04364013671875,0.9257049560546875,0.389678955078125
1769661897252544800,0.169544677734375,-0.0418548583984375,0.92315673828125,0.3862457275390625
1769661897262533600,0.17953369140625,-0.0403289794921875,0.922088623046875,0.387786865234375
1769661897272521700,0.189521728515625,-0.0361480712890625,0.920562744140625,0.387298583984375
1769661897282509800,0.199509765625,-0.0388946533203125,0.9197998046875,0.3876190185546875
1769661897292498000,0.209497802734375,-0.045928955078125,0.9186248779296875,0.3906707763671875
1769661897302485800,0.21948583984375,-0.047576904296875,0.9163970947265625,0.3902130126953125
1769661897312474600,0.229474609375,-0.0492095947265625,0.917327880859375,0.391815185546875
1769661897322462700,0.239462646484375,-0.0491180419921875,0.914215087890625,0.39117431640625
1769661897332450800,0.249450927734375,-0.0474090576171875,0.912841796875,0.3885650634765625
1769661897342438700,0.259438720703125,-0.049591064453125,0.9112091064453125,0.3881072998046875
1769661897352426800,0.2694267578125,-0.050140380859375,0.9120941162109375,0.3895111083984375
1769661897362415900,0.279415771484375,-0.0504302978515625,0.9141693115234375,0.389984130859375
1769661897372404000,0.289404052734375,-0.0459136962890625,0.912078857421875,0.3920440673828125
1769661897382391800,0.299391845703125,-0.0434722900390625,0.9092254638671875,0.393310546875
1769661897392379600,0.309379638671875,-0.0439910888671875,0.9079437255859375,0.393218994140625
1769661897402367700,0.31936767578125,-0.042236328125,0.91259765625,0.39141845703125
1769661897412356900,0.32935693359375,-0.0440673828125,0.9160919189453125,0.3876190185546875
1769661897422344700,0.3393447265625,-0.0507354736328125,0.913421630859375,0.3847503662109375
1769661897432332800,0.349332763671875,-0.051666259765625,0.9171295166015625,0.3850555419921875
1769661897442321000,0.35932080078125,-0.0468597412109375,0.9188690185546875,0.3870086669921875
1769661897452308700,0.369308837890625,-0.0425872802734375,0.9183807373046875,0.3880157470703125
1769661897462297600,0.379297607421875,-0.0418701171875,0.9193267822265625,0.39422607421875
1769661897472285700,0.38928564453125,-0.041168212890625,0.914093017578125,0.392303466796875
1769661897482273800,0.399273681640625,-0.044708251953125,0.9066314697265625,0.384857177734375
1769661897492261600,0.40926171875,-0.04852294921875,0.9093170166015625,0.39263916015625
1769661897502249700,0.419249755859375,-0.0417022705078125,0.9138641357421875,0.3897857666015625
1769661897512238800,0.42923876953125,-0.03936767578125,0.9171295166015625,0.3907318115234375
1769661897522226700,0.439226806640625,-0.0391845703125,0.9166259765625,0.3938446044921875
1769661897532214500,0.449214599609375,-0.033599853515625,0.9156036376953125,0.3952484130859375
1769661897542202600,0.45920263671875,-0.028076171875,0.902374267578125,0.400604248046875
1769661897552190700,0.469190673828125,-0.02227783203125,0.9131622314453125,0.3864593505859375
1769661897562179800,0.479179931640625,-0.030914306640625,0.9149169921875,0.3944549560546875
1769661897572168000,0.48916796875,-0.0312042236328125,0.91815185546875,0.393829345703125
1769661897582155800,0.49915576171875,-0.0312347412109375,0.9156646728515625,0.388519287109375
1769661897592144000,0.509143798828125,-0.0165252685546875,0.909912109375,0.3938140869140625
1769661897602132000,0.519132080078125,-0.02044677734375,0.9148406982421875,0.39990234375
1769661897612120800,0.529120849609375,-0.0137939453125,0.91278076171875,0.397216796875
1769661897622108700,0.539108642578125,-0.0096893310546875,0.9110870361328125,0.3981781005859375
1769661897632096800,0.5490966796875,-0.013946533203125,0.9140625,0.3971710205078125
1769661897642084900,0.5590849609375,-0.01702880859375,0.912811279296875,0.39813232421875
1769661897652072700,0.56907275390625,-0.01983642578125,0.9129486083984375,0.399932861328125
1769661897662061600,0.5790615234375,-0.0214691162109375,0.9095916748046875,0.403900146484375
1769661897672049700,0.589049560546875,-0.0236358642578125,0.91168212890625,0.4058990478515625
1769661897682037800,0.599037841796875,-0.021728515625,0.9118499755859375,0.40386962890625
1769661897692025600,0.609025634765625,-0.0239410400390625,0.912078857421875,0.4011993408203125
1769661897702013700,0.619013671875,-0.0276031494140625,0.913360595703125,0.3975677490234375
1769661897712002800,0.6290029296875,-0.034423828125,0.9150848388671875,0.391143798828125
1769661897721991000,0.638990966796875,-0.039520263671875,0.915130615234375,0.3921051025390625
1769661897731978800,0.648978759765625,-0.0322723388671875,0.9134521484375,0.39404296875
1769661897741966800,0.658966796875,-0.01806640625,0.91021728515625,0.3971099853515625
1769661897751954700,0.66895458984375,-0.01092529296875,0.9094696044921875,0.4013824462890625
1769661897761943800,0.67894384765625,-0.007415771484375,0.9107513427734375,0.407562255859375
1769661897771931600,0.688931640625,-0.0021209716796875,0.909942626953125,0.4105072021484375
1769661897781919700,0.698919677734375,0.0076904296875,0.9075927734375,0.413848876953125
1769661897791907800,0.708907958984375,0.0101165771484375,0.9083404541015625,0.4209747314453125
1769661897801896000,0.71889599609375,0.0169525146484375,0.909942626953125,0.4243621826171875
1769661897811884500,0.728884521484375,0.0210723876953125,0.90570068359375,0.421905517578125
1769661897821872600,0.73887255859375,0.008453369140625,0.90679931640625,0.419158935546875
1769661897831860700,0.74886083984375,0.0010528564453125,0.90802001953125,0.412872314453125
1769661897841848800,0.758848876953125,-0.00469970703125,0.911712646484375,0.40777587890625
1769661897851836700,0.768836669921875,-0.0126190185546875,0.9109649658203125,0.4042816162109375
1769661897861825800,0.77882568359375,-0.0173187255859375,0.90704345703125,0.3987884521484375
1769661897871814000,0.78881396484375,-0.019195556640625,0.9082489013671875,0.3973236083984375
1769661897881801700,0.7988017578125,-0.020843505859375,0.911529541015625,0.3919830322265625
1769661897891789600,0.80878955078125,-0.026580810546875,0.916107177734375,0.3887939453125
1769661897901777700,0.818777587890625,-0.03125,0.9191741943359375,0.384796142578125
1769661897911766800,0.828766845703125,-0.0306396484375,0.9204864501953125,0.3823394775390625
1769661897921755000,0.8387548828125,-0.0301666259765625,0.9196929931640625,0.381011962890625
1769661897931742700,0.84874267578125,-0.0292205810546875,0.9181671142578125,0.3821258544921875
1769661897941730800,0.858730712890625,-0.0270233154296875,0.9152679443359375,0.383514404296875
1769661897951719000,0.868718994140625,-0.022979736328125,0.913238525390625,0.386810302734375
1769661897961707800,0.878707763671875,-0.0211029052734375,0.9117584228515625,0.3881683349609375
1769661897971695600,0.888695556640625,-0.0216064453125,0.9097137451171875,0.39373779296875
1769661897981683700,0.89868359375,-0.0212249755859375,0.9097747802734375,0.3981781005859375
1769661897991671800,0.908671875,-0.0181884765625,0.909912109375,0.4017486572265625
1769661898001660000,0.918659912109375,-0.012725830078125,0.9141998291015625,0.4044189453125
1769661898011648800,0.928648681640625,-0.0122222900390625,0.91741943359375,0.4061431884765625
1769661898021636600,0.93863671875,-0.0104522705078125,0.921142578125,0.4070281982421875
1769661898031624700,0.948624755859375,-0.012054443359375,0.9182891845703125,0.4065093994140625
1769661898041612800,0.95861279296875,-0.0136260986328125,0.915496826171875,0.404754638671875
1769661898051600600,0.9686005859375,-0.0139923095703125,0.910400390625,0.4031829833984375
1769661898061589800,0.97858984375,-0.01214599609375,0.907135009765625,0.401458740234375
1769661898071577900,0.988577880859375,-0.013824462890625,0.90301513671875,0.397125244140625
1769661898081566000,0.99856591796875,-0.019866943359375,0.901641845703125,0.39190673828125
1769661898091553800,1.0085537109375,-0.022735595703125,0.907012939453125,0.3860321044921875
1769661898101541600,1.018541748046875,-0.02130126953125,0.913787841796875,0.3803253173828125
1769661898111530800,1.02853076171875,-0.0241241455078125,0.9205474853515625,0.377685546875
1769661898121518800,1.038518798828125,-0.031219482421875,0.924560546875,0.3813018798828125
1769661898131506700,1.048506591796875,-0.036956787109375,0.9267120361328125,0.384033203125
1769661898141494800,1.058494873046875,-0.0343170166015625,0.9246673583984375,0.3870391845703125
1769661898151483000,1.06848291015625,-0.0268402099609375,0.9189453125,0.3913726806640625
1769661898161471700,1.0784716796875,-0.0239715576171875,0.9134979248046875,0.3943939208984375
1769661898171459600,1.08845947265625,-0.0230560302734375,0.9106292724609375,0.3946533203125
1769661898181447700,1.09844775390625,-0.0217742919921875,0.9102630615234375,0.39447021484375
1769661898191435800,1.108435791015625,-0.02020263671875,0.9109039306640625,0.3924713134765625
1769661898201423600,1.118423583984375,-0.0187530517578125,0.9066619873046875,0.3934478759765625
1769661898211412700,1.128412841796875,-0.018341064453125,0.90203857421875,0.3945770263671875
1769661898221400800,1.13840087890625,-0.0186004638671875,0.899658203125,0.391998291015625
1769661898231388700,1.148388671875,-0.02154541015625,0.902252197265625,0.3921661376953125
1769661898241376500,1.15837646484375,-0.03033447265625,0.909210205078125,0.3916473388671875
1769661898251364600,1.168364501953125,-0.0356903076171875,0.9188995361328125,0.3907470703125
1769661898261353700,1.178353759765625,-0.0366058349609375,0.92620849609375,0.3885498046875
1769661898271341600,1.188341552734375,-0.032318115234375,0.9273223876953125,0.38824462890625
1769661898281329700,1.19832958984375,-0.0266876220703125,0.92431640625,0.3876800537109375
1769661898291317800,1.20831787109375,-0.02154541015625,0.92041015625,0.388519287109375
1769661898301305900,1.218305908203125,-0.0160980224609375,0.9135284423828125,0.388153076171875
1769661898311294500,1.22829443359375,-0.0175018310546875,0.9089202880859375,0.390838623046875
1769661898321282600,1.238282470703125,-0.0164794921875,0.90997314453125,0.39306640625
1769661898331270700,1.248270751953125,-0.013214111328125,0.91473388671875,0.396087646484375
1769661898341258800,1.2582587890625,-0.0154571533203125,0.916748046875,0.3980560302734375
1769661898351246600,1.26824658203125,-0.0142364501953125,0.9135894775390625,0.402099609375
1769661898361234700,1.278234619140625,-0.014678955078125,0.910919189453125,0.402984619140625
1769661898371223800,1.288223876953125,-0.0172576904296875,0.9057769775390625,0.4095001220703125
1769661898381211600,1.298211669921875,-0.0159912109375,0.90545654296875,0.412322998046875
1769661898391199500,1.308199462890625,-0.0158843994140625,0.9095458984375,0.414276123046875
1769661898401187600,1.3181875,-0.016571044921875,0.916107177734375,0.411651611328125
1769661898411176700,1.3281767578125,-0.0159912109375,0.921051025390625,0.409393310546875
1769661898421164800,1.338164794921875,-0.014190673828125,0.92437744140625,0.4063262939453125
1769661898431152600,1.348152587890625,-0.011505126953125,0.920013427734375,0.401519775390625
1769661898441140700,1.358140625,-0.0077056884765625,0.90496826171875,0.405548095703125
1769661898451128800,1.36812890625,-0.0063323974609375,0.88946533203125,0.411163330078125
1769661898461117700,1.37811767578125,-0.0057220458984375,0.885467529296875,0.4150543212890625
1769661898471105500,1.38810546875,-0.0066070556640625,0.891448974609375,0.4082794189453125
1769661898481093600,1.39809375,-0.0062255859375,0.906646728515625,0.395751953125
1769661898491081700,1.408081787109375,-0.007232666015625,0.920867919921875,0.3846588134765625
1769661898501069800,1.41806982421875,-0.007415771484375,0.9251251220703125,0.376312255859375
1769661898511058700,1.42805859375,-0.00341796875,0.9229888916015625,0.37347412109375
1769661898521046500,1.438046630859375,-0.0002593994140625,0.9179229736328125,0.375885009765625
1769661898531034600,1.44803466796875,-0.00579833984375,0.91351318359375,0.380706787109375
1769661898541022700,1.458022705078125,-0.0146636962890625,0.909881591796875,0.385101318359375
1769661898551010600,1.468010498046875,-0.01806640625,0.9160919189453125,0.3892364501953125
1769661898560999700,1.477999755859375,-0.01300048828125,0.930694580078125,0.39141845703125
1769661898570987800,1.48798779296875,-0.011444091796875,0.9325714111328125,0.387847900390625
1769661898580975900,1.497975830078125,-0.0109710693359375,0.9310150146484375,0.3796539306640625
1769661898590963700,1.507963623046875,-0.0046844482421875,0.9217987060546875,0.3795318603515625
1769661898600951600,1.51795166015625,0.0051116943359375,0.910552978515625,0.3812103271484375
1769661898610939600,1.527939697265625,0.00616455078125,0.9068450927734375,0.389556884765625
1769661898620928800,1.5379287109375,-0.00189208984375,0.905059814453125,0.394500732421875
1769661898630916600,1.54791650390625,-0.006011962890625,0.9099884033203125,0.3902587890625
1769661898640904700,1.55790478515625,-0.00384521484375,0.919036865234375,0.386016845703125
1769661898650892800,1.567892822265625,0.002288818359375,0.92816162109375,0.3841094970703125
1769661898660881700,1.577881591796875,0.00537109375,0.9284210205078125,0.3801116943359375
1769661898670869500,1.587869384765625,0.0057525634765625,0.919830322265625,0.3761138916015625
1769661898680857600,1.597857666015625,0.0084228515625,0.91253662109375,0.375274658203125
1769661898690845700,1.607845703125,0.0046234130859375,0.9100494384765625,0.37921142578125
1769661898700833500,1.61783349609375,0.0029296875,0.905181884765625,0.3806304931640625
1769661898710821600,1.627821533203125,0.0024566650390625,0.9044342041015625,0.3836517333984375
1769661898720810800,1.637810791015625,-0.00103759765625,0.9041900634765625,0.389678955078125
1769661898730798800,1.647798828125,0.0019683837890625,0.9151458740234375,0.4019317626953125
1769661898740786700,1.65778662109375,0.008819580078125,0.9246826171875,0.4149169921875
1769661898750774500,1.6677744140625,0.0156097412109375,0.921661376953125,0.4091339111328125
1769661898760762600,1.6777626953125,0.0125274658203125,0.9112548828125,0.3947906494140625
1769661898770751700,1.687751708984375,0.0027923583984375,0.9061126708984375,0.3884124755859375
1769661898780739800,1.69773974609375,0.0076904296875,0.913726806640625,0.3869476318359375
1769661898790727700,1.707727783203125,0.0211029052734375,0.929534912109375,0.3877410888671875
1769661898800715800,1.7177158203125,0.02838134765625,0.9488067626953125,0.38824462890625
1769661898810704000,1.727703857421875,0.037567138671875,0.943359375,0.3836822509765625
1769661898820692700,1.737692626953125,0.0334625244140625,0.930755615234375,0.3834381103515625
1769661898830680600,1.7476806640625,0.037933349609375,0.9231719970703125,0.3857269287109375
1769661898840668700,1.757668701171875,0.04766845703125,0.918609619140625,0.3972930908203125
1769661898850656800,1.76765673828125,0.0509185791015625,0.9150543212890625,0.396728515625
1769661898860644600,1.77764453125,0.0361175537109375,0.9089508056640625,0.40283203125
1769661898870633700,1.7876337890625,0.02960205078125,0.9099884033203125,0.398590087890625
1769661898880621600,1.79762158203125,0.033905029296875,0.915130615234375,0.3985595703125
1769661898890609700,1.807609619140625,0.0334014892578125,0.915618896484375,0.397186279296875
1769661898900597500,1.817597412109375,0.032379150390625,0.91876220703125,0.3959808349609375
1769661898910585600,1.827585693359375,0.0276031494140625,0.9234619140625,0.3916473388671875
1769661898920574700,1.83757470703125,0.0235443115234375,0.924102783203125,0.3879241943359375
1769661898930562800,1.847562744140625,0.020660400390625,0.924774169921875,0.3831939697265625
1769661898940550700,1.857550537109375,0.020416259765625,0.9205474853515625,0.383026123046875
1769661898950538800,1.867538818359375,0.0211029052734375,0.9178009033203125,0.382965087890625
1769661898960526600,1.877526611328125,0.019439697265625,0.917205810546875,0.3883209228515625
1769661898970515700,1.887515625,0.0151214599609375,0.920867919921875,0.39300537109375
1769661898980503600,1.897503662109375,0.00921630859375,0.92242431640625,0.3926239013671875
1769661898990491600,1.90749169921875,0.0081024169921875,0.92108154296875,0.394775390625
1769661899000479700,1.917479736328125,0.0085296630859375,0.921905517578125,0.3995513916015625
1769661899010467800,1.9274677734375,0.010284423828125,0.917327880859375,0.403106689453125
1769661899020456700,1.937456787109375,0.0118865966796875,0.9127349853515625,0.40509033203125
1769661899030444500,1.947444580078125,0.01568603515625,0.9099578857421875,0.4073028564453125
1769661899040432600,1.9574326171875,0.019256591796875,0.9044189453125,0.407806396484375
1769661899050420700,1.967420654296875,0.02154541015625,0.9026031494140625,0.4083251953125
1769661899060408600,1.97740869140625,0.0219573974609375,0.901885986328125,0.4068450927734375
1769661899070397700,1.987397705078125,0.0199737548828125,0.904022216796875,0.4041900634765625
1769661899080385800,1.9973857421875,0.0189666748046875,0.90716552734375,0.4026641845703125
1769661899090373600,2.00737353515625,0.01910400390625,0.909820556640625,0.4001617431640625
1769661899100361500,2.017361572265625,0.018951416015625,0.9114532470703125,0.396392822265625
1769661899110349600,2.027349609375,0.0175018310546875,0.9141845703125,0.3928070068359375
1769661899120338700,2.037338623046875,0.0172119140625,0.91558837890625,0.3878326416015625
1769661899130326800,2.047326904296875,0.0190582275390625,0.9176483154296875,0.3841400146484375
1769661899140314600,2.057314697265625,0.0198974609375,0.918792724609375,0.381500244140625
1769661899150302700,2.067302734375,0.0185394287109375,0.918487548828125,0.380279541015625
1769661899160290800,2.077290771484375,0.02020263671875,0.9169921875,0.3842926025390625
1769661899170279700,2.08727978515625,0.0194549560546875,0.9161529541015625,0.3868865966796875
1769661899180267500,2.097267578125,0.017059326171875,0.914306640625,0.38775634765625
1769661899190255600,2.107255615234375,0.01641845703125,0.9064483642578125,0.388458251953125
1769661899200243700,2.11724365234375,0.0147247314453125,0.9036102294921875,0.3909912109375
1769661899210231800,2.127231689453125,0.0153961181640625,0.9062042236328125,0.3906097412109375
1769661899220221000,2.137220947265625,0.013336181640625,0.9076080322265625,0.393218994140625
1769661899230208800,2.147208740234375,0.0081024169921875,0.9088897705078125,0.39666748046875
1769661899240196600,2.157196533203125,0.00384521484375,0.90863037109375,0.3962249755859375
1769661899250184700,2.167184814453125,0.0020294189453125,0.912261962890625,0.3966217041015625
1769661899260172800,2.1771728515625,0.0009307861328125,0.917877197265625,0.3984222412109375
1769661899270162000,2.187161865234375,0.0023956298828125,0.921630859375,0.39886474609375
1769661899280149800,2.197149658203125,0.006988525390625,0.924285888671875,0.3973236083984375
1769661899290137900,2.207137939453125,0.014739990234375,0.9227752685546875,0.395111083984375
1769661899300126000,2.2171259765625,0.0236358642578125,0.9184722900390625,0.3944091796875
1769661899310113800,2.22711376953125,0.02978515625,0.9121246337890625,0.3921661376953125
1769661899320102700,2.2371025390625,0.0312957763671875,0.911041259765625,0.390899658203125
1769661899330090800,2.2470908203125,0.0261383056640625,0.907958984375,0.3939208984375
1769661899340078800,2.257078857421875,0.0272064208984375,0.9052734375,0.3918609619140625
1769661899350066700,2.267066650390625,0.027984619140625,0.9066009521484375,0.3905487060546875
1769661899360054800,2.2770546875,0.0247344970703125,0.9089813232421875,0.3907318115234375
1769661899370043600,2.287043701171875,0.0207672119140625,0.9137725830078125,0.3889617919921875
1769661899380031700,2.29703173828125,0.0177459716796875,0.915557861328125,0.392364501953125
1769661899390019600,2.30701953125,0.0166015625,0.91796875,0.3935089111328125
1769661899400007700,2.317007568359375,0.0135650634765625,0.9171295166015625,0.39605712890625
1769661899409995800,2.326995849609375,0.013397216796875,0.916595458984375,0.4011993408203125
1769661899419985000,2.33698486328125,0.01531982421875,0.915008544921875,0.4027557373046875
1769661899429972700,2.34697265625,0.0166015625,0.914764404296875,0.404876708984375
1769661899439960800,2.3569609375,0.0172271728515625,0.915985107421875,0.4047393798828125
1769661899449948700,2.36694873046875,0.01739501953125,0.9149017333984375,0.40277099609375
1769661899459936800,2.376936767578125,0.0211334228515625,0.9140625,0.4007720947265625
1769661899469925600,2.386925537109375,0.02276611328125,0.9108428955078125,0.39654541015625
1769661899479913700,2.396913818359375,0.0246429443359375,0.909942626953125,0.3943634033203125
1769661899489901800,2.40690185546875,0.02392578125,0.9094696044921875,0.39105224609375
1769661899499890000,2.416889892578125,0.0225677490234375,0.90667724609375,0.389373779296875
1769661899509877800,2.426877685546875,0.020782470703125,0.9081573486328125,0.389251708984375
1769661899519866600,2.43686669921875,0.0204315185546875,0.9086761474609375,0.3907470703125
1769661899529854700,2.446854736328125,0.01678466796875,0.9102783203125,0.3933868408203125
1769661899539842800,2.4568427734375,0.015472412109375,0.912933349609375,0.3957366943359375
1769661899549830700,2.46683056640625,0.015045166015625,0.91363525390625,0.3977813720703125
1769661899559818800,2.47681884765625,0.0174713134765625,0.9148406982421875,0.3990020751953125
1769661899569808000,2.486807861328125,0.0202789306640625,0.914886474609375,0.39898681640625
1769661899579795700,2.496795654296875,0.02081298828125,0.911041259765625,0.3983154296875
1769661899589783600,2.506783447265625,0.02252197265625,0.90948486328125,0.3983001708984375
1769661899599771600,2.516771728515625,0.0241241455078125,0.9098968505859375,0.395660400390625
1769661899609759700,2.526759765625,0.019683837890625,0.9146270751953125,0.39361572265625
1769661899619748900,2.536748779296875,0.016998291015625,0.91845703125,0.3901824951171875
1769661899629736700,2.54673681640625,0.016326904296875,0.921051025390625,0.387664794921875
1769661899639724800,2.556724853515625,0.0169525146484375,0.9209747314453125,0.3840179443359375
1769661899649713000,2.566712890625,0.0186767578125,0.9189605712890625,0.384521484375
1769661899659701000,2.576700927734375,0.0174713134765625,0.91741943359375,0.387939453125
1769661899669689600,2.586689697265625,0.0135345458984375,0.915863037109375,0.393768310546875
1769661899679677700,2.596677734375,0.0129241943359375,0.91351318359375,0.39599609375
1769661899689665800,2.606665771484375,0.0145721435546875,0.9131011962890625,0.398590087890625
1769661899699654000,2.61665380859375,0.017974853515625,0.91180419921875,0.3994903564453125
1769661899709641700,2.626641845703125,0.023040771484375,0.911041259765625,0.3982086181640625
1769661899719630600,2.636630615234375,0.02435302734375,0.9141082763671875,0.3979644775390625
1769661899729618700,2.64661865234375,0.023895263671875,0.9174652099609375,0.395965576171875
1769661899739606800,2.656606689453125,0.0226593017578125,0.9174346923828125,0.3929290771484375
1769661899749594600,2.6665947265625,0.0250091552734375,0.9171295166015625,0.3910980224609375
1769661899759582700,2.676582763671875,0.0276336669921875,0.913909912109375,0.3909149169921875
1769661899769571800,2.68657177734375,0.0276336669921875,0.9102783203125,0.3939208984375
1769661899779560000,2.696559814453125,0.02197265625,0.9108428955078125,0.3964691162109375
1769661899789547800,2.7065478515625,0.018157958984375,0.91357421875,0.402008056640625
1769661899799535900,2.716535888671875,0.0190582275390625,0.9158935546875,0.401397705078125
1769661899809523700,2.726523681640625,0.017913818359375,0.9162750244140625,0.4014739990234375
1769661899819512800,2.736512939453125,0.017303466796875,0.914886474609375,0.401641845703125
1769661899829500700,2.746500732421875,0.017791748046875,0.911773681640625,0.4024505615234375
1769661899839488800,2.75648876953125,0.02081298828125,0.9075775146484375,0.403411865234375
1769661899849476900,2.766476806640625,0.021575927734375,0.9053802490234375,0.403167724609375
1769661899859464700,2.776464599609375,0.0208892822265625,0.907806396484375,0.40264892578125
1769661899869453600,2.78645361328125,0.0189208984375,0.9138031005859375,0.402435302734375
1769661899879441700,2.796441650390625,0.01611328125,0.918365478515625,0.402252197265625
1769661899889429800,2.8064296875,0.0127410888671875,0.9182281494140625,0.400299072265625
1769661899899417600,2.81641748046875,0.0142669677734375,0.91351318359375,0.400360107421875
1769661899909405700,2.82640576171875,0.0164031982421875,0.9085693359375,0.4021759033203125
1769661899919394800,2.836394775390625,0.0183868408203125,0.9035797119140625,0.4016876220703125
1769661899929383000,2.8463828125,0.0193023681640625,0.9068756103515625,0.402740478515625
1769661899939370800,2.856370849609375,0.0180206298828125,0.911651611328125,0.4003448486328125
1769661899949358600,2.866358642578125,0.0161895751953125,0.9177398681640625,0.3985595703125
1769661899959346700,2.8763466796875,0.01708984375,0.918609619140625,0.3968048095703125
1769661899969335800,2.886335693359375,0.0185699462890625,0.9170379638671875,0.3961334228515625
1769661899979324000,2.896323974609375,0.0186614990234375,0.9114532470703125,0.3978424072265625
1769661899989311700,2.906311767578125,0.0201416015625,0.907958984375,0.4000396728515625
1769661899999299800,2.9162998046875,0.0217742919921875,0.907379150390625,0.3975372314453125
1769661900009288000,2.926287841796875,0.019439697265625,0.9086151123046875,0.3950347900390625
1769661900019276800,2.93627685546875,0.020477294921875,0.9119415283203125,0.3932952880859375
1769661900029264600,2.9462646484375,0.02325439453125,0.91754150390625,0.3909912109375
1769661900039252700,2.956252685546875,0.024078369140625,0.9189605712890625,0.39239501953125
1769661900049240800,2.96624072265625,0.023468017578125,0.914947509765625,0.39373779296875
1769661900059228700,2.976228759765625,0.023162841796875,0.9120941162109375,0.3967742919921875
1769661900069217800,2.9862177734375,0.02191162109375,0.908294677734375,0.3981170654296875
1769661900079205600,2.99620556640625,0.0183868408203125,0.908172607421875,0.3985137939453125
1769661900089193700,3.00619384765625,0.01971435546875,0.9067840576171875,0.39410400390625
1769661900099181600,3.016181640625,0.02459716796875,0.9114837646484375,0.3902130126953125
1769661900109169700,3.026169677734375,0.024627685546875,0.9167633056640625,0.387908935546875
1769661900119158800,3.03615869140625,0.02471923828125,0.919677734375,0.386322021484375
1769661900129147000,3.04614697265625,0.0254364013671875,0.921417236328125,0.387786865234375
1769661900139134700,3.056134765625,0.026031494140625,0.919830322265625,0.390899658203125
1769661900149122800,3.066122802734375,0.022979736328125,0.916107177734375,0.39453125
1769661900159111000,3.07611083984375,0.022857666015625,0.912506103515625,0.398345947265625
1769661900169099800,3.086099853515625,0.023406982421875,0.91204833984375,0.3998260498046875
1769661900179087600,3.096087646484375,0.0241851806640625,0.9106903076171875,0.3984832763671875
1769661900189075700,3.10607568359375,0.0244598388671875,0.9111328125,0.3975677490234375
1769661900199063800,3.116063720703125,0.0269012451171875,0.9104461669921875,0.39764404296875
1769661900209052000,3.126052001953125,0.02789306640625,0.908599853515625,0.3996124267578125
1769661900219040500,3.13604052734375,0.0292510986328125,0.9085693359375,0.4003448486328125
1769661900229028600,3.146028564453125,0.0271453857421875,0.90948486328125,0.401275634765625
1769661900239016400,3.156016357421875,0.024322509765625,0.912353515625,0.39984130859375
1769661900249004500,3.166004638671875,0.0217132568359375,0.90869140625,0.3966522216796875
1769661900258992600,3.17599267578125,0.02435302734375,0.918731689453125,0.394989013671875
1769661900268981800,3.185981689453125,0.01751708984375,0.9217376708984375,0.3992462158203125
1769661900278969600,3.195969482421875,0.0175933837890625,0.9188385009765625,0.3979034423828125
1769661900288957700,3.205957763671875,0.02264404296875,0.91778564453125,0.40087890625
1769661900298945800,3.21594580078125,0.0251617431640625,0.91265869140625,0.40240478515625
1769661900308933600,3.22593359375,0.0248260498046875,0.9089813232421875,0.4039306640625
1769661900318922500,3.235922607421875,0.0240020751953125,0.905670166015625,0.4063568115234375
1769661900328910600,3.24591064453125,0.02435302734375,0.90509033203125,0.404876708984375
1769661900338898700,3.255898681640625,0.02294921875,0.90789794921875,0.4031829833984375
1769661900348886800,3.26588671875,0.0218353271484375,0.9104766845703125,0.4033355712890625
1769661900358874600,3.27587451171875,0.0222930908203125,0.91436767578125,0.4016876220703125
1769661900368863500,3.285863525390625,0.022613525390625,0.9170684814453125,0.399169921875
1769661900378851600,3.2958515625,0.02459716796875,0.919586181640625,0.3988800048828125
1769661900388839700,3.305839599609375,0.0266571044921875,0.917999267578125,0.39910888671875
1769661900398827500,3.31582763671875,0.027587890625,0.91387939453125,0.4001922607421875
1769661900408815600,3.325815673828125,0.0288848876953125,0.9095916748046875,0.400543212890625
1769661900418804700,3.3358046875,0.029541015625,0.9080047607421875,0.4018402099609375
1769661900428792800,3.345792724609375,0.02691650390625,0.907196044921875,0.40252685546875
1769661900438780700,3.35578076171875,0.021881103515625,0.908172607421875,0.403076171875
1769661900448768500,3.3657685546875,0.020782470703125,0.9106292724609375,0.4015655517578125
1769661900458756600,3.375756591796875,0.0202178955078125,0.9144287109375,0.3997955322265625
1769661900468745700,3.385745849609375,0.020263671875,0.9144287109375,0.3975067138671875
1769661900478733600,3.395733642578125,0.0197601318359375,0.91436767578125,0.3952484130859375
1769661900488721700,3.4057216796875,0.0231170654296875,0.9127349853515625,0.3953857421875
1769661900498709800,3.415709716796875,0.0275115966796875,0.910858154296875,0.3932952880859375
1769661900508697900,3.42569775390625,0.0303802490234375,0.9134063720703125,0.396240234375
1769661900518686500,3.4356865234375,0.0286712646484375,0.9163665771484375,0.398681640625
1769661900528674600,3.445674560546875,0.0226287841796875,0.91717529296875,0.399658203125
1769661900538662700,3.45566259765625,0.02032470703125,0.9120635986328125,0.397613525390625
1769661900548650800,3.465650634765625,0.0214691162109375,0.907318115234375,0.397674560546875
1769661900558638600,3.475638671875,0.02349853515625,0.9017791748046875,0.399078369140625
1769661900568627700,3.485627685546875,0.020751953125,0.899383544921875,0.400054931640625
1769661900578615600,3.495615478515625,0.01507568359375,0.902313232421875,0.4018707275390625
1769661900588603600,3.505603759765625,0.0131683349609375,0.9066314697265625,0.4002532958984375
1769661900598591500,3.515591552734375,0.0150604248046875,0.9100799560546875,0.399322509765625
1769661900608579600,3.52557958984375,0.016815185546875,0.9165496826171875,0.398895263671875
1769661900618568700,3.535568603515625,0.021270751953125,0.9232330322265625,0.3970184326171875
1769661900628556800,3.545556884765625,0.0218658447265625,0.9247894287109375,0.396270751953125
1769661900638544600,3.555544677734375,0.0266571044921875,0.9248809814453125,0.397491455078125
1769661900648532700,3.56553271484375,0.0325775146484375,0.9201812744140625,0.3979949951171875
1769661900658520600,3.5755205078125,0.034912109375,0.910736083984375,0.399658203125
1769661900668509700,3.585509765625,0.0297698974609375,0.9036712646484375,0.400848388671875
1769661900678497500,3.59549755859375,0.024200439453125,0.9001312255859375,0.399627685546875
1769661900688485600,3.605485595703125,0.0199737548828125,0.902618408203125,0.3994598388671875
1769661900698473700,3.6154736328125,0.02056884765625,0.9076385498046875,0.397705078125
1769661900708461600,3.625461669921875,0.02044677734375,0.91094970703125,0.3949432373046875
1769661900718450400,3.635450439453125,0.019195556640625,0.91522216796875,0.39483642578125
1769661900728438500,3.6454384765625,0.0203857421875,0.915069580078125,0.3950347900390625
1769661900738426600,3.655426513671875,0.02392578125,0.9198455810546875,0.3932342529296875
1769661900748414500,3.66541455078125,0.0190582275390625,0.923736572265625,0.3986053466796875
1769661900758402600,3.675402587890625,0.0153045654296875,0.9226531982421875,0.39971923828125
1769661900768391700,3.6853916015625,0.01953125,0.9195556640625,0.398529052734375
1769661900778379800,3.6953798828125,0.025543212890625,0.91436767578125,0.40228271484375
1769661900788368000,3.705367919921875,0.0307769775390625,0.9061737060546875,0.4015045166015625
1769661900798355500,3.71535546875,0.02972412109375,0.897064208984375,0.3988189697265625
1769661900808343600,3.725343505859375,0.0324249267578125,0.9001617431640625,0.4022369384765625
1769661900818332700,3.735332763671875,0.0411376953125,0.9062652587890625,0.40484619140625
1769661900828320800,3.74532080078125,0.0369110107421875,0.907623291015625,0.401031494140625
1769661900838308600,3.75530859375,0.027740478515625,0.9090728759765625,0.39971923828125
1769661900848296700,3.765296630859375,0.0313720703125,0.91448974609375,0.396759033203125
1769661900858284800,3.775284912109375,0.030853271484375,0.913116455078125,0.3941192626953125
1769661900868273700,3.785273681640625,0.0267181396484375,0.9112396240234375,0.3983917236328125
1769661900878261500,3.795261474609375,0.021148681640625,0.9134674072265625,0.400848388671875
1769661900888249600,3.80524951171875,0.02294921875,0.9153289794921875,0.4069976806640625
1769661900898237700,3.81523779296875,0.0285797119140625,0.911773681640625,0.4092254638671875
1769661900908225500,3.8252255859375,0.0290985107421875,0.9085693359375,0.402191162109375
1769661900918214700,3.835214599609375,0.0229034423828125,0.908538818359375,0.4021148681640625
1769661900928202800,3.84520263671875,0.019744873046875,0.912567138671875,0.4013671875
1769661900938190600,3.855190673828125,0.0195159912109375,0.91278076171875,0.399932861328125
1769661900948178400,3.865178466796875,0.012939453125,0.917083740234375,0.403411865234375
1769661900958166500,3.87516650390625,0.0131683349609375,0.9178009033203125,0.4072723388671875
1769661900968155600,3.88515576171875,0.0186309814453125,0.911895751953125,0.411529541015625
1769661900978143700,3.895143798828125,0.02410888671875,0.903411865234375,0.4141387939453125
1769661900988131600,3.905131591796875,0.026702880859375,0.9009552001953125,0.417449951171875
1769661900998119700,3.91511962890625,0.0321807861328125,0.90118408203125,0.41888427734375
1769661901008107800,3.925107666015625,0.035552978515625,0.9029083251953125,0.41510009765625
1769661901018096600,3.9350966796875,0.036468505859375,0.908447265625,0.4085235595703125
1769661901028084500,3.94508447265625,0.0428009033203125,0.9136505126953125,0.4043426513671875
1769661901038072600,3.955072509765625,0.0469818115234375,0.9139251708984375,0.404937744140625
1769661901048060700,3.965060791015625,0.0508575439453125,0.9103240966796875,0.40203857421875
1769661901058048800,3.975048828125,0.0492401123046875,0.908599853515625,0.4007568359375
1769661901068037600,3.98503759765625,0.0414886474609375,0.9064483642578125,0.4021148681640625
1769661901078025500,3.995025390625,0.0361480712890625,0.905548095703125,0.4014129638671875
1769661901088013600,4.005013671875,0.0337371826171875,0.9103240966796875,0.3947296142578125
1769661901098001700,4.015001708984375,0.0313568115234375,0.9152679443359375,0.3914794921875
1769661901107989500,4.024989501953125,0.0323028564453125,0.918365478515625,0.38916015625
1769661901117978600,4.034978515625,0.0355072021484375,0.9208526611328125,0.38714599609375
1769661901127966700,4.044966796875,0.0368499755859375,0.9234771728515625,0.389007568359375
1769661901137954800,4.054954833984375,0.038848876953125,0.9228515625,0.3917083740234375
1769661901147942700,4.064942626953125,0.040374755859375,0.9202728271484375,0.3926239013671875
1769661901157930500,4.074930419921875,0.041717529296875,0.9160919189453125,0.39410400390625
1769661901167919600,4.084919677734375,0.043426513671875,0.9143218994140625,0.3961029052734375
1769661901177907700,4.09490771484375,0.043182373046875,0.910186767578125,0.3977813720703125
1769661901187895600,4.1048955078125,0.0390625,0.9100189208984375,0.397979736328125
1769661901197883600,4.114883544921875,0.033111572265625,0.9118804931640625,0.402557373046875
1769661901207871700,4.124871826171875,0.0232086181640625,0.912750244140625,0.40509033203125
1769661901217860900,4.13486083984375,0.016754150390625,0.9120941162109375,0.4042816162109375
1769661901227849000,4.144848876953125,0.0200347900390625,0.911773681640625,0.4009552001953125
1769661901237836800,4.1548369140625,0.026763916015625,0.9092254638671875,0.3970184326171875
1769661901247825000,4.164824951171875,0.0326385498046875,0.909149169921875,0.3937835693359375
1769661901257813000,4.17481298828125,0.03729248046875,0.90753173828125,0.3919219970703125
1769661901267802000,4.184802001953125,0.04083251953125,0.90496826171875,0.3907928466796875
1769661901277790000,4.1947900390625,0.04620361328125,0.9066162109375,0.3924560546875
1769661901287777800,4.20477783203125,0.0480499267578125,0.9087066650390625,0.3944091796875
1769661901297766000,4.214765869140625,0.048248291015625,0.912750244140625,0.3985748291015625
1769661901307754000,4.22475390625,0.0476837158203125,0.9159088134765625,0.4005584716796875
1769661901317742800,4.234742919921875,0.0457916259765625,0.91845703125,0.4028472900390625
1769661901327731000,4.24473095703125,0.0421600341796875,0.9172821044921875,0.4024658203125
1769661901337719000,4.254718994140625,0.0396270751953125,0.9121856689453125,0.40362548828125
1769661901347707100,4.26470703125,0.037445068359375,0.909881591796875,0.40155029296875
1769661901357695000,4.274695068359375,0.03228759765625,0.90667724609375,0.402618408203125
1769661901367683800,4.284683837890625,0.031768798828125,0.9080810546875,0.4027099609375
1769661901377672000,4.294671875,0.03546142578125,0.910247802734375,0.3995208740234375
1769661901387660000,4.304659912109375,0.03594970703125,0.9144439697265625,0.3989715576171875
1769661901397648000,4.31464794921875,0.0370025634765625,0.918304443359375,0.397491455078125
1769661901407637000,4.324636962890625,0.03814697265625,0.9232025146484375,0.4015045166015625
1769661901417624800,4.334624755859375,0.0424652099609375,0.922943115234375,0.40277099609375
1769661901427613000,4.344613037109375,0.045013427734375,0.9164581298828125,0.4014739990234375
1769661901437600800,4.354600830078125,0.0485687255859375,0.9105987548828125,0.4014434814453125
1769661901447588900,4.3645888671875,0.0485687255859375,0.9070587158203125,0.404022216796875
1769661901457578000,4.374577880859375,0.0423583984375,0.9013214111328125,0.4038238525390625
1769661901467566000,4.384566162109375,0.0415191650390625,0.904541015625,0.4057159423828125
1769661901477554000,4.394553955078125,0.0359649658203125,0.90863037109375,0.40435791015625
1769661901487542000,4.4045419921875,0.032318115234375,0.9092559814453125,0.404144287109375
1769661901497529900,4.41452978515625,0.032073974609375,0.9095916748046875,0.4041748046875
1769661901507519000,4.42451904296875,0.0353240966796875,0.906494140625,0.4044189453125
1769661901517506800,4.4345068359375,0.0345916748046875,0.9059295654296875,0.4066314697265625
1769661901527495000,4.444494873046875,0.03631591796875,0.908721923828125,0.40509033203125
1769661901537483000,4.45448291015625,0.034698486328125,0.910064697265625,0.404541015625
1769661901547470800,4.464470947265625,0.033935546875,0.913330078125,0.4063720703125
1769661901557459700,4.474459716796875,0.036895751953125,0.909576416015625,0.40478515625
1769661901567447800,4.48444775390625,0.0420989990234375,0.9060516357421875,0.4054412841796875
1769661901577436000,4.494435791015625,0.0420684814453125,0.9057464599609375,0.40765380859375
1769661901587424000,4.504424072265625,0.0417938232421875,0.9056243896484375,0.407501220703125
1769661901597411800,4.514411865234375,0.0413055419921875,0.9068756103515625,0.407257080078125
1769661901607401000,4.52440087890625,0.0397796630859375,0.90667724609375,0.4072418212890625
1769661901617389000,4.53438916015625,0.0400543212890625,0.90777587890625,0.4046478271484375
1769661901627377200,4.544377197265625,0.0388336181640625,0.908599853515625,0.4031829833984375
1769661901637365000,4.554364990234375,0.0364990234375,0.90948486328125,0.4042816162109375
1769661901647352800,4.564352783203125,0.0350189208984375,0.9112091064453125,0.40411376953125
1769661901657342000,4.574342041015625,0.02899169921875,0.9129486083984375,0.4043731689453125
1769661901667330000,4.584330078125,0.0272979736328125,0.9136810302734375,0.40655517578125
1769661901677318000,4.59431787109375,0.02862548828125,0.91107177734375,0.4078826904296875
1769661901687306000,4.604305908203125,0.03009033203125,0.9089202880859375,0.4092559814453125
1769661901697294000,4.614294189453125,0.0340728759765625,0.90740966796875,0.409210205078125
1769661901707283000,4.624282958984375,0.0338287353515625,0.905181884765625,0.4111328125
1769661901717270800,4.634270751953125,0.0342864990234375,0.903411865234375,0.410614013671875
1769661901727259000,4.6442587890625,0.0363616943359375,0.90252685546875,0.4079742431640625
1769661901737247000,4.6542470703125,0.042572021484375,0.904632568359375,0.4042816162109375
1769661901747234800,4.66423486328125,0.0399932861328125,0.908172607421875,0.4055328369140625
1769661901757224000,4.674223876953125,0.0390777587890625,0.9085845947265625,0.4011993408203125
1769661901767212000,4.6842119140625,0.0409393310546875,0.911163330078125,0.3997802734375
1769661901777199900,4.694199951171875,0.0411529541015625,0.9129486083984375,0.4009246826171875
1769661901787187700,4.704187744140625,0.037811279296875,0.9133453369140625,0.3997650146484375
1769661901797175800,4.71417578125,0.0359344482421875,0.9136962890625,0.3994140625
1769661901807165000,4.7241650390625,0.0346527099609375,0.9142608642578125,0.398773193359375
1769661901817153000,4.734153076171875,0.035003662109375,0.91534423828125,0.397003173828125
1769661901827140900,4.744140869140625,0.037322998046875,0.9149932861328125,0.3946533203125
1769661901837129000,4.75412890625,0.0365447998046875,0.914947509765625,0.392852783203125
1769661901847117000,4.764116943359375,0.036346435546875,0.914306640625,0.3938751220703125
1769661901857106000,4.77410595703125,0.035308837890625,0.9119873046875,0.3947906494140625
1769661901867094000,4.784093994140625,0.034881591796875,0.9119415283203125,0.394317626953125
1769661901877081900,4.794081787109375,0.03643798828125,0.91326904296875,0.3934478759765625
1769661901887070000,4.804070068359375,0.0387115478515625,0.912506103515625,0.39324951171875
1769661901897059000,4.81405908203125,0.04296875,0.91168212890625,0.3916473388671875
1769661901907047000,4.824046875,0.0435638427734375,0.9116668701171875,0.39117431640625
1769661901917034800,4.83403466796875,0.0437774658203125,0.9107208251953125,0.3896636962890625
1769661901927022800,4.84402294921875,0.0439605712890625,0.91021728515625,0.3909759521484375
1769661901937011000,4.854010986328125,0.041015625,0.90924072265625,0.391082763671875
1769661901947000000,4.864,0.03814697265625,0.90936279296875,0.3934173583984375
1769661901956988000,4.87398779296875,0.037200927734375,0.910919189453125,0.3947296142578125
1769661901966976000,4.88397607421875,0.0362548828125,0.912261962890625,0.3941192626953125
1769661901976964000,4.893964111328125,0.0352325439453125,0.9130706787109375,0.3927459716796875
1769661901986952000,4.903951904296875,0.034912109375,0.91375732421875,0.3924560546875
1769661901996940800,4.91394091796875,0.035980224609375,0.91455078125,0.390106201171875
1769661902006929000,4.923928955078125,0.039031982421875,0.913787841796875,0.391357421875
1769661902016917000,4.9339169921875,0.0394287109375,0.911834716796875,0.3926849365234375
1769661902026904800,4.94390478515625,0.0399932861328125,0.91131591796875,0.394439697265625
1769661902036893000,4.953892822265625,0.0410003662109375,0.909271240234375,0.3941497802734375
1769661902046881800,4.9638818359375,0.041168212890625,0.90838623046875,0.39154052734375
1769661902056870000,4.973869873046875,0.0429840087890625,0.9087677001953125,0.3924407958984375
1769661902066857700,4.983857666015625,0.0430450439453125,0.911529541015625,0.3934326171875
1769661902076845800,4.993845703125,0.0420684814453125,0.9138031005859375,0.3945465087890625
1769661902086834000,5.003833984375,0.0370330810546875,0.915496826171875,0.3941497802734375
1769661902096823000,5.013822998046875,0.0337066650390625,0.917327880859375,0.394775390625
1769661902106811000,5.023810791015625,0.031097412109375,0.91741943359375,0.3956451416015625
1769661902116799000,5.033799072265625,0.0326995849609375,0.9152984619140625,0.3958282470703125
1769661902126787000,5.043787109375,0.0336151123046875,0.914947509765625,0.3978118896484375
1769661902136775000,5.05377490234375,0.0348663330078125,0.9138946533203125,0.4007720947265625
1769661902146764000,5.063763916015625,0.03607177734375,0.912841796875,0.4024200439453125
1769661902156752000,5.073751953125,0.0417938232421875,0.9138031005859375,0.4031219482421875
1769661902166740000,5.083739990234375,0.050140380859375,0.91461181640625,0.4018096923828125
1769661902176728000,5.09372802734375,0.0535888671875,0.9125518798828125,0.401611328125
1769661902186716000,5.1037158203125,0.051727294921875,0.9150543212890625,0.402862548828125
1769661902196704800,5.113704833984375,0.050689697265625,0.91448974609375,0.401947021484375
1769661902206692900,5.12369287109375,0.051116943359375,0.912506103515625,0.4001312255859375
1769661902216681000,5.133680908203125,0.0469970703125,0.910888671875,0.397186279296875
1769661902226668800,5.143668701171875,0.04217529296875,0.909515380859375,0.3952484130859375
1769661902236658000,5.153657958984375,0.0361175537109375,0.90863037109375,0.3924102783203125
1769661902246646000,5.16364599609375,0.033416748046875,0.91046142578125,0.3913116455078125
1769661902256634000,5.173634033203125,0.0389862060546875,0.909942626953125,0.3892364501953125
1769661902266622000,5.1836220703125,0.0427398681640625,0.9095611572265625,0.3879852294921875
1769661902276609800,5.19360986328125,0.0433349609375,0.914703369140625,0.38690185546875
1769661902286599000,5.203598876953125,0.0430145263671875,0.9191741943359375,0.385955810546875
1769661902296587000,5.2135869140625,0.0433807373046875,0.921234130859375,0.3883056640625
1769661902306574800,5.223574951171875,0.043548583984375,0.921783447265625,0.3918914794921875
1769661902316563000,5.23356298828125,0.043121337890625,0.9188690185546875,0.394134521484375
1769661902326551000,5.243551025390625,0.0451812744140625,0.916229248046875,0.3953857421875
1769661902336540000,5.253539794921875,0.0476531982421875,0.91265869140625,0.396087646484375
1769661902346527700,5.26352783203125,0.0476531982421875,0.912078857421875,0.396728515625
1769661902356515800,5.273515869140625,0.045135498046875,0.9105377197265625,0.3950347900390625
1769661902366504000,5.28350390625,0.045623779296875,0.910003662109375,0.39434814453125
1769661902376492000,5.293491943359375,0.0459136962890625,0.9105072021484375,0.3931121826171875
1769661902386481000,5.30348095703125,0.042816162109375,0.9122467041015625,0.3920135498046875
1769661902396469000,5.313468994140625,0.0398406982421875,0.9115447998046875,0.3919830322265625
1769661902406456800,5.323456787109375,0.038848876953125,0.913482666015625,0.395599365234375
1769661902416445000,5.33344482421875,0.0387725830078125,0.9169464111328125,0.3960723876953125
1769661902426432800,5.343432861328125,0.03594970703125,0.913116455078125,0.3953094482421875
1769661902436422000,5.353421875,0.0378265380859375,0.91314697265625,0.3974761962890625
1769661902446410000,5.363409912109375,0.0438995361328125,0.9140625,0.398223876953125
1769661902456398000,5.373398193359375,0.047088623046875,0.912353515625,0.39703369140625
1769661902466386000,5.383385986328125,0.045989990234375,0.90985107421875,0.3995208740234375
1769661902476374000,5.3933740234375,0.0514678955078125,0.909912109375,0.4000396728515625
1769661902486363000,5.40336279296875,0.0522003173828125,0.90771484375,0.39862060546875
1769661902496351000,5.41335107421875,0.0477142333984375,0.9096221923828125,0.3968505859375
1769661902506338800,5.4233388671875,0.0454254150390625,0.9110565185546875,0.3954315185546875
1769661902516327000,5.433326904296875,0.0444488525390625,0.9124908447265625,0.3935699462890625
1769661902526316000,5.44331591796875,0.0442657470703125,0.914825439453125,0.3923187255859375
1769661902536303900,5.453303955078125,0.0411529541015625,0.915740966796875,0.39324951171875
1769661902546291700,5.463291748046875,0.03857421875,0.9136505126953125,0.3925323486328125
1769661902556279800,5.47327978515625,0.0388031005859375,0.913848876953125,0.3941497802734375
1769661902566268000,5.483267822265625,0.04095458984375,0.9131622314453125,0.3961944580078125
1769661902576257000,5.493257080078125,0.042938232421875,0.9114532470703125,0.3972625732421875
1769661902586244900,5.503244873046875,0.0455780029296875,0.9126129150390625,0.3973388671875
1769661902596233000,5.51323291015625,0.0484619140625,0.911102294921875,0.39630126953125
1769661902606221000,5.523220947265625,0.049407958984375,0.91143798828125,0.39715576171875
1769661902616209200,5.533209228515625,0.05108642578125,0.9134979248046875,0.396697998046875
1769661902626197800,5.54319775390625,0.0494537353515625,0.91455078125,0.394775390625
1769661902636185900,5.553185791015625,0.0462493896484375,0.9134674072265625,0.3953704833984375
1769661902646174000,5.563174072265625,0.0456390380859375,0.913909912109375,0.395477294921875
1769661902656162000,5.573162109375,0.045928955078125,0.912689208984375,0.3955230712890625
1769661902666150000,5.58314990234375,0.047027587890625,0.9134368896484375,0.396636962890625
1769661902676138800,5.593138671875,0.0488128662109375,0.911346435546875,0.3942718505859375
1769661902686126800,5.603126953125,0.0483551025390625,0.911529541015625,0.391998291015625
1769661902696115000,5.613114990234375,0.0495452880859375,0.9133758544921875,0.3918304443359375
1769661902706102800,5.623102783203125,0.04827880859375,0.913482666015625,0.3944854736328125
1769661902716091000,5.6330908203125,0.0441436767578125,0.91363525390625,0.397552490234375
1769661902726080000,5.643080078125,0.0419464111328125,0.9132080078125,0.4010772705078125
1769661902736068000,5.653068115234375,0.0409088134765625,0.913299560546875,0.4052276611328125
1769661902746056000,5.663055908203125,0.0383758544921875,0.9125213623046875,0.4057159423828125
1769661902756044000,5.6730439453125,0.03729248046875,0.909881591796875,0.405029296875
1769661902766032000,5.683031982421875,0.0373992919921875,0.91046142578125,0.4045562744140625
1769661902776021000,5.69302099609375,0.0364532470703125,0.9103240966796875,0.402374267578125
1769661902786008800,5.7030087890625,0.0370635986328125,0.9095916748046875,0.401580810546875
1769661902795997000,5.712996826171875,0.0379791259765625,0.90911865234375,0.401947021484375
1769661902805985000,5.722985107421875,0.04058837890625,0.9088897705078125,0.39947509765625
1769661902815974000,5.732973876953125,0.0433197021484375,0.9095306396484375,0.398712158203125
1769661902825961700,5.742961669921875,0.0434722900390625,0.9084320068359375,0.3980712890625
1769661902835949800,5.75294970703125,0.04449462890625,0.90814208984375,0.397979736328125
1769661902845938000,5.76293798828125,0.04486083984375,0.91015625,0.3951873779296875
1769661902855926000,5.772926025390625,0.044952392578125,0.9137115478515625,0.3961334228515625
1769661902865915000,5.782914794921875,0.0435943603515625,0.9139556884765625,0.3961639404296875
1769661902875903000,5.792903076171875,0.0452117919921875,0.9167022705078125,0.3957061767578125
1769661902885891000,5.80289111328125,0.0431060791015625,0.9142913818359375,0.397491455078125
1769661902895879000,5.81287890625,0.0398712158203125,0.9127960205078125,0.398345947265625
1769661902905866800,5.82286669921875,0.0428619384765625,0.9098968505859375,0.3968963623046875
1769661902915856000,5.83285595703125,0.044677734375,0.9062347412109375,0.3960113525390625
1769661902925844000,5.842843994140625,0.0431060791015625,0.9102935791015625,0.3968505859375
1769661902935832000,5.85283203125,0.0485076904296875,0.915435791015625,0.391326904296875
1769661902945820000,5.86281982421875,0.04156494140625,0.9050140380859375,0.3900909423828125
1769661902955808000,5.87280810546875,0.03704833984375,0.901397705078125,0.3931121826171875
1769661902965796900,5.882796875,0.038238525390625,0.9039306640625,0.3875274658203125
1769661902975785000,5.892784912109375,0.038787841796875,0.9166717529296875,0.392852783203125
1769661902985772800,5.902772705078125,0.038177490234375,0.9295196533203125,0.3961029052734375
1769661902995761000,5.912760986328125,0.03778076171875,0.9365692138671875,0.399688720703125
1769661903005749000,5.9227490234375,0.04656982421875,0.934295654296875,0.397979736328125
1769661903015738000,5.932738037109375,0.060089111328125,0.9227294921875,0.395111083984375
1769661903025726000,5.942725830078125,0.0703125,0.9094696044921875,0.395416259765625
1769661903035713800,5.9527138671875,0.0704498291015625,0.9013214111328125,0.40032958984375
1769661903045702000,5.962701904296875,0.0561370849609375,0.8919830322265625,0.402496337890625
1769661903055689700,5.972689697265625,0.0458526611328125,0.8940582275390625,0.3997802734375
1769661903065678800,5.982678955078125,0.04150390625,0.9072113037109375,0.393798828125
1769661903075667000,5.9926669921875,0.0345306396484375,0.9176788330078125,0.3888092041015625
1769661903085655000,6.002655029296875,0.0284271240234375,0.9279327392578125,0.3835296630859375
1769661903095643000,6.012642822265625,0.032501220703125,0.9334564208984375,0.3787078857421875
1769661903105631700,6.0226318359375,0.0382232666015625,0.93096923828125,0.3822021484375
1769661903115619800,6.032619873046875,0.0426025390625,0.9229278564453125,0.386077880859375
1769661903125608000,6.04260791015625,0.047454833984375,0.917877197265625,0.3900299072265625
1769661903135596000,6.052595947265625,0.054046630859375,0.9148712158203125,0.3946990966796875
1769661903145583900,6.062583984375,0.055328369140625,0.9119110107421875,0.3950347900390625
1769661903155573000,6.072572998046875,0.0562744140625,0.9109039306640625,0.39276123046875
1769661903165561000,6.08256103515625,0.056488037109375,0.912353515625,0.388885498046875
1769661903175549000,6.092548828125,0.05633544921875,0.9149017333984375,0.386474609375
1769661903185536800,6.102536865234375,0.050750732421875,0.9149627685546875,0.3857269287109375
1769661903195524900,6.11252490234375,0.047637939453125,0.9141998291015625,0.3852081298828125
1769661903205514000,6.122513916015625,0.0444488525390625,0.9131317138671875,0.3866119384765625
1769661903215501800,6.132501708984375,0.0437469482421875,0.9133148193359375,0.3863983154296875
1769661903225490000,6.142489990234375,0.0413818359375,0.9177398681640625,0.3903961181640625
1769661903235477800,6.152477783203125,0.039764404296875,0.919342041015625,0.3920745849609375
1769661903245465900,6.1624658203125,0.0420074462890625,0.9207000732421875,0.3926849365234375
1769661903255454700,6.172454833984375,0.0452117919921875,0.9185028076171875,0.3922119140625
1769661903265442800,6.18244287109375,0.0461273193359375,0.916351318359375,0.3913726806640625
1769661903275430700,6.1924306640625,0.0470733642578125,0.9154052734375,0.391143798828125
1769661903285418800,6.202418701171875,0.0444793701171875,0.9140167236328125,0.3897705078125
1769661903295406800,6.21240673828125,0.04461669921875,0.9140167236328125,0.38983154296875
1769661903305396000,6.22239599609375,0.0464019775390625,0.9121551513671875,0.3888092041015625
1769661903315383800,6.2323837890625,0.044464111328125,0.912628173828125,0.38909912109375
1769661903325371600,6.24237158203125,0.042236328125,0.9131317138671875,0.38958740234375
1769661903335359700,6.25235986328125,0.04132080078125,0.9169921875,0.3910980224609375
1769661903345347800,6.262347900390625,0.0424041748046875,0.9166717529296875,0.3908538818359375
1769661903355337000,6.2723369140625,0.043853759765625,0.917022705078125,0.3925628662109375
1769661903365324800,6.28232470703125,0.04730224609375,0.914154052734375,0.3926239013671875
1769661903375313000,6.29231298828125,0.0498199462890625,0.91326904296875,0.3914031982421875
1769661903385301000,6.302301025390625,0.0504608154296875,0.9121856689453125,0.3899688720703125
1769661903395289900,6.312289794921875,0.0476531982421875,0.91265869140625,0.3900146484375
1769661903405277700,6.322277587890625,0.045135498046875,0.91424560546875,0.3900299072265625
1769661903415265800,6.332265869140625,0.0463714599609375,0.913665771484375,0.390472412109375
1769661903425254000,6.34225390625,0.0491790771484375,0.9146270751953125,0.3880157470703125
1769661903435241700,6.35224169921875,0.0515594482421875,0.915313720703125,0.3875732421875
1769661903445230800,6.36223095703125,0.0507049560546875,0.91668701171875,0.3900604248046875
1769661903455218700,6.37221875,0.049285888671875,0.91748046875,0.389801025390625
1769661903465206800,6.382206787109375,0.0470123291015625,0.919158935546875,0.3905181884765625
1769661903475194600,6.392194580078125,0.0466156005859375,0.916900634765625,0.3911895751953125
1769661903485182700,6.4021826171875,0.045684814453125,0.91485595703125,0.3907928466796875
1769661903495171800,6.412171875,0.04266357421875,0.912628173828125,0.3889007568359375
1769661903505160000,6.422159912109375,0.04217529296875,0.914886474609375,0.38934326171875
1769661903515147800,6.432147705078125,0.0404052734375,0.9155426025390625,0.390655517578125
1769661903525136000,6.442135986328125,0.0392303466796875,0.917572021484375,0.3897705078125
1769661903535123700,6.452123779296875,0.0416259765625,0.9176025390625,0.3890533447265625
1769661903545112800,6.46211279296875,0.0455780029296875,0.91619873046875,0.3889617919921875
1769661903555100700,6.4721005859375,0.0482025146484375,0.9120635986328125,0.3878631591796875
1769661903565088800,6.4820888671875,0.0484619140625,0.91143798828125,0.3907470703125
1769661903575076900,6.492076904296875,0.0480804443359375,0.912841796875,0.392578125
1769661903585065700,6.502065673828125,0.0431365966796875,0.9138031005859375,0.39251708984375
1769661903595053800,6.5120537109375,0.04266357421875,0.9141693115234375,0.3928070068359375
1769661903605041700,6.522041748046875,0.042694091796875,0.9172210693359375,0.39105224609375
1769661903615029800,6.53202978515625,0.044219970703125,0.918701171875,0.391204833984375
1769661903625017900,6.542017822265625,0.0446014404296875,0.916412353515625,0.39208984375
1769661903635007000,6.552007080078125,0.0488739013671875,0.914459228515625,0.391326904296875
1769661903644994800,6.561994873046875,0.05157470703125,0.911346435546875,0.3900604248046875
1769661903654983000,6.57198291015625,0.051055908203125,0.911407470703125,0.388092041015625
1769661903664970800,6.581970703125,0.05072021484375,0.9138336181640625,0.388153076171875
1769661903674958600,6.59195849609375,0.0485992431640625,0.9158172607421875,0.3878021240234375
1769661903684947700,6.60194775390625,0.0458831787109375,0.914398193359375,0.38568115234375
1769661903694935800,6.611935791015625,0.042633056640625,0.9125213623046875,0.38616943359375
1769661903704924000,6.621923828125,0.03887939453125,0.908111572265625,0.3851776123046875
1769661903714911700,6.631911865234375,0.0438690185546875,0.911468505859375,0.38482666015625
1769661903724899800,6.64189990234375,0.0423583984375,0.91644287109375,0.391143798828125
1769661903734888700,6.651888671875,0.037445068359375,0.917633056640625,0.3941192626953125
1769661903744876800,6.661876708984375,0.0372772216796875,0.9204864501953125,0.3957366943359375
1769661903754864600,6.67186474609375,0.0440673828125,0.9229736328125,0.396759033203125
1769661903764852700,6.681852783203125,0.0501708984375,0.920013427734375,0.397125244140625
1769661903774840800,6.6918408203125,0.05126953125,0.9160614013671875,0.398529052734375
1769661903784830000,6.701829833984375,0.0559844970703125,0.9149169921875,0.3982086181640625
1769661903794817800,6.71181787109375,0.05889892578125,0.916259765625,0.3976287841796875
1769661903804805600,6.7218056640625,0.057159423828125,0.91497802734375,0.39361572265625
1769661903814793700,6.731793701171875,0.0510406494140625,0.91522216796875,0.3917083740234375
1769661903824782800,6.741782958984375,0.04644775390625,0.9171295166015625,0.3914947509765625
1769661903834770700,6.751770751953125,0.0425262451171875,0.9183502197265625,0.392059326171875
1769661903844758800,6.7617587890625,0.0414276123046875,0.91754150390625,0.3912811279296875
1769661903854747000,6.771746826171875,0.0427398681640625,0.9160614013671875,0.39105224609375
1769661903864735000,6.78173486328125,0.041778564453125,0.9176788330078125,0.3932037353515625
1769661903874723800,6.791723876953125,0.0444793701171875,0.914459228515625,0.390838623046875
1769661903884711700,6.801711669921875,0.045928955078125,0.9129486083984375,0.3903350830078125
1769661903894699800,6.81169970703125,0.0466766357421875,0.9100494384765625,0.3898773193359375
1769661903904687900,6.82168798828125,0.046356201171875,0.910308837890625,0.3895263671875
1769661903914675700,6.83167578125,0.0467376708984375,0.911956787109375,0.3895721435546875
1769661903924664800,6.841664794921875,0.0464630126953125,0.9159698486328125,0.3879241943359375
1769661903934653000,6.85165283203125,0.04718017578125,0.91864013671875,0.3894195556640625
1769661903944640800,6.861640869140625,0.0470123291015625,0.9177703857421875,0.3921661376953125
1769661903954628600,6.871628662109375,0.046142578125,0.911865234375,0.3929443359375
1769661903964616700,6.88161669921875,0.0434112548828125,0.9082489013671875,0.394622802734375
1769661903974605800,6.891605712890625,0.0427703857421875,0.9062347412109375,0.3957672119140625
1769661903984594000,6.901593994140625,0.042266845703125,0.905364990234375,0.3941497802734375
1769661903994581800,6.911581787109375,0.038330078125,0.90771484375,0.392974853515625
1769661904004569900,6.92156982421875,0.0383148193359375,0.9114837646484375,0.39398193359375
1769661904014558000,6.931557861328125,0.0366058349609375,0.915496826171875,0.3929595947265625
1769661904024546800,6.941546875,0.040496826171875,0.9184417724609375,0.394744873046875
1769661904034534700,6.95153466796875,0.041900634765625,0.9184417724609375,0.3954315185546875
1769661904044522800,6.961522705078125,0.0456390380859375,0.916168212890625,0.39825439453125
1769661904054510800,6.9715107421875,0.0467376708984375,0.9105987548828125,0.4003753662109375
1769661904064499000,6.9814990234375,0.04559326171875,0.9071197509765625,0.4029693603515625
1769661904074487800,6.99148779296875,0.0440826416015625,0.9056854248046875,0.40362548828125
1769661904084475600,7.0014755859375,0.0432891845703125,0.907867431640625,0.404296875
1769661904094463700,7.011463623046875,0.0406036376953125,0.9120330810546875,0.4051361083984375
1769661904104451800,7.021451904296875,0.0384979248046875,0.9141693115234375,0.40447998046875
1769661904114439700,7.031439697265625,0.0382843017578125,0.9157867431640625,0.40423583984375
1769661904124428800,7.0414287109375,0.038909912109375,0.91351318359375,0.4025115966796875
1769661904134417000,7.0514169921875,0.0394744873046875,0.9105224609375,0.402679443359375
1769661904144405000,7.061405029296875,0.0373992919921875,0.9069671630859375,0.399810791015625
1769661904154392800,7.071392822265625,0.03643798828125,0.9058074951171875,0.399322509765625
1769661904164381700,7.081381591796875,0.0364227294921875,0.908111572265625,0.399688720703125
1769661904174369800,7.091369873046875,0.037109375,0.912353515625,0.402252197265625
1769661904184358000,7.10135791015625,0.0380706787109375,0.9127960205078125,0.4029693603515625
1769661904194345700,7.111345703125,0.0397186279296875,0.9140472412109375,0.4043121337890625
1769661904204333800,7.121333740234375,0.042236328125,0.9127349853515625,0.402923583984375
1769661904214322700,7.13132275390625,0.0433807373046875,0.908355712890625,0.4019622802734375
1769661904224310300,7.141310302734375,0.041900634765625,0.90655517578125,0.3997039794921875
1769661904234298400,7.15129833984375,0.042755126953125,0.9077301025390625,0.3977813720703125
1769661904244286200,7.1612861328125,0.042083740234375,0.9113311767578125,0.3970489501953125
1769661904254274300,7.1712744140625,0.04180908203125,0.91363525390625,0.3965301513671875
1769661904264263400,7.181263427734375,0.0411376953125,0.9131927490234375,0.3965911865234375
1769661904274251500,7.19125146484375,0.042938232421875,0.9122467041015625,0.3961181640625
1769661904284239400,7.2012392578125,0.043487548828125,0.910858154296875,0.3981170654296875
1769661904294227500,7.2112275390625,0.0421142578125,0.908477783203125,0.3968048095703125
1769661904304215600,7.221215576171875,0.04107666015625,0.909637451171875,0.3979339599609375
1769661904314204400,7.231204345703125,0.0375213623046875,0.9103851318359375,0.3993072509765625
1769661904324192300,7.241192138671875,0.035186767578125,0.913238525390625,0.4027862548828125
1769661904334180400,7.251180419921875,0.0347137451171875,0.9155426025390625,0.4044647216796875
1769661904344168400,7.26116845703125,0.03533935546875,0.9158477783203125,0.4039306640625
1769661904354157600,7.271157470703125,0.0373077392578125,0.917633056640625,0.4019317626953125
1769661904364145200,7.281145263671875,0.039520263671875,0.9151763916015625,0.399871826171875
1769661904374133200,7.29113330078125,0.0410919189453125,0.9121551513671875,0.39752197265625
1769661904384121300,7.301121337890625,0.040557861328125,0.90948486328125,0.3968505859375
1769661904394109400,7.311109375,0.0413818359375,0.906341552734375,0.3978424072265625
1769661904404098300,7.321098388671875,0.041259765625,0.9068756103515625,0.4008331298828125
1769661904414086400,7.33108642578125,0.039947509765625,0.9093475341796875,0.401824951171875
1769661904424074500,7.341074462890625,0.0394134521484375,0.9098968505859375,0.40216064453125
1769661904434062600,7.3510625,0.0399932861328125,0.9116363525390625,0.399688720703125
1769661904444050400,7.361050537109375,0.0425567626953125,0.9123687744140625,0.3961639404296875
1769661904454039300,7.371039306640625,0.04296875,0.91400146484375,0.394683837890625
1769661904464027400,7.38102734375,0.043914794921875,0.914825439453125,0.39337158203125
1769661904474015500,7.391015380859375,0.0423126220703125,0.9151763916015625,0.3914031982421875
1769661904484003300,7.40100341796875,0.03948974609375,0.9145355224609375,0.3907318115234375
1769661904493991400,7.410991455078125,0.0366058349609375,0.9087677001953125,0.3909454345703125
1769661904503980300,7.420980224609375,0.037017822265625,0.909698486328125,0.392578125
1769661904513968400,7.430968505859375,0.0393829345703125,0.9083709716796875,0.3934783935546875
1769661904523956200,7.440956298828125,0.0386199951171875,0.90753173828125,0.3947906494140625
1769661904533944300,7.4509443359375,0.037811279296875,0.9116668701171875,0.3954925537109375
1769661904543932400,7.460932373046875,0.04193115234375,0.917144775390625,0.3940582275390625
1769661904553921500,7.470921630859375,0.0440673828125,0.9194488525390625,0.395538330078125
1769661904563909400,7.480909423828125,0.04327392578125,0.9225311279296875,0.3986663818359375
1769661904573897500,7.4908974609375,0.0418548583984375,0.920684814453125,0.400665283203125
1769661904583885300,7.50088525390625,0.0420989990234375,0.9170074462890625,0.40313720703125
1769661904593874400,7.51087451171875,0.0449066162109375,0.9116668701171875,0.402313232421875
1769661904603862300,7.5208623046875,0.04541015625,0.905059814453125,0.399993896484375
1769661904613850400,7.530850341796875,0.043121337890625,0.9026641845703125,0.399261474609375
1769661904623838500,7.54083837890625,0.040008544921875,0.903594970703125,0.393707275390625
1769661904633826600,7.55082666015625,0.0353851318359375,0.9069366455078125,0.392822265625
1769661904643815200,7.560815185546875,0.0329132080078125,0.9108123779296875,0.3907012939453125
1769661904653803300,7.57080322265625,0.0350189208984375,0.9140777587890625,0.3879547119140625
1769661904663791400,7.580791259765625,0.0361175537109375,0.9157257080078125,0.38909912109375
1769661904673779500,7.590779541015625,0.0367584228515625,0.91693115234375,0.3908843994140625
1769661904683767300,7.600767333984375,0.036468505859375,0.9145660400390625,0.391693115234375
1769661904693756400,7.61075634765625,0.0359649658203125,0.9144744873046875,0.3934478759765625
1769661904703744500,7.62074462890625,0.0358428955078125,0.9137420654296875,0.3966064453125
1769661904713732600,7.630732666015625,0.0349884033203125,0.9154052734375,0.39752197265625
1769661904723720200,7.64072021484375,0.0396270751953125,0.91998291015625,0.4003448486328125
1769661904733708300,7.650708251953125,0.044219970703125,0.920928955078125,0.3979949951171875
1769661904743697400,7.660697509765625,0.043792724609375,0.91937255859375,0.3975067138671875
1769661904753685500,7.670685546875,0.04364013671875,0.914886474609375,0.3945465087890625
1769661904763673300,7.68067333984375,0.050323486328125,0.91241455078125,0.3947296142578125
1769661904773661400,7.690661376953125,0.0544281005859375,0.909942626953125,0.39251708984375
1769661904783649500,7.7006494140625,0.04547119140625,0.9044952392578125,0.390472412109375
1769661904793638400,7.710638427734375,0.0419921875,0.909637451171875,0.392333984375
1769661904803626200,7.720626220703125,0.0428924560546875,0.91571044921875,0.39569091796875
1769661904813614300,7.7306142578125,0.03875732421875,0.9167633056640625,0.39453125
1769661904823602400,7.7406025390625,0.0359649658203125,0.91522216796875,0.3931121826171875
1769661904833590300,7.75059033203125,0.0408477783203125,0.9123077392578125,0.3916473388671875
1769661904843579400,7.760579345703125,0.04534912109375,0.90936279296875,0.390838623046875
1769661904853567500,7.7705673828125,0.045013427734375,0.9074554443359375,0.3908843994140625
1769661904863555300,7.780555419921875,0.045379638671875,0.906494140625,0.388885498046875
1769661904873543200,7.790543212890625,0.0428009033203125,0.9084320068359375,0.3898773193359375
1769661904883532300,7.8005322265625,0.0384521484375,0.9089508056640625,0.3910064697265625
1769661904893520400,7.810520263671875,0.0360107421875,0.908233642578125,0.3928375244140625
1769661904903508500,7.820508544921875,0.03424072265625,0.90771484375,0.3926544189453125
1769661904913496600,7.83049658203125,0.0351715087890625,0.91009521484375,0.393585205078125
1769661904923484400,7.840484375,0.0340576171875,0.9138031005859375,0.394683837890625
1769661904933473300,7.850473388671875,0.0340423583984375,0.9160919189453125,0.3948516845703125
1769661904943461400,7.86046142578125,0.036712646484375,0.9152069091796875,0.39569091796875
1769661904953449500,7.870449462890625,0.04217529296875,0.9133453369140625,0.3983612060546875
1769661904963437300,7.880437255859375,0.0432281494140625,0.909027099609375,0.3975982666015625
1769661904973425400,7.89042529296875,0.0443115234375,0.90606689453125,0.3990478515625
1769661904983414500,7.90041455078125,0.045745849609375,0.905364990234375,0.3972625732421875
1769661904993402400,7.91040234375,0.0428619384765625,0.907562255859375,0.3956146240234375
1769661905003390200,7.92039013671875,0.0431060791015625,0.91156005859375,0.3960723876953125
1769661905013378300,7.93037841796875,0.042327880859375,0.912322998046875,0.3953399658203125
1769661905023366400,7.940366455078125,0.043121337890625,0.914459228515625,0.3950958251953125
1769661905033355500,7.95035546875,0.044708251953125,0.9145355224609375,0.3941650390625
1769661905043343400,7.96034326171875,0.0462799072265625,0.9139556884765625,0.395904541015625
1769661905053331500,7.97033154296875,0.046417236328125,0.91412353515625,0.3968658447265625
1769661905063319600,7.980319580078125,0.0474395751953125,0.91473388671875,0.39617919921875
1769661905073308400,7.990308349609375,0.0482177734375,0.9141693115234375,0.3948211669921875
1769661905083296300,8.000296142578126,0.0487823486328125,0.9128570556640625,0.394287109375
1769661905093284400,8.010284423828125,0.04736328125,0.9142913818359375,0.3936004638671875
1769661905103272400,8.0202724609375,0.044219970703125,0.9155731201171875,0.3927001953125
1769661905113260300,8.03026025390625,0.0415802001953125,0.9151153564453125,0.39306640625
1769661905123249400,8.04024951171875,0.0412139892578125,0.916290283203125,0.394317626953125
1769661905133237200,8.0502373046875,0.0412750244140625,0.9173736572265625,0.394317626953125
1769661905143225300,8.060225341796874,0.04547119140625,0.919708251953125,0.395050048828125
1769661905153213200,8.070213134765625,0.0465850830078125,0.919403076171875,0.3956146240234375
1769661905163201300,8.080201171875,0.0473480224609375,0.91650390625,0.394775390625
1769661905173190400,8.0901904296875,0.0485992431640625,0.9154052734375,0.3935394287109375
1769661905183178500,8.100178466796875,0.051177978515625,0.9133758544921875,0.3928680419921875
1769661905193166600,8.11016650390625,0.0493011474609375,0.91375732421875,0.39251708984375
1769661905203154400,8.120154541015625,0.0498199462890625,0.9141693115234375,0.392120361328125
1769661905213142300,8.130142333984375,0.049224853515625,0.91510009765625,0.391571044921875
1769661905223132000,8.1401318359375,0.0513763427734375,0.9153289794921875,0.391265869140625
1769661905233120000,8.1501201171875,0.0510711669921875,0.9171905517578125,0.3925323486328125
1769661905243107800,8.16010791015625,0.0497589111328125,0.9185333251953125,0.3922119140625
1769661905253096000,8.170095947265626,0.04833984375,0.9176483154296875,0.39117431640625
1769661905263084000,8.180083984375,0.0464935302734375,0.9134674072265625,0.389404296875
1769661905273073000,8.190072998046874,0.046417236328125,0.9110260009765625,0.389312744140625
1769661905283060700,8.200060791015625,0.049591064453125,0.90863037109375,0.38934326171875
1769661905293048800,8.210048828125,0.047882080078125,0.91009521484375,0.3904876708984375
1769661905303037000,8.220036865234375,0.0471954345703125,0.9156341552734375,0.3913116455078125
1769661905313026000,8.230026123046875,0.0474090576171875,0.92071533203125,0.3888092041015625
1769661905323014000,8.240013916015625,0.048858642578125,0.9236907958984375,0.3896636962890625
1769661905333001700,8.250001708984374,0.0511932373046875,0.9215087890625,0.39019775390625
1769661905342989800,8.25998974609375,0.0546875,0.918304443359375,0.3914642333984375
1769661905352978000,8.26997802734375,0.0591583251953125,0.9139251708984375,0.391845703125
1769661905362966800,8.279966796875,0.0574798583984375,0.9093017578125,0.389801025390625
1769661905372955000,8.289954833984375,0.054779052734375,0.9058074951171875,0.3905181884765625
1769661905382943000,8.29994287109375,0.0534820556640625,0.9062652587890625,0.388580322265625
1769661905392931000,8.30993115234375,0.0510406494140625,0.91107177734375,0.38897705078125
1769661905402919000,8.3199189453125,0.05255126953125,0.9142303466796875,0.38787841796875
1769661905412907800,8.32990771484375,0.048980712890625,0.916473388671875,0.388580322265625
1769661905422895900,8.339895751953126,0.046875,0.917938232421875,0.386627197265625
1769661905432884000,8.349884033203125,0.04803466796875,0.9205322265625,0.388275146484375
1769661905442871800,8.359871826171876,0.0478363037109375,0.9224853515625,0.387420654296875
1769661905452860000,8.36985986328125,0.0479278564453125,0.9200439453125,0.3861236572265625
1769661905462849000,8.37984912109375,0.046783447265625,0.9171142578125,0.386962890625
1769661905472836900,8.3898369140625,0.05072021484375,0.916656494140625,0.387298583984375
1769661905482824700,8.39982470703125,0.052032470703125,0.9161834716796875,0.3895263671875
1769661905492812800,8.409812744140625,0.0513153076171875,0.914306640625,0.391143798828125
1769661905502801000,8.41980078125,0.0540008544921875,0.9151458740234375,0.39410400390625
1769661905512790000,8.4297900390625,0.0547637939453125,0.91253662109375,0.3902587890625
1769661905522777900,8.43977783203125,0.055419921875,0.909698486328125,0.3906097412109375
1769661905532766000,8.449765869140625,0.0556640625,0.9097137451171875,0.388214111328125
1769661905542754000,8.459754150390625,0.0581817626953125,0.9097747802734375,0.389556884765625
1769661905552743000,8.469742919921876,0.0505218505859375,0.91033935546875,0.389404296875
1769661905562730800,8.479730712890625,0.042205810546875,0.9125518798828125,0.38885498046875
1769661905572718800,8.48971875,0.0395355224609375,0.914154052734375,0.389068603515625
1769661905582707000,8.49970703125,0.03997802734375,0.9147796630859375,0.3903045654296875
1769661905592695000,8.509695068359376,0.0407257080078125,0.91522216796875,0.390869140625
1769661905602684000,8.519683837890625,0.0444793701171875,0.9163665771484375,0.3908538818359375
1769661905612671700,8.529671630859376,0.04937744140625,0.918609619140625,0.39013671875
1769661905622659800,8.539659912109375,0.0513458251953125,0.9140777587890625,0.3917388916015625
1769661905632648000,8.54964794921875,0.0564117431640625,0.9098358154296875,0.392059326171875
1769661905642635800,8.5596357421875,0.059326171875,0.907135009765625,0.3928070068359375
1769661905652625000,8.569625,0.0576324462890625,0.9057159423828125,0.392242431640625
1769661905662613000,8.579613037109375,0.0546875,0.9119873046875,0.395050048828125
1769661905672601000,8.58960107421875,0.051483154296875,0.9196319580078125,0.3942413330078125
1769661905682589000,8.5995888671875,0.0489654541015625,0.9230499267578125,0.3935394287109375
1769661905692576800,8.60957666015625,0.047637939453125,0.923126220703125,0.3915557861328125
1769661905702566000,8.61956591796875,0.0499725341796875,0.9203948974609375,0.3934173583984375
1769661905712554000,8.629553955078125,0.051025390625,0.9148406982421875,0.392059326171875
1769661905722541800,8.639541748046875,0.0520172119140625,0.9113922119140625,0.3928680419921875
1769661905732530000,8.649530029296875,0.0533905029296875,0.910400390625,0.3915557861328125
1769661905742518000,8.65951806640625,0.05389404296875,0.91326904296875,0.39056396484375
1769661905752507000,8.6695068359375,0.05413818359375,0.9176788330078125,0.3907012939453125
1769661905762494700,8.67949462890625,0.053924560546875,0.9210052490234375,0.390472412109375
1769661905772482800,8.68948291015625,0.05517578125,0.9209747314453125,0.39093017578125
1769661905782471000,8.699470947265626,0.0541534423828125,0.91900634765625,0.392120361328125
1769661905792460000,8.7094599609375,0.0542449951171875,0.916595458984375,0.39111328125
1769661905802448000,8.71944775390625,0.0553131103515625,0.9136962890625,0.3906402587890625
1769661905812436000,8.72943603515625,0.055084228515625,0.91180419921875,0.3905792236328125
1769661905822423800,8.739423828125,0.055389404296875,0.913909912109375,0.3900299072265625
1769661905832411600,8.74941162109375,0.053436279296875,0.9136962890625,0.3891143798828125
1769661905842400800,8.75940087890625,0.0517120361328125,0.913726806640625,0.3885040283203125
1769661905852388900,8.769388916015625,0.0524139404296875,0.912506103515625,0.386566162109375
1769661905862377000,8.779376953125,0.0533905029296875,0.9102325439453125,0.385986328125
1769661905872365000,8.789364990234375,0.053955078125,0.9133758544921875,0.384979248046875
1769661905882353000,8.799352783203124,0.053436279296875,0.9179229736328125,0.3843994140625
1769661905892341800,8.809341796875,0.05157470703125,0.918487548828125,0.3820343017578125
1769661905902329900,8.819329833984375,0.0495452880859375,0.9210662841796875,0.3808135986328125
1769661905912318000,8.82931787109375,0.04901123046875,0.9204559326171875,0.383636474609375
1769661905922305800,8.839305908203125,0.0494537353515625,0.9178924560546875,0.3841705322265625
1769661905932294000,8.8492939453125,0.0508575439453125,0.9156951904296875,0.3829803466796875
1769661905942283000,8.859282958984375,0.0509490966796875,0.9133148193359375,0.383697509765625
1769661905952271000,8.86927099609375,0.0528717041015625,0.91229248046875,0.3835906982421875
1769661905962258700,8.8792587890625,0.0526885986328125,0.913543701171875,0.38299560546875
1769661905972246800,8.889246826171876,0.051025390625,0.91387939453125,0.386444091796875
1769661905982235000,8.89923486328125,0.0526275634765625,0.91314697265625,0.3877410888671875
1769661905992224000,8.90922412109375,0.0522308349609375,0.911346435546875,0.3890228271484375
1769661906002211800,8.9192119140625,0.0544281005859375,0.9079437255859375,0.3882293701171875
1769661906012200000,8.929199951171874,0.0590972900390625,0.9093475341796875,0.3865814208984375
1769661906022188000,8.93918798828125,0.0586395263671875,0.9148406982421875,0.3863372802734375
1769661906032177000,8.949177001953124,0.0520782470703125,0.915679931640625,0.38995361328125
1769661906042164700,8.959164794921875,0.0472564697265625,0.9169921875,0.393280029296875
1769661906052152800,8.96915283203125,0.0474853515625,0.9167327880859375,0.3939971923828125
1769661906062141000,8.979140869140625,0.0487060546875,0.913848876953125,0.3995819091796875
1769661906072128800,8.989128662109374,0.052276611328125,0.912017822265625,0.400543212890625
1769661906082118000,8.999117919921876,0.0544281005859375,0.910491943359375,0.3988800048828125
1769661906092106000,9.00910595703125,0.0563201904296875,0.9145965576171875,0.3973388671875
1769661906102093800,9.01909375,0.0615234375,0.9165802001953125,0.3950042724609375
1769661906112081700,9.02908154296875,0.0633087158203125,0.9170379638671875,0.39483642578125
1769661906122069800,9.03906982421875,0.06439208984375,0.9178314208984375,0.3969879150390625
1769661906132059000,9.049058837890625,0.0684661865234375,0.9163055419921875,0.3977508544921875
1769661906142047000,9.059046875,0.074371337890625,0.91485595703125,0.39501953125
1769661906152035000,9.06903515625,0.0758209228515625,0.9140472412109375,0.39117431640625
1769661906162023000,9.07902294921875,0.0701904296875,0.913787841796875,0.390350341796875
1769661906172011000,9.089010986328125,0.06463623046875,0.9166412353515625,0.389373779296875
1769661906181999900,9.098999755859374,0.0589599609375,0.917572021484375,0.39166259765625
1769661906191988000,9.108988037109375,0.053558349609375,0.9174957275390625,0.3957366943359375
1769661906201975800,9.118975830078124,0.0523834228515625,0.9156341552734375,0.398223876953125
1769661906211964000,9.1289638671875,0.05657958984375,0.9162139892578125,0.3979034423828125
1769661906221952300,9.1389521484375,0.063873291015625,0.91583251953125,0.3916778564453125
1769661906231941000,9.148941162109375,0.06915283203125,0.916717529296875,0.3875274658203125
1769661906241929000,9.158928955078125,0.065887451171875,0.91693115234375,0.3840179443359375
1769661906251917000,9.1689169921875,0.0599517822265625,0.9131927490234375,0.3828582763671875
1769661906261905200,9.1789052734375,0.0561065673828125,0.9110565185546875,0.386688232421875
1769661906271894300,9.188894287109376,0.058074951171875,0.910125732421875,0.3905792236328125
1769661906281882000,9.198882080078125,0.0575714111328125,0.9109039306640625,0.3936309814453125
1769661906291870200,9.2088701171875,0.056365966796875,0.91650390625,0.396575927734375
1769661906301858300,9.2188583984375,0.0529022216796875,0.918365478515625,0.3946075439453125
1769661906311846100,9.22884619140625,0.0537567138671875,0.919281005859375,0.390625
1769661906321835000,9.2388349609375,0.0565338134765625,0.9174957275390625,0.38873291015625
1769661906331823000,9.248822998046874,0.0627899169921875,0.9157257080078125,0.391204833984375
1769661906341811200,9.258811279296875,0.0639801025390625,0.9144287109375,0.3949432373046875
1769661906351799300,9.26879931640625,0.06219482421875,0.913909912109375,0.3952484130859375
1769661906361787100,9.278787109375,0.0632476806640625,0.917327880859375,0.3928985595703125
1769661906371776000,9.28877587890625,0.0644989013671875,0.919464111328125,0.38909912109375
1769661906381764000,9.29876416015625,0.063232421875,0.91778564453125,0.3851165771484375
1769661906391752200,9.308752197265624,0.068145751953125,0.9173583984375,0.385467529296875
1769661906401740000,9.318739990234375,0.071624755859375,0.9145355224609375,0.3844757080078125
1769661906411728100,9.32872802734375,0.068359375,0.9150238037109375,0.3846893310546875
1769661906421717200,9.33871728515625,0.064910888671875,0.916229248046875,0.385711669921875
1769661906431705300,9.348705322265625,0.0613250732421875,0.917449951171875,0.3843231201171875
1769661906441693200,9.358693115234376,0.059906005859375,0.91925048828125,0.3844757080078125
1769661906451681000,9.368680908203125,0.05987548828125,0.9217529296875,0.3843231201171875
1769661906461669000,9.378669189453126,0.0605010986328125,0.9213409423828125,0.38323974609375
1769661906471658200,9.388658203125,0.0583038330078125,0.9218292236328125,0.3828125
1769661906481646000,9.39864599609375,0.0572052001953125,0.921539306640625,0.380950927734375
1769661906491634200,9.40863427734375,0.05712890625,0.9201202392578125,0.37884521484375
1769661906501622300,9.418622314453126,0.0583343505859375,0.9183807373046875,0.3783111572265625
1769661906511611100,9.428611083984375,0.060028076171875,0.9171600341796875,0.3799285888671875
1769661906521599000,9.438598876953124,0.058441162109375,0.9152374267578125,0.3802032470703125
1769661906531587000,9.448587158203125,0.0594940185546875,0.9149932861328125,0.3842010498046875
1769661906541575200,9.4585751953125,0.060821533203125,0.9160919189453125,0.3850555419921875
1769661906551563000,9.46856298828125,0.0625152587890625,0.915008544921875,0.3849334716796875
1769661906561552100,9.47855224609375,0.06024169921875,0.9162445068359375,0.3852996826171875
1769661906571540200,9.488540283203125,0.0594482421875,0.9171295166015625,0.3844451904296875
1769661906581528000,9.498528076171874,0.0588836669921875,0.9193572998046875,0.3845062255859375
1769661906591516000,9.508515869140625,0.056854248046875,0.9176788330078125,0.3846282958984375
1769661906601504000,9.51850390625,0.056365966796875,0.9165496826171875,0.3853302001953125
1769661906611493000,9.5284931640625,0.0573577880859375,0.914947509765625,0.3860015869140625
1769661906621481200,9.538481201171875,0.056640625,0.9155731201171875,0.3842620849609375
1769661906631469300,9.54846923828125,0.057342529296875,0.917755126953125,0.3819732666015625
1769661906641457200,9.55845703125,0.0624542236328125,0.9228363037109375,0.38177490234375
1769661906651445200,9.5684453125,0.0625,0.9260406494140625,0.38433837890625
1769661906661434000,9.57843408203125,0.060272216796875,0.9242401123046875,0.38446044921875
1769661906671422200,9.588422119140626,0.0608673095703125,0.919891357421875,0.3850555419921875
1769661906681410000,9.59841015625,0.0607147216796875,0.9141082763671875,0.38592529296875
1769661906691398100,9.608398193359376,0.0627288818359375,0.9093017578125,0.3868560791015625
1769661906701387300,9.61838720703125,0.0605010986328125,0.9100494384765625,0.3867950439453125
1769661906711375400,9.628375244140624,0.0570831298828125,0.9124755859375,0.384552001953125
1769661906721363000,9.638363037109375,0.0549774169921875,0.9164276123046875,0.383392333984375
1769661906731351000,9.64835107421875,0.05316162109375,0.9202423095703125,0.38262939453125
1769661906741339100,9.658339111328125,0.054229736328125,0.9205322265625,0.383392333984375
1769661906751328300,9.668328369140625,0.0560455322265625,0.918792724609375,0.382476806640625
1769661906761316000,9.678316162109375,0.05682373046875,0.918426513671875,0.3812713623046875
1769661906771304200,9.68830419921875,0.0574798583984375,0.917510986328125,0.3827056884765625
1769661906781292300,9.698292236328125,0.05694580078125,0.916107177734375,0.38153076171875
1769661906791280000,9.708280029296875,0.0563507080078125,0.9158935546875,0.3796539306640625
1769661906801269000,9.71826904296875,0.0548858642578125,0.913818359375,0.379547119140625
1769661906811257000,9.728257080078125,0.0553741455078125,0.9151611328125,0.380157470703125
1769661906821245200,9.7382451171875,0.05706787109375,0.918426513671875,0.382049560546875
1769661906831233000,9.74823291015625,0.05792236328125,0.9184417724609375,0.3826751708984375
1769661906841221000,9.75822119140625,0.058624267578125,0.91998291015625,0.384979248046875
1769661906851210200,9.768210205078125,0.057403564453125,0.91802978515625,0.383819580078125
1769661906861198000,9.778197998046876,0.0540618896484375,0.9141082763671875,0.3825225830078125
1769661906871186000,9.78818603515625,0.050567626953125,0.9116058349609375,0.381744384765625
1769661906881174000,9.798174072265626,0.05035400390625,0.9127044677734375,0.3837890625
1769661906891162000,9.808162109375,0.0508880615234375,0.912109375,0.3838958740234375
1769661906901151200,9.818151123046874,0.0493316650390625,0.9129486083984375,0.383209228515625
1769661906911139300,9.828139404296875,0.0478973388671875,0.9138641357421875,0.38238525390625
1769661906921127200,9.838127197265624,0.0523223876953125,0.91802978515625,0.3805084228515625
1769661906931115300,9.848115234375,0.052032470703125,0.92254638671875,0.3817291259765625
1769661906941104000,9.858104248046875,0.052490234375,0.923492431640625,0.38287353515625
1769661906951092200,9.86809228515625,0.0546875,0.9232330322265625,0.385040283203125
1769661906961080000,9.878080078125,0.05975341796875,0.9163055419921875,0.38507080078125
1769661906971068200,9.888068115234375,0.0598907470703125,0.909881591796875,0.3866729736328125
1769661906981056300,9.89805615234375,0.0556640625,0.906951904296875,0.389984130859375
1769661906991045000,9.908045166015626,0.056121826171875,0.9078216552734375,0.388336181640625
1769661907001033000,9.918032958984375,0.053192138671875,0.910797119140625,0.3858184814453125
1769661907011021000,9.92802099609375,0.0547637939453125,0.9128570556640625,0.386688232421875
1769661907021009200,9.938009033203125,0.0537567138671875,0.9148712158203125,0.3864288330078125
1769661907030997000,9.9479970703125,0.0476226806640625,0.9148712158203125,0.388763427734375
1769661907040986000,9.957986083984375,0.0465240478515625,0.9123382568359375,0.38934326171875
1769661907050974200,9.96797412109375,0.049285888671875,0.9136199951171875,0.3883056640625
1769661907060962300,9.97796240234375,0.0495758056640625,0.9167327880859375,0.3904266357421875
1769661907070950100,9.9879501953125,0.0537261962890625,0.918792724609375,0.3905029296875
1769661907080938000,9.99793798828125,0.05902099609375,0.91943359375,0.3900909423828125
1769661907090927000,10.007927001953124,0.05914306640625,0.9216766357421875,0.3919525146484375
1769661907100915200,10.017915283203125,0.0559844970703125,0.919708251953125,0.3935089111328125
1769661907110903000,10.027903076171874,0.055084228515625,0.91864013671875,0.3919677734375
1769661907120891100,10.03789111328125,0.0573577880859375,0.917510986328125,0.38897705078125
1769661907130879200,10.047879150390624,0.0545806884765625,0.914703369140625,0.387847900390625
1769661907140868000,10.0578681640625,0.05078125,0.915771484375,0.3857269287109375
1769661907150856000,10.06785595703125,0.04901123046875,0.9176483154296875,0.3839111328125
1769661907160844000,10.077843994140625,0.0454864501953125,0.9176177978515625,0.38330078125
1769661907170832100,10.08783203125,0.0446624755859375,0.9163970947265625,0.38372802734375
1769661907180821200,10.0978212890625,0.04345703125,0.9168243408203125,0.3873748779296875
1769661907190809300,10.107809326171875,0.043060302734375,0.9162139892578125,0.388702392578125
1769661907200797200,10.117797119140626,0.0428466796875,0.9158477783203125,0.390533447265625
1769661907210785000,10.127784912109375,0.044921875,0.9159698486328125,0.392486572265625
1769661907220772900,10.13777294921875,0.0509033203125,0.9141082763671875,0.3940582275390625
1769661907230761700,10.14776171875,0.05291748046875,0.912353515625,0.3918914794921875
1769661907240749800,10.157749755859374,0.0546875,0.910308837890625,0.391357421875
1769661907250737700,10.167737548828125,0.053619384765625,0.909698486328125,0.3902435302734375
1769661907260725800,10.177725830078124,0.05035400390625,0.909881591796875,0.386932373046875
1769661907270713900,10.1877138671875,0.0470428466796875,0.9102020263671875,0.388336181640625
1769661907280702700,10.19770263671875,0.0434112548828125,0.9128265380859375,0.3887786865234375
1769661907290690600,10.207690673828125,0.0425872802734375,0.915802001953125,0.38787841796875
1769661907300678700,10.2176787109375,0.042724609375,0.9159088134765625,0.38946533203125
1769661907310666800,10.227666748046875,0.0435638427734375,0.9147186279296875,0.39129638671875
1769661907320654800,10.23765478515625,0.0422515869140625,0.91510009765625,0.3945770263671875
1769661907330643700,10.247643798828125,0.04327392578125,0.914642333984375,0.398529052734375
1769661907340631800,10.2576318359375,0.045440673828125,0.9129486083984375,0.4002685546875
1769661907350620000,10.267619873046876,0.0494384765625,0.910736083984375,0.400848388671875
1769661907360607700,10.277607666015625,0.0532989501953125,0.90985107421875,0.3984527587890625
1769661907370595600,10.287595703125,0.054443359375,0.9104461669921875,0.3961944580078125
1769661907380584700,10.297584716796875,0.0515289306640625,0.912750244140625,0.3927764892578125
1769661907390572800,10.30757275390625,0.046600341796875,0.9148406982421875,0.3898468017578125
1769661907400561000,10.317560791015625,0.0416259765625,0.91632080078125,0.38983154296875
1769661907410548700,10.327548828125,0.0428009033203125,0.9195556640625,0.3896484375
1769661907420536800,10.337536865234375,0.04302978515625,0.919403076171875,0.38885498046875
1769661907430525700,10.347525634765624,0.0443878173828125,0.917938232421875,0.3899688720703125
1769661907440513800,10.357513671875,0.0456695556640625,0.916473388671875,0.3885498046875
1769661907450501600,10.367501708984374,0.048309326171875,0.913787841796875,0.3856048583984375
1769661907460489700,10.37748974609375,0.0486602783203125,0.912445068359375,0.3890838623046875
1769661907470478800,10.387478759765624,0.0478057861328125,0.9157257080078125,0.390716552734375
1769661907480467000,10.397467041015625,0.0500946044921875,0.91552734375,0.394378662109375
1769661907490454800,10.407454833984374,0.0487213134765625,0.9171905517578125,0.3973388671875
1769661907500442600,10.417442626953125,0.0501556396484375,0.917266845703125,0.3980560302734375
1769661907510430700,10.4274306640625,0.052734375,0.9159088134765625,0.395172119140625
1769661907520419800,10.437419921875,0.05218505859375,0.9152679443359375,0.393463134765625
1769661907530407700,10.44740771484375,0.05224609375,0.9135894775390625,0.3936614990234375
1769661907540395800,10.457395751953126,0.050384521484375,0.91314697265625,0.3924560546875
1769661907550383900,10.4673837890625,0.0490264892578125,0.9119873046875,0.39117431640625
1769661907560372000,10.4773720703125,0.04754638671875,0.9125213623046875,0.3899688720703125
1769661907570360600,10.487360595703125,0.0498046875,0.9132843017578125,0.38836669921875
1769661907580348700,10.4973486328125,0.050689697265625,0.915557861328125,0.38812255859375
1769661907590336800,10.507336669921875,0.048492431640625,0.9172515869140625,0.384857177734375
1769661907600324900,10.517324951171876,0.046844482421875,0.917083740234375,0.384307861328125
1769661907610312700,10.527312744140625,0.0484771728515625,0.91607666015625,0.3835601806640625
1769661907620301800,10.5373017578125,0.0495147705078125,0.914093017578125,0.3842315673828125
1769661907630290000,10.5472900390625,0.052886962890625,0.9118194580078125,0.38592529296875
1769661907640277800,10.55727783203125,0.052459716796875,0.9134063720703125,0.386993408203125
1769661907650265600,10.567265625,0.0531158447265625,0.9142913818359375,0.386993408203125
1769661907660253700,10.577253662109374,0.0514984130859375,0.917266845703125,0.3863983154296875
1769661907670242800,10.587242919921875,0.053192138671875,0.917572021484375,0.3867340087890625
1769661907680231000,10.59723095703125,0.056243896484375,0.9177398681640625,0.3876800537109375
1769661907690218800,10.60721875,0.0569000244140625,0.9146881103515625,0.3870391845703125
1769661907700206800,10.617206787109374,0.0540618896484375,0.9099884033203125,0.3858489990234375
1769661907710195700,10.62719580078125,0.0538177490234375,0.9063568115234375,0.3867034912109375
1769661907720183800,10.637183837890625,0.0553131103515625,0.9069976806640625,0.386688232421875
1769661907730171600,10.647171630859376,0.0513916015625,0.9080810546875,0.38543701171875
1769661907740159700,10.65715966796875,0.0472564697265625,0.9131011962890625,0.38555908203125
1769661907750147800,10.66714794921875,0.0442657470703125,0.9198455810546875,0.3854522705078125
1769661907760137000,10.677136962890625,0.0476837158203125,0.9276580810546875,0.3840789794921875
1769661907770124800,10.687124755859376,0.053009033203125,0.93133544921875,0.385833740234375
1769661907780112600,10.697112548828125,0.0561981201171875,0.929290771484375,0.3866424560546875
1769661907790100700,10.707100830078126,0.05975341796875,0.9246368408203125,0.387603759765625
1769661907800088600,10.717088623046875,0.0599517822265625,0.920440673828125,0.3852386474609375
1769661907810077700,10.72707763671875,0.06134033203125,0.91546630859375,0.3837432861328125
1769661907820065800,10.737065673828125,0.060211181640625,0.912506103515625,0.383209228515625
1769661907830054000,10.747053955078124,0.0582122802734375,0.9118499755859375,0.383087158203125
1769661907840041700,10.757041748046875,0.0576934814453125,0.9128570556640625,0.3858795166015625
1769661907850029800,10.76702978515625,0.057037353515625,0.9110565185546875,0.3878173828125
1769661907860018700,10.777018798828125,0.05853271484375,0.9108123779296875,0.3866729736328125
1769661907870006800,10.7870068359375,0.0574951171875,0.9137420654296875,0.3860015869140625
1769661907879995000,10.796994873046875,0.0565948486328125,0.918701171875,0.383087158203125
1769661907889982700,10.806982666015625,0.0565185546875,0.9231719970703125,0.380828857421875
1769661907899971800,10.816971923828126,0.0541229248046875,0.924407958984375,0.380340576171875
1769661907909959700,10.826959716796875,0.053619384765625,0.9256439208984375,0.3812408447265625
1769661907919947800,10.83694775390625,0.0537109375,0.92584228515625,0.3851470947265625
1769661907929935600,10.846935546875,0.05517578125,0.924102783203125,0.3849029541015625
1769661907939923700,10.856923828125,0.056427001953125,0.9241485595703125,0.38531494140625
1769661907949912800,10.866912841796875,0.05682373046875,0.9232177734375,0.385711669921875
1769661907959901000,10.87690087890625,0.056976318359375,0.919281005859375,0.38372802734375
1769661907969888800,10.886888671875,0.0572662353515625,0.916015625,0.38250732421875
1769661907979876900,10.896876953125,0.057586669921875,0.916107177734375,0.3826446533203125
1769661907989864700,10.90686474609375,0.058685302734375,0.9155731201171875,0.380401611328125
1769661907999853800,10.916853759765624,0.056243896484375,0.915313720703125,0.3801116943359375
1769661908009841700,10.926841552734375,0.0539398193359375,0.917510986328125,0.37982177734375
1769661908019829800,10.936829833984374,0.0550994873046875,0.9187469482421875,0.3800201416015625
1769661908029817900,10.94681787109375,0.0565948486328125,0.917449951171875,0.379119873046875
1769661908039805700,10.9568056640625,0.0572509765625,0.9178009033203125,0.378448486328125
1769661908049794600,10.966794677734375,0.0575714111328125,0.91766357421875,0.37994384765625
1769661908059782700,10.97678271484375,0.0541839599609375,0.914215087890625,0.3812103271484375
1769661908069770800,10.986770751953125,0.04949951171875,0.9145355224609375,0.3812103271484375
1769661908079758600,10.996758544921875,0.048858642578125,0.91845703125,0.3820343017578125
1769661908089746700,11.00674658203125,0.0485382080078125,0.92401123046875,0.3809967041015625
1769661908099735800,11.01673583984375,0.0482635498046875,0.927734375,0.3815155029296875
1769661908109724000,11.026723876953126,0.05126953125,0.9272918701171875,0.3809814453125
1769661908119711700,11.036711669921875,0.05291748046875,0.9231109619140625,0.3817901611328125
1769661908129699600,11.046699462890626,0.05548095703125,0.9185333251953125,0.38214111328125
1769661908139688700,11.056688720703125,0.054595947265625,0.9141387939453125,0.38433837890625
1769661908149676800,11.0666767578125,0.0550537109375,0.913787841796875,0.384979248046875
1769661908159665000,11.076664794921875,0.0555877685546875,0.9142913818359375,0.38311767578125
1769661908169652700,11.08665283203125,0.055877685546875,0.912994384765625,0.3805084228515625
1769661908179640800,11.096640869140625,0.0546722412109375,0.91534423828125,0.3813323974609375
1769661908189629700,11.106629638671874,0.053436279296875,0.917816162109375,0.38250732421875
1769661908199617800,11.11661767578125,0.0529022216796875,0.91790771484375,0.3827972412109375
1769661908209605600,11.126605712890624,0.0540618896484375,0.9171600341796875,0.3838958740234375
1769661908219594200,11.13659423828125,0.0560150146484375,0.9179840087890625,0.3835296630859375
1769661908229582300,11.146582275390625,0.0572509765625,0.9188385009765625,0.3856964111328125
1769661908239571500,11.156571533203126,0.056610107421875,0.9197998046875,0.3874359130859375
1769661908249559000,11.16655908203125,0.0580596923828125,0.9203948974609375,0.386627197265625
1769661908259547100,11.176547119140626,0.058990478515625,0.9211273193359375,0.3873443603515625
1769661908269535200,11.18653515625,0.0588226318359375,0.9186553955078125,0.386474609375
1769661908279523300,11.1965234375,0.059844970703125,0.9148101806640625,0.3862457275390625
1769661908289512200,11.20651220703125,0.062774658203125,0.9119110107421875,0.38671875
1769661908299500300,11.216500244140626,0.0619049072265625,0.9105682373046875,0.3861846923828125
1769661908309488400,11.22648828125,0.0575408935546875,0.9098663330078125,0.385711669921875
1769661908319476500,11.2364765625,0.053009033203125,0.9116363525390625,0.3861541748046875
1769661908329465000,11.246465087890625,0.0514984130859375,0.914825439453125,0.3858489990234375
1769661908339453200,11.256453125,0.0531005859375,0.918792724609375,0.3856964111328125
1769661908349441300,11.266441162109375,0.050750732421875,0.919921875,0.386077880859375
1769661908359429400,11.276429443359374,0.0489654541015625,0.9225921630859375,0.3857421875
1769661908369417200,11.286417236328125,0.04949951171875,0.9215087890625,0.3866729736328125
1769661908379406300,11.29640625,0.0515289306640625,0.917144775390625,0.3888397216796875
1769661908389394200,11.306394287109375,0.05328369140625,0.9140777587890625,0.3892059326171875
1769661908399382300,11.31638232421875,0.056182861328125,0.911712646484375,0.387420654296875
1769661908409370000,11.3263701171875,0.058380126953125,0.9137725830078125,0.38592529296875
1769661908419358200,11.336358154296875,0.0611572265625,0.916595458984375,0.38385009765625
1769661908429347300,11.346347412109376,0.061737060546875,0.9173583984375,0.3830108642578125
1769661908439335400,11.35633544921875,0.0582427978515625,0.918670654296875,0.385498046875
1769661908449323300,11.3663232421875,0.0562591552734375,0.918212890625,0.3876190185546875
1769661908459311400,11.376311279296875,0.05108642578125,0.915802001953125,0.390655517578125
1769661908469300200,11.38630029296875,0.04876708984375,0.9157257080078125,0.38922119140625
1769661908479288300,11.396288330078125,0.048797607421875,0.9160919189453125,0.38873291015625
1769661908489276200,11.406276123046876,0.047882080078125,0.91802978515625,0.38763427734375
1769661908499264300,11.41626416015625,0.04779052734375,0.917266845703125,0.38671875
1769661908509252400,11.42625244140625,0.048583984375,0.9180755615234375,0.38507080078125
1769661908519241200,11.4362412109375,0.0495758056640625,0.9188995361328125,0.386932373046875
1769661908529229000,11.44622900390625,0.0513153076171875,0.9192047119140625,0.39019775390625
1769661908539217200,11.456217041015625,0.0506744384765625,0.918548583984375,0.391265869140625
1769661908549205200,11.466205322265624,0.0482330322265625,0.914794921875,0.3911590576171875
1769661908559193300,11.476193359375,0.047821044921875,0.912872314453125,0.389312744140625
1769661908569182200,11.48618212890625,0.0519256591796875,0.91351318359375,0.3881683349609375
1769661908579170300,11.49617041015625,0.052490234375,0.9144744873046875,0.388092041015625
1769661908589158400,11.506158447265625,0.0514373779296875,0.91680908203125,0.388153076171875
1769661908599146200,11.516146240234375,0.051513671875,0.91790771484375,0.3863983154296875
1769661908609135000,11.526135009765625,0.05267333984375,0.9174957275390625,0.3854522705078125
1769661908619123200,11.536123291015626,0.0508880615234375,0.918121337890625,0.386871337890625
1769661908629111300,11.546111328125,0.049957275390625,0.91754150390625,0.387481689453125
1769661908639099400,11.556099365234376,0.0521697998046875,0.918975830078125,0.3893280029296875
1769661908649087200,11.566087158203125,0.052093505859375,0.91943359375,0.38818359375
1769661908659076000,11.576076171875,0.051605224609375,0.919921875,0.3878631591796875
1769661908669064200,11.586064208984375,0.048828125,0.917999267578125,0.3891448974609375
1769661908679052300,11.59605224609375,0.04852294921875,0.914520263671875,0.3899383544921875
1769661908689040100,11.6060400390625,0.0503997802734375,0.912689208984375,0.389556884765625
1769661908699028200,11.6160283203125,0.048736572265625,0.910797119140625,0.3903961181640625
1769661908709017300,11.626017333984375,0.045806884765625,0.909759521484375,0.3909912109375
1769661908719005400,11.63600537109375,0.0486297607421875,0.9134063720703125,0.3896942138671875
1769661908728993300,11.6459931640625,0.0491790771484375,0.9177093505859375,0.3880462646484375
1769661908738981000,11.655981201171874,0.04705810546875,0.922271728515625,0.386383056640625
1769661908748969200,11.66596923828125,0.0470733642578125,0.922454833984375,0.3880462646484375
1769661908758958300,11.675958251953125,0.0493927001953125,0.9232330322265625,0.3876190185546875
1769661908768946200,11.6859462890625,0.050506591796875,0.921356201171875,0.390228271484375
1769661908778934300,11.695934326171875,0.05535888671875,0.9158935546875,0.39215087890625
1769661908788922400,11.70592236328125,0.055999755859375,0.912689208984375,0.3929290771484375
1769661908798911200,11.7159111328125,0.0552978515625,0.9098968505859375,0.3924102783203125
1769661908808899000,11.725899169921876,0.0534515380859375,0.9070892333984375,0.39141845703125
1769661908818887200,11.73588720703125,0.0509185791015625,0.90594482421875,0.3896942138671875
1769661908828875300,11.745875244140626,0.052947998046875,0.9067535400390625,0.385406494140625
1769661908838863400,11.75586328125,0.05133056640625,0.91070556640625,0.384613037109375
1769661908848852200,11.765852294921874,0.047393798828125,0.91436767578125,0.385955810546875
1769661908858840300,11.77584033203125,0.0401763916015625,0.919189453125,0.3861236572265625
1769661908868828400,11.785828369140624,0.036712646484375,0.9205322265625,0.38604736328125
1769661908878816300,11.795816162109375,0.039276123046875,0.9187774658203125,0.3869476318359375
1769661908888804000,11.80580419921875,0.0446014404296875,0.9175262451171875,0.388458251953125
1769661908898793200,11.815793212890625,0.049102783203125,0.915435791015625,0.3908843994140625
1769661908908781300,11.82578125,0.04901123046875,0.914398193359375,0.3903350830078125
1769661908918769400,11.835769287109375,0.05450439453125,0.913330078125,0.3902587890625
1769661908928757200,11.84575732421875,0.0552520751953125,0.9145050048828125,0.3894805908203125
1769661908938745300,11.855745361328125,0.0558319091796875,0.91693115234375,0.388763427734375
1769661908948734200,11.865734130859375,0.053314208984375,0.919097900390625,0.387420654296875
1769661908958722300,11.875722412109376,0.051300048828125,0.9192657470703125,0.387176513671875
1769661908968710100,11.885710205078125,0.0491790771484375,0.918914794921875,0.3857574462890625
1769661908978698200,11.8956982421875,0.0509796142578125,0.91802978515625,0.3839111328125
1769661908988687400,11.905687255859375,0.050384521484375,0.9171905517578125,0.3850250244140625
1769661908998675500,11.915675537109376,0.049163818359375,0.91607666015625,0.38446044921875
1769661909008663300,11.925663330078125,0.048980712890625,0.9168243408203125,0.3850860595703125
1769661909018651100,11.935651123046876,0.0480499267578125,0.9182281494140625,0.3864898681640625
1769661909028639200,11.94563916015625,0.04571533203125,0.917388916015625,0.38641357421875
1769661909038628400,11.95562841796875,0.0463409423828125,0.916351318359375,0.3868408203125
1769661909048616200,11.9656162109375,0.04559326171875,0.9178009033203125,0.3882598876953125
1769661909058604300,11.975604248046874,0.04638671875,0.9170989990234375,0.387176513671875
1769661909068592400,11.98559228515625,0.0473785400390625,0.915557861328125,0.387786865234375
1769661909078580200,11.995580322265624,0.04815673828125,0.9154052734375,0.3883056640625
1769661909088569000,12.005569091796875,0.0479278564453125,0.9158782958984375,0.3880767822265625
1769661909098557200,12.01555712890625,0.0472412109375,0.916046142578125,0.388275146484375
1769661909108545300,12.025545166015625,0.0445556640625,0.91510009765625,0.3889007568359375
1769661909118533400,12.035533447265625,0.043060302734375,0.915924072265625,0.391510009765625
1769661909128522200,12.045522216796876,0.0435943603515625,0.91619873046875,0.38922119140625
1769661909138510300,12.05551025390625,0.0424346923828125,0.9143829345703125,0.39031982421875
1769661909148498200,12.065498291015626,0.0419464111328125,0.912750244140625,0.3885955810546875
1769661909158486300,12.075486328125,0.0430755615234375,0.9119110107421875,0.3886566162109375
1769661909168474000,12.08547412109375,0.045806884765625,0.913177490234375,0.3877410888671875
1769661909178463200,12.095463134765625,0.0457763671875,0.9121856689453125,0.3890533447265625
1769661909188451300,12.105451416015624,0.0436553955078125,0.91204833984375,0.3888092041015625
1769661909198439400,12.115439453125,0.042144775390625,0.91534423828125,0.3896484375
1769661909208427300,12.12542724609375,0.04010009765625,0.9171295166015625,0.3903350830078125
1769661909218415400,12.135415283203125,0.04119873046875,0.9173736572265625,0.3924102783203125
1769661909228404000,12.145404052734374,0.0418701171875,0.9199676513671875,0.3931121826171875
1769661909238392000,12.15539208984375,0.0421600341796875,0.9205474853515625,0.3939666748046875
1769661909248380000,12.1653798828125,0.044677734375,0.9191436767578125,0.3939056396484375
1769661909258368000,12.175367919921875,0.0455780029296875,0.918548583984375,0.391815185546875
1769661909268356000,12.185356201171874,0.044189453125,0.9181976318359375,0.3912506103515625
1769661909278345200,12.19534521484375,0.043914794921875,0.91729736328125,0.388458251953125
1769661909288333000,12.2053330078125,0.0453948974609375,0.9162445068359375,0.387725830078125
1769661909298321000,12.21532080078125,0.0449066162109375,0.9147186279296875,0.38812255859375
1769661909308309000,12.22530908203125,0.0447845458984375,0.9137725830078125,0.388153076171875
1769661909318298000,12.235298095703126,0.0461273193359375,0.9142608642578125,0.3877716064453125
1769661909328286000,12.245285888671875,0.0428619384765625,0.9132080078125,0.38873291015625
1769661909338274000,12.255274169921876,0.04443359375,0.9130706787109375,0.3889312744140625
1769661909348262100,12.26526220703125,0.04315185546875,0.91357421875,0.389984130859375
1769661909358250000,12.27525,0.042236328125,0.9139862060546875,0.388702392578125
1769661909368238800,12.28523876953125,0.0391845703125,0.913330078125,0.39080810546875
1769661909378227000,12.29522705078125,0.0417633056640625,0.91265869140625,0.3917694091796875
1769661909388215000,12.305215087890625,0.0404205322265625,0.911651611328125,0.39385986328125
1769661909398203000,12.315202880859376,0.0404815673828125,0.9102783203125,0.392547607421875
1769661909408191000,12.32519091796875,0.043609619140625,0.91357421875,0.392486572265625
1769661909418180000,12.33518017578125,0.04302978515625,0.9114990234375,0.3903961181640625
1769661909428168000,12.34516796875,0.04248046875,0.912841796875,0.39404296875
1769661909438155800,12.35515576171875,0.042694091796875,0.9180450439453125,0.395751953125
1769661909448144000,12.365143798828125,0.0444488525390625,0.920684814453125,0.39300537109375
1769661909458133000,12.375133056640625,0.045318603515625,0.9210205078125,0.3944854736328125
1769661909468121000,12.38512109375,0.0414886474609375,0.91729736328125,0.3947601318359375
1769661909478109200,12.395109130859375,0.0464019775390625,0.9197998046875,0.398040771484375
1769661909488097000,12.405096923828125,0.0497894287109375,0.909942626953125,0.3909454345703125
1769661909498085000,12.415085205078125,0.0532989501953125,0.8990631103515625,0.3867340087890625
1769661909508074000,12.425073974609376,0.048248291015625,0.8968505859375,0.392059326171875
1769661909518062000,12.43506201171875,0.03887939453125,0.9023895263671875,0.3940277099609375
1769661909528050000,12.4450498046875,0.0362091064453125,0.9084014892578125,0.3886566162109375
1769661909538038000,12.4550380859375,0.0426025390625,0.918121337890625,0.390380859375
1769661909548026000,12.465026123046876,0.0445709228515625,0.9220733642578125,0.3917388916015625
1769661909558015200,12.47501513671875,0.045257568359375,0.9232635498046875,0.389190673828125
1769661909568002800,12.4850029296875,0.048065185546875,0.9212799072265625,0.388427734375
1769661909577991000,12.494990966796875,0.0490264892578125,0.91461181640625,0.3879547119140625
1769661909587979000,12.50497900390625,0.049407958984375,0.908905029296875,0.393890380859375
1769661909597968100,12.514968017578125,0.047607421875,0.90496826171875,0.3954925537109375
1769661909607956000,12.5249560546875,0.0460205078125,0.9092559814453125,0.3930206298828125
1769661909617944000,12.534944091796875,0.0399932861328125,0.913787841796875,0.3901519775390625
1769661909627932200,12.54493212890625,0.0363311767578125,0.9150848388671875,0.388092041015625
1769661909637920000,12.554919921875,0.0355377197265625,0.9172821044921875,0.3880157470703125
1769661909647908900,12.564908935546875,0.035400390625,0.9153289794921875,0.3900604248046875
1769661909657897000,12.57489697265625,0.035400390625,0.91192626953125,0.391754150390625
1769661909667885000,12.584885009765625,0.0358734130859375,0.9107513427734375,0.3940582275390625
1769661909677873000,12.594872802734375,0.0384979248046875,0.9117279052734375,0.3954925537109375
1769661909687861000,12.604861083984375,0.040313720703125,0.911407470703125,0.3954315185546875
1769661909697850000,12.61485009765625,0.04022216796875,0.9131927490234375,0.39471435546875
1769661909707838000,12.624837890625,0.0408782958984375,0.9157867431640625,0.3931884765625
1769661909717825800,12.63482568359375,0.0419769287109375,0.9147491455078125,0.39337158203125
1769661909727814000,12.64481396484375,0.0425262451171875,0.9144439697265625,0.39459228515625
1769661909737802000,12.654802001953126,0.0455780029296875,0.9150848388671875,0.395660400390625
1769661909747791000,12.664791015625,0.0496978759765625,0.914703369140625,0.399261474609375
1769661909757779200,12.674779296875,0.0507354736328125,0.9118499755859375,0.3991851806640625
1769661909767767000,12.68476708984375,0.0482330322265625,0.9105377197265625,0.397125244140625
1769661909777755100,12.694755126953124,0.0445098876953125,0.9113922119140625,0.39569091796875
1769661909787744000,12.704743896484375,0.040863037109375,0.9097900390625,0.3925933837890625
1769661909797732000,12.714732177734374,0.0384674072265625,0.9101104736328125,0.3892669677734375
1769661909807720000,12.724719970703125,0.03533935546875,0.912017822265625,0.3866424560546875
1769661909817708000,12.7347080078125,0.032958984375,0.9139251708984375,0.38787841796875
1769661909827696000,12.744696044921875,0.031707763671875,0.916107177734375,0.3890228271484375
1769661909837685000,12.75468505859375,0.035858154296875,0.916412353515625,0.39007568359375
1769661909847672800,12.7646728515625,0.03997802734375,0.91693115234375,0.393951416015625
1769661909857661000,12.774660888671875,0.0428314208984375,0.915924072265625,0.395233154296875
1769661909867649000,12.78464892578125,0.048309326171875,0.9146575927734375,0.397613525390625
1769661909877636900,12.794636962890625,0.0511932373046875,0.9138641357421875,0.3970794677734375
1769661909887626000,12.8046259765625,0.0521087646484375,0.9136810302734375,0.3957977294921875
1769661909897614000,12.814614013671875,0.0509796142578125,0.913726806640625,0.3965911865234375
1769661909907602200,12.824602294921876,0.04791259765625,0.9150390625,0.395172119140625
1769661909917590000,12.834590087890625,0.048065185546875,0.917510986328125,0.3918914794921875
1769661909927577900,12.844577880859376,0.0440521240234375,0.918182373046875,0.39105224609375
1769661909937567000,12.85456689453125,0.0403594970703125,0.916717529296875,0.3917236328125
1769661909947555000,12.86455517578125,0.038604736328125,0.9141845703125,0.3930511474609375
1769661909957543000,12.87454296875,0.0377655029296875,0.912109375,0.3930511474609375
1769661909967531000,12.884531005859374,0.037872314453125,0.90936279296875,0.3940582275390625
1769661909977519900,12.894519775390625,0.0380859375,0.90966796875,0.39398193359375
1769661909987508000,12.904508056640625,0.0359039306640625,0.908721923828125,0.3903656005859375
1769661909997495800,12.914495849609375,0.0385589599609375,0.91192626953125,0.38983154296875
1769661910007484000,12.92448388671875,0.0388641357421875,0.9163970947265625,0.3916168212890625
1769661910017472000,12.934471923828125,0.0385589599609375,0.917572021484375,0.3924407958984375
1769661910027461000,12.944461181640625,0.0380096435546875,0.9185333251953125,0.39453125
1769661910037449200,12.95444921875,0.0440673828125,0.9141693115234375,0.3945159912109375
1769661910047437000,12.96443701171875,0.0477752685546875,0.911376953125,0.3975830078125
1769661910057425000,12.9744248046875,0.0503387451171875,0.9102783203125,0.3981170654296875
1769661910067413000,12.9844130859375,0.0501861572265625,0.90960693359375,0.4000396728515625
1769661910077402000,12.994402099609376,0.048126220703125,0.9102325439453125,0.3980560302734375
1769661910087390000,13.004389892578125,0.0481719970703125,0.911285400390625,0.3952789306640625
1769661910097378000,13.0143779296875,0.0453643798828125,0.9131317138671875,0.3933563232421875
1769661910107366100,13.0243662109375,0.0447998046875,0.9164886474609375,0.3926239013671875
1769661910117355000,13.03435498046875,0.043121337890625,0.9165191650390625,0.3919525146484375
1769661910127342800,13.0443427734375,0.0432586669921875,0.9163665771484375,0.391693115234375
1769661910137331000,13.0543310546875,0.043426513671875,0.91583251953125,0.39154052734375
1769661910147319000,13.064319091796875,0.04486083984375,0.9133453369140625,0.392364501953125
1769661910157307000,13.074306884765624,0.0483551025390625,0.9107818603515625,0.391326904296875
1769661910167296000,13.0842958984375,0.051239013671875,0.9100494384765625,0.3913421630859375
1769661910177284000,13.0942841796875,0.0522613525390625,0.910675048828125,0.38958740234375
1769661910187272200,13.104272216796875,0.050384521484375,0.9139862060546875,0.38787841796875
1769661910197259800,13.114259765625,0.0498809814453125,0.9164581298828125,0.388092041015625
1769661910207248000,13.124247802734375,0.0453338623046875,0.915130615234375,0.389862060546875
1769661910217237000,13.134237060546875,0.04266357421875,0.9156341552734375,0.39215087890625
1769661910227225600,13.1442255859375,0.0487060546875,0.9144134521484375,0.39288330078125
1769661910237213400,13.15421337890625,0.051239013671875,0.910797119140625,0.3920135498046875
1769661910247201500,13.164201416015626,0.050079345703125,0.9099884033203125,0.3935699462890625
1769661910257189600,13.174189697265625,0.0501251220703125,0.9109039306640625,0.393218994140625
