time,seconds_elapsed,z,y,x
1769661897142674200,0.059674072265625,0.004866926930844784,-0.019058912992477417,-0.010550378821790218
1769661897152662300,0.069662353515625,0.00675324397161603,-0.018746256828308105,-0.004478371702134609
1769661897162651400,0.0796513671875,0.006312224548310041,-0.010006295517086983,-0.00893836747854948
1769661897172639500,0.089639404296875,0.00592500064522028,0.00014034859486855567,-0.015014635398983955
1769661897182627300,0.09962744140625,0.0035393410362303257,0.003620301140472293,-0.013637248426675797
1769661897192615200,0.109615234375,0.004233627114444971,0.014003433287143707,-0.011208445765078068
1769661897202603300,0.119603271484375,0.007150054909288883,0.015065502375364304,-0.015528093092143536
1769661897212593000,0.129593017578125,0.013244698755443096,0.025365278124809265,-0.01739576831459999
1769661897222580700,0.139580810546875,0.010733604431152344,0.01619841158390045,-0.0292524266988039
1769661897232568800,0.14956884765625,0.010389257222414017,0.007802795618772507,-0.0307491235435009
1769661897242557000,0.159556884765625,0.007208644412457943,0.0065106297843158245,-0.02263607084751129
1769661897252544800,0.169544677734375,0.007670170161873102,0.006770288106054068,-0.00827763695269823
1769661897262533600,0.17953369140625,0.008959139697253704,0.0003920173039659858,0.0015046859625726938
1769661897272521700,0.189521728515625,0.010578341782093048,-0.011089668609201908,0.00638013519346714
1769661897282509800,0.199509765625,0.011714979074895382,-0.015533685684204102,0.015004515647888184
1769661897292498000,0.209497802734375,0.014704910106956959,-0.015486281365156174,0.019210180267691612
1769661897302485800,0.21948583984375,0.012835104949772358,-0.010310428217053413,0.019530557096004486
1769661897312474600,0.229474609375,0.013113405555486679,-0.0008990831556729972,0.015728896483778954
1769661897322462700,0.239462646484375,0.012763732112944126,0.002688993699848652,0.010078732855618
1769661897332450800,0.249450927734375,0.014975753612816334,0.011443602852523327,0.005782521795481443
1769661897342438700,0.259438720703125,0.015935556963086128,0.02490055561065674,0.0035262915771454573
1769661897352426800,0.2694267578125,0.015172561630606651,0.03906937316060066,0.005022189114242792
1769661897362415900,0.279415771484375,0.014386662282049656,0.04073997214436531,0.003347327234223485
1769661897372404000,0.289404052734375,0.01401648297905922,0.03909759968519211,-0.00293400464579463
1769661897382391800,0.299391845703125,0.009248891845345497,0.04062598943710327,-0.015311045572161674
1769661897392379600,0.309379638671875,0.009940515272319317,0.04153173044323921,-0.0258632879704237
1769661897402367700,0.31936767578125,0.012143215164542198,0.04603007435798645,-0.040220655500888824
1769661897412356900,0.32935693359375,0.012500079348683357,0.05655515566468239,-0.0460982546210289
1769661897422344700,0.3393447265625,0.013908358290791512,0.06597208976745605,-0.04542314261198044
1769661897432332800,0.349332763671875,0.021203555166721344,0.07503563165664673,-0.04553792253136635
1769661897442321000,0.35932080078125,0.025047829374670982,0.077248714864254,-0.04344627633690834
1769661897452308700,0.369308837890625,0.02966788038611412,0.0819539874792099,-0.048768606036901474
1769661897462297600,0.379297607421875,0.040763676166534424,0.09393768012523651,-0.0608990378677845
1769661897472285700,0.38928564453125,0.03416009992361069,0.09036771208047867,-0.06873645633459091
1769661897482273800,0.399273681640625,0.0307464599609375,0.0883045643568039,-0.06464796513319016
1769661897492261600,0.40926171875,0.03373346105217934,0.09177146852016449,-0.06403996795415878
1769661897502249700,0.419249755859375,0.03790024295449257,0.10257484763860703,-0.0715428963303566
1769661897512238800,0.42923876953125,0.04090775176882744,0.11704087257385254,-0.08263655751943588
1769661897522226700,0.439226806640625,0.04346305504441261,0.13267602026462555,-0.0923304632306099
1769661897532214500,0.449214599609375,0.058274224400520325,0.15741758048534393,-0.11478863656520844
1769661897542202600,0.45920263671875,0.05726808309555054,0.18218737840652466,-0.1328275501728058
1769661897552190700,0.469190673828125,0.043228961527347565,0.14624962210655212,-0.1355849951505661
1769661897562179800,0.479179931640625,0.04652249440550804,0.10246911644935608,-0.11892825365066528
1769661897572168000,0.48916796875,0.040333572775125504,0.07154928147792816,-0.07215302437543869
1769661897582155800,0.49915576171875,0.026853451505303383,0.08901829272508621,-0.05590347945690155
1769661897592144000,0.509143798828125,0.03160319849848747,0.10561937093734741,-0.0604148730635643
1769661897602132000,0.519132080078125,0.03335023298859596,0.09657527506351471,-0.04848551005125046
1769661897612120800,0.529120849609375,0.033240243792533875,0.08062800019979477,-0.037874411791563034
1769661897622108700,0.539108642578125,0.033485256135463715,0.06742244958877563,-0.030952056869864464
1769661897632096800,0.5490966796875,0.03488554432988167,0.058096058666706085,-0.016321448609232903
1769661897642084900,0.5590849609375,0.02847478538751602,0.06421760469675064,-0.013598632998764515
1769661897652072700,0.56907275390625,0.020298080518841743,0.07048268616199493,-0.022714899852871895
1769661897662061600,0.5790615234375,0.01170645747333765,0.07484894245862961,-0.032332904636859894
1769661897672049700,0.589049560546875,0.00899748969823122,0.07297753542661667,-0.04434802383184433
1769661897682037800,0.599037841796875,0.007543670013546944,0.07338234037160873,-0.05673172324895859
1769661897692025600,0.609025634765625,0.015782691538333893,0.08112388104200363,-0.06806773692369461
1769661897702013700,0.619013671875,0.02851206809282303,0.09919262677431107,-0.07604443281888962
1769661897712002800,0.6290029296875,0.03170306980609894,0.12604768574237823,-0.07524389028549194
1769661897721991000,0.638990966796875,0.032288163900375366,0.15254239737987518,-0.0680331140756607
1769661897731978800,0.648978759765625,0.02798769250512123,0.1582237184047699,-0.06381546705961227
1769661897741966800,0.658966796875,0.026208700612187386,0.14844299852848053,-0.06101062148809433
1769661897751954700,0.66895458984375,0.029564017429947853,0.13299933075904846,-0.052747100591659546
1769661897761943800,0.67894384765625,0.029204225167632103,0.10590246319770813,-0.03498381748795509
1769661897771931600,0.688931640625,0.018332667648792267,0.08009270578622818,-0.018035193905234337
1769661897781919700,0.698919677734375,0.007190801203250885,0.04841813072562218,-0.005792375188320875
1769661897791907800,0.708907958984375,0.0020631509833037853,-0.006644320674240589,0.018221348524093628
1769661897801896000,0.71889599609375,-0.008220645599067211,-0.07558583468198776,0.030893467366695404
1769661897811884500,0.728884521484375,-0.022663766518235207,-0.10633309930562973,0.03328019380569458
1769661897821872600,0.73887255859375,-0.028424717485904694,-0.1091936007142067,0.04524044692516327
1769661897831860700,0.74886083984375,-0.0382685586810112,-0.12350010126829147,0.05110872536897659
1769661897841848800,0.758848876953125,-0.03957004472613335,-0.14181731641292572,0.05459773167967796
1769661897851836700,0.768836669921875,-0.04164757952094078,-0.14077389240264893,0.04972254857420921
1769661897861825800,0.77882568359375,-0.0425538532435894,-0.1303313672542572,0.0378645583987236
1769661897871814000,0.78881396484375,-0.038352981209754944,-0.12148355692625046,0.01926504075527191
1769661897881801700,0.7988017578125,-0.03532097116112709,-0.11025246977806091,0.0016554208705201745
1769661897891789600,0.80878955078125,-0.03208896145224571,-0.08713170886039734,-0.007561246864497662
1769661897901777700,0.818777587890625,-0.026641996577382088,-0.06400588154792786,-0.012022574432194233
1769661897911766800,0.828766845703125,-0.0225596372038126,-0.042336005717515945,-0.010497648268938065
1769661897921755000,0.8387548828125,-0.019827499985694885,-0.021884791553020477,-0.008182828314602375
1769661897931742700,0.84874267578125,-0.01401808112859726,-0.00239205127581954,-0.0038043255917727947
1769661897941730800,0.858730712890625,-0.008942361921072006,0.010822554118931293,-0.0068299430422484875
1769661897951719000,0.868718994140625,-0.006884803995490074,0.015503591857850552,-0.005922337528318167
1769661897961707800,0.878707763671875,-0.0027563716284930706,0.018687933683395386,-0.005676261615008116
1769661897971695600,0.888695556640625,-0.003431216813623905,0.019750801846385002,-0.0029372002463787794
1769661897981683700,0.89868359375,-0.004203000571578741,0.013227388262748718,0.00035473305615596473
1769661897991671800,0.908671875,-0.004277302883565426,0.0020868529099971056,0.003513508476316929
1769661898001660000,0.918659912109375,-0.006867227144539356,-0.010292585007846355,0.005606220569461584
1769661898011648800,0.928648681640625,-0.008491489104926586,-0.02515888214111328,0.006740726996213198
1769661898021636600,0.93863671875,-0.011318966746330261,-0.040460873395204544,0.013834855519235134
1769661898031624700,0.948624755859375,-0.01696513406932354,-0.05444592982530594,0.01883946731686592
1769661898041612800,0.95861279296875,-0.022487198933959007,-0.06503545492887497,0.01834997907280922
1769661898051600600,0.9686005859375,-0.023452861234545708,-0.07002169638872147,0.014001569710671902
1769661898061589800,0.97858984375,-0.028014590963721275,-0.07069733738899231,0.0054727960377931595
1769661898071577900,0.988577880859375,-0.03135738894343376,-0.06586556881666183,0.0012865731259807944
1769661898081566000,0.99856591796875,-0.0317281037569046,-0.0569213405251503,-0.00018242653459310532
1769661898091553800,1.0085537109375,-0.02948359027504921,-0.04199432209134102,-0.0025979136116802692
1769661898101541600,1.018541748046875,-0.02473943494260311,-0.034390997141599655,-0.004235225263983011
1769661898111530800,1.02853076171875,-0.01666925847530365,-0.025351429358124733,0.0012743226252496243
1769661898121518800,1.038518798828125,-0.012679575942456722,-0.012388226576149464,0.0037851508241146803
1769661898131506700,1.048506591796875,-0.011546134948730469,0.004740959499031305,0.0057321880012750626
1769661898141494800,1.058494873046875,-0.008469118736684322,0.015207981690764427,0.0010644654976204038
1769661898151483000,1.06848291015625,-0.0023363912478089333,0.021644575521349907,-0.007995608262717724
1769661898161471700,1.0784716796875,0.0030333404429256916,0.021930333226919174,-0.015262842178344727
1769661898171459600,1.08845947265625,0.0006048039067536592,0.023451529443264008,-0.012762133963406086
1769661898181447700,1.09844775390625,0.001982190879061818,0.022455774247646332,-0.005653624422848225
1769661898191435800,1.108435791015625,-0.0043707797303795815,0.015660984441637993,0.007219030521810055
1769661898201423600,1.118423583984375,-0.008128234185278416,0.006301038898527622,0.016354737803339958
1769661898211412700,1.128412841796875,-0.01145851705223322,-0.003614442190155387,0.01353391818702221
1769661898221400800,1.13840087890625,-0.014574148692190647,-0.007136472500860691,-0.0010644654976204038
1769661898231388700,1.148388671875,-0.015558985993266106,-0.0006490123341791332,-0.010527475737035275
1769661898241376500,1.15837646484375,-0.01642904058098793,0.01133814174681902,-0.02069782093167305
1769661898251364600,1.168364501953125,-0.010945592075586319,0.029823409393429756,-0.01829751394689083
1769661898261353700,1.178353759765625,-0.005435245577245951,0.04434802383184433,-0.014158695936203003
1769661898271341600,1.188341552734375,-0.0018461032304912806,0.0521116703748703,-0.009928531013429165
1769661898281329700,1.19832958984375,-0.0005912217311561108,0.057977017015218735,-0.01480664312839508
1769661898291317800,1.20831787109375,-0.0002937466779258102,0.06186256930232048,-0.023330623283982277
1769661898301305900,1.218305908203125,-0.0011733887949958444,0.06843684613704681,-0.026933081448078156
1769661898311294500,1.22829443359375,-0.0004985437262803316,0.06800541281700134,-0.027342941612005234
1769661898321282600,1.238282470703125,0.0062485747039318085,0.06082473322749138,-0.025617744773626328
1769661898331270700,1.248270751953125,0.00782756321132183,0.053273607045412064,-0.023478427901864052
1769661898341258800,1.2582587890625,0.010935205966234207,0.03594148904085159,-0.012510731816291809
1769661898351246600,1.26824658203125,0.010544519871473312,0.017718011513352394,-0.01004943810403347
1769661898361234700,1.278234619140625,0.005104747135192156,0.004677043296396732,-0.012990366667509079
1769661898371223800,1.288223876953125,-0.002156627830117941,-0.004335093777626753,-0.02419881336390972
1769661898381211600,1.298211669921875,-0.006007025949656963,-0.0029057750944048166,-0.04388276860117912
1769661898391199500,1.308199462890625,-0.008037952706217766,-0.0001661812566453591,-0.059657204896211624
1769661898401187600,1.3181875,-0.0037918086163699627,0.0008106662426143885,-0.061479341238737106
1769661898411176700,1.3281767578125,0.006427539046853781,-0.006177202332764864,-0.05481904000043869
1769661898421164800,1.338164794921875,0.010295780375599861,-0.015107580460608006,-0.04097992181777954
1769661898431152600,1.348152587890625,0.0020809939596801996,-0.020792895928025246,-0.031620778143405914
1769661898441140700,1.358140625,-0.004294613376259804,-0.035831235349178314,-0.031328096985816956
1769661898451128800,1.36812890625,-0.010872088372707367,-0.055698417127132416,-0.05391170084476471
1769661898461117700,1.37811767578125,-0.0156527291983366,-0.06317124515771866,-0.08610745519399643
1769661898471105500,1.38810546875,-0.019269036129117012,-0.062185611575841904,-0.11437104642391205
1769661898481093600,1.39809375,-0.014664430171251297,-0.05557724088430405,-0.11519476771354675
1769661898491081700,1.408081787109375,-0.011080614291131496,-0.04099456965923309,-0.09336749464273453
1769661898501069800,1.41806982421875,-0.0015022892039269209,-0.029379993677139282,-0.062016766518354416
1769661898511058700,1.42805859375,0.0015875103417783976,-0.02237721160054207,-0.04170164093375206
1769661898521046500,1.438046630859375,0.004911934491246939,-0.014956844970583916,-0.04553712531924248
1769661898531034600,1.44803466796875,-0.0036043222062289715,-0.006255765445530415,-0.0569373182952404
1769661898541022700,1.458022705078125,-0.008549279533326626,0.012522449716925621,-0.0755099356174469
1769661898551010600,1.468010498046875,-0.0033931334037333727,0.01543434988707304,-0.0930660292506218
1769661898560999700,1.477999755859375,0.012004731222987175,0.010950651951134205,-0.09862138330936432
1769661898570987800,1.48798779296875,0.022301577031612396,0.017076188698410988,-0.08503739535808563
1769661898580975900,1.497975830078125,0.021689848974347115,0.02352183684706688,-0.06036693602800369
1769661898590963700,1.507963623046875,0.01565486006438732,0.019213907420635223,-0.045875344425439835
1769661898600951600,1.51795166015625,0.00689092930406332,0.006822219584137201,-0.049622148275375366
1769661898610939600,1.527939697265625,0.0015755260828882456,0.0011805793037638068,-0.06739501655101776
1769661898620928800,1.5379287109375,-0.0079735042527318,-0.00022264027211349458,-0.08677244186401367
1769661898630916600,1.54791650390625,-0.012563196010887623,0.017839983105659485,-0.10210852324962616
1769661898640904700,1.55790478515625,-0.007864846847951412,0.04272136464715004,-0.10616851598024368
1769661898650892800,1.567892822265625,0.0023997745011001825,0.060138970613479614,-0.10048985481262207
1769661898660881700,1.577881591796875,0.010671818628907204,0.08265093713998795,-0.0850943848490715
1769661898670869500,1.587869384765625,0.010772486217319965,0.10518447309732437,-0.07058282196521759
1769661898680857600,1.597857666015625,0.0008873652550391853,0.11949577182531357,-0.06670153141021729
1769661898690845700,1.607845703125,-0.01576165296137333,0.1314437836408615,-0.0679236575961113
1769661898700833500,1.61783349609375,-0.03545599430799484,0.13961301743984222,-0.07114581763744354
1769661898710821600,1.627821533203125,-0.049136120826005936,0.13627980649471283,-0.07891079038381577
1769661898720810800,1.637810791015625,-0.051182229071855545,0.13948333263397217,-0.09126226603984833
1769661898730798800,1.647798828125,-0.02371917851269245,0.13366085290908813,-0.10962050408124924
1769661898740786700,1.65778662109375,0.00555056007578969,0.11167912930250168,-0.12737686932086945
1769661898750774500,1.6677744140625,0.02178146131336689,0.09985389560461044,-0.14480432868003845
1769661898760762600,1.6777626953125,0.02412823960185051,0.1177857518196106,-0.1528819501399994
1769661898770751700,1.687751708984375,0.02039182372391224,0.14069613814353943,-0.14789678156375885
1769661898780739800,1.69773974609375,0.021345768123865128,0.1520659625530243,-0.13674986362457275
1769661898790727700,1.707727783203125,0.03557823225855827,0.1674252152442932,-0.12963148951530457
1769661898800715800,1.7177158203125,0.03654230013489723,0.1663556843996048,-0.10936696827411652
1769661898810704000,1.727703857421875,0.04291710630059242,0.144353449344635,-0.06577874720096588
1769661898820692700,1.737692626953125,0.03893594816327095,0.12206518650054932,-0.014158962294459343
1769661898830680600,1.7476806640625,0.03280801326036453,0.09587086737155914,0.01810550130903721
1769661898840668700,1.757668701171875,0.022471221163868904,0.048716939985752106,0.027042269706726074
1769661898850656800,1.76765673828125,0.021818745881319046,0.0056994310580194,0.03521018475294113
1769661898860644600,1.77764453125,0.011306717060506344,0.008729841560125351,0.04808550328016281
1769661898870633700,1.7876337890625,0.012476643547415733,0.008681905455887318,0.04309607297182083
1769661898880621600,1.79762158203125,0.009973005391657352,-0.005335377063602209,0.04284866526722908
1769661898890609700,1.807609619140625,0.006758836563676596,-0.0036373452749103308,0.039387352764606476
1769661898900597500,1.817597412109375,0.005434712860733271,0.0043801008723676205,0.038479216396808624
1769661898910585600,1.827585693359375,0.005673065781593323,0.018978483974933624,0.0439128614962101
1769661898920574700,1.83757470703125,0.005116997752338648,0.02286483533680439,0.04934943839907646
1769661898930562800,1.847562744140625,0.009576461277902126,0.025121597573161125,0.06112753599882126
1769661898940550700,1.857550537109375,0.013185576535761356,0.021271467208862305,0.06388577073812485
1769661898950538800,1.867538818359375,0.01173308864235878,0.022005433216691017,0.05895253270864487
1769661898960526600,1.877526611328125,0.010029198601841927,0.023141538724303246,0.04764927923679352
1769661898970515700,1.887515625,0.007622233126312494,0.028126975521445274,0.04598906263709068
1769661898980503600,1.897503662109375,0.003896737238392234,0.032945431768894196,0.04843411222100258
1769661898990491600,1.90749169921875,0.0029265477787703276,0.0352778285741806,0.05158117040991783
1769661899000479700,1.917479736328125,0.0009470200748182833,0.03765896335244179,0.047925446182489395
1769661899010467800,1.9274677734375,0.0017627463676035404,0.03169640898704529,0.04140017181634903
1769661899020456700,1.937456787109375,-0.0017251957906410098,0.024767929688096046,0.030491063371300697
1769661899030444500,1.947444580078125,-0.0062712118960917,0.01896277256309986,0.018690597265958786
1769661899040432600,1.9574326171875,-0.014035125263035297,0.005587045568972826,0.013697169721126556
1769661899050420700,1.967420654296875,-0.018916966393589973,-0.011622034944593906,0.007110373582690954
1769661899060408600,1.97740869140625,-0.026138659566640854,-0.027183949947357178,0.006102367304265499
1769661899070397700,1.987397705078125,-0.029267607256770134,-0.03502482920885086,0.004976915195584297
1769661899080385800,1.9973857421875,-0.02924550324678421,-0.04597415030002594,0.005649363622069359
1769661899090373600,2.00737353515625,-0.027350930497050285,-0.05391649529337883,0.002409628126770258
1769661899100361500,2.017361572265625,-0.022347649559378624,-0.05284270644187927,-0.0008362325606867671
1769661899110349600,2.027349609375,-0.019402991980314255,-0.04728948324918747,-0.00401604687795043
1769661899120338700,2.037338623046875,-0.01907222718000412,-0.04019881784915924,-0.006046440917998552
1769661899130326800,2.047326904296875,-0.01441302802413702,-0.0380733497440815,-0.009278719313442707
1769661899140314600,2.057314697265625,-0.013592774048447609,-0.039198003709316254,-0.0051984903402626514
1769661899150302700,2.067302734375,-0.010929613374173641,-0.03681527078151703,-0.0009536779834888875
1769661899160290800,2.077290771484375,-0.007447263691574335,-0.03525359556078911,0.00017896443023346364
1769661899170279700,2.08727978515625,-0.005622731987386942,-0.03382880240678787,0.0021044297609478235
1769661899180267500,2.097267578125,-0.0037590519059449434,-0.028810076415538788,-0.00008628641808172688
1769661899190255600,2.107255615234375,-0.0062613580375909805,-0.02594052068889141,-0.005405418109148741
1769661899200243700,2.11724365234375,-0.002005626680329442,-0.022340459749102592,-0.01540798507630825
1769661899210231800,2.127231689453125,0.0011459582019597292,-0.016201339662075043,-0.025245169177651405
1769661899220221000,2.137220947265625,0.0022213426418602467,-0.014041516929864883,-0.03292732313275337
1769661899230208800,2.147208740234375,0.004936701618134975,-0.017582722008228302,-0.03724057972431183
1769661899240196600,2.157196533203125,0.005893575493246317,-0.01944587007164955,-0.04217328503727913
1769661899250184700,2.167184814453125,0.00980309583246708,-0.020626714453101158,-0.04893265664577484
1769661899260172800,2.1771728515625,0.012044412083923817,-0.02143205516040325,-0.050986483693122864
1769661899270162000,2.187161865234375,0.013991182669997215,-0.017413610592484474,-0.04367956891655922
1769661899280149800,2.197149658203125,0.019404323771595955,-0.009672867134213448,-0.029087310656905174
1769661899290137900,2.207137939453125,0.01763305626809597,-0.003294330323114991,-0.016763800755143166
1769661899300126000,2.2171259765625,0.018685536459088326,0.001240766723640263,-0.006713562645018101
1769661899310113800,2.22711376953125,0.0161275714635849,-0.006760966964066029,-0.0008849684381857514
1769661899320102700,2.2371025390625,0.01176238339394331,-0.00956660695374012,0.0014916365034878254
1769661899330090800,2.2470908203125,0.010517089627683163,-0.008480303920805454,0.004412058740854263
1769661899340078800,2.257078857421875,0.007849134504795074,-0.014361628331243992,-0.0020474381744861603
1769661899350066700,2.267066650390625,0.0065436530858278275,-0.01273070927709341,-0.009459015913307667
1769661899360054800,2.2770546875,0.0062403189949691296,0.0007209177128970623,-0.016811205074191093
1769661899370043600,2.287043701171875,0.010095244273543358,0.008310394361615181,-0.018220815807580948
1769661899380031700,2.29703173828125,0.012661999091506004,0.013824469409883022,-0.019930299371480942
1769661899390019600,2.30701953125,0.012565060518682003,0.02064828760921955,-0.02002990059554577
1769661899400007700,2.317007568359375,0.01344736572355032,0.02467924728989601,-0.020136693492531776
1769661899409995800,2.326995849609375,0.01266732532531023,0.023499466478824615,-0.026279008015990257
1769661899419985000,2.33698486328125,0.012239621952176094,0.012326973490417004,-0.028778385370969772
1769661899429972700,2.34697265625,0.014033527113497257,-0.0005275722360238433,-0.03412707895040512
1769661899439960800,2.3569609375,0.01302285771816969,-0.008977515622973442,-0.030596258118748665
1769661899449948700,2.36694873046875,0.011564777232706547,-0.018608571961522102,-0.028540298342704773
1769661899459936800,2.376936767578125,0.011782357469201088,-0.024452878162264824,-0.023366309702396393
1769661899469925600,2.386925537109375,0.014758439734578133,-0.023607591167092323,-0.01623835787177086
1769661899479913700,2.396913818359375,0.017243701964616776,-0.021078387275338173,-0.003978496417403221
1769661899489901800,2.40690185546875,0.018629077821969986,-0.018373414874076843,0.007161506451666355
1769661899499890000,2.416889892578125,0.020126573741436005,-0.010303503833711147,0.017185378819704056
1769661899509877800,2.426877685546875,0.02118011936545372,-0.006351639050990343,0.01756967231631279
1769661899519866600,2.43686669921875,0.020556140691041946,-0.0011054781498387456,0.012617791071534157
1769661899529854700,2.446854736328125,0.01781974360346794,0.005724198184907436,0.0035366779193282127
1769661899539842800,2.4568427734375,0.013815946877002716,0.014844725839793682,-0.0056392434053123
1769661899549830700,2.46683056640625,0.012019644491374493,0.018846925348043442,-0.010242250747978687
1769661899559818800,2.47681884765625,0.009331982582807541,0.020487697795033455,-0.016707073897123337
1769661899569808000,2.486807861328125,0.0073141055181622505,0.02081313729286194,-0.021027520298957825
1769661899579795700,2.496795654296875,0.0009267800487577915,0.01531983446329832,-0.022609438747167587
1769661899589783600,2.506783447265625,-0.002232261700555682,0.006689594127237797,-0.02606169506907463
1769661899599771600,2.516771728515625,-0.0012815131340175867,0.0006969492533244193,-0.029093703255057335
1769661899609759700,2.526759765625,-0.00026525085559114814,-0.0016460998449474573,-0.028548819944262505
1769661899619748900,2.536748779296875,0.00126766471657902,0.0016162724932655692,-0.018672486767172813
1769661899629736700,2.54673681640625,0.006797985173761845,0.012255067937076092,-0.00574816670268774
1769661899639724800,2.556724853515625,0.009638512507081032,0.020317789167165756,0.004048004746437073
1769661899649713000,2.566712890625,0.012132296338677406,0.025662485510110855,0.0069489860907197
1769661899659701000,2.576700927734375,0.01600639708340168,0.02949344366788864,0.00836765207350254
1769661899669689600,2.586689697265625,0.01708843931555748,0.036554813385009766,0.005317533854395151
1769661899679677700,2.596677734375,0.016199477016925812,0.04544178396463394,0.0019001654582098126
1769661899689665800,2.606665771484375,0.01248995866626501,0.05470399186015129,-0.0033569145016372204
1769661899699654000,2.61665380859375,0.012013785541057587,0.059849485754966736,-0.007195594720542431
1769661899709641700,2.626641845703125,0.01290328148752451,0.06032991781830788,-0.012632970698177814
1769661899719630600,2.636630615234375,0.012706740759313107,0.053049102425575256,-0.011546667665243149
1769661899729618700,2.64661865234375,0.013891314156353474,0.044077180325984955,-0.010664628818631172
1769661899739606800,2.656606689453125,0.01194241363555193,0.0484442301094532,0.001454618526622653
1769661899749594600,2.6665947265625,0.009982593357563019,0.046303849667310715,0.007662447169423103
1769661899759582700,2.676582763671875,0.00974690355360508,0.04145503044128418,0.01317945122718811
1769661899769571800,2.68657177734375,0.005711415316909552,0.04667855426669121,0.012991698458790779
1769661899779560000,2.696559814453125,0.0017158746486529708,0.047990694642066956,0.01173628494143486
1769661899789547800,2.7065478515625,0.0003677825443446636,0.048883918672800064,0.006848584860563278
1769661899799535900,2.716535888671875,-0.0027366643771529198,0.04783383384346962,0.006138586439192295
1769661899809523700,2.726523681640625,-0.0008820389630272985,0.048646632581949234,0.012346681207418442
1769661899819512800,2.736512939453125,-0.0009773800848051906,0.047564856708049774,0.01769324392080307
1769661899829500700,2.746500732421875,-0.0021401161793619394,0.04676830396056175,0.021155884489417076
1769661899839488800,2.75648876953125,-0.003050118451938033,0.04061586782336235,0.015367238782346249
1769661899849476900,2.766476806640625,-0.0020682108588516712,0.035107918083667755,0.007767908275127411
1769661899859464700,2.776464599609375,-0.003317766124382615,0.02208985574543476,0.0073503246530890465
1769661899869453600,2.78645361328125,-0.0031278827227652073,0.012687033042311668,0.010613229125738144
1769661899879441700,2.796441650390625,-0.000681236619129777,0.008717591874301434,0.020737769082188606
1769661899889429800,2.8064296875,-0.002120675053447485,0.008637163788080215,0.03163249418139458
1769661899899417600,2.81641748046875,-0.0008372978190891445,0.009457950480282307,0.03512895852327347
1769661899909405700,2.82640576171875,-0.0023209447972476482,0.008276039734482765,0.02960609458386898
1769661899919394800,2.836394775390625,-0.005366269499063492,0.004327370319515467,0.016828780993819237
1769661899929383000,2.8463828125,-0.0073687005788087845,-0.0014863101532682776,0.005657086614519358
1769661899939370800,2.856370849609375,-0.005066663958132267,-0.007899468764662743,0.00809148233383894
1769661899949358600,2.866358642578125,-0.0024652881547808647,-0.01139992754906416,0.01461702585220337
1769661899959346700,2.8763466796875,-0.000922519015148282,-0.013488911092281342,0.018935341387987137
1769661899969335800,2.886335693359375,0.0015534218400716782,-0.008716792799532413,0.018758507445454597
1769661899979324000,2.896323974609375,-0.00018642126815393567,-0.004323375876992941,0.013629792258143425
1769661899989311700,2.906311767578125,-0.0012929646763950586,-0.00012783173588104546,-0.001210406655445695
1769661899999299800,2.9162998046875,-0.004692489746958017,-0.001978462329134345,-0.017177920788526535
1769661900009288000,2.926287841796875,-0.004126567859202623,-0.002537726191803813,-0.02159104496240616
1769661900019276800,2.93627685546875,-0.00033635724685154855,0.0009534116834402084,-0.02219531685113907
1769661900029264600,2.9462646484375,0.005747634451836348,0.0043502734042704105,-0.013220463879406452
1769661900039252700,2.956252685546875,0.011124822311103344,0.004750014282763004,-0.003364904085174203
1769661900049240800,2.96624072265625,0.013576262630522251,0.007897604256868362,0.002231995342299342
1769661900059228700,2.976228759765625,0.009996973909437656,0.0017102820565924048,-0.00096113485051319
1769661900069217800,2.9862177734375,0.005315935704857111,-0.006135923322290182,-0.011741877533495426
1769661900079205600,2.99620556640625,-0.0014024205738678575,-0.0075695025734603405,-0.021760689094662666
1769661900089193700,3.00619384765625,-0.005564408842474222,-0.01002413872629404,-0.025659291073679924
1769661900099181600,3.016181640625,-0.0007608651067130268,-0.007788680959492922,-0.026157034561038017
1769661900109169700,3.026169677734375,0.0047116647474467754,-0.005600095260888338,-0.021460816264152527
1769661900119158800,3.03615869140625,0.011152786202728748,0.00044022052315995097,-0.008930111303925514
1769661900129147000,3.04614697265625,0.015451394021511078,0.0026027073618024588,0.0005217132274992764
1769661900139134700,3.056134765625,0.015357917174696922,0.0012665993999689817,0.0031856733839958906
1769661900149122800,3.066122802734375,0.01522902026772499,-0.003102582646533847,0.004344680812209845
1769661900159111000,3.07611083984375,0.0118502676486969,-0.0046610645949840546,-0.00027377295191399753
1769661900169099800,3.086099853515625,0.008550344966351986,-0.004482100252062082,-0.007586280815303326
1769661900179087600,3.096087646484375,0.006339654792100191,-0.0034501252230256796,-0.006975085008889437
1769661900189075700,3.10607568359375,0.006854976527392864,0.00020586235041264445,-0.00845846626907587
1769661900199063800,3.116063720703125,0.006042179651558399,0.0007091998122632504,-0.011128018610179424
1769661900209052000,3.126052001953125,0.006452306639403105,-0.0007890945998951793,-0.016619190573692322
1769661900219040500,3.13604052734375,0.007790012285113335,-0.004092745948582888,-0.023445937782526016
1769661900229028600,3.146028564453125,0.009425193071365356,-0.008895490318536758,-0.027183150872588158
1769661900239016400,3.156016357421875,0.013287309557199478,-0.00708800321444869,-0.027216173708438873
1769661900249004500,3.166004638671875,0.013305951841175556,-0.01381115335971117,-0.026790069416165352
1769661900258992600,3.17599267578125,0.011886753141880035,-0.01589294709265232,-0.020962540060281754
1769661900268981800,3.185981689453125,0.013048690743744373,-0.012949620373547077,-0.009295763447880745
1769661900278969600,3.195969482421875,0.012615393847227097,-0.004776645917445421,-0.002371012233197689
1769661900288957700,3.205957763671875,0.012943228706717491,-0.004841094370931387,-0.0026013758033514023
1769661900298945800,3.21594580078125,0.011947207152843475,-0.00869229156523943,-0.00012223910016473383
1769661900308933600,3.22593359375,0.00965742114931345,-0.010972223244607449,-0.005111671518534422
1769661900318922500,3.235922607421875,0.009000685065984726,-0.014044445939362049,-0.00854555144906044
1769661900328910600,3.24591064453125,0.00812130980193615,-0.023141538724303246,-0.015341139398515224
1769661900338898700,3.255898681640625,0.006915430538356304,-0.02496260777115822,-0.018970761448144913
1769661900348886800,3.26588671875,0.006816893350332975,-0.02833496779203415,-0.01859126053750515
1769661900358874600,3.27587451171875,0.00983372237533331,-0.025713885203003883,-0.013567473739385605
1769661900368863500,3.285863525390625,0.010675281286239624,-0.020376645028591156,-0.0083700492978096
1769661900378851600,3.2958515625,0.012926450930535793,-0.01918940618634224,-0.00016058860637713224
1769661900388839700,3.305839599609375,0.012569587677717209,-0.021926337853074074,0.004520449787378311
1769661900398827500,3.31582763671875,0.011580755934119225,-0.026642795652151108,0.0037257622461766005
1769661900408815600,3.325815673828125,0.011811652220785618,-0.03603550046682358,-0.000892691605258733
1769661900418804700,3.3358046875,0.011743208393454552,-0.041783932596445084,-0.009707221761345863
1769661900428792800,3.345792724609375,0.011276623234152794,-0.05122430622577667,-0.013542707078158855
1769661900438780700,3.35578076171875,0.014494254253804684,-0.058943476527929306,-0.012178368866443634
1769661900448768500,3.3657685546875,0.01637471280992031,-0.06393663585186005,-0.00959723349660635
1769661900458756600,3.375756591796875,0.017074590548872948,-0.06731752306222916,-0.003623763332143426
1769661900468745700,3.385745849609375,0.01612597331404686,-0.06645119190216064,-0.00042450788896530867
1769661900478733600,3.395733642578125,0.013714213855564594,-0.05728699266910553,0.005629123654216528
1769661900488721700,3.4057216796875,0.013282249681651592,-0.047084953635931015,0.0052179316990077496
1769661900498709800,3.415709716796875,0.013765080831944942,-0.035711657255887985,0.0016250609187409282
1769661900508697900,3.42569775390625,0.01745435781776905,-0.024996696040034294,-0.0043308325111866
1769661900518686500,3.4356865234375,0.017287909984588623,-0.02191009186208248,-0.0022391858510673046
1769661900528674600,3.445674560546875,0.01512995082885027,-0.02562946267426014,0.0021584921050816774
1769661900538662700,3.45566259765625,0.015605857595801353,-0.03354011848568916,0.00418435875326395
1769661900548650800,3.465650634765625,0.013420733623206615,-0.04354960843920708,-0.00401631323620677
1769661900558638600,3.475638671875,0.011381285265088081,-0.05384805053472519,-0.017065269872546196
1769661900568627700,3.485627685546875,0.008432633243501186,-0.04730626195669174,-0.02527073584496975
1769661900578615600,3.495615478515625,0.005176652688533068,-0.029200229793787003,-0.027658792212605476
1769661900588603600,3.505603759765625,0.004875715356320143,-0.007786284200847149,-0.029763754457235336
1769661900598591500,3.515591552734375,0.007765777874737978,0.010667557828128338,-0.029992254450917244
1769661900608579600,3.52557958984375,0.009016398340463638,0.020710071548819542,-0.032583508640527725
1769661900618568700,3.535568603515625,0.008802546188235283,0.023789219558238983,-0.030887076631188393
1769661900628556800,3.545556884765625,0.010025203227996826,0.025648904964327812,-0.02533172257244587
1769661900638544600,3.555544677734375,0.006340187508612871,0.018483934924006462,-0.020669059827923775
1769661900648532700,3.56553271484375,0.005757221486419439,0.006976949516683817,-0.017483651638031006
1769661900658520600,3.5755205078125,0.002757969545200467,-0.007172158919274807,-0.013190370053052902
1769661900668509700,3.585509765625,0.00005459480235003866,-0.01986425183713436,-0.008215053007006645
1769661900678497500,3.59549755859375,-0.0021398498211055994,-0.025317873805761337,-0.007774033583700657
1769661900688485600,3.605485595703125,0.0019531622529029846,-0.03038799948990345,-0.00869016069918871
1769661900698473700,3.6154736328125,0.0003813646617345512,-0.025003353133797646,-0.013844176195561886
1769661900708461600,3.625461669921875,0.003710848744958639,-0.010452374815940857,-0.01757073774933815
1769661900718450400,3.635450439453125,0.007142065558582544,0.01113441027700901,-0.021318338811397552
1769661900728438500,3.6454384765625,0.010265421122312546,0.03050757572054863,-0.028057200834155083
1769661900738426600,3.655426513671875,0.00902944803237915,0.03916657716035843,-0.03801662474870682
1769661900748414500,3.66541455078125,0.007847802713513374,0.05200567841529846,-0.03915459290146828
1769661900758402600,3.675402587890625,0.008497348055243492,0.06306765228509903,-0.035952676087617874
1769661900768391700,3.6853916015625,0.010524545796215534,0.0660322830080986,-0.03176485374569893
1769661900778379800,3.6953798828125,0.008126636035740376,0.06454383581876755,-0.028414065018296242
1769661900788368000,3.705367919921875,-0.00020399813365656883,0.0657542422413826,-0.026039322838187218
1769661900798355500,3.71535546875,-0.013027651235461235,0.06311984360218048,-0.023620640859007835
1769661900808343600,3.725343505859375,-0.01071096770465374,0.05115319788455963,-0.03135446086525917
1769661900818332700,3.735332763671875,-0.00446905056014657,0.019034145399928093,-0.039322372525930405
1769661900828320800,3.74532080078125,-0.0035720979794859886,0.03777347877621651,-0.038050711154937744
1769661900838308600,3.75530859375,-0.0049308426678180695,0.05492290481925011,-0.026325613260269165
1769661900848296700,3.765296630859375,-0.006389189511537552,0.046790942549705505,-0.01631559059023857
1769661900858284800,3.775284912109375,-0.0007816377910785377,0.04697922617197037,-0.010453972034156322
1769661900868273700,3.785273681640625,-0.0011526161106303334,0.06224340200424194,-0.007389739155769348
1769661900878261500,3.795261474609375,-0.010479005984961987,0.0651790052652359,-0.008952748961746693
1769661900888249600,3.80524951171875,-0.010508833453059196,0.04947354272007942,-0.016268452629446983
1769661900898237700,3.81523779296875,-0.009002549573779106,0.03882409632205963,-0.02773762121796608
1769661900908225500,3.8252255859375,-0.010860104113817215,0.03905898705124855,-0.03569195047020912
1769661900918214700,3.835214599609375,-0.0109253516420722,0.039807867258787155,-0.03647784888744354
1769661900928202800,3.84520263671875,-0.009836385026574135,0.03967098146677017,-0.03597637638449669
1769661900938190600,3.855190673828125,-0.003240001853555441,0.04242175817489624,-0.02654319442808628
1769661900948178400,3.865178466796875,0.009239837527275085,0.05038674175739288,-0.01014051865786314
1769661900958166500,3.87516650390625,0.015401859767735004,0.05801190435886383,0.003787015099078417
1769661900968155600,3.88515576171875,0.022410234436392784,0.05422382429242134,0.003715375903993845
1769661900978143700,3.895143798828125,0.022529011592268944,0.040408141911029816,-0.001538241864182055
1769661900988131600,3.905131591796875,0.014919561333954334,0.03271773084998131,-0.008796154521405697
1769661900998119700,3.91511962890625,0.007315969560295343,0.011829229071736336,-0.020075174048542976
1769661901008107800,3.925107666015625,0.003282079705968499,0.001654089312069118,-0.02003309689462185
1769661901018096600,3.9350966796875,-0.0005185174522921443,0.005270662251859903,-0.01296320278197527
1769661901028084500,3.94508447265625,-0.004727909807115793,0.0013214604696258903,-0.0018943065078929067
1769661901038072600,3.955072509765625,-0.0037084517534822226,-0.00236275652423501,0.005814213305711746
1769661901048060700,3.965060791015625,-0.006387325469404459,0.0007014766451902688,0.003102582646533847
1769661901058048800,3.975048828125,-0.011685417965054512,-0.003887682454660535,-0.00532578956335783
1769661901068037600,3.98503759765625,-0.012251872569322586,-0.007749798707664013,-0.014132596552371979
1769661901078025500,3.995025390625,-0.012833240441977978,-0.005548429675400257,-0.024891501292586327
1769661901088013600,4.005013671875,-0.013071061111986637,-0.00005193164179218002,-0.029109416529536247
1769661901098001700,4.015001708984375,-0.006493852008134127,0.009967412799596786,-0.02683188021183014
1769661901107989500,4.024989501953125,-0.0012926984345540404,0.017883125692605972,-0.023207318037748337
1769661901117978600,4.034978515625,0.0018109495285898447,0.024935176596045494,-0.019179552793502808
1769661901127966700,4.044966796875,0.002311091171577573,0.028561869636178017,-0.00942226406186819
1769661901137954800,4.054954833984375,0.0008884305134415627,0.023986559361219406,0.0010692591313272715
1769661901147942700,4.064942626953125,-0.001350222621113062,0.01859578862786293,0.008238488808274269
1769661901157930500,4.074930419921875,-0.003492735791951418,0.013000753708183765,0.013140036724507809
1769661901167919600,4.084919677734375,-0.004147074185311794,0.010869159363210201,0.015874303877353668
1769661901177907700,4.09490771484375,-0.004448011517524719,0.001061802264302969,0.0174450371414423
1769661901187895600,4.1048955078125,-0.0027332021854817867,-0.006246710661798716,0.017110276967287064
1769661901197883600,4.114883544921875,-0.0021086910273879766,-0.007735684048384428,0.017111342400312424
1769661901207871700,4.124871826171875,-0.0034786208998411894,-0.002594451420009136,0.01625833287835121
1769661901217860900,4.13486083984375,-0.0031150993891060352,0.01407533884048462,0.011757323518395424
1769661901227849000,4.144848876953125,-0.00017976337403524667,0.030286533758044243,0.002257827902212739
1769661901237836800,4.1548369140625,0.005554022267460823,0.040706150233745575,-0.003915112931281328
1769661901247825000,4.164824951171875,0.010784470476210117,0.058331217616796494,-0.0075639099813997746
1769661901257813000,4.17481298828125,0.015691878274083138,0.07142358273267746,-0.0056863813661038876
1769661901267802000,4.184802001953125,0.01823120191693306,0.07127843797206879,-0.0007611314067617059
1769661901277790000,4.1947900390625,0.02021951787173748,0.0743330866098404,0.0039087217301130295
1769661901287777800,4.20477783203125,0.019813651219010353,0.06948373466730118,0.006088519003242254
1769661901297766000,4.214765869140625,0.01936730556190014,0.0639350414276123,0.007962319068610668
1769661901307754000,4.22475390625,0.019347332417964935,0.05842762440443039,0.007919974625110626
1769661901317742800,4.234742919921875,0.016441823914647102,0.05607179179787636,0.012020709924399853
1769661901327731000,4.24473095703125,0.01267211977392435,0.04787697643041611,0.014067881740629673
1769661901337719000,4.254718994140625,0.011210310272872448,0.04116634652018547,0.010097907856106758
1769661901347707100,4.26470703125,0.01098474022001028,0.03919001296162605,0.007074421271681786
1769661901357695000,4.274695068359375,0.010269415564835072,0.04334081709384918,0.0033577135764062405
1769661901367683800,4.284683837890625,0.009873669594526291,0.048345960676670074,-0.00299286050722003
1769661901377672000,4.294671875,0.012568522244691849,0.0504131056368351,-0.0065460498444736
1769661901387660000,4.304659912109375,0.016833841800689697,0.059363190084695816,-0.0014956312952563167
1769661901397648000,4.31464794921875,0.018064221367239952,0.06030302122235298,0.009133044630289078
1769661901407637000,4.324636962890625,0.01655207946896553,0.05717673525214195,0.01390010304749012
1769661901417624800,4.334624755859375,0.011295530945062637,0.05084533616900444,0.017343569546937943
1769661901427613000,4.344613037109375,0.00615136930719018,0.051355864852666855,0.014565627090632915
1769661901437600800,4.354600830078125,0.0022413162514567375,0.04814542457461357,0.007267233915627003
1769661901447588900,4.3645888671875,0.0013901700731366873,0.04291284456849098,0.013744307681918144
1769661901457578000,4.374577880859375,0.0022391858510673046,0.03580833226442337,0.021262144669890404
1769661901467566000,4.384566162109375,0.004693022463470697,0.03151930868625641,0.028182901442050934
1769661901477554000,4.394553955078125,0.0019925772212445736,0.03224635496735573,0.03369298204779625
1769661901487542000,4.4045419921875,0.003850131994113326,0.027644410729408264,0.036978788673877716
1769661901497529900,4.41452978515625,0.0017052220646291971,0.028900623321533203,0.03319497033953667
1769661901507519000,4.42451904296875,0.00047883635852485895,0.034455444663763046,0.0279189832508564
1769661901517506800,4.4345068359375,-0.0014793860027566552,0.04030454531311989,0.016289224848151207
1769661901527495000,4.444494873046875,-0.0034493261482566595,0.04384628310799599,0.009363940916955471
1769661901537483000,4.45448291015625,-0.001749164192005992,0.05116491764783859,0.00766005041077733
1769661901547470800,4.464470947265625,-0.005969741847366095,0.05706621706485748,0.007542870938777924
1769661901557459700,4.474459716796875,-0.0017451694002375007,0.05290715768933296,0.006388923618942499
1769661901567447800,4.48444775390625,-0.0008207862265408039,0.04369528219103813,0.0046568033285439014
1769661901577436000,4.494435791015625,-0.006302903406322002,0.03687785565853119,-0.004702077247202396
1769661901587424000,4.504424072265625,-0.010129866190254688,0.029766950756311417,-0.006234992761164904
1769661901597411800,4.514411865234375,-0.013087306171655655,0.018484201282262802,-0.010788199491798878
1769661901607401000,4.52440087890625,-0.014030331745743752,0.0134465666487813,-0.008157528936862946
1769661901617389000,4.53438916015625,-0.012866795994341373,0.005817675497382879,-0.004303668159991503
1769661901627377200,4.544377197265625,-0.013005813583731651,0.0024461133871227503,-0.003926298581063747
1769661901637365000,4.554364990234375,-0.013163206167519093,0.000957939017098397,-0.0034852789249271154
1769661901647352800,4.564352783203125,-0.011361311189830303,-0.005143363028764725,0.0007811051327735186
1769661901657342000,4.574342041015625,-0.01142948865890503,-0.008887235075235367,0.008073639124631882
1769661901667330000,4.584330078125,-0.012386628426611423,-0.00842570886015892,0.01031602080911398
1769661901677318000,4.59431787109375,-0.008822520263493061,-0.01507109496742487,0.011348794214427471
1769661901687306000,4.604305908203125,-0.009304552339017391,-0.01691320352256298,0.011573565192520618
1769661901697294000,4.614294189453125,-0.008578574284911156,-0.012797554023563862,0.0063124909065663815
1769661901707283000,4.624282958984375,-0.0064925202168524265,-0.01569427363574505,0.0012181298807263374
1769661901717270800,4.634270751953125,-0.009340238757431507,-0.019573701545596123,-0.00026791400159709156
1769661901727259000,4.6442587890625,-0.009415339678525925,-0.024897892028093338,-0.01047314703464508
1769661901737247000,4.6542470703125,-0.01019990723580122,-0.03821849077939987,-0.0213023591786623
1769661901747234800,4.66423486328125,-0.012908874079585075,-0.04241989552974701,-0.027543744072318077
1769661901757224000,4.674223876953125,-0.01398958545178175,-0.04639040306210518,-0.03314090892672539
1769661901767212000,4.6842119140625,-0.016292687505483627,-0.05150020867586136,-0.03248337283730507
1769661901777199900,4.694199951171875,-0.016443422064185143,-0.05609602481126785,-0.03440511226654053
1769661901787187700,4.704187744140625,-0.017581922933459282,-0.05306455120444298,-0.0314125157892704
1769661901797175800,4.71417578125,-0.017353689298033714,-0.05002588406205177,-0.030001575127243996
1769661901807165000,4.7241650390625,-0.016447149217128754,-0.04831879585981369,-0.029091838747262955
1769661901817153000,4.734153076171875,-0.017835190519690514,-0.05336042493581772,-0.028717132285237312
1769661901827140900,4.744140869140625,-0.017225325107574463,-0.050286874175071716,-0.031376831233501434
1769661901837129000,4.75412890625,-0.01751294732093811,-0.050698596984148026,-0.031927838921546936
1769661901847117000,4.764116943359375,-0.01414431445300579,-0.056298159062862396,-0.031976841390132904
1769661901857106000,4.77410595703125,-0.01798991858959198,-0.05218543857336044,-0.02858157642185688
1769661901867094000,4.784093994140625,-0.014843394979834557,-0.038359373807907104,-0.025788454338908195
1769661901877081900,4.794081787109375,-0.015904664993286133,-0.032640233635902405,-0.020289558917284012
1769661901887070000,4.804070068359375,-0.01384018175303936,-0.032669797539711,-0.02136947028338909
1769661901897059000,4.81405908203125,-0.016165653243660927,-0.031003989279270172,-0.02359134517610073
1769661901907047000,4.824046875,-0.013500628992915154,-0.029025526717305183,-0.02202514186501503
1769661901917034800,4.83403466796875,-0.012752546928822994,-0.029318474233150482,-0.022096512839198112
1769661901927022800,4.84402294921875,-0.01236132811754942,-0.02917546220123768,-0.02118784375488758
1769661901937011000,4.854010986328125,-0.011030546389520168,-0.02875601500272751,-0.018908709287643433
1769661901947000000,4.864,-0.011508317664265633,-0.02382463961839676,-0.020193152129650116
1769661901956988000,4.87398779296875,-0.011386345140635967,-0.013553359545767307,-0.02203179895877838
1769661901966976000,4.88397607421875,-0.007986820302903652,-0.0065375277772545815,-0.023135412484407425
1769661901976964000,4.893964111328125,-0.00872131995856762,-0.00560968229547143,-0.020772656425833702
1769661901986952000,4.903951904296875,-0.006631004624068737,-0.0038751657120883465,-0.016868196427822113
1769661901996940800,4.91394091796875,-0.002683933824300766,0.00501047121360898,-0.013924604281783104
1769661902006929000,4.923928955078125,-0.000017843178284238093,0.012768525630235672,-0.013317936100065708
1769661902016917000,4.9339169921875,0.0015984292840585113,0.020564664155244827,-0.015686817467212677
1769661902026904800,4.94390478515625,0.00029055087361484766,0.026206836104393005,-0.01540319062769413
1769661902036893000,4.953892822265625,-0.0031872710678726435,0.028973327949643135,-0.015677230432629585
1769661902046881800,4.9638818359375,-0.004893025849014521,0.023662451654672623,-0.015177621506154537
1769661902056870000,4.973869873046875,-0.004252269398421049,0.017180318012833595,-0.016448747366666794
1769661902066857700,4.983857666015625,-0.004449876025319099,0.02022590860724449,-0.01549373846501112
1769661902076845800,4.993845703125,-0.006207295693457127,0.02418310008943081,-0.013905162923038006
1769661902086834000,5.003833984375,-0.006442452780902386,0.02870727889239788,-0.006851514335721731
1769661902096823000,5.013822998046875,-0.0016418388113379478,0.033721476793289185,-0.006325806491076946
1769661902106811000,5.023810791015625,-0.004465322010219097,0.03410124406218529,-0.005549228750169277
1769661902116799000,5.033799072265625,-0.0023912524338811636,0.03380909562110901,-0.00851359311491251
1769661902126787000,5.043787109375,-0.0020743361674249172,0.035704467445611954,-0.010642790235579014
1769661902136775000,5.05377490234375,-0.002083390951156616,0.03477315977215767,-0.007619303651154041
1769661902146764000,5.063763916015625,-0.004253867082297802,0.03969654440879822,-0.002341983839869499
1769661902156752000,5.073751953125,-0.005005677696317434,0.03481896594166756,0.0010407633380964398
1769661902166740000,5.083739990234375,-0.007917843759059906,0.01744290627539158,0.004883971065282822
1769661902176728000,5.09372802734375,-0.010032393969595432,0.0014969628537073731,0.007463775109499693
1769661902186716000,5.1037158203125,-0.014639928936958313,-0.012425510212779045,0.0068448567762970924
1769661902196704800,5.113704833984375,-0.015675365924835205,-0.02142592892050743,0.0020594224333763123
1769661902206692900,5.12369287109375,-0.01733558066189289,-0.026699787005782127,-0.003216566052287817
1769661902216681000,5.133680908203125,-0.018457304686307907,-0.02869422920048237,-0.008242483250796795
1769661902226668800,5.143668701171875,-0.017655692994594574,-0.02304859459400177,-0.009870474226772785
1769661902236658000,5.153657958984375,-0.017828531563282013,-0.015557654201984406,-0.010062487795948982
1769661902246646000,5.16364599609375,-0.013974671252071857,-0.009313606657087803,-0.010893127880990505
1769661902256634000,5.173634033203125,-0.008963934145867825,-0.0013345100451260805,-0.015561648644506931
1769661902266622000,5.1836220703125,-0.0049223206005990505,0.00785659160465002,-0.019087141379714012
1769661902276609800,5.19360986328125,-0.002394980750977993,0.017949705943465233,-0.015268967486917973
1769661902286599000,5.203598876953125,0.003221359569579363,0.025129854679107666,-0.007370564620941877
1769661902296587000,5.2135869140625,0.005810751114040613,0.026935743167996407,0.0004463458026293665
1769661902306574800,5.223574951171875,0.0059572248719632626,0.023562584072351456,0.00640756543725729
1769661902316563000,5.23356298828125,0.006754841655492783,0.016955547034740448,0.004177168011665344
1769661902326551000,5.243551025390625,0.0035302862524986267,0.009067530743777752,0.002499643014743924
1769661902336540000,5.253539794921875,0.003919107839465141,0.0006005428149364889,0.00032384038786403835
1769661902346527700,5.26352783203125,0.0022021678742021322,-0.007155647501349449,-0.0016381103778257966
1769661902356515800,5.273515869140625,0.003108707955107093,-0.013002883642911911,-0.003192863892763853
1769661902366504000,5.28350390625,0.0031039142049849033,-0.015062306076288223,-0.0027475832030177116
1769661902376492000,5.293491943359375,0.0060328589752316475,-0.011664379388093948,-0.0072983927093446255
1769661902386481000,5.30348095703125,0.008902947418391705,-0.003900199430063367,-0.010905112139880657
1769661902396469000,5.313468994140625,0.00968325324356556,0.0031398669816553593,-0.01161724142730236
1769661902406456800,5.323456787109375,0.011894476599991322,0.010835603810846806,-0.020135894417762756
1769661902416445000,5.33344482421875,0.011172226630151272,0.01582716591656208,-0.021798506379127502
1769661902426432800,5.343432861328125,0.011779960244894028,0.023374564945697784,-0.019363844767212868
1769661902436422000,5.353421875,0.011813782155513763,0.020541761070489883,-0.015786686912178993
1769661902446410000,5.363409912109375,0.014603443443775177,0.008619320578873158,-0.011536813341081142
1769661902456398000,5.373398193359375,0.015442073345184326,0.004445881117135286,-0.006700779777020216
1769661902466386000,5.383385986328125,0.011386345140635967,-0.002174471039324999,-0.005751362536102533
1769661902476374000,5.3933740234375,0.0104726143181324,-0.013191169127821922,-0.0056799896992743015
1769661902486363000,5.40336279296875,0.008745821192860603,-0.01937076821923256,-0.008159126155078411
1769661902496351000,5.41335107421875,0.006317550782114267,-0.022100774571299553,-0.007988417521119118
1769661902506338800,5.4233388671875,0.004565456882119179,-0.02064535766839981,-0.008703476749360561
1769661902516327000,5.433326904296875,0.00506959343329072,-0.01666845940053463,-0.006931409239768982
1769661902526316000,5.44331591796875,0.006833404768258333,-0.00817803479731083,-0.008228369057178497
1769661902536303900,5.453303955078125,0.010920025408267975,0.001945439144037664,-0.008156463503837585
1769661902546291700,5.463291748046875,0.009900035336613655,0.012340555898845196,-0.007125287316739559
1769661902556279800,5.47327978515625,0.009726929478347301,0.01877075806260109,-0.008354336023330688
1769661902566268000,5.483267822265625,0.00917405728250742,0.020299145951867104,-0.011051319539546967
1769661902576257000,5.493257080078125,0.010182330384850502,0.019568640738725662,-0.014552843756973743
1769661902586244900,5.503244873046875,0.008360461331903934,0.013703028671443462,-0.016436763107776642
1769661902596233000,5.51323291015625,0.007452057208865881,0.009981527924537659,-0.01798592507839203
1769661902606221000,5.523220947265625,0.005572930909693241,0.0008847020799294114,-0.019720973446965218
1769661902616209200,5.533209228515625,0.004908472299575806,-0.004772118292748928,-0.01727326214313507
1769661902626197800,5.54319775390625,0.0041609229519963264,-0.011836153455078602,-0.012330169789493084
1769661902636185900,5.553185791015625,0.003403519745916128,-0.015474563464522362,-0.006971356924623251
1769661902646174000,5.563174072265625,0.0018314558546990156,-0.014308897778391838,-0.0020628846250474453
1769661902656162000,5.573162109375,0.0007582019316032529,-0.01158634852617979,-0.00043116576853208244
1769661902666150000,5.58314990234375,-0.0016306535108014941,-0.006946855690330267,-0.0012418320402503014
1769661902676138800,5.593138671875,0.00038535939529538155,-0.005857622716575861,-0.0030117689166218042
1769661902686126800,5.603126953125,-0.00028282770654186606,-0.003765709698200226,-0.002239984693005681
1769661902696115000,5.613114990234375,0.0006953513366170228,-0.001547030289657414,0.0004972121678292751
1769661902706102800,5.623102783203125,0.003870904678478837,-0.0013968279818072915,0.002183792181313038
1769661902716091000,5.6330908203125,0.00108257494866848,-0.0026700852904468775,0.008808138780295849
1769661902726080000,5.643080078125,0.002180329989641905,-0.004019509069621563,0.009606554172933102
1769661902736068000,5.653068115234375,0.00036192359402775764,-0.01110351737588644,0.009407083503901958
1769661902746056000,5.663055908203125,-0.0022415826097130775,-0.019292738288640976,0.009489907883107662
1769661902756044000,5.6730439453125,-0.005170527379959822,-0.025056617334485054,0.007224623579531908
1769661902766032000,5.683031982421875,-0.00510021997615695,-0.030521158128976822,0.005541239399462938
1769661902776021000,5.69302099609375,-0.00415346585214138,-0.026979153975844383,0.0033182986080646515
1769661902786008800,5.7030087890625,-0.007207578979432583,-0.020920194685459137,-0.0005597964627668262
1769661902795997000,5.712996826171875,-0.0065497783944010735,-0.012430038303136826,-0.005724198184907436
1769661902805985000,5.722985107421875,-0.006490123458206654,-0.005947637837380171,-0.009743707254529
1769661902815974000,5.732973876953125,-0.0057042245753109455,-0.0036274916492402554,-0.011984757147729397
1769661902825961700,5.742961669921875,-0.010321347042918205,-0.0046360306441783905,-0.014218617230653763
1769661902835949800,5.75294970703125,-0.00868936162441969,-0.00517691858112812,-0.01344470214098692
1769661902845938000,5.76293798828125,-0.0049135321751236916,-0.008161523379385471,-0.011315771378576756
1769661902855926000,5.772926025390625,-0.00324799120426178,-0.004561462439596653,-0.010378871113061905
1769661902865915000,5.782914794921875,0.0013201289111748338,-0.004838164895772934,-0.008142082020640373
1769661902875903000,5.792903076171875,0.0008809737046249211,-0.010432933457195759,-0.006527940277010202
1769661902885891000,5.80289111328125,-0.0016951019642874599,-0.014883874915540218,-0.004637096077203751
1769661902895879000,5.81287890625,-0.005614209920167923,-0.016477510333061218,-0.008501076139509678
1769661902905866800,5.82286669921875,-0.009047291241586208,-0.017904166132211685,-0.014035924337804317
1769661902915856000,5.83285595703125,-0.009913616813719273,-0.015779228881001472,-0.022997727617621422
1769661902925844000,5.842843994140625,-0.01239408552646637,-0.013514476828277111,-0.028749089688062668
1769661902935832000,5.85283203125,-0.013372796587646008,-0.0001347559446003288,-0.02635517530143261
1769661902945820000,5.86281982421875,-0.010233995504677296,0.01176158431917429,-0.018206434324383736
1769661902955808000,5.87280810546875,-0.00803395826369524,0.010065949521958828,-0.0287000872194767
1769661902965796900,5.882796875,-0.00031558459158986807,-0.0032107068691402674,-0.047336090356111526
1769661902975785000,5.892784912109375,0.0037707698065787554,-0.0033047166652977467,-0.0621456615626812
1769661902985772800,5.902772705078125,0.004963865969330072,0.018372083082795143,-0.06078745052218437
1769661902995761000,5.912760986328125,0.005761216394603252,0.02695704810321331,-0.037100497633218765
1769661903005749000,5.9227490234375,-0.00024048343766480684,0.022127673029899597,-0.0062371231615543365
1769661903015738000,5.932738037109375,-0.00544456671923399,0.0014426343841478229,0.020131632685661316
1769661903025726000,5.942725830078125,-0.012676114216446877,-0.03748239576816559,0.02533544972538948
1769661903035713800,5.9527138671875,-0.021019531413912773,-0.07514135539531708,0.016835970804095268
1769661903045702000,5.962701904296875,-0.029262281954288483,-0.0871487483382225,-0.00001304948909819359
1769661903055689700,5.972689697265625,-0.03351055458188057,-0.08802146464586258,-0.02250104770064354
1769661903065678800,5.982678955078125,-0.03008386678993702,-0.0700744241476059,-0.03567597270011902
1769661903075667000,5.9926669921875,-0.019305255264043808,-0.03237125650048256,-0.0296724084764719
1769661903085655000,6.002655029296875,-0.01074026245623827,0.004235225263983011,-0.015835953876376152
1769661903095643000,6.012642822265625,-0.0018130800453945994,0.025302160531282425,-0.0038314899429678917
1769661903105631700,6.0226318359375,0.004291151650249958,0.028870264068245888,0.003612045431509614
1769661903115619800,6.032619873046875,0.0021944446489214897,0.02267388626933098,0.005675196181982756
1769661903125608000,6.04260791015625,-0.001749164192005992,0.0006133259739726782,-0.0015813850332051516
1769661903135596000,6.052595947265625,-0.006879477761685848,-0.018094316124916077,-0.005530053749680519
1769661903145583900,6.062583984375,-0.009267001412808895,-0.026975424960255623,-0.007179083302617073
1769661903155573000,6.072572998046875,-0.010483533143997192,-0.03214675188064575,-0.005097290500998497
1769661903165561000,6.08256103515625,-0.00785525981336832,-0.029956568032503128,-0.00077631144085899
1769661903175549000,6.092548828125,-0.004959871061146259,-0.018816830590367317,0.0070584421046078205
1769661903185536800,6.102536865234375,-0.0068030450493097305,-0.009340238757431507,0.011632953770458698
1769661903195524900,6.11252490234375,-0.006944458931684494,-0.005388640332967043,0.012314722873270512
1769661903205514000,6.122513916015625,-0.0068448567762970924,-0.004027498420327902,0.0070794811472296715
1769661903215501800,6.132501708984375,-0.005868541542440653,-0.005154281854629517,0.000014647385796706658
1769661903225490000,6.142489990234375,-0.007181213703006506,-0.0062760054133832455,-0.000018375811123405583
1769661903235477800,6.152477783203125,-0.011140535585582256,-0.009230515919625759,0.0024224112275987864
1769661903245465900,6.1624658203125,-0.012647352181375027,-0.008843026123940945,0.00569916469976306
1769661903255454700,6.172454833984375,-0.011989018879830837,-0.01230193953961134,0.0023001721128821373
1769661903265442800,6.18244287109375,-0.014326474629342556,-0.017171263694763184,0.0041249701753258705
1769661903275430700,6.1924306640625,-0.012418054044246674,-0.01962350308895111,0.005526059307157993
1769661903285418800,6.202418701171875,-0.009561813436448574,-0.01914333365857601,0.007678958587348461
1769661903295406800,6.21240673828125,-0.009304285980761051,-0.011004447937011719,0.004920190200209618
1769661903305396000,6.22239599609375,-0.009005213156342506,-0.006081328261643648,0.001064998097717762
1769661903315383800,6.2323837890625,-0.007194263394922018,-0.0038370825350284576,-0.0036330842413008213
1769661903325371600,6.24237158203125,-0.008112520910799503,-0.0007576693315058947,-0.0026320021133869886
1769661903335359700,6.25235986328125,-0.008904012851417065,-0.0006343649583868682,-0.002225337317213416
1769661903345347800,6.262347900390625,-0.009404420852661133,-0.003233876544982195,-0.003933222498744726
1769661903355337000,6.2723369140625,-0.01158847939223051,-0.007244330830872059,-0.0010540791554376483
1769661903365324800,6.28232470703125,-0.01013652328401804,-0.016657806932926178,-0.0013440974289551377
1769661903375313000,6.29231298828125,-0.009439041838049889,-0.021456822752952576,-0.0012719257501885295
1769661903385301000,6.302301025390625,-0.007449660450220108,-0.02101314067840576,-0.0052144695073366165
1769661903395289900,6.312289794921875,-0.004054929129779339,-0.017778996378183365,-0.004758269991725683
1769661903405277700,6.322277587890625,-0.0013283847365528345,-0.012912336736917496,-0.004364654887467623
1769661903415265800,6.332265869140625,-0.0013044163351878524,-0.009069128893315792,-0.005757221486419439
1769661903425254000,6.34225390625,0.00054142065346241,-0.010302971117198467,-0.006611031014472246
1769661903435241700,6.35224169921875,-0.0013576794881373644,-0.017252223566174507,-0.009090433828532696
1769661903445230800,6.36223095703125,-0.0011635350529104471,-0.023959927260875702,-0.009820939041674137
1769661903455218700,6.37221875,-0.0019081549253314734,-0.02792377583682537,-0.006649646908044815
1769661903465206800,6.382206787109375,0.0003225088003091514,-0.0312841534614563,-0.0008679241873323917
1769661903475194600,6.392194580078125,-0.00042876892257481813,-0.03183649107813835,-0.0011086739832535386
1769661903485182700,6.4021826171875,0.0006463492172770202,-0.029021531343460083,-0.0023608922492712736
1769661903495171800,6.412171875,0.0014554174849763513,-0.026642795652151108,-0.006397977937012911
1769661903505160000,6.422159912109375,0.005275189410895109,-0.022607840597629547,-0.011354653164744377
1769661903515147800,6.432147705078125,0.009102418087422848,-0.013288907706737518,-0.01326946634799242
1769661903525136000,6.442135986328125,0.009857158176600933,-0.004747617058455944,-0.011353322304785252
1769661903535123700,6.452123779296875,0.00848563015460968,0.0007344998302869499,-0.008174839429557323
1769661903545112800,6.46211279296875,0.010192716494202614,0.0014740596525371075,-0.004988899454474449
1769661903555100700,6.4721005859375,0.010374610312283039,-0.00398568669334054,-0.006135923322290182
1769661903565088800,6.4820888671875,0.008432899601757526,-0.013078517280519009,-0.008321845903992653
1769661903575076900,6.492076904296875,0.008408664725720882,-0.019538547843694687,-0.011487012729048729
1769661903585065700,6.502065673828125,0.007660316303372383,-0.022788137197494507,-0.011035074479877949
1769661903595053800,6.5120537109375,0.008809736929833889,-0.0233487319201231,-0.008915198035538197
1769661903605041700,6.522041748046875,0.009857424534857273,-0.02261689491569996,-0.004348409362137318
1769661903615029800,6.53202978515625,0.01133787538856268,-0.013592241331934929,0.0001358212175546214
1769661903625017900,6.542017822265625,0.010465158149600029,-0.008526110090315342,0.0009606021922081709
1769661903635007000,6.552007080078125,0.010266219265758991,-0.012040683999657631,-0.0025979136116802692
1769661903644994800,6.561994873046875,0.00863370206207037,-0.01679788902401924,-0.005585714243352413
1769661903654983000,6.57198291015625,0.009268865920603275,-0.021042967215180397,-0.008219313807785511
1769661903664970800,6.581970703125,0.009349293075501919,-0.020493557676672935,-0.010350375436246395
1769661903674958600,6.59195849609375,0.012534700334072113,-0.012350942008197308,-0.011226288974285126
1769661903684947700,6.60194775390625,0.014419419690966606,-0.002754773711785674,-0.01164653617888689
1769661903694935800,6.611935791015625,0.01495498139411211,0.007456851191818714,-0.012930979020893574
1769661903704924000,6.621923828125,0.017958493903279305,0.015261244960129261,-0.020297547802329063
1769661903714911700,6.631911865234375,0.020904483273625374,0.014985873363912106,-0.03242877870798111
1769661903724899800,6.64189990234375,0.018579542636871338,0.01734144054353237,-0.03320988640189171
1769661903734888700,6.651888671875,0.01847940869629383,0.02803642861545086,-0.026999393478035927
1769661903744876800,6.661876708984375,0.016171779483556747,0.03364664316177368,-0.01569880172610283
1769661903754864600,6.67186474609375,0.01841655746102333,0.02923671528697014,-0.0041396175511181355
1769661903764852700,6.681852783203125,0.015133412554860115,0.020199012011289597,0.0062397862784564495
1769661903774840800,6.6918408203125,0.01143721118569374,0.0064805359579622746,0.00933091714978218
1769661903784830000,6.701829833984375,0.005343366414308548,-0.009703493677079678,0.006341785658150911
1769661903794817800,6.71181787109375,0.004274373408406973,-0.019514312967658043,0.0018226674292236567
1769661903804805600,6.7218056640625,0.0035273567773401737,-0.026581009849905968,0.00475534051656723
1769661903814793700,6.731793701171875,0.006074936594814062,-0.026034530252218246,0.015808790922164917
1769661903824782800,6.741782958984375,0.009016398340463638,-0.020239757373929024,0.02672242373228073
1769661903834770700,6.751770751953125,0.014062821865081787,-0.014878015965223312,0.032159801572561264
1769661903844758800,6.7617587890625,0.016408534720540047,-0.012195679359138012,0.028917135670781136
1769661903854747000,6.771746826171875,0.015195731073617935,-0.018064221367239952,0.025794312357902527
1769661903864735000,6.78173486328125,0.014103568159043789,-0.020685303956270218,0.0230531208217144
1769661903874723800,6.791723876953125,0.014364558272063732,-0.014783740043640137,0.017968613654375076
1769661903884711700,6.801711669921875,0.013888385146856308,-0.005783853121101856,0.012524047866463661
1769661903894699800,6.81169970703125,0.013777331449091434,0.005327919963747263,0.008778577670454979
1769661903904687900,6.82168798828125,0.014420484192669392,0.012538162060081959,0.005739910993725061
1769661903914675700,6.83167578125,0.016142483800649643,0.018273545429110527,0.005091963801532984
1769661903924664800,6.841664794921875,0.018389126285910606,0.017065269872546196,0.005567604675889015
1769661903934653000,6.85165283203125,0.020307933911681175,0.013666544109582901,0.008333830162882805
1769661903944640800,6.861640869140625,0.01900351792573929,0.012401541694998741,0.011834288947284222
1769661903954628600,6.871628662109375,0.016712933778762817,0.010400975123047829,0.010696319863200188
1769661903964616700,6.88161669921875,0.01612703874707222,0.013045228086411953,0.007120493799448013
1769661903974605800,6.891605712890625,0.015809323638677597,0.009209743700921535,-0.00011398329661460593
1769661903984594000,6.901593994140625,0.012910205870866776,0.006740194279700518,-0.007536745630204678
1769661903994581800,6.911581787109375,0.013287842273712158,0.008501076139509678,-0.012152536772191525
1769661904004569900,6.92156982421875,0.014367753639817238,0.011231615208089352,-0.010831608437001705
1769661904014558000,6.931557861328125,0.01702106185257435,0.015508119948208332,-0.008046741597354412
1769661904024546800,6.941546875,0.02002963423728943,0.02009008824825287,-0.0021350563038140535
1769661904034534700,6.95153466796875,0.02112419344484806,0.022233134135603905,0.0021081583108752966
1769661904044522800,6.961522705078125,0.01931697316467762,0.022485334426164627,0.001543568097986281
1769661904054510800,6.9715107421875,0.017471401020884514,0.019630426540970802,-0.00006897587445564568
1769661904064499000,6.9814990234375,0.014701182022690773,0.013186109252274036,-0.005656820256263018
1769661904074487800,6.99148779296875,0.012248676270246506,0.004369981121271849,-0.007529555354267359
1769661904084475600,7.0014755859375,0.012267052195966244,-0.00381417921744287,-0.0021912488155066967
1769661904094463700,7.011463623046875,0.01224388275295496,-0.009501892141997814,0.004649613052606583
1769661904104451800,7.021451904296875,0.01432034932076931,-0.012583702802658081,0.012338158674538136
1769661904114439700,7.031439697265625,0.014171212911605835,-0.010507501661777496,0.017475130036473274
1769661904124428800,7.0414287109375,0.014368019998073578,-0.007626228034496307,0.017765149474143982
1769661904134417000,7.0514169921875,0.01164760161191225,-0.002685797866433859,0.015848204493522644
1769661904144405000,7.061405029296875,0.009363674558699131,-0.00035712990211322904,0.013264406472444534
1769661904154392800,7.071392822265625,0.011817511171102524,-0.00021385183208622038,0.010142648592591286
1769661904164381700,7.081381591796875,0.011847072280943394,0.00267674308270216,0.009288040921092033
1769661904174369800,7.091369873046875,0.012301673181355,0.005520999431610107,0.011215902864933014
1769661904184358000,7.10135791015625,0.010764497332274914,0.0059990365989506245,0.011693674139678478
1769661904194345700,7.111345703125,0.008008924312889576,0.004437092691659927,0.008928247727453709
1769661904204333800,7.121333740234375,0.00571833923459053,0.0005283711361698806,0.0038043255917727947
1769661904214322700,7.13132275390625,0.0010452907299622893,-0.003954527899622917,0.000764593540225178
1769661904224310300,7.141310302734375,-0.00041278995922766626,-0.008539958856999874,-0.0025065671652555466
1769661904234298400,7.15129833984375,-0.0023702133912593126,-0.012042015790939331,-0.002588059986010194
1769661904244286200,7.1612861328125,-0.002204298507422209,-0.011324027553200722,-0.0017923073610290885
1769661904254274300,7.1712744140625,-0.002615756820887327,-0.00669305631890893,0.001315335277467966
1769661904264263400,7.181263427734375,-0.0018865832826122642,-0.0000977380113909021,0.001662877737544477
1769661904274251500,7.19125146484375,-0.0027379959356039762,0.002755572786554694,-0.0010479538468644023
1769661904284239400,7.2012392578125,-0.0029198897536844015,0.008043278940021992,-0.00529463030397892
1769661904294227500,7.2112275390625,-0.004353735595941544,0.00666296249255538,-0.008267783559858799
1769661904304215600,7.221215576171875,-0.006020075641572475,0.0017638115677982569,-0.009400691837072372
1769661904314204400,7.231204345703125,-0.00583605095744133,-0.002722017001360655,-0.004334294702857733
1769661904324192300,7.241192138671875,-0.005583050660789013,-0.004428570624440908,0.0002378202771069482
1769661904334180400,7.251180419921875,-0.006851514335721731,-0.007702394388616085,0.004358529578894377
1769661904344168400,7.26116845703125,-0.006391853094100952,-0.009014800190925598,0.006401972845196724
1769661904354157600,7.271157470703125,-0.004679972771555185,-0.007690676487982273,0.009225988760590553
1769661904364145200,7.281145263671875,-0.003059173235669732,-0.006677609868347645,0.0115573201328516
1769661904374133200,7.29113330078125,-0.00307648372836411,-0.008224107325077057,0.014574148692190647
1769661904384121300,7.301121337890625,-0.002846919232979417,-0.0059841228649020195,0.013709686696529388
1769661904394109400,7.311109375,-0.002852778183296323,-0.004938033409416676,0.01037674117833376
1769661904404098300,7.321098388671875,-0.004332696553319693,-0.006373210810124874,0.007321029901504517
1769661904414086400,7.33108642578125,-0.00586614478379488,-0.00920308567583561,0.00355878216214478
1769661904424074500,7.341074462890625,-0.00663526589050889,-0.014463627710938454,0.0014018879737704992
1769661904434062600,7.3510625,-0.008079498074948788,-0.0177579578012228,0.000185888638952747
1769661904444050400,7.361050537109375,-0.011814847588539124,-0.018732408061623573,-0.003602990647777915
1769661904454039300,7.371039306640625,-0.011082212440669537,-0.019814716652035713,-0.005167597904801369
1769661904464027400,7.38102734375,-0.008794556371867657,-0.01944613642990589,-0.005312473513185978
1769661904474015500,7.391015380859375,-0.009925068356096745,-0.013041500002145767,-0.006205964367836714
1769661904484003300,7.40100341796875,-0.009156214073300362,-0.006428870838135481,-0.008925317786633968
1769661904493991400,7.410991455078125,-0.009497631341218948,-0.0008855010382831097,-0.012014584615826607
1769661904503980300,7.420980224609375,-0.007212106604129076,0.00675191218033433,-0.018305238336324692
1769661904513968400,7.430968505859375,-0.004563326481729746,0.005674397107213736,-0.022664831951260567
1769661904523956200,7.440956298828125,-0.00293267285451293,0.009387909434735775,-0.02654319442808628
1769661904533944300,7.4509443359375,-0.003233077470213175,0.014042582362890244,-0.024810541421175003
1769661904543932400,7.460932373046875,-0.0002061286650132388,0.015409848652780056,-0.017962222918868065
1769661904553921500,7.470921630859375,-0.003049053018912673,0.010792993009090424,-0.006702643819153309
1769661904563909400,7.480909423828125,-0.003451456781476736,-0.003073554253205657,0.0034376082476228476
1769661904573897500,7.4908974609375,-0.006986270658671856,-0.010778611525893211,0.0073449984192848206
1769661904583885300,7.50088525390625,-0.011008975096046925,-0.014436730183660984,0.007977765053510666
1769661904593874400,7.51087451171875,-0.015958726406097412,-0.023314110934734344,0.0014966964954510331
1769661904603862300,7.5208623046875,-0.015328089706599712,-0.03368472680449486,-0.001446362817659974
1769661904613850400,7.530850341796875,-0.014051370322704315,-0.03235474228858948,-0.006927680689841509
1769661904623838500,7.54083837890625,-0.01570066623389721,-0.030223416164517403,-0.009040633216500282
1769661904633826600,7.55082666015625,-0.012042547576129436,-0.02636396326124668,-0.007517038378864527
1769661904643815200,7.560815185546875,-0.008534898981451988,-0.02219238691031933,-0.007800931576639414
1769661904653803300,7.57080322265625,-0.006139917764812708,-0.015987755730748177,-0.006505836267024279
1769661904663791400,7.580791259765625,-0.003584614722058177,-0.007192132994532585,-0.00902811624109745
1769661904673779500,7.590779541015625,-0.004276770167052746,0.0036456012167036533,-0.011937086470425129
1769661904683767300,7.600767333984375,-0.0027483822777867317,0.009134110063314438,-0.015994146466255188
1769661904693756400,7.61075634765625,-0.00404640706256032,0.006872287020087242,-0.021385982632637024
1769661904703744500,7.62074462890625,-0.004692489746958017,0.006166549399495125,-0.02237508073449135
1769661904713732600,7.630732666015625,-0.005398760084062815,0.001466869143769145,-0.023005450144410133
1769661904723720200,7.64072021484375,-0.004775314126163721,-0.010373278521001339,-0.02226109616458416
1769661904733708300,7.650708251953125,-0.006446980405598879,-0.01774783805012703,-0.014450045302510262
1769661904743697400,7.660697509765625,-0.006581203546375036,-0.016287893056869507,-0.00541473925113678
1769661904753685500,7.670685546875,-0.006962568499147892,-0.016532903537154198,0.0025747441686689854
1769661904763673300,7.68067333984375,-0.00267754215747118,-0.024815866723656654,-0.0005552690709009767
1769661904773661400,7.690661376953125,-0.004262122791260481,-0.030191192403435707,-0.0015504923649132252
1769661904783649500,7.7006494140625,-0.004255731590092182,-0.03014644980430603,0.00041252365917898715
1769661904793638400,7.710638427734375,-0.0028429245576262474,-0.03220454230904579,-0.0010239854454994202
1769661904803626200,7.720626220703125,-0.0024168186355382204,-0.031731829047203064,-0.0010154632618650794
1769661904813614300,7.7306142578125,-0.004254133440554142,-0.023254189640283585,0.0037521275226026773
1769661904823602400,7.7406025390625,-0.0062421830371022224,-0.013187973760068417,0.005650961305946112
1769661904833590300,7.75059033203125,-0.004589958116412163,-0.003022421384230256,0.004356665071099997
1769661904843579400,7.760579345703125,-0.002371012233197689,0.00660597113892436,0.0000031957933970261365
1769661904853567500,7.7705673828125,-0.0022538332268595695,0.010223609395325184,-0.00812157616019249
1769661904863555300,7.780555419921875,-0.0018221348291262984,0.009571933187544346,-0.011274758726358414
1769661904873543200,7.790543212890625,-0.0001536643976578489,0.00944996066391468,-0.01690042018890381
1769661904883532300,7.8005322265625,-0.000556334329303354,0.015723302960395813,-0.01847008801996708
1769661904893520400,7.810520263671875,-0.0018871158827096224,0.02099050208926201,-0.017242636531591415
1769661904903508500,7.820508544921875,-0.0032173648942261934,0.023395337164402008,-0.018507104367017746
1769661904913496600,7.83049658203125,0.0006772418855689466,0.025743447244167328,-0.02050980180501938
1769661904923484400,7.840484375,0.002235191175714135,0.02978958748281002,-0.019363312050700188
1769661904933473300,7.850473388671875,0.0036828855518251657,0.03310548886656761,-0.01266918983310461
1769661904943461400,7.86046142578125,0.0031915323343127966,0.03423440456390381,-0.007537544704973698
1769661904953449500,7.870449462890625,0.00273693073540926,0.03422534838318825,-0.00791544746607542
1769661904963437300,7.880437255859375,0.002552373567596078,0.031009847298264503,-0.012160525657236576
1769661904973425400,7.89042529296875,-0.0005187837523408234,0.025422535836696625,-0.014791196212172508
1769661904983414500,7.90041455078125,-0.003861317178234458,0.016202405095100403,-0.0189590435475111
1769661904993402400,7.91040234375,-0.003632551757618785,0.010335195809602737,-0.023901071399450302
1769661905003390200,7.92039013671875,-0.004337756894528866,0.007852597162127495,-0.022240057587623596
1769661905013378300,7.93037841796875,-0.0032501218374818563,0.014159228652715683,-0.024503212422132492
1769661905023366400,7.940366455078125,-0.0033451966010034084,0.01980219967663288,-0.02406698651611805
1769661905033355500,7.95035546875,-0.001344363670796156,0.0252198688685894,-0.02263686992228031
1769661905043343400,7.96034326171875,-0.0041489386931061745,0.02768835239112377,-0.0256973747164011
1769661905053331500,7.97033154296875,-0.005535380449146032,0.02238786406815052,-0.026796726509928703
1769661905063319600,7.980319580078125,-0.007766842842102051,0.0142343295738101,-0.02936641126871109
1769661905073308400,7.990308349609375,-0.009542638435959816,0.006168413441628218,-0.032645829021930695
1769661905083296300,8.000296142578126,-0.010124007239937782,0.001728924224153161,-0.03308951109647751
1769661905093284400,8.010284423828125,-0.009959423914551735,-0.00038056570338085294,-0.02851952612400055
1769661905103272400,8.0202724609375,-0.006373477168381214,-0.0009843043517321348,-0.023394804447889328
1769661905113260300,8.03026025390625,-0.005376656074076891,0.001954760169610381,-0.018437862396240234
1769661905123249400,8.04024951171875,-0.0028482507914304733,0.0032080437522381544,-0.015454057604074478
1769661905133237200,8.0502373046875,-0.0023281353060156107,0.0031055121216923,-0.013568805530667305
1769661905143225300,8.060225341796874,-0.000963797967415303,0.007060306146740913,-0.013042831793427467
1769661905153213200,8.070213134765625,-0.0005107942852191627,0.008885370567440987,-0.010585266165435314
1769661905163201300,8.080201171875,0.00040080572944134474,0.009219330735504627,-0.008598015643656254
1769661905173190400,8.0901904296875,0.0019025622168555856,0.00794660672545433,-0.009495234116911888
1769661905183178500,8.100178466796875,0.0001978728687390685,0.004877845756709576,-0.010644921101629734
1769661905193166600,8.11016650390625,0.0015137407463043928,-0.0020777983590960503,-0.005930326879024506
1769661905203154400,8.120154541015625,-0.0022775353863835335,-0.0028567728586494923,-0.0013084110105410218
1769661905213142300,8.130142333984375,-0.0019566244445741177,-0.0057351174764335155,0.000850879936479032
1769661905223132000,8.1401318359375,-0.0011635350529104471,-0.005902363918721676,-0.0022540995851159096
1769661905233120000,8.1501201171875,0.00009214537567459047,-0.002965962514281273,-0.004738828632980585
1769661905243107800,8.16010791015625,-0.00010892329009948298,-0.002800047630444169,-0.003629888640716672
1769661905253096000,8.170095947265626,-0.0030008498579263687,-0.004002997186034918,-0.0021046961192041636
1769661905263084000,8.180083984375,-0.0030365362763404846,-0.0006359628750942647,-0.00407490273937583
1769661905273073000,8.190072998046874,-0.0022389194928109646,0.0011896340874955058,-0.01092561800032854
1769661905283060700,8.200060791015625,-0.005850432440638542,0.00493244081735611,-0.016808541491627693
1769661905293048800,8.210048828125,-0.005450159311294556,0.010403372347354889,-0.02225710265338421
1769661905303037000,8.220036865234375,-0.003765976056456566,0.017662882804870605,-0.020777983590960503
1769661905313026000,8.230026123046875,-0.0046940878964960575,0.021037107333540916,-0.01443806104362011
1769661905323014000,8.240013916015625,-0.004473045468330383,0.018543057143688202,-0.003391801845282316
1769661905333001700,8.250001708984374,-0.009335445240139961,0.009698700159788132,0.000176301269675605
1769661905342989800,8.25998974609375,-0.013291570357978344,0.000883636821527034,-0.0019150790758430958
1769661905352978000,8.26997802734375,-0.01968422159552574,-0.006217948626726866,-0.014167217537760735
1769661905362966800,8.279966796875,-0.023450730368494987,-0.010936536826193333,-0.020250143483281136
1769661905372955000,8.289954833984375,-0.024408137425780296,-0.012147743254899979,-0.022184131667017937
1769661905382943000,8.29994287109375,-0.023574035614728928,-0.010194581001996994,-0.020008062943816185
1769661905392931000,8.30993115234375,-0.020262127742171288,-0.004393416922539473,-0.018543856218457222
1769661905402919000,8.3199189453125,-0.01570173166692257,-0.003305781865492463,-0.01623542793095112
1769661905412907800,8.32990771484375,-0.01477575022727251,-0.004037085920572281,-0.017309214919805527
1769661905422895900,8.339895751953126,-0.015123559162020683,0.001163268811069429,-0.018271414563059807
1769661905432884000,8.349884033203125,-0.010982876643538475,0.00027031084755435586,-0.013383716344833374
1769661905442871800,8.359871826171876,-0.010026002302765846,-0.003991279285401106,-0.004729507956653833
1769661905452860000,8.36985986328125,-0.006911435630172491,0.00589517317712307,-0.003932689782232046
1769661905462849000,8.37984912109375,-0.0025473134592175484,0.012312060222029686,-0.004493285436183214
1769661905472836900,8.3898369140625,0.001326786819845438,0.0062792012467980385,-0.007989216595888138
1769661905482824700,8.39982470703125,-0.0006322344415821135,0.008983374573290348,-0.006193980108946562
1769661905492812800,8.409812744140625,-0.0014737932942807674,0.017139839008450508,-0.008804144337773323
1769661905502801000,8.41980078125,-0.002350239548832178,0.003694869577884674,-0.008027832955121994
1769661905512790000,8.4297900390625,-0.0038219024427235126,-0.014945393428206444,-0.004394215997308493
1769661905522777900,8.43977783203125,-0.008291752077639103,-0.01931830495595932,-0.009432383812963963
1769661905532766000,8.449765869140625,-0.009032377041876316,-0.019787553697824478,-0.019062906503677368
1769661905542754000,8.459754150390625,-0.008839564397931099,-0.026611637324094772,-0.024883778765797615
1769661905552743000,8.469742919921876,-0.008103999309241772,-0.024955684319138527,-0.02184484526515007
1769661905562730800,8.479730712890625,-0.005633384454995394,-0.015392538160085678,-0.024595890194177628
1769661905572718800,8.48971875,-0.0044139232486486435,-0.00529702752828598,-0.031155256554484367
1769661905582707000,8.49970703125,-0.002725212834775448,0.00014620754518546164,-0.03514546900987625
1769661905592695000,8.509695068359376,-0.0030988543294370174,0.007638478651642799,-0.03539127856492996
1769661905602684000,8.519683837890625,-0.0019688750617206097,0.013434582389891148,-0.03214754909276962
1769661905612671700,8.529671630859376,-0.0004394215648062527,0.0151003897190094,-0.023732759058475494
1769661905622659800,8.539659912109375,0.0002790992730297148,0.01296373549848795,-0.013983992859721184
1769661905632648000,8.54964794921875,-0.0003336940717417747,0.0029606360476464033,-0.011596201919019222
1769661905642635800,8.5596357421875,-0.0006383596919476986,-0.006806507240980864,-0.016117451712489128
1769661905652625000,8.569625,-0.0008319715270772576,-0.013737916015088558,-0.02244565449655056
1769661905662613000,8.579613037109375,0.003171558491885662,-0.015866581350564957,-0.024643560871481895
1769661905672601000,8.58960107421875,0.002130528911948204,-0.012416455894708633,-0.018249576911330223
1769661905682589000,8.5995888671875,0.0012604740913957357,-0.003960386849939823,-0.010191384702920914
1769661905692576800,8.60957666015625,0.001889246515929699,0.0005960154230706394,-0.004483697935938835
1769661905702566000,8.61956591796875,0.0009414274245500565,0.004883171990513802,-0.006747651379555464
1769661905712554000,8.629553955078125,0.0009685916593298316,0.0005163869354873896,-0.013905961997807026
1769661905722541800,8.639541748046875,0.0018271948210895061,-0.005516205448657274,-0.022846726700663567
1769661905732530000,8.649530029296875,0.0007025419035926461,-0.008225439116358757,-0.025892850011587143
1769661905742518000,8.65951806640625,0.0025742114521563053,-0.008489358238875866,-0.02858290821313858
1769661905752507000,8.6695068359375,0.005222192499786615,-0.007149522192776203,-0.022062424570322037
1769661905762494700,8.67949462890625,0.007013967260718346,-0.009489108808338642,-0.014025803655385971
1769661905772482800,8.68948291015625,0.006584399379789829,-0.010600446723401546,-0.004639759194105864
1769661905782471000,8.699470947265626,0.007764978799968958,-0.013919011689722538,-0.0016157397767528892
1769661905792460000,8.7094599609375,0.00640836451202631,-0.018449047580361366,-0.0002335592289455235
1769661905802448000,8.71944775390625,0.007127418182790279,-0.01985306665301323,0.0005486111622303724
1769661905812436000,8.72943603515625,0.005893841851502657,-0.019831229001283646,-0.001118793967179954
1769661905822423800,8.739423828125,0.004060521721839905,-0.019645873457193375,0.0016399745363742113
1769661905832411600,8.74941162109375,0.0034530546981841326,-0.018201906234025955,0.003111104713752866
1769661905842400800,8.75940087890625,0.0031438616570085287,-0.0166772473603487,0.0033401367254555225
1769661905852388900,8.769388916015625,0.0033630398102104664,-0.015370434150099754,0.0016841830220073462
1769661905862377000,8.779376953125,0.002061819192022085,-0.013743774965405464,-0.0017363809747621417
1769661905872365000,8.789364990234375,0.002814961364492774,-0.011803396046161652,-0.0062248725444078445
1769661905882353000,8.799352783203124,0.005016596522182226,-0.01022653840482235,-0.002266882685944438
1769661905892341800,8.809341796875,0.006746585946530104,-0.007935155183076859,0.002800047630444169
1769661905902329900,8.819329833984375,0.006859770510345697,-0.0032442628871649504,0.004752943757921457
1769661905912318000,8.82931787109375,0.005501824431121349,0.0005435511702671647,0.006551109720021486
1769661905922305800,8.839305908203125,0.004500742070376873,0.0023276028223335743,0.0049763829447329044
1769661905932294000,8.8492939453125,0.0029675604309886694,0.005116198677569628,0.0022748722694814205
1769661905942283000,8.859282958984375,0.0037579864729195833,0.011868643574416637,-0.0030394657514989376
1769661905952271000,8.86927099609375,0.004479170776903629,0.017314542084932327,-0.005946039687842131
1769661905962258700,8.8792587890625,0.003739078063517809,0.02310611866414547,-0.005359877832233906
1769661905972246800,8.889246826171876,0.003922037314623594,0.030165359377861023,-0.007576959673315287
1769661905982235000,8.89923486328125,0.0009946906939148903,0.034031737595796585,-0.01619521528482437
1769661905992224000,8.90922412109375,-0.0016144082183018327,0.035118039697408676,-0.022945795208215714
1769661906002211800,8.9192119140625,-0.0014530207263305783,0.03870558366179466,-0.03165113553404808
1769661906012200000,8.929199951171874,-0.00026045716367661953,0.03876124322414398,-0.042439866811037064
1769661906022188000,8.93918798828125,0.0032692966051399708,0.03155020251870155,-0.04023849964141846
1769661906032177000,8.949177001953124,0.005426723510026932,0.02917999029159546,-0.036543894559144974
1769661906042164700,8.959164794921875,0.008810003288090229,0.02311144396662712,-0.03313132002949715
1769661906052152800,8.96915283203125,0.006200105417519808,0.018096977844834328,-0.03982597589492798
1769661906062141000,8.979140869140625,0.006807305850088596,0.015674833208322525,-0.04891001805663109
1769661906072128800,8.989128662109374,0.006133792456239462,0.014138721860945225,-0.05248850956559181
1769661906082118000,8.999117919921876,0.004267981741577387,0.0210682675242424,-0.05189036205410957
1769661906092106000,9.00910595703125,0.0057100835256278515,0.023152990266680717,-0.04168699309229851
1769661906102093800,9.01909375,0.006362025626003742,0.014466024935245514,-0.031380560249090195
1769661906112081700,9.02908154296875,0.00586721021682024,0.0013195963110774755,-0.02117372862994671
1769661906122069800,9.03906982421875,0.0019502328941598535,-0.00977673102170229,-0.018432803452014923
1769661906132059000,9.049058837890625,-0.00019734023953787982,-0.027955735102295876,-0.023690681904554367
1769661906142047000,9.059046875,-0.0033417344093322754,-0.044320859014987946,-0.03471110761165619
1769661906152035000,9.06903515625,-0.002148372121155262,-0.05094999819993973,-0.03484586626291275
1769661906162023000,9.07902294921875,-0.0012357067316770554,-0.05620281770825386,-0.02605823241174221
1769661906172011000,9.089010986328125,0.001606418751180172,-0.05367281660437584,-0.015184279531240463
1769661906181999900,9.098999755859374,0.0010106696281582117,-0.05122430622577667,-0.005488774739205837
1769661906191988000,9.108988037109375,0.00041678472189232707,-0.046729687601327896,-0.002965429797768593
1769661906201975800,9.118975830078124,-0.0024668860714882612,-0.046480949968099594,-0.00740119069814682
1769661906211964000,9.1289638671875,-0.005831523798406124,-0.04192081838846207,-0.015846872702240944
1769661906221952300,9.1389521484375,-0.005823001731187105,-0.0370781272649765,-0.025128522887825966
1769661906231941000,9.148941162109375,-0.006055762059986591,-0.03562430664896965,-0.024444356560707092
1769661906241929000,9.158928955078125,-0.005499694030731916,-0.03218909353017807,-0.019177954643964767
1769661906251917000,9.1689169921875,-0.007437676191329956,-0.026213495060801506,-0.012227371335029602
1769661906261905200,9.1789052734375,-0.008495217189192772,-0.024208933115005493,-0.013610883615911007
1769661906271894300,9.188894287109376,-0.01047501154243946,-0.022297581657767296,-0.024685638025403023
1769661906281882000,9.198882080078125,-0.013217801228165627,-0.028293956071138382,-0.03906724229454994
1769661906291870200,9.2088701171875,-0.016229569911956787,-0.03267112746834755,-0.04366651922464371
1769661906301858300,9.2188583984375,-0.017482055351138115,-0.0385628379881382,-0.038662172853946686
1769661906311846100,9.22884619140625,-0.018267953768372536,-0.04062572494149208,-0.028154406696558
1769661906321835000,9.2388349609375,-0.017059676349163055,-0.047208525240421295,-0.020181700587272644
1769661906331823000,9.248822998046874,-0.019388612359762192,-0.050095390528440475,-0.017657291144132614
1769661906341811200,9.258811279296875,-0.020532172173261642,-0.05185946822166443,-0.021700767800211906
1769661906351799300,9.26879931640625,-0.024155670776963234,-0.059475578367710114,-0.0253442395478487
1769661906361787100,9.278787109375,-0.02899276837706566,-0.06672497093677521,-0.02550589293241501
1769661906371776000,9.28877587890625,-0.030337665230035782,-0.07175780832767487,-0.01612251065671444
1769661906381764000,9.29876416015625,-0.03147323802113533,-0.07166939228773117,-0.005401156842708588
1769661906391752200,9.308752197265624,-0.0275016650557518,-0.07059800624847412,-0.000005858954409632133
1769661906401740000,9.318739990234375,-0.02467764914035797,-0.06553719937801361,-0.002685797866433859
1769661906411728100,9.32872802734375,-0.02582067809998989,-0.05777381733059883,-0.005961752496659756
1769661906421717200,9.33871728515625,-0.024227308109402657,-0.05188210681080818,-0.00694978516548872
1769661906431705300,9.348705322265625,-0.023309050127863884,-0.053456034511327744,-0.006566023454070091
1769661906441693200,9.358693115234376,-0.021921010687947273,-0.05175081267952919,-0.006908239796757698
1769661906451681000,9.368680908203125,-0.022228073328733444,-0.0486663393676281,-0.008932242169976234
1769661906461669000,9.378669189453126,-0.022117553278803825,-0.041734930127859116,-0.011057444848120213
1769661906471658200,9.388658203125,-0.021677331998944283,-0.03410204499959946,-0.01254987996071577
1769661906481646000,9.39864599609375,-0.020482638850808144,-0.02816532552242279,-0.009917345829308033
1769661906491634200,9.40863427734375,-0.016465526074171066,-0.023448068648576736,-0.007900533266365528
1769661906501622300,9.418622314453126,-0.012050537392497063,-0.0173848494887352,-0.005116997752338648
1769661906511611100,9.428611083984375,-0.009802030399441719,-0.01113148033618927,-0.0022098910994827747
1769661906521599000,9.438598876953124,-0.00842837244272232,-0.0046506780199706554,0.0038834214210510254
1769661906531587000,9.448587158203125,-0.007351655978709459,0.00019441076437942684,0.0033478597179055214
1769661906541575200,9.4585751953125,-0.00818069837987423,-0.000716922979336232,0.002700445242226124
1769661906551563000,9.46856298828125,-0.007950867526233196,-0.00908484123647213,0.002287389012053609
1769661906561552100,9.47855224609375,-0.009939449839293957,-0.01824185438454151,0.005615008994936943
1769661906571540200,9.488540283203125,-0.00794314406812191,-0.023370569571852684,0.009562346152961254
1769661906581528000,9.498528076171874,-0.007734884973615408,-0.02611522376537323,0.013887852430343628
1769661906591516000,9.508515869140625,-0.0070821442641317844,-0.019899139180779457,0.014815697446465492
1769661906601504000,9.51850390625,-0.006708236411213875,-0.01022760383784771,0.013518738560378551
1769661906611493000,9.5284931640625,-0.007591607049107552,-0.004833637271076441,0.007419832982122898
1769661906621481200,9.538481201171875,-0.0052381716668605804,-0.0007866977830417454,0.005114068277180195
1769661906631469300,9.54846923828125,-0.005584648810327053,-0.00013768543431069702,0.0023225427139550447
1769661906641457200,9.55845703125,-0.003922570031136274,-0.0036751623265445232,0.00401631323620677
1769661906651445200,9.5684453125,-0.002813895931467414,-0.00549303600564599,0.011373295448720455
1769661906661434000,9.57843408203125,-0.005210474599152803,-0.008806806989014149,0.021025124937295914
1769661906671422200,9.588422119140626,-0.006964698899537325,-0.009749033488333225,0.023553529754281044
1769661906681410000,9.59841015625,-0.008235825225710869,-0.011411112733185291,0.021259216591715813
1769661906691398100,9.608398193359376,-0.007909055799245834,-0.020534569397568703,0.017829596996307373
1769661906701387300,9.61838720703125,-0.007782822009176016,-0.024956215173006058,0.013613280840218067
1769661906711375400,9.628375244140624,-0.003820570884272456,-0.022372150793671608,0.012063054367899895
1769661906721363000,9.638363037109375,-0.0014908375451341271,-0.01932549476623535,0.015993613749742508
1769661906731351000,9.64835107421875,0.00192200334277004,-0.014906245283782482,0.020232301205396652
1769661906741339100,9.658339111328125,0.0013411679537966847,-0.01067794393748045,0.022643527016043663
1769661906751328300,9.668328369140625,0.0025808694772422314,-0.005302886478602886,0.021697038784623146
1769661906761316000,9.678316162109375,0.0027798074297606945,-0.0031547807157039642,0.017828797921538353
1769661906771304200,9.68830419921875,0.0029443909879773855,-0.0012926984345540404,0.015451394021511078
1769661906781292300,9.698292236328125,0.002409894485026598,-0.0008596684201620519,0.010807107202708721
1769661906791280000,9.708280029296875,0.004048803821206093,0.0027031085919588804,0.013819941319525242
1769661906801269000,9.71826904296875,0.006317550782114267,0.0025355955585837364,0.0155544588342309
1769661906811257000,9.728257080078125,0.0062826634384691715,0.0036703685764223337,0.01725941337645054
1769661906821245200,9.7382451171875,0.004923119675368071,0.0026088326703757048,0.016282299533486366
1769661906831233000,9.74823291015625,0.007880293764173985,0.006440588738769293,0.015111042186617851
1769661906841221000,9.75822119140625,0.0076062544248998165,0.00618039770051837,0.010993262752890587
1769661906851210200,9.768210205078125,0.0068155620247125626,0.0006745787104591727,0.011982094496488571
1769661906861198000,9.778197998046876,0.005630721338093281,-0.001672198879532516,0.01095464639365673
1769661906871186000,9.78818603515625,0.007712780963629484,0.0020703414920717478,0.009738913737237453
1769661906881174000,9.798174072265626,0.010113620199263096,0.00526560191065073,0.0036818201187998056
1769661906891162000,9.808162109375,0.010325075127184391,0.01366441324353218,0.0020658141002058983
1769661906901151200,9.818151123046874,0.010027067735791206,0.028388498350977898,-0.004500209353864193
1769661906911139300,9.828139404296875,0.011782890185713768,0.03706427663564682,-0.008827846497297287
1769661906921127200,9.838127197265624,0.014659103937447071,0.03766348958015442,-0.006226737052202225
1769661906931115300,9.848115234375,0.016447415575385094,0.03057868219912052,-0.00017736652807798237
1769661906941104000,9.858104248046875,0.016143282875418663,0.018079668283462524,0.007652593310922384
1769661906951092200,9.86809228515625,0.013939517550170422,0.014097176492214203,0.008989233523607254
1769661906961080000,9.878080078125,0.0105341337621212,0.019588882103562355,0.005290902219712734
1769661906971068200,9.888068115234375,0.015534484758973122,0.01654462143778801,0.0018887137994170189
1769661906981056300,9.89805615234375,0.015093731693923473,-0.00003328951424919069,0.005833387840539217
1769661906991045000,9.908045166015626,0.013945110142230988,-0.0007177218794822693,0.005830991081893444
1769661907001033000,9.918032958984375,0.014348845928907394,0.0089966906234622,0.0022154836915433407
1769661907011021000,9.92802099609375,0.013382118195295334,-0.005684783682227135,-0.001014398061670363
1769661907021009200,9.938009033203125,0.014576013199985027,-0.01738378405570984,-0.0020543625578284264
1769661907030997000,9.9479970703125,0.014742727391421795,-0.010036122053861618,-0.0019201391842216253
1769661907040986000,9.957986083984375,0.015801332890987396,-0.007119694724678993,-0.005723133217543364
1769661907050974200,9.96797412109375,0.018256235867738724,-0.010671020485460758,-0.00812317430973053
1769661907060962300,9.97796240234375,0.021101823076605797,-0.01212990004569292,-0.009613744914531708
1769661907070950100,9.9879501953125,0.022423017770051956,-0.017588846385478973,-0.008980711922049522
1769661907080938000,9.99793798828125,0.024521587416529655,-0.018985942006111145,-0.011336278170347214
1769661907090927000,10.007927001953124,0.025955967605113983,-0.020191287621855736,-0.009043828584253788
1769661907100915200,10.017915283203125,0.023092802613973618,-0.026740800589323044,-0.003343598684296012
1769661907110903000,10.027903076171874,0.020687967538833618,-0.034392062574625015,-0.0014506238512694836
1769661907120891100,10.03789111328125,0.023935159668326378,-0.04137913137674332,0.000358461489668116
1769661907130879200,10.047879150390624,0.024395354092121124,-0.04330859333276749,0.0029936593491584063
1769661907140868000,10.0578681640625,0.02797490917146206,-0.0383274145424366,0.004734567832201719
1769661907150856000,10.06785595703125,0.030653249472379684,-0.030173614621162415,0.007756190374493599
1769661907160844000,10.077843994140625,0.03460724651813507,-0.01522662304341793,0.010078732855618
1769661907170832100,10.08783203125,0.036611542105674744,-0.004923652391880751,0.008892827667295933
1769661907180821200,10.0978212890625,0.03442135825753212,0.00014460964302998036,0.006870422977954149
1769661907190809300,10.107809326171875,0.03217631205916405,-0.0005004079430364072,0.006368417292833328
1769661907200797200,10.117797119140626,0.028230838477611542,-0.004589691758155823,0.008375109173357487
1769661907210785000,10.127784912109375,0.024386299774050713,-0.012539493851363659,0.0124822361394763
1769661907220772900,10.13777294921875,0.020002203062176704,-0.017223728820681572,0.014611166901886463
1769661907230761700,10.14776171875,0.015278821811079979,-0.016895892098546028,0.013575197197496891
1769661907240749800,10.157749755859374,0.008304002694785595,-0.01762985996901989,0.008993228897452354
1769661907250737700,10.167737548828125,0.005898901727050543,-0.01727779023349285,0.0024884575977921486
1769661907260725800,10.177725830078124,0.00026019083452410996,-0.01732572726905346,-0.005775064695626497
1769661907270713900,10.1877138671875,-0.0020668793004006147,-0.011669705621898174,-0.007757521700114012
1769661907280702700,10.19770263671875,-0.002960103563964367,-0.004975850228220224,-0.007697867229580879
1769661907290690600,10.207690673828125,-0.0017600831342861056,0.000910268456209451,-0.007539409212768078
1769661907300678700,10.2176787109375,-0.0007179882377386093,0.010326140560209751,-0.009643838740885258
1769661907310666800,10.227666748046875,-0.002627474721521139,0.01372433453798294,-0.008873919025063515
1769661907320654800,10.23765478515625,-0.0036037894897162914,0.015156049281358719,-0.006313289515674114
1769661907330643700,10.247643798828125,-0.004972654394805431,0.014610367827117443,-0.00520727876573801
1769661907340631800,10.2576318359375,-0.008757006376981735,0.011622034944593906,-0.003983556292951107
1769661907350620000,10.267619873046876,-0.01107209175825119,0.006702111102640629,-0.005822202656418085
1769661907360607700,10.277607666015625,-0.014072143472731113,-0.003882888937368989,-0.00765951769426465
1769661907370595600,10.287595703125,-0.0158921480178833,-0.014630874618887901,-0.009696036577224731
1769661907380584700,10.297584716796875,-0.01672385260462761,-0.021620074287056923,-0.007679757662117481
1769661907390572800,10.30757275390625,-0.015532353892922401,-0.020664798095822334,-0.005148422904312611
1769661907400561000,10.317560791015625,-0.01375336293131113,-0.015870841220021248,-0.002767290687188506
1769661907410548700,10.327548828125,-0.012075038626790047,-0.008101868443191051,-0.0020003002136945724
1769661907420536800,10.337536865234375,-0.00945182517170906,0.0041699777357280254,-0.004236556589603424
1769661907430525700,10.347525634765624,-0.009561280719935894,0.010704842396080494,-0.01044411864131689
1769661907440513800,10.357513671875,-0.009071525186300278,0.012262258678674698,-0.01179460808634758
1769661907450501600,10.367501708984374,-0.00947739090770483,0.014054566621780396,-0.012287026271224022
1769661907460489700,10.37748974609375,-0.010037720203399658,0.014938469044864178,-0.010676879435777664
1769661907470478800,10.387478759765624,-0.010480071417987347,0.010577010922133923,-0.007647267077118158
1769661907480467000,10.397467041015625,-0.011742942035198212,0.006287723314017057,-0.004519384354352951
1769661907490454800,10.407454833984374,-0.013881727121770382,0.002329733222723007,-0.0035228293854743242
1769661907500442600,10.417442626953125,-0.015735287219285965,-0.002272208919748664,-0.0016013587592169642
1769661907510430700,10.4274306640625,-0.015308116562664509,-0.006228601094335318,0.000041278995922766626
1769661907520419800,10.437419921875,-0.01775316521525383,-0.01101563312113285,0.0030274814926087856
1769661907530407700,10.44740771484375,-0.017307084053754807,-0.015780560672283173,0.007568703964352608
1769661907540395800,10.457395751953126,-0.015590677969157696,-0.019100191071629524,0.013458018191158772
1769661907550383900,10.4673837890625,-0.01666100136935711,-0.02377537079155445,0.014007428660988808
1769661907560372000,10.4773720703125,-0.015472167171537876,-0.02563399076461792,0.010529073886573315
1769661907570360600,10.487360595703125,-0.015031147748231888,-0.021448301151394844,0.002832271857187152
1769661907580348700,10.4973486328125,-0.010812434367835522,-0.011024155654013157,-0.0032088428270071745
1769661907590336800,10.507336669921875,-0.013085974380373955,-0.002030926523730159,-0.005243764258921146
1769661907600324900,10.517324951171876,-0.01050164271146059,0.007772968150675297,-0.0034906051587313414
1769661907610312700,10.527312744140625,-0.00780625781044364,0.01281699538230896,-0.004225904121994972
1769661907620301800,10.5373017578125,-0.00899988692253828,0.015425828285515308,-0.006915962789207697
1769661907630290000,10.5472900390625,-0.008076302707195282,0.01805596612393856,-0.01455923542380333
1769661907640277800,10.55727783203125,-0.010328537784516811,0.016266588121652603,-0.02076413482427597
1769661907650265600,10.567265625,-0.011738414876163006,0.01269848458468914,-0.01955372840166092
1769661907660253700,10.577253662109374,-0.011298460885882378,0.01164254080504179,-0.016497749835252762
1769661907670242800,10.587242919921875,-0.009922938421368599,0.0105929896235466,-0.011318168602883816
1769661907680231000,10.59723095703125,-0.009124255739152431,0.001841842196881771,-0.008824383839964867
1769661907690218800,10.60721875,-0.0101964445784688,-0.007424892857670784,-0.00749093946069479
1769661907700206800,10.617206787109374,-0.01101376861333847,-0.008727178908884525,-0.013544837012887001
1769661907710195700,10.62719580078125,-0.009997772984206676,-0.006050968077033758,-0.02701963298022747
1769661907720183800,10.637183837890625,-0.008392952382564545,-0.003079679561778903,-0.04104943200945854
1769661907730171600,10.647171630859376,-0.00367143377661705,0.004988367203623056,-0.046613309532403946
1769661907740159700,10.65715966796875,-0.0016026903176680207,0.017789648845791817,-0.04465987905859947
1769661907750147800,10.66714794921875,0.001412806916050613,0.02845960482954979,-0.03582111373543739
1769661907760137000,10.677136962890625,0.003385410411283374,0.028987975791096687,-0.022758575156331062
1769661907770124800,10.687124755859376,0.002799248555675149,0.02327682636678219,-0.012712333351373672
1769661907780112600,10.697112548828125,-0.00034168356796726584,0.015995211899280548,-0.010311227291822433
1769661907790100700,10.707100830078126,-0.006945523899048567,0.008182828314602375,-0.014306501485407352
1769661907800088600,10.717088623046875,-0.011301389895379543,0.0022040321491658688,-0.019462646916508675
1769661907810077700,10.72707763671875,-0.011093397624790668,-0.0025630262680351734,-0.017764084041118622
1769661907820065800,10.737065673828125,-0.010577542707324028,-0.005536711774766445,-0.010219081304967403
1769661907830054000,10.747053955078124,-0.005822735372930765,-0.005087969359010458,-0.0032373385038226843
1769661907840041700,10.757041748046875,-0.006464823614805937,-0.0038360171020030975,-0.003739078063517809
1769661907850029800,10.76702978515625,-0.004793157335370779,-0.006506102625280619,-0.010374077595770359
1769661907860018700,10.777018798828125,-0.006572947837412357,-0.008918659761548042,-0.0208128709346056
1769661907870006800,10.7870068359375,-0.009700031951069832,-0.008807073347270489,-0.02545049786567688
1769661907879995000,10.796994873046875,-0.009076851420104504,-0.007842476479709148,-0.027118703350424767
1769661907889982700,10.806982666015625,-0.008914931677281857,-0.0006828344776295125,-0.020472517237067223
1769661907899971800,10.816971923828126,-0.00734260119497776,0.0062911855056881905,-0.009497631341218948
1769661907909959700,10.826959716796875,-0.004071174189448357,0.006367884576320648,-0.0026522420812398195
1769661907919947800,10.83694775390625,-0.0044144559651613235,0.004009655211120844,-0.002719087526202202
1769661907929935600,10.846935546875,-0.002766757970675826,-0.0014287859667092562,-0.005495699122548103
1769661907939923700,10.856923828125,-0.0033545177429914474,-0.008099205791950226,-0.0028514466248452663
1769661907949912800,10.866912841796875,-0.0025473134592175484,-0.0162359606474638,0.0017302557826042175
1769661907959901000,10.87690087890625,-0.0036991306114941835,-0.022002769634127617,0.007774033583700657
1769661907969888800,10.886888671875,-0.00464694993570447,-0.026518959552049637,0.01145931612700224
1769661907979876900,10.896876953125,-0.0056712012737989426,-0.030963508412241936,0.012602344155311584
1769661907989864700,10.90686474609375,-0.0026104305870831013,-0.028550950810313225,0.012005530297756195
1769661907999853800,10.916853759765624,-0.0002961435238830745,-0.021756693720817566,0.011205516755580902
1769661908009841700,10.926841552734375,0.000316916179144755,-0.011457185260951519,0.012325908057391644
1769661908019829800,10.936829833984374,0.0023699470330029726,0.0007653924985788763,0.011213505640625954
1769661908029817900,10.94681787109375,0.001407480682246387,0.009795372374355793,0.011020959354937077
1769661908039805700,10.9568056640625,0.0043683829717338085,0.009982326999306679,0.007702927105128765
1769661908049794600,10.966794677734375,0.002584864152595401,0.0006378270918503404,0.0020564929582178593
1769661908059782700,10.97678271484375,0.0012370382901281118,-0.006621151231229305,-0.003442934714257717
1769661908069770800,10.986770751953125,0.001141963410191238,-0.00574816670268774,-0.008387626148760319
1769661908079758600,10.996758544921875,0.002388589084148407,-0.005351622123271227,-0.006745786871761084
1769661908089746700,11.00674658203125,0.005140966270118952,-0.0005659217131324112,0.00017710021347738802
1769661908099735800,11.01673583984375,0.01050403993576765,0.011985822580754757,0.008929046802222729
1769661908109724000,11.026723876953126,0.011987420730292797,0.01565086469054222,0.014055364765226841
1769661908119711700,11.036711669921875,0.011689945124089718,0.01350755337625742,0.014055631123483181
1769661908129699600,11.046699462890626,0.010115484707057476,0.006030461750924587,0.009225722402334213
1769661908139688700,11.056688720703125,0.006876281928271055,-0.00290391081944108,0.004857073072344065
1769661908149676800,11.0666767578125,0.004515389446169138,-0.006196909584105015,0.0003110571997240186
1769661908159665000,11.076664794921875,0.006786000914871693,-0.003962783608585596,0.001002413802780211
1769661908169652700,11.08665283203125,0.009147425182163715,0.0004237089306116104,0.003582217963412404
1769661908179640800,11.096640869140625,0.011508584022521973,0.009271262213587761,0.006167348474264145
1769661908189629700,11.106629638671874,0.01595020480453968,0.01593768782913685,0.007656321860849857
1769661908199617800,11.11661767578125,0.018132930621504784,0.019348664209246635,0.005691441707313061
1769661908209605600,11.126605712890624,0.018075140193104744,0.019515112042427063,0.0013432984706014395
1769661908219594200,11.13659423828125,0.018798189237713814,0.014933941885828972,-0.00020186760229989886
1769661908229582300,11.146582275390625,0.018324146047234535,0.011189271695911884,0.0014767227694392204
1769661908239571500,11.156571533203126,0.020675450563430786,0.008401740342378616,0.005907956510782242
1769661908249559000,11.16655908203125,0.02104935795068741,0.002540922025218606,0.008829976432025433
1769661908259547100,11.176547119140626,0.02153139002621174,-0.001913214917294681,0.013230584561824799
1769661908269535200,11.18653515625,0.020112724974751472,-0.005328186322003603,0.013276124373078346
1769661908279523300,11.1965234375,0.017957694828510284,-0.009033442474901676,0.011424960568547249
1769661908289512200,11.20651220703125,0.014518222771584988,-0.012612464837729931,0.0076006618328392506
1769661908299500300,11.216500244140626,0.014026070013642311,-0.017375262454152107,0.002907639369368553
1769661908309488400,11.22648828125,0.0126968864351511,-0.01805383525788784,0.004448810592293739
1769661908319476500,11.2364765625,0.012018047273159027,-0.02040061354637146,0.0025534387677907944
1769661908329465000,11.246465087890625,0.013706224970519543,-0.020909009501338005,0.0017028251895681024
1769661908339453200,11.256453125,0.013168532401323318,-0.01980353146791458,0.0016626114957034588
1769661908349441300,11.266441162109375,0.01811988092958927,-0.01601358689367771,0.006082926411181688
1769661908359429400,11.276429443359374,0.01890258491039276,-0.010331733152270317,0.009761017747223377
1769661908369417200,11.286417236328125,0.018918562680482864,-0.004466653801500797,0.014394918456673622
1769661908379406300,11.29640625,0.014459366910159588,-0.00007536746124969795,0.012486496940255165
1769661908389394200,11.306394287109375,0.013644971884787083,0.0009627327090129256,0.008051268756389618
1769661908399382300,11.31638232421875,0.013608220033347607,-0.00023622238950338215,0.003680222202092409
1769661908409370000,11.3263701171875,0.010402573272585869,-0.003704989794641733,0.0032437301706522703
1769661908419358200,11.336358154296875,0.010000436566770077,-0.00782836228609085,0.002936934120953083
1769661908429347300,11.346347412109376,0.008895490318536758,-0.011831092648208141,0.005630987696349621
1769661908439335400,11.35633544921875,0.008792426437139511,-0.013032178394496441,0.005790244787931442
1769661908449323300,11.3663232421875,0.0073505910113453865,-0.013309946283698082,0.0040796962566673756
1769661908459311400,11.376311279296875,0.004009388852864504,-0.01076715998351574,0.003169161733239889
1769661908469300200,11.38630029296875,0.0013699301052838564,-0.007275489624589682,-0.0006181196658872068
1769661908479288300,11.396288330078125,0.001898301183246076,-0.0044051348231732845,-0.0010697918478399515
1769661908489276200,11.406276123046876,0.00008708536915946752,0.002383795566856861,0.0013752563390880823
1769661908499264300,11.41626416015625,0.0035302862524986267,0.007232612930238247,0.006897587329149246
1769661908509252400,11.42625244140625,0.0008415589109063148,0.012819924391806126,0.00881160143762827
1769661908519241200,11.4362412109375,0.003802727675065398,0.017890317365527153,0.009718939661979675
1769661908529229000,11.44622900390625,0.005129780620336533,0.013198626227676868,0.009156480431556702
1769661908539217200,11.456217041015625,0.0020937772933393717,0.0015014902455732226,0.009149023331701756
1769661908549205200,11.466205322265624,-0.002719087526202202,-0.005553755909204483,0.007124488707631826
1769661908559193300,11.476193359375,-0.001422128058038652,-0.012300608679652214,0.003413107246160507
1769661908569182200,11.48618212890625,-0.002510561840608716,-0.015233014710247517,0.0011142665753141046
1769661908579170300,11.49617041015625,-0.0006764429272152483,-0.010624414309859276,0.001540904981084168
1769661908589158400,11.506158447265625,0.0008609999786131084,0.0021547635551542044,0.00515854312106967
1769661908599146200,11.516146240234375,0.002680737990885973,0.005872003734111786,0.0065468489192426205
1769661908609135000,11.526135009765625,0.003998470026999712,0.00697801448404789,0.009525327943265438
1769661908619123200,11.536123291015626,0.003227484878152609,0.0012828446924686432,0.009050220251083374
1769661908629111300,11.546111328125,-0.0004916195175610483,-0.006899185013025999,0.004734834190458059
1769661908639099400,11.556099365234376,-0.003707120195031166,-0.010996724478900433,-0.000794420950114727
1769661908649087200,11.566087158203125,-0.004065847955644131,-0.010073939338326454,-0.003690076060593128
1769661908659076000,11.576076171875,-0.0020756677258759737,-0.007358580362051725,0.005922603886574507
1769661908669064200,11.586064208984375,0.0021286646369844675,-0.003879160387441516,0.018447184935212135
1769661908679052300,11.59605224609375,0.005879727192223072,-0.0028549085836857557,0.023254189640283585
1769661908689040100,11.6060400390625,0.005061337724328041,-0.004002198576927185,0.020561734214425087
1769661908699028200,11.6160283203125,0.0038991342298686504,-0.007868842221796513,0.0133275231346488
1769661908709017300,11.626017333984375,0.0036096484400331974,-0.008054730482399464,0.004290618933737278
1769661908719005400,11.63600537109375,0.002074069809168577,-0.007119162008166313,-0.0015326491557061672
1769661908728993300,11.6459931640625,0.004073038697242737,-0.004066114313900471,-0.0017417073249816895
1769661908738981000,11.655981201171874,0.006976683158427477,0.0036155073903501034,0.005618470720946789
1769661908748969200,11.66596923828125,0.008978048339486122,0.006473345682024956,0.013279319740831852
1769661908758958300,11.675958251953125,0.008008391596376896,0.008245945908129215,0.014546718448400497
1769661908768946200,11.6859462890625,0.010099506005644798,0.011243865825235844,0.010907242074608803
1769661908778934300,11.695934326171875,0.006640858482569456,0.0100198769941926,0.00683233980089426
1769661908788922400,11.70592236328125,0.0062403189949691296,0.004406199790537357,0.005970008205622435
1769661908798911200,11.7159111328125,0.003043194068595767,-0.004008590243756771,0.006603574380278587
1769661908808899000,11.725899169921876,0.00005299690383253619,-0.013374128378927708,0.009103749878704548
1769661908818887200,11.73588720703125,-0.0005318332696333528,-0.021278390660881996,0.004552141297608614
1769661908828875300,11.745875244140626,0.0006628608098253608,-0.026978621259331703,-0.0037734329234808683
1769661908838863400,11.75586328125,0.002543318783864379,-0.02611229382455349,-0.009131180122494698
1769661908848852200,11.765852294921874,0.006976150441914797,-0.01461809128522873,-0.012182896956801414
1769661908858840300,11.77584033203125,0.00863370206207037,-0.001984853995963931,-0.007905061356723309
1769661908868828400,11.785828369140624,0.01152669358998537,0.010555438697338104,-0.004067446105182171
1769661908878816300,11.795816162109375,0.009698167443275452,0.014112090691924095,-0.0014908375451341271
1769661908888804000,11.80580419921875,0.010486463084816933,0.010340522043406963,-0.001133174984715879
1769661908898793200,11.815793212890625,0.006426207721233368,0.0016500946367159486,0.001412806916050613
1769661908908781300,11.82578125,0.006672283634543419,-0.005091165192425251,0.001669269404374063
1769661908918769400,11.835769287109375,0.006389189511537552,-0.011720571666955948,0.003885285696014762
1769661908928757200,11.84575732421875,0.0071039823815226555,-0.01991698332130909,0.006317284423857927
