time,seconds_elapsed,acc_z,acc_y,acc_x,gyro_z,gyro_y,gyro_x
1.76966E+18,0.07465625,0.110296395,-0.023511808,-0.021909049,0.005314446,-0.014046645,-0.002523247
1.76966E+18,0.084645264,0.094025095,-0.037864743,-0.052760992,0.006174914,0.001997037,-0.0092448
1.76966E+18,0.094633301,0.044876741,-0.049076458,-0.038509763,0.001182759,0.000675473,-0.013063031
1.76966E+18,0.104621338,-0.002928455,-0.063720485,0.005517302,0.003568152,0.014928978,-0.0098968
1.76966E+18,0.114609131,-0.010975568,-0.063017889,-0.017920857,0.002752526,0.012230702,-0.010091292
1.76966E+18,0.124597412,0.009801848,-0.067671268,0.006647183,0.009809903,0.024436504,-0.014323054
1.76966E+18,0.13458667,-0.017258009,-0.090767482,0.014983926,0.011632524,0.026299272,-0.019986309
1.76966E+18,0.144574707,0.060052025,-0.070720134,-0.041893853,0.007321666,0.013486804,-0.029498588
1.76966E+18,0.154562744,0.060866849,0.038957215,0.027397125,0.008152176,0.009362396,-0.022637278
1.76966E+18,0.164550781,0.039954336,0.034393853,-0.008833879,0.005318305,0.010743245,-0.012872263
1.76966E+18,0.174538818,0.054051251,0.014814707,-0.009070903,0.007940281,0.007259867,-0.00166549
1.76966E+18,0.184527832,0.092980482,0.012183774,0.000734159,0.010032726,-0.001268107,0.00803614
1.76966E+18,0.194515869,0.120797294,-0.008492519,-0.014167349,0.010874806,-0.01183535,0.014357856
1.76966E+18,0.204503662,0.054361741,-0.007065701,0.009079671,0.012377894,-0.01347133,0.020571277
1.76966E+18,0.214491699,0.004400317,-0.031875732,0.014493805,0.010313424,-0.01081474,0.022757562
1.76966E+18,0.224479736,0.004932123,-0.024075872,0.018728958,0.009588778,-0.003676936,0.019994266
1.76966E+18,0.23446875,-0.011225231,-0.037507016,0.024033787,0.010595085,0.002799125,0.015899284
1.76966E+18,0.244456787,0.008369696,-0.065779755,0.008678689,0.014356,0.008698559,0.009296242
1.76966E+18,0.254444824,-0.00274433,-0.084578564,-0.010925883,0.012669899,0.019373646,0.006800718
1.76966E+18,0.264432861,-0.016317002,-0.077484222,-0.003857844,0.013229962,0.033640996,0.006587399
1.76966E+18,0.274420898,-0.021582886,-0.065035659,0.002771218,0.011767197,0.043653008,0.007242555
1.76966E+18,0.284409668,-0.000810695,-0.060506783,0.021197686,0.012485452,0.04288096,0.002833159
1.76966E+18,0.294397705,0.037140521,-0.091169633,0.035759003,0.009708988,0.04247852,-0.006620462
1.76966E+18,0.304385742,0.038908115,-0.112138771,0.032519291,0.008250642,0.042357881,-0.017147671
1.76966E+18,0.314373779,0.045832398,-0.102913847,0.024001346,0.008648731,0.044365708,-0.031169889
1.76966E+18,0.324361816,0.04899583,-0.045509121,0.002294833,0.010834387,0.053573586,-0.044858538
1.76966E+18,0.334350586,-0.021259646,-0.052158642,-0.044472471,0.010735463,0.063433997,-0.043222409
1.76966E+18,0.344338867,-0.055220915,-0.05437398,-0.062898647,0.016361924,0.074121535,-0.042425327
1.76966E+18,0.35432666,-0.039414859,-0.005323241,-0.045540393,0.020261656,0.078084327,-0.040229309
1.76966E+18,0.364314697,-0.001270166,-0.009215572,-0.034886897,0.02491766,0.081671871,-0.043212317
1.76966E+18,0.374302734,0.020635961,-0.000938742,-0.003677227,0.030936247,0.088487029,-0.052039877
1.76966E+18,0.384291992,0.011405228,-0.010315058,0.042248365,0.038442366,0.095877297,-0.06375885
1.76966E+18,0.394279785,-0.005200455,-0.103539869,-0.062082362,0.027798876,0.090709984,-0.066515781
1.76966E+18,0.404267822,-0.072091423,-0.109862058,-0.033041269,0.03047855,0.091902278,-0.062038478
1.76966E+18,0.414255615,-0.053880059,-0.077930796,-0.014501696,0.035630412,0.098882601,-0.063095041
1.76966E+18,0.424243896,-0.004508381,-0.022259178,-0.02483049,0.036149465,0.111988284,-0.074381784
1.76966E+18,0.434232666,-0.012387736,-0.018287936,-0.012713351,0.041614968,0.127860546,-0.083700098
1.76966E+18,0.444220703,0.001840696,-0.020647067,0.016696576,0.043962009,0.140922561,-0.098080635
1.76966E+18,0.45420874,0.054276365,-0.090025139,0.034777591,0.063378222,0.181913614,-0.122188009
1.76966E+18,0.464197021,0.0774147,-0.128860773,-0.013292028,0.045296162,0.168088078,-0.137026072
1.76966E+18,0.474184814,0.05430676,-0.009320786,-0.067101944,0.041962229,0.125925109,-0.123916775
1.76966E+18,0.484173584,-0.018093291,-0.034854456,0.004469547,0.048934117,0.079056129,-0.095840931
1.76966E+18,0.494161621,-0.028443968,0.00669979,-0.062057812,0.030413309,0.082365341,-0.055452429
1.76966E+18,0.504149902,0.046247372,-0.06384908,-0.046302609,0.026457984,0.096900873,-0.060304709
1.76966E+18,0.514137695,0.098857886,-0.055571665,0.015987843,0.031337749,0.107550785,-0.052479669
1.76966E+18,0.524125732,0.070302841,-0.030828854,0.018014672,0.031521507,0.088913448,-0.041241392
1.76966E+18,0.53411499,0.164883688,-0.064945058,0.00839578,0.032396875,0.076292112,-0.030859955
1.76966E+18,0.544103027,0.1368833,-0.029925183,-0.00159253,0.032931104,0.062611453,-0.019474942
1.76966E+18,0.554090576,0.100882633,-0.032552609,-0.003495441,0.030798992,0.062695161,-0.011975385
1.76966E+18,0.564078613,0.059958465,-0.036485856,0.008491934,0.022207368,0.069604732,-0.013641724
1.76966E+18,0.57406665,0.036551907,-0.046245034,0.041644262,0.014447593,0.075507157,-0.023227889
1.76966E+18,0.584055908,-0.004274024,-0.068694766,0.063666124,0.008738842,0.076878145,-0.036275513
1.76966E+18,0.594043701,0.00420622,-0.050225628,0.069801851,0.006583861,0.076731436,-0.046818476
1.76966E+18,0.604031738,-0.005783844,-0.053348728,0.037543549,0.009872865,0.078848116,-0.058183517
1.76966E+18,0.61402002,-0.05242343,-0.047356794,0.017572482,0.021247033,0.088822104,-0.068336658
1.76966E+18,0.624007813,-0.105116307,-0.023019641,-0.047474283,0.0278807,0.112325028,-0.074298151
1.76966E+18,0.633996582,-0.185749348,-0.010191139,-0.083128365,0.030386681,0.141767949,-0.069309123
1.76966E+18,0.643984619,-0.191021151,-0.019597265,-0.052904492,0.028679593,0.160310477,-0.062865071
1.76966E+18,0.6539729,-0.078277436,-0.055853405,-0.049266427,0.025848148,0.15718013,-0.060060922
1.76966E+18,0.663960693,0.015562293,-0.068776015,-0.003940262,0.025793819,0.141705573,-0.05576418
1.76966E+18,0.67394873,0.052706339,-0.054510173,0.042277299,0.02838771,0.122380406,-0.043440774
1.76966E+18,0.683937744,0.077141107,-0.061086045,0.088851127,0.0236867,0.095948793,-0.022715524
1.76966E+18,0.693925781,0.159266433,-0.068376202,0.114781687,0.007946705,0.068822861,-0.007344467
1.76966E+18,0.703913818,0.214366973,-0.094561613,0.156890936,0.003484579,0.026932398,0.009628125
1.76966E+18,0.713901611,0.255075416,-0.059932198,0.227367617,-0.004197082,-0.0391648,0.029161485
1.76966E+18,0.723889648,0.338906376,-0.080425536,0.21469226,-0.019075897,-0.096020363,0.033570081
1.76966E+18,0.733878906,0.308171046,-0.106617377,0.203421216,-0.025590185,-0.103932865,0.041979779
1.76966E+18,0.743866943,0.180262477,-0.095579266,0.156093648,-0.034565035,-0.112657912,0.051135462
1.76966E+18,0.753854736,0.157232333,-0.06625088,0.090727734,-0.040304042,-0.130813092,0.055446073
1.76966E+18,0.763842773,0.086032288,-0.04800386,0.074817633,-0.040927488,-0.14165695,0.057159554
1.76966E+18,0.773830811,0.036971028,-0.076628482,0.01768471,-0.043510698,-0.135235876,0.047926247
1.76966E+18,0.783819824,0.002027158,-0.09730419,-0.010970599,-0.042457152,-0.123033807,0.032078307
1.76966E+18,0.793807617,0.005883231,-0.066789809,-0.030368543,-0.038895734,-0.115322784,0.011596015
1.76966E+18,0.803795654,-0.02881808,-0.029919922,-0.079369889,-0.037002493,-0.098367505,-0.001825784
1.76966E+18,0.813783936,-0.087392434,0.009164719,-0.10942016,-0.031669892,-0.074002281,-0.008509456
1.76966E+18,0.823771729,-0.109541137,0.031494624,-0.140008775,-0.025737168,-0.052127872,-0.007603182
1.76966E+18,0.833760498,-0.098176315,0.03191548,-0.153323014,-0.020929251,-0.030014815,-0.006082581
1.76966E+18,0.843748779,-0.091767617,0.013131284,-0.157004041,-0.0187886,-0.008652268,-0.004463645
1.76966E+18,0.853736816,-0.081852354,-0.012998013,-0.147993636,-0.013627034,0.007816052,-0.002799168
1.76966E+18,0.863724609,-0.04204055,-0.03285656,-0.120766314,-0.012051241,0.01653897,-0.005261526
1.76966E+18,0.873712646,-0.010081249,-0.050249593,-0.096406949,-0.005811271,0.019595435,-0.005644395
1.76966E+18,0.883701904,-0.004687263,-0.065771572,-0.057852762,-0.004131882,0.022167781,-0.004431591
1.76966E+18,0.893689941,-0.018229484,-0.07609832,-0.005559388,-0.003558201,0.019710949,0.002026971
1.76966E+18,0.903677734,7.59696E-05,-0.08350772,0.039316696,-0.006149722,0.011396561,0.00680415
1.76966E+18,0.913665527,0.046261967,-0.061786302,0.060991352,-0.006871646,-0.002379069,0.007460678
1.76966E+18,0.923653809,0.081686952,-0.021587562,0.086321608,-0.009825092,-0.015282352,0.008729141
1.76966E+18,0.933642822,0.097142277,0.024539982,0.095357732,-0.012415549,-0.029645044,0.012981677
1.76966E+18,0.943630615,0.099673275,0.021813772,0.099229605,-0.017402051,-0.04612948,0.019817745
1.76966E+18,0.953618652,0.081051559,-0.0075491,0.09347411,-0.021757498,-0.058825333,0.022582702
1.76966E+18,0.963606934,0.080281177,-0.049444707,0.085459438,-0.024164997,-0.066324256,0.020197041
1.76966E+18,0.973594971,0.090110497,-0.08566519,0.069387424,-0.027847692,-0.069672167,0.013112057
1.76966E+18,0.98358374,0.104991822,-0.127827338,0.04364625,-0.030521238,-0.068866298,0.004747867
1.76966E+18,0.993571533,0.054296823,-0.171164376,-0.003837678,-0.0347315,-0.060255777,0.00365893
1.76966E+18,1.003559814,0.012513426,-0.144641111,-0.054745151,-0.032688323,-0.048216425,0.001396841
1.76966E+18,1.013547852,0.009131401,-0.083617025,-0.107095808,-0.02841229,-0.035309039,-0.000976777
1.76966E+18,1.023535645,0.012953005,-0.021495792,-0.152150463,-0.022264384,-0.028499072,0.000769457
1.76966E+18,1.033524902,-0.038169279,0.038968905,-0.142203362,-0.016752219,-0.01767627,0.004896062
1.76966E+18,1.043512695,-0.114308516,0.071622052,-0.102737905,-0.014572421,-0.002444586,0.009281224
1.76966E+18,1.053500732,-0.128412427,0.067384268,-0.087255966,-0.011894486,0.012301398,0.006669333
1.76966E+18,1.063488525,-0.069219648,0.024502573,-0.042014557,-0.006566565,0.020468516,-0.001743593
1.76966E+18,1.073476563,-0.018613515,-0.02448796,-0.005460019,-0.000264925,0.0230035,-0.010854108
1.76966E+18,1.08346582,-0.01256196,-0.072949501,0.001703005,0.000739354,0.024746805,-0.011665573
1.76966E+18,1.093453857,0.009236597,-0.087269703,0.010370003,0.001572695,0.025031433,-0.006472814
1.76966E+18,1.10344165,0.007043507,-0.080292849,0.002256254,-0.004665227,0.021398349,0.003219228
1.76966E+18,1.113429932,0.033286768,-0.090880879,-0.016661212,-0.008254581,0.013338752,0.014612375
1.76966E+18,1.123417969,0.046902621,-0.146150346,0.007058394,-0.012353453,0.00052229,0.018616971
1.76966E+18,1.133406494,0.045541269,-0.183128954,-0.000514672,-0.015431804,-0.004382895,0.008056553
1.76966E+18,1.143394531,0.039874914,-0.183792971,-0.007157471,-0.015758041,-0.002566886,-0.004076276
1.76966E+18,1.153382813,-0.026561259,-0.135367086,-0.009261165,-0.017334934,0.005920849,-0.014441243
1.76966E+18,1.16337085,-0.102954197,-0.052070379,-0.010251637,-0.015468057,0.023593586,-0.018112145
1.76966E+18,1.173358643,-0.142863561,0.033521161,-0.029103929,-0.009732522,0.038859058,-0.01347445
1.76966E+18,1.183347412,-0.120480465,0.084739307,-0.04870967,-0.006246711,0.051081102,-0.007629611
1.76966E+18,1.193335693,-0.076652429,0.069036711,-0.055425535,-0.003361037,0.058818683,-0.007099968
1.76966E+18,1.20332373,-0.015976134,0.039220834,-0.03832447,-0.003040127,0.062106889,-0.015985604
1.76966E+18,1.213311523,0.031559524,-0.02738602,-0.044206806,-0.001176013,0.067353047,-0.0232326
1.76966E+18,1.223299561,0.044307928,-0.084911157,-0.028306349,-0.004317745,0.0705017,-0.024730096
1.76966E+18,1.233288818,0.02559446,-0.101574707,-0.009867314,0.001209142,0.067700572,-0.023597153
1.76966E+18,1.243276855,0.04884791,-0.073776015,0.014949147,0.003816377,0.061139878,-0.022446668
1.76966E+18,1.253264648,0.052180269,-0.024402035,0.038244683,0.007412637,0.047649443,-0.017367911
1.76966E+18,1.263252686,0.045769818,-0.04512509,0.064704527,0.010144774,0.029383089,-0.009399997
1.76966E+18,1.273240723,0.045548284,-0.074699559,0.096497257,0.005566387,0.013623776,-0.008896276
1.76966E+18,1.283229736,0.034379842,-0.105052612,0.118381757,-0.000267799,0.00268564,-0.015938474
1.76966E+18,1.293217529,0.01770926,-0.147915602,0.180293147,-0.005332394,-0.002816022,-0.030750234
1.76966E+18,1.303205811,0.035076556,-0.123132459,0.208632521,-0.008840576,-0.00038935,-0.05068
1.76966E+18,1.313193848,0.009742226,-0.064895958,0.197858906,-0.009126453,0.004460684,-0.059497233
1.76966E+18,1.323181641,0.010516152,-0.007814473,0.179445005,0.001116597,-0.000374817,-0.058928382
1.76966E+18,1.33317041,0.016601572,0.040655251,0.146001293,0.006810686,-0.006913176,-0.046593085
1.76966E+18,1.343158691,0.036373628,0.045612581,0.109058633,0.005220247,-0.017546911,-0.033720426
1.76966E+18,1.353146729,0.062418755,-0.057936641,0.089473935,-0.001877556,-0.024393702,-0.025320679
1.76966E+18,1.363134521,0.093226565,-0.225893745,0.159597272,-0.008884865,-0.044881135,-0.035578638
1.76966E+18,1.373122559,0.096518574,-0.321327465,0.205751705,-0.016576102,-0.058056232,-0.066818506
1.76966E+18,1.383111816,0.082912704,-0.323465061,0.198761116,-0.020020634,-0.060148943,-0.100209489
1.76966E+18,1.393099854,0.078641009,-0.211464822,0.092317926,-0.020654466,-0.05685541,-0.117207646
1.76966E+18,1.403087646,0.072964708,-0.044917585,-0.024482699,-0.016235484,-0.048009187,-0.103688106
1.76966E+18,1.413075439,0.061487027,0.051752399,-0.118535486,-0.008874141,-0.03143923,-0.075426728
1.76966E+18,1.423063721,0.06457153,0.0489578,-0.17799919,0.000797928,-0.023587964,-0.047871262
1.76966E+18,1.433052734,0.109275783,0.005534838,-0.18825638,0.002143716,-0.015617735,-0.038617946
1.76966E+18,1.443040527,0.101363694,-0.039755087,-0.138610014,-0.000475503,-0.009175548,-0.046683598
1.76966E+18,1.453028564,0.005475801,-0.092836105,-0.106138069,-0.007634588,0.006001029,-0.06494493
1.76966E+18,1.463016846,-0.06059564,-0.073117259,-0.04162205,-0.011326794,0.018399641,-0.082242168
1.76966E+18,1.473004883,-0.068107897,0.044307928,-0.02889204,0.003162188,0.014073798,-0.095589787
1.76966E+18,1.482993652,-0.017550279,0.135732413,-0.024564532,0.017222349,0.015338266,-0.089929506
1.76966E+18,1.492981689,-0.032273792,0.117570148,-0.100083884,0.024078466,0.025004402,-0.070622236
1.76966E+18,1.502969727,-0.012062774,0.080051442,-0.144897131,0.018175304,0.025232902,-0.046633545
1.76966E+18,1.512957764,0.075306878,-0.032412323,-0.122592945,0.005395945,0.013811262,-0.041849431
1.76966E+18,1.522945557,0.130493343,-0.114136082,-0.095837332,0.002110403,0.005106187,-0.054061357
1.76966E+18,1.532934814,0.080942253,-0.130157243,0.015776246,-0.004908635,-0.000342725,-0.073851936
1.76966E+18,1.542922607,0.000454763,-0.121894441,-0.005798165,-0.012364155,0.009826822,-0.091020532
1.76966E+18,1.552910645,-0.007385434,-0.055637132,-0.043187692,-0.01345419,0.033759676,-0.103757024
1.76966E+18,1.562898438,0.019018009,0.048606502,-0.074582655,-0.005123291,0.054800246,-0.10100092
1.76966E+18,1.572886475,0.064463997,0.09329963,-0.09798282,0.004806957,0.073244177,-0.091311954
1.76966E+18,1.582875732,0.063465633,0.048187985,-0.143847038,0.009462162,0.096367337,-0.074842699
1.76966E+18,1.59286377,0.069137249,-0.041117023,-0.170910986,0.005052992,0.114356346,-0.064999439
1.76966E+18,1.602851563,0.051541971,-0.087889296,-0.15453502,-0.006712854,0.126810625,-0.06493552
1.76966E+18,1.612839844,0.013293197,-0.120160749,-0.119532681,-0.026207151,0.139066607,-0.06525638
1.76966E+18,1.622827881,-0.007596446,-0.153511815,-0.107210375,-0.046162482,0.142343357,-0.073509783
1.76966E+18,1.63281665,-0.039417818,-0.165316819,-0.062310326,-0.054499298,0.139140174,-0.081308462
1.76966E+18,1.642804443,-0.063797062,-0.119564537,0.032458501,-0.040446065,0.141197994,-0.097251475
1.76966E+18,1.652792725,-0.014725275,0.008080431,0.18974282,-0.009364986,0.126461878,-0.114895076
1.76966E+18,1.662780762,0.030350705,0.04013678,0.227402396,0.013551248,0.104913704,-0.134846136
1.76966E+18,1.672768799,0.049288046,-0.034749826,0.098133626,0.02081864,0.109765589,-0.147937983
1.76966E+18,1.682757324,-0.061920742,-0.117832599,-0.00257365,0.020180546,0.132081822,-0.147513211
1.76966E+18,1.692745605,-0.109759164,-0.111148006,-0.039858255,0.018948881,0.152947977,-0.138222292
1.76966E+18,1.702733643,-0.021419202,0.006519173,-0.053675768,0.025171623,0.153135464,-0.129166484
1.76966E+18,1.71272168,0.069519545,0.208338799,-0.023276831,0.036966939,0.179314837,-0.119204842
1.76966E+18,1.722709473,0.138050042,0.285999546,-0.079385087,0.03648597,0.153282166,-0.087312959
1.76966E+18,1.73269873,0.153016122,0.164852124,-0.07630641,0.041010071,0.135954112,-0.03492447
1.76966E+18,1.742686768,0.129651613,0.071064418,-0.097451782,0.033448294,0.113311917,0.007679979
1.76966E+18,1.752674805,0.224238963,0.012905659,-0.007796937,0.02734983,0.081395134,0.02891282
1.76966E+18,1.762662842,0.281886832,-0.023251112,0.033496027,0.019381652,0.016987914,0.0321704
1.76966E+18,1.772650635,0.236636655,-0.06361001,0.058286769,0.018828651,0.012283854,0.043471757
1.76966E+18,1.782639648,0.096343254,-0.105415016,0.072310618,0.008668959,0.011352547,0.051950198
1.76966E+18,1.792627686,0.1126128,-0.05469722,0.045905719,0.010928542,0.005613844,0.044991072
1.76966E+18,1.802615723,0.137078548,-0.028533436,0.041285073,0.00637001,-0.007760018,0.045807865
1.76966E+18,1.81260376,0.134252969,-0.022019524,0.034551381,0.004340316,0.003162898,0.042236909
1.76966E+18,1.822591797,0.115769218,0.02562544,-0.005483692,0.003952294,0.014331663,0.044314973
1.76966E+18,1.832580566,0.060499166,0.047654901,-0.033512686,0.001682797,0.021960041,0.05078695
1.76966E+18,1.842568604,0.041580549,0.058812839,-0.08426263,0.003581897,0.02732631,0.059220117
1.76966E+18,1.852556641,0.01331424,0.036658875,-0.109500824,0.010483415,0.024565814,0.065605566
1.76966E+18,1.862544678,0.034587329,-0.007620996,-0.114226391,0.011050669,0.023357805,0.064100616
1.76966E+18,1.872532715,0.036814358,-0.015761048,-0.088226273,0.010943733,0.02231035,0.056226514
1.76966E+18,1.882521729,0.008238252,-0.00135726,-0.028839726,0.009307754,0.027487801,0.048086561
1.76966E+18,1.892509766,-0.048405427,0.035813656,-0.015675124,0.003413216,0.031879567,0.050261669
1.76966E+18,1.902497559,-0.086510409,0.02023907,-0.009776713,0.002037427,0.037986197,0.054328583
1.76966E+18,1.912485596,-0.078213687,0.027041152,0.031887423,0.003405917,0.038433749,0.052875008
1.76966E+18,1.922473633,-0.06481997,0.013066402,0.068322718,-0.000700145,0.035551146,0.046514317
1.76966E+18,1.932462646,-0.04813304,-0.041043958,0.106793026,-0.000787452,0.029020386,0.03843087
1.76966E+18,1.942450684,-0.014703073,-0.057064534,0.120015203,-0.004713218,0.022826938,0.026320409
1.76966E+18,1.952438965,0.02545591,-0.12082009,0.128828917,-0.013084159,0.016919119,0.018384984
1.76966E+18,1.962426758,0.060469959,-0.154711838,0.133497785,-0.019182265,0.000935092,0.013959076
1.76966E+18,1.972414795,0.065679218,-0.175492761,0.138637486,-0.025519427,-0.018992504,0.009579163
1.76966E+18,1.982403564,0.060577492,-0.161931268,0.118089788,-0.029930154,-0.029007055,0.010002606
1.76966E+18,1.992391846,0.040286418,-0.140042092,0.099604868,-0.030288165,-0.040302008,0.007512724
1.76966E+18,2.002379639,0.043364492,-0.107625093,0.091610654,-0.030468462,-0.048953552,0.007332427
1.76966E+18,2.012367676,0.048389078,-0.088801735,0.049396776,-0.024797501,-0.052470408,0.005337752
1.76966E+18,2.022355713,0.042539165,-0.073519994,0.021098025,-0.023032358,-0.047949959,0.003415749
1.76966E+18,2.032344727,0.035215124,-0.035483401,-0.015925591,-0.019783996,-0.041376527,-0.003437528
1.76966E+18,2.04233252,0.039766184,-0.031484687,-0.062689096,-0.018538702,-0.036396682,-0.006210677
1.76966E+18,2.052320557,0.062747256,-0.019704233,-0.095577512,-0.015485961,-0.035599004,-0.003805169
1.76966E+18,2.062308594,0.060054948,-0.006404022,-0.119554892,-0.013513624,-0.034966502,0.000213009
1.76966E+18,2.072296631,0.047720385,-0.02387655,-0.09563538,-0.010704038,-0.033959311,0.003606447
1.76966E+18,2.082285645,0.069780241,-0.036477089,-0.056053603,-0.008372174,-0.033397917,0.005773728
1.76966E+18,2.092273682,0.047837271,-0.032456747,-0.039393853,-0.006233539,-0.029538965,0.00322182
1.76966E+18,2.102261719,0.038387909,-0.097869423,-0.042618075,-0.007912663,-0.024128754,0.000498205
1.76966E+18,2.112249756,0.023751481,-0.150665778,-0.028225101,-0.005518978,-0.021898687,-0.006273284
1.76966E+18,2.122237549,0.020978491,-0.149355864,-0.006073182,-0.002266459,-0.016716179,-0.017138714
1.76966E+18,2.132226563,0.016199421,-0.131959908,-0.006798866,-0.000666624,-0.012966523,-0.029622929
1.76966E+18,2.1422146,-0.027173254,-0.105528413,0.032170624,0.004376071,-0.015846465,-0.033119656
1.76966E+18,2.152202881,-0.083571442,-0.115768067,0.04911942,0.004086845,-0.015606157,-0.035091911
1.76966E+18,2.162190918,-0.11201193,-0.097319972,0.04414134,0.006893017,-0.016890068,-0.043103229
1.76966E+18,2.172178711,-0.129680857,-0.045807227,0.058444298,0.008559068,-0.01894637,-0.048872817
1.76966E+18,2.182167725,-0.124070598,-0.001503975,0.071420099,0.011774035,-0.017848082,-0.045296457
1.76966E+18,2.192155762,-0.104560445,0.02929916,0.065094988,0.013458508,-0.012151771,-0.034736376
1.76966E+18,2.202143799,-0.051018249,0.04783961,0.029040509,0.016704902,-0.002954279,-0.019606424
1.76966E+18,2.212131592,0.033191491,0.011286533,0.024290684,0.017533841,0.004875468,-0.007993284
1.76966E+18,2.222119629,0.116722007,-0.037937224,0.011158523,0.018169271,-0.000280146,0.000508325
1.76966E+18,2.232108887,0.157719222,-0.085606738,-0.01376666,0.011695169,-0.006854049,0.003853037
1.76966E+18,2.242096924,0.130175381,-0.097115974,-0.011451076,0.00828579,-0.00700585,0.00577717
1.76966E+18,2.252084717,0.106877508,-0.13489187,0.011694237,0.007217438,-0.010588744,0.004093805
1.76966E+18,2.262072754,0.140530753,-0.130701433,-0.028701486,0.005049891,-0.011426574,-0.002396584
1.76966E+18,2.272060791,0.112616325,-0.118632225,-0.02105857,0.005605872,-0.004532043,-0.009139187
1.76966E+18,2.282049805,0.074752157,-0.075043843,-0.04286942,0.004133677,0.006265477,-0.015237559
1.76966E+18,2.292037598,0.033615836,-0.039703649,-0.026197979,0.009202879,0.013624379,-0.016089084
1.76966E+18,2.302025879,0.022299528,-0.02547171,-0.006232172,0.011608513,0.019450311,-0.017885121
1.76966E+18,2.312013916,-0.004117354,-0.011823124,0.009525661,0.0111825,0.026192233,-0.017154876
1.76966E+18,2.322001709,-0.026546646,-0.023738018,0.047828504,0.011348682,0.026367735,-0.019349054
1.76966E+18,2.331990479,-0.018553894,-0.023201427,0.086968089,0.010247475,0.020499544,-0.024429999
1.76966E+18,2.34197876,-0.009996512,-0.041577042,0.097815354,0.010914064,0.007960316,-0.027969608
1.76966E+18,2.351966797,0.005833528,-0.030285833,0.114552262,0.009734017,-0.004190356,-0.030439155
1.76966E+18,2.361954834,0.004387403,-0.03523381,0.08475772,0.010513791,-0.01209675,-0.02796508
1.76966E+18,2.371942627,0.013414759,-0.034977205,0.088377079,0.009869225,-0.018881101,-0.02340132
1.76966E+18,2.381930908,0.043673138,-0.064767363,0.031289749,0.012360613,-0.022739224,-0.017339699
1.76966E+18,2.391919678,0.067362641,-0.079507836,0.007786124,0.013056865,-0.020692104,-0.00816447
1.76966E+18,2.401907715,0.066029949,-0.08590426,-0.013181553,0.015646257,-0.01867982,0.003691923
1.76966E+18,2.411895508,0.061083725,-0.105976741,-0.048165773,0.016824847,-0.012472468,0.016585771
1.76966E+18,2.421883789,0.045472278,-0.109968441,-0.049968731,0.019314636,-0.006319234,0.023099065
1.76966E+18,2.431871826,0.03702126,-0.104172322,-0.055942252,0.019601138,-0.000206942,0.020755606
1.76966E+18,2.44186084,0.024548769,-0.098430564,-0.031978024,0.01755503,0.00519235,0.010539188
1.76966E+18,2.451848877,-0.013738584,-0.062221771,-0.008425883,0.016977539,0.01277789,0.002384737
1.76966E+18,2.461836914,-0.012854805,-0.04999708,0.013378245,0.00984,0.019497313,-0.006160282
1.76966E+18,2.471824707,-0.014251813,-0.036702129,0.03476707,0.0083821,0.023046821,-0.011200938
1.76966E+18,2.481813721,0.014938023,-0.02470774,0.032326399,0.005839047,0.021712044,-0.015557868
1.76966E+18,2.491801758,0.037872324,-0.053388476,0.024947102,0.002310776,0.01970958,-0.017210294
1.76966E+18,2.501789795,0.037389509,-0.086602179,0.015773031,-0.002016328,0.013035165,-0.021124609
1.76966E+18,2.511777832,0.055789107,-0.087169165,0.014216449,-0.003919566,0.006704775,-0.024401249
1.76966E+18,2.521765625,0.032784664,-0.057297174,-0.012472528,-0.001168254,0.000133691,-0.026817268
1.76966E+18,2.531753906,0.000108739,-0.013743279,-0.039327802,-0.000146696,0.000541874,-0.021790395
1.76966E+18,2.541742676,-0.018897574,0.014458733,-0.069346216,0.0013508,0.010135112,-0.01061364
1.76966E+18,2.551730713,-0.031801516,0.035771571,-0.096740419,0.003900989,0.019421628,0.001262583
1.76966E+18,2.561718506,-0.002509955,0.019167057,-0.116734867,0.007635807,0.024946621,0.008521295
1.76966E+18,2.571706787,-0.005053795,0.002408815,-0.098460959,0.013870038,0.028989824,0.010494987
1.76966E+18,2.581694824,-0.034305608,-0.010907178,-0.053746495,0.015068993,0.033871397,0.010138389
1.76966E+18,2.591683838,-0.064182842,-0.028085692,-0.011011516,0.014282316,0.042516131,0.004404375
1.76966E+18,2.601671631,-0.056913727,-0.044157122,0.014302958,0.012357382,0.052141059,0.003474932
1.76966E+18,2.611659668,-0.036626123,-0.049010991,0.03102876,0.011200511,0.06011261,-0.0019327
1.76966E+18,2.621647705,0.009745149,-0.067708093,0.015487492,0.01015016,0.064095899,-0.007464352
1.76966E+18,2.631635742,0.047803387,-0.058893503,0.014236031,0.010925576,0.060125355,-0.010233164
1.76966E+18,2.641625,0.041062644,-0.018949031,0.001586977,0.012717617,0.047819685,-0.007469601
1.76966E+18,2.651612793,0.028262821,-0.002298925,-0.021972178,0.010736791,0.048619725,-0.002018165
1.76966E+18,2.66160083,0.020077176,-0.010961539,-0.048963353,0.009823061,0.050328676,0.006346824
1.76966E+18,2.671588867,0.058058239,-0.017392449,-0.059957333,0.008517846,0.044563197,0.013413789
1.76966E+18,2.68157666,0.068071081,-0.058689505,-0.036714404,0.007082135,0.044754148,0.017515056
1.76966E+18,2.691565674,0.045101709,-0.07137363,-0.021116146,0.001830505,0.050257951,0.015269514
1.76966E+18,2.701553711,-0.012436306,-0.05533318,0.029278701,-0.000691242,0.050566614,0.012485179
1.76966E+18,2.711541748,-0.021197102,-0.019759178,0.051883916,-0.003309341,0.051388126,0.006666847
1.76966E+18,2.721529785,-0.025485154,-0.011087211,0.043186523,-0.002805205,0.05119345,0.011462135
1.76966E+18,2.731518799,-0.034582635,-0.011854688,0.049452598,-0.003221148,0.049169824,0.01766202
1.76966E+18,2.741506836,-0.04281389,-0.043329439,0.050522565,-0.001778514,0.049396459,0.022952922
1.76966E+18,2.751494629,-0.010209259,-0.086650109,0.05762626,-0.002138207,0.04702362,0.022218343
1.76966E+18,2.761482666,-0.006465981,-0.114237205,0.057965282,-0.004467941,0.040241349,0.014587054
1.76966E+18,2.771470703,0.004196885,-0.108133627,0.067991002,-0.005913134,0.028555349,0.008849376
1.76966E+18,2.78145874,-0.01732638,-0.066383566,0.0563634,-0.004138936,0.017566346,0.00986191
1.76966E+18,2.791447754,-0.03678747,-0.005157821,0.05721271,-0.003975741,0.012037577,0.017497288
1.76966E+18,2.801435791,-0.060889627,0.010903087,0.050165714,-0.002605278,0.010745944,0.029416
1.76966E+18,2.811423828,-0.076060308,-0.010177695,0.025183249,-0.002938144,0.011234563,0.038736936
1.76966E+18,2.821411865,-0.056153849,-0.062201897,0.042906829,-0.003000728,0.009894727,0.037915085
1.76966E+18,2.831400879,-0.028648569,-0.121424486,0.054718848,-0.006589816,0.006915112,0.025501702
1.76966E+18,2.841388672,-0.005422025,-0.122070967,0.055995736,-0.00950145,0.002892141,0.014100708
1.76966E+18,2.851376709,-0.012255086,-0.093256376,0.061242696,-0.007471322,-0.003129799,0.008170914
1.76966E+18,2.861364746,-0.03424248,-0.026253801,0.020758418,-0.006721909,-0.007432668,0.013563283
1.76966E+18,2.871352783,-0.045317982,0.00489654,0.009424246,-0.001759181,-0.010077644,0.018544838
1.76966E+18,2.88134082,-0.007618658,0.000805471,0.000888766,0.000482934,-0.009975112,0.023927884
1.76966E+18,2.89132959,-0.010826533,-0.037956513,0.000782967,5.31054E-05,-0.004468852,0.020282999
1.76966E+18,2.901317627,0.005609054,-0.084811788,0.032320846,-0.003850822,0.000407663,0.007882789
1.76966E+18,2.911305908,0.026317495,-0.094711251,0.022346564,-0.006093361,0.001099409,-0.008777129
1.76966E+18,2.921293701,0.010315624,-0.105123339,-0.000282324,-0.006844906,-0.000715269,-0.020586651
1.76966E+18,2.931281738,0.005126275,-0.075406246,-0.019058628,-0.004532217,0.001380373,-0.02027639
1.76966E+18,2.941270752,0.01673952,-0.035759296,-0.039908817,0.000466537,0.005528246,-0.016492039
1.76966E+18,2.951259033,0.044437674,0.009012743,-0.051050388,0.007506296,0.006012833,-0.005921202
1.76966E+18,2.961246826,0.03457679,-0.003211948,-0.038366556,0.009301533,0.008001681,0.004628644
1.76966E+18,2.971234619,0.032606951,-0.039138417,-0.017684418,0.011080402,0.007031282,0.003379241
1.76966E+18,2.981222656,0.024155952,-0.079293901,0.004896248,0.005018248,0.002113755,-0.002792369
1.76966E+18,2.991211914,0.004090466,-0.097343937,0.01957067,-0.000354782,-0.004315596,-0.013831009
1.76966E+18,3.001199707,-0.004693693,-0.097387192,0.008521745,-0.006684051,-0.007369443,-0.021483868
1.76966E+18,3.011187744,0.019147768,-0.086218732,-0.045088557,-0.005312479,-0.006323775,-0.023254827
1.76966E+18,3.021175781,0.047783477,-0.031699207,-0.06810966,-0.000821857,-0.006001267,-0.022310469
1.76966E+18,3.031164063,0.036148003,0.008179799,-0.096482937,0.006319058,-0.000483416,-0.011066429
1.76966E+18,3.041152588,0.042479544,0.033041269,-0.095692371,0.011660028,0.003485759,0.000397147
1.76966E+18,3.051140625,0.053258109,0.033857261,-0.076838325,0.015156424,0.003128881,0.004640923
1.76966E+18,3.061128662,0.04105795,0.00480477,-0.041826048,0.01343043,0.00062764,0.007456683
1.76966E+18,3.071116943,0.028088597,-0.033522915,0.000947802,0.013133215,-0.00131904,0.005710798
1.76966E+18,3.081104736,0.013614666,-0.049965516,0.029630291,0.009524632,-0.002601618,-0.000974801
1.76966E+18,3.09109375,0.038882378,-0.052099021,0.017522797,0.004801269,-0.002862613,-0.004897892
1.76966E+18,3.101082031,0.039074119,-0.071290628,0.008913959,0.004320035,0.000285243,-0.005224129
1.76966E+18,3.111069824,0.053580784,-0.065839377,0.005062836,0.004602844,0.003521522,-0.006911519
1.76966E+18,3.121057617,0.068233578,-0.086437343,0.008737141,0.005220698,0.002564115,-0.011026902
1.76966E+18,3.13104541,0.08210547,-0.089167645,0.025167759,0.006199992,-0.000322731,-0.018549839
1.76966E+18,3.141034668,0.07556699,-0.08833704,0.031016485,0.007301741,-0.005412565,-0.022352567
1.76966E+18,3.151022705,0.048719881,-0.062078563,0.031311961,0.008902834,-0.007802485,-0.025896702
1.76966E+18,3.161010742,0.013255787,-0.059137833,0.021325112,0.013072546,-0.00827786,-0.022123536
1.76966E+18,3.170998535,0.018364527,-0.054853288,-0.039836628,0.009938083,-0.011761708,-0.022558892
1.76966E+18,3.180986572,-0.003145915,0.058438745,0.018408932,0.00930505,-0.015202511,-0.011352576
1.76966E+18,3.190975586,-0.055868602,0.027478374,-0.000448328,0.01065868,-0.004273094,-0.001313401
1.76966E+18,3.200963623,-0.020342531,0.019428339,0.018950784,0.011649376,-0.003166817,0.001637648
1.76966E+18,3.21095166,0.030126276,-0.025385201,0.042285775,0.012604487,-0.00482735,0.000649986
1.76966E+18,3.220939697,0.034132553,-0.061106503,0.049976622,0.009690989,-0.006847891,0.000762638
1.76966E+18,3.230927734,0.02320435,-0.095572252,0.067311787,0.008681064,-0.011470801,-0.004110557
1.76966E+18,3.240916748,0.024886586,-0.113642746,0.074027652,0.005092454,-0.016830413,-0.010159394
1.76966E+18,3.250904541,0.025383448,-0.104433603,0.050923255,0.006315637,-0.023201138,-0.015076836
1.76966E+18,3.260892578,0.003526987,-0.074124974,0.044580315,0.005782472,-0.026260044,-0.01531732
1.76966E+18,3.270880615,0.003444003,-0.041571781,0.045099079,0.007749114,-0.027121523,-0.013047612
1.76966E+18,3.280869629,0.003988777,-0.018488427,0.016334172,0.008345929,-0.022534493,-0.007156166
1.76966E+18,3.29085791,0.022859482,0.020839959,0.001435294,0.010036449,-0.01565681,-0.001514402
1.76966E+18,3.300845703,0.043511809,0.018814591,-0.005632453,0.012178962,-0.018490946,0.006050306
1.76966E+18,3.31083374,0.059365212,-0.011461305,0.007696692,0.010879612,-0.022514006,0.008265171
1.76966E+18,3.320821777,0.06308394,-0.056572951,0.010442776,0.010104099,-0.029241417,0.005590825
1.76966E+18,3.33080957,0.082382497,-0.081677582,0.027069793,0.008184323,-0.035614591,-0.001936676
1.76966E+18,3.340798584,0.072124138,-0.085403909,0.021764673,0.009366501,-0.044007011,-0.008731731
1.76966E+18,3.350786621,0.035354222,-0.086878073,0.036345863,0.010878963,-0.051759277,-0.010593404
1.76966E+18,3.360774658,0.003424129,-0.070204586,0.034053661,0.012377525,-0.058328494,-0.008608817
1.76966E+18,3.370762451,-0.009102157,-0.041675242,0.010864801,0.015194419,-0.063776515,-0.004103576
1.76966E+18,3.380750732,0.000737685,-0.019252982,-0.004034662,0.015504411,-0.065678008,0.000257084
1.76966E+18,3.390739502,-0.007459668,-0.017937808,-0.03493775,0.013634065,-0.059806179,0.004856715
1.76966E+18,3.400727539,0.019212065,-0.023898762,-0.043335576,0.008953827,-0.051737867,0.010022449
1.76966E+18,3.410715576,0.058601827,-0.045261868,-0.063851125,0.011879774,-0.03725135,0.008121512
1.76966E+18,3.420703613,0.098259299,-0.045476972,-0.063643036,0.012835583,-0.028266111,0.000999953
1.76966E+18,3.43069165,0.108157574,-0.01667524,-0.028394904,0.015607382,-0.021294601,-0.00287552
1.76966E+18,3.440680664,0.059400283,0.017530981,-0.017732933,0.01669555,-0.02255694,0.002899279
1.76966E+18,3.450668701,0.010054946,-0.009718261,-0.021079028,0.014982732,-0.027253188,0.007208867
1.76966E+18,3.460656738,0.018108488,-0.064719433,-0.037004912,0.012094001,-0.035095666,0.005235997
1.76966E+18,3.470644531,0.041033437,-0.111745972,-0.026339433,0.011098517,-0.047779329,-0.0065302
1.76966E+18,3.480633545,0.040191707,-0.157926124,-0.021798867,0.009140029,-0.048555907,-0.01792853
1.76966E+18,3.490621826,-0.013747955,-0.153040106,-0.002285481,0.005183637,-0.037036669,-0.025193367
1.76966E+18,3.500609619,-0.060409187,-0.109203887,0.011682254,0.003952723,-0.018167105,-0.02641842
1.76966E+18,3.510597656,-0.05329203,-0.076105335,-0.024363749,0.005942284,0.002420334,-0.02785947
1.76966E+18,3.520585693,-0.042720349,-0.028546296,-0.022435119,0.008230739,0.019357773,-0.028961753
1.76966E+18,3.53057373,-0.00766542,0.046601592,-0.031839784,0.007977997,0.025403237,-0.02949403
1.76966E+18,3.5405625,0.011103578,0.075506784,-0.054695175,0.007095425,0.025752911,-0.025052143
1.76966E+18,3.550550537,0.030716607,0.10086159,-0.039208852,0.006666587,0.023416504,-0.018812329
1.76966E+18,3.560538574,0.088413594,0.075709029,-0.039133448,0.003985051,0.015770037,-0.015393894
1.76966E+18,3.570526611,0.12597382,-0.002764204,-0.034356151,0.001619269,0.001027005,-0.012296297
1.76966E+18,3.580515625,0.113133043,-0.083895842,-0.014410218,0.000222174,-0.012774561,-0.009473344
1.76966E+18,3.590503662,0.058161097,-0.141558342,-0.014459903,-0.003414505,-0.021283295,-0.005240918
1.76966E+18,3.600491699,0.003059369,-0.134835756,-0.018022856,-0.003774298,-0.025840761,-0.004072856
1.76966E+18,3.610479492,-0.00893734,-0.100531335,-0.022735856,-0.002101065,-0.02594794,-0.009216512
1.76966E+18,3.620467529,-0.001169044,-0.061594579,-0.055676295,0.001838017,-0.015559747,-0.013400605
1.76966E+18,3.630456543,-0.016636662,-0.027918519,-0.074041096,0.002512501,0.000943558,-0.015359284
1.76966E+18,3.640444824,-0.017195465,0.006960487,-0.059914078,0.007984764,0.024751952,-0.021409454
1.76966E+18,3.650432617,0.00826282,0.00369827,-0.086931264,0.006231047,0.035117868,-0.03064389
1.76966E+18,3.660420654,0.006614431,0.076641926,-0.059512219,0.005764727,0.04659982,-0.034851152
1.76966E+18,3.670408691,-0.070548303,0.069981883,-0.021145372,0.005673125,0.061058737,-0.033947177
1.76966E+18,3.680397705,-0.067402388,0.052101359,-0.029171734,0.006797512,0.067664444,-0.028850684
1.76966E+18,3.690385498,-0.013671967,0.021972178,-0.012417875,0.007399942,0.067465238,-0.026528137
1.76966E+18,3.700373535,0.041961639,-0.048410687,0.007065408,0.003217181,0.065212734,-0.026066344
1.76966E+18,3.710361572,0.060881462,-0.142093764,-0.015185002,-0.012248712,0.06874539,-0.022074198
1.76966E+18,3.720349854,0.037001386,-0.182049343,-0.021327158,-0.015762754,0.060891721,-0.022555165
1.76966E+18,3.730338623,0.115333183,-0.11405951,0.027780864,-0.010185451,0.035884496,-0.033249334
1.76966E+18,3.740326416,0.148184482,-0.083236502,0.013323884,-0.005463134,0.025156751,-0.037132226
1.76966E+18,3.750314453,0.04266776,-0.07667992,-0.010683599,-0.003790684,0.052488685,-0.030228605
1.76966E+18,3.760302734,0.014497294,-0.033087446,-0.025409167,-0.007783028,0.055283673,-0.018997788
1.76966E+18,3.770290527,0.045263074,-0.004781974,-0.058092708,-0.005276364,0.046806075,-0.010668298
1.76966E+18,3.780279541,0.018336452,-0.045098202,-0.051178106,-0.002851822,0.05538971,-0.003748074
1.76966E+18,3.790267822,-0.037779988,-0.029305005,-0.007867957,-0.006807214,0.067495242,-0.003819984
1.76966E+18,3.800255859,-0.081858838,-0.011088965,0.025753742,-0.013501868,0.060908444,-0.010079477
1.76966E+18,3.810243652,-0.017889877,-0.014723522,0.089048111,-0.012496302,0.044706579,-0.018451141
1.76966E+18,3.820231689,0.00561141,-0.059172904,0.056541095,-0.012629992,0.039295036,-0.029795142
1.76966E+18,3.830220703,-0.028574901,-0.07898995,0.011020576,-0.01251296,0.040290467,-0.033295751
1.76966E+18,3.84020874,-0.09256485,-0.048406011,0.015848142,-0.011229049,0.041565858,-0.03325234
1.76966E+18,3.850196533,-0.09746782,-0.031875148,0.001050386,-0.00779129,0.043009788,-0.029023174
1.76966E+18,3.86018457,-0.14886019,-0.00910802,0.011211422,0.000923106,0.050128952,-0.015521745
1.76966E+18,3.870172852,-0.189304392,0.026057986,0.046027884,0.011815174,0.055666901,0.001691511
1.76966E+18,3.880160645,-0.146546615,0.00029343,0.088971246,0.017752426,0.061520532,0.007498533
1.76966E+18,3.890149414,-0.102511074,-0.085014033,0.120135323,0.021188594,0.048437897,0.003912568
1.76966E+18,3.900137451,-0.059018006,-0.143091543,0.142787299,0.017162427,0.039674498,-0.002893141
1.76966E+18,3.910125732,-0.025870939,-0.141007723,0.175847858,0.009694221,0.025832757,-0.01105847
1.76966E+18,3.92011377,0.02400752,-0.140398651,0.16838702,0.00302753,0.005898731,-0.019196026
1.76966E+18,3.930102539,0.041455498,-0.094517774,0.100640933,-0.001485837,0.006656011,-0.013516055
1.76966E+18,3.940090576,0.067432783,-0.041508653,0.053801148,-0.007279278,0.007044033,-0.005180361
1.76966E+18,3.950078857,0.136953479,-0.00898527,0.027675066,-0.005796849,0.000506271,0.004647172
1.76966E+18,3.96006665,0.158323599,-0.032640871,0.03781652,-0.005854639,0.001203221,0.009968167
1.76966E+18,3.970054443,0.192435127,-0.057486559,-5.72831E-05,-0.010059013,0.000779402,0.002360002
1.76966E+18,3.980043701,0.139537066,-0.078382632,0.002744038,-0.01440476,-0.003298696,-0.007351748
1.76966E+18,3.990031738,0.062476038,-0.092082656,0.02488222,-0.015212762,-0.006236163,-0.01688906
1.76966E+18,4.000019775,0.024351182,-0.086765845,-0.023991409,-0.014968551,-0.000197711,-0.025578955
1.76966E+18,4.010007568,0.001254384,-0.031970425,-0.068205229,-0.010370143,0.007114873,-0.025327174
1.76966E+18,4.019995605,-0.014940416,0.009342998,-0.103871586,-0.005294956,0.015253494,-0.023149773
1.76966E+18,4.029984619,0.013496574,0.032989831,-0.126667939,-0.00093486,0.022940151,-0.018602908
1.76966E+18,4.039972656,0.031867001,0.075473466,-0.122239017,0.000759976,0.030197531,-0.010360958
1.76966E+18,4.049960449,0.039409635,0.077805709,-0.09604513,-0.00083116,0.029841946,-0.002046731
1.76966E+18,4.059948486,0.05689031,0.056558338,-0.083376202,-0.002714015,0.022260725,0.007646909
1.76966E+18,4.069936768,0.077943583,0.028640404,-0.07000994,-0.005282531,0.019111486,0.012978663
1.76966E+18,4.079925781,0.083594777,-0.010822423,-0.050475511,-0.007388826,0.015862696,0.017636264
1.76966E+18,4.089913574,0.108870782,-0.033211365,-0.027979017,-0.007764331,0.007611157,0.018100187
1.76966E+18,4.099901611,0.076186583,-0.054309682,-0.02740034,-0.005000769,-0.002102989,0.020092232
1.76966E+18,4.109889648,0.023765454,-0.051597501,-0.00128361,-0.005711628,-0.005086633,0.020074066
1.76966E+18,4.119877441,-0.046329168,-0.030187633,0.032034138,-0.005588856,-0.003963312,0.021264765
1.76966E+18,4.129867188,-0.135208133,-0.031955227,0.043795887,-0.005163662,0.008280804,0.017168887
1.76966E+18,4.13985498,-0.143971249,-0.032913843,0.026336218,-0.004984965,0.024936214,0.010301925
1.76966E+18,4.149843018,-0.090930563,-0.057936641,-0.014304712,0.000640659,0.036556982,-3.4465E-05
1.76966E+18,4.159831055,-0.030478177,-0.062921443,-0.051463938,0.005561382,0.050787851,-0.006177845
1.76966E+18,4.169818848,0.014582652,-0.076489365,-0.072490943,0.010134139,0.070606686,-0.004172466
1.76966E+18,4.179807861,0.04650226,-0.096435006,-0.089635555,0.01705596,0.075720489,0.000317624
1.76966E+18,4.189795898,0.101316348,-0.09949264,-0.083630469,0.017593974,0.075096965,0.004078949
1.76966E+18,4.199783936,0.124417822,-0.076447864,-0.076178692,0.01937989,0.076302849,0.007649715
1.76966E+18,4.209771729,0.128961895,-0.049352937,-0.038136838,0.02014558,0.068541095,0.009192166
1.76966E+18,4.21976001,0.132414118,-0.017668928,-0.010786182,0.018311461,0.06333328,0.009877929
1.76966E+18,4.229748779,0.117043494,0.017233459,0.009246552,0.01637271,0.059951145,0.011655698
1.76966E+18,4.239736816,0.092944826,0.031771687,0.011823709,0.012770785,0.054093789,0.018137299
1.76966E+18,4.249724854,0.060458268,-0.007397125,0.025913901,0.011973373,0.045703132,0.015775019
1.76966E+18,4.259712891,0.037916766,-0.04706278,0.012747253,0.010166684,0.040631142,0.010598367
1.76966E+18,4.269700928,-0.002014226,-0.07161796,0.005318272,0.009016665,0.042909458,0.007766656
1.76966E+18,4.279689941,-0.032209531,-0.083032503,0.021643969,0.007542338,0.049591597,0.003312785
1.76966E+18,4.289678223,-0.023328269,-0.060714873,-0.004607202,0.010530075,0.051519595,-0.003450053
1.76966E+18,4.299666016,0.003565584,-0.028826282,-0.02247019,0.013804431,0.056445111,-0.002264147
1.76966E+18,4.309653809,-0.001495207,0.018001521,-0.0325567,0.01595808,0.061314534,0.004851623
1.76966E+18,4.319641846,0.013473266,0.049861471,-0.031633156,0.015047014,0.063274086,0.014770833
1.76966E+18,4.329631104,0.026836606,0.096031101,0.021117022,0.012111755,0.053667363,0.018738214
1.76966E+18,4.339618896,0.081316347,0.048640405,0.000173311,0.007365736,0.054224499,0.019673249
1.76966E+18,4.349606934,0.097879286,-0.018862521,-0.008465631,0.000235272,0.051539198,0.014541672
1.76966E+18,4.359594971,0.137059862,-0.051145081,0.013512685,0.001087483,0.049190558,0.011684899
1.76966E+18,4.369583008,0.087639668,-0.11822832,0.019169395,-0.000464443,0.041437082,0.020374689
1.76966E+18,4.379571777,0.053730421,-0.127902742,0.028610885,0.000377915,0.03667482,0.028050983
1.76966E+18,4.389559814,0.038854303,-0.07831775,0.037076223,0.001141855,0.033042856,0.03324803
1.76966E+18,4.399547852,-0.025862756,-0.054098085,0.019040801,0.000986326,0.030780766,0.037735723
1.76966E+18,4.409535889,-0.034131402,-0.05643325,0.023837679,0.002143974,0.030341856,0.038813282
1.76966E+18,4.419523926,-0.023593605,-0.068230656,0.025471418,-0.000276041,0.032235365,0.035327736
1.76966E+18,4.429512939,-0.005032697,-0.095760468,0.047121817,-0.002403019,0.039789017,0.026283119
1.76966E+18,4.439500977,-0.007913257,-0.075985508,0.051493164,-0.003567886,0.042688932,0.013651747
1.76966E+18,4.44948877,0.01041154,-0.056789224,0.020115152,-0.00310767,0.049813416,0.010492181
1.76966E+18,4.459476807,-0.020467618,-0.031125791,0.03612053,-0.005311169,0.05898907,0.011772629
1.76966E+18,4.469464844,-0.007678316,-0.025644144,0.040019291,-0.006195149,0.059826978,0.009034483
1.76966E+18,4.479454102,0.037514578,-0.080554715,0.030590076,-0.003722404,0.052131508,0.005519642
1.76966E+18,4.489441895,0.057456127,-0.086039284,0.047675943,-0.004882422,0.041577861,0.002645169
1.76966E+18,4.499429932,0.055070109,-0.088518241,0.064057462,-0.010112338,0.037548766,-0.001529069
1.76966E+18,4.509417969,0.05324293,-0.088716394,0.058405427,-0.014441355,0.025557594,-0.00634669
1.76966E+18,4.51940625,0.035640638,-0.079147186,0.067209788,-0.016152969,0.018915938,-0.007531797
1.76966E+18,4.529394775,0.027798692,-0.084465167,0.043980012,-0.014683496,0.01090398,-0.004289987
1.76966E+18,4.539382813,0.036382981,-0.074512512,0.03473346,-0.016718684,0.005876997,-0.001432948
1.76966E+18,4.54937085,-0.002929624,-0.067862407,0.023252573,-0.015642125,0.005255273,-0.001800179
1.76966E+18,4.559359131,-0.002195501,-0.05233166,0.03081541,-0.013614927,0.00089621,0.000233411
1.76966E+18,4.569348145,-0.050773909,-0.029852117,0.034288639,-0.013862304,-0.005125022,0.006718926
1.76966E+18,4.579335938,-0.101174894,-0.024585575,0.052070379,-0.01381703,-0.005817445,0.011434053
1.76966E+18,4.58932373,-0.082433953,-0.030722471,0.064661857,-0.013357001,-0.008384786,0.015072303
1.76966E+18,4.599312012,-0.078977091,-0.050682139,0.081786595,-0.011121011,-0.01570395,0.015632633
1.76966E+18,4.609299805,-0.038783064,-0.075895491,0.094153325,-0.011323419,-0.012648683,0.01374374
1.76966E+18,4.619288818,-0.027898097,-0.089416067,0.100241705,-0.010494377,-0.012121909,0.007423792
1.76966E+18,4.6292771,-0.012120719,-0.107215343,0.112494745,-0.008685362,-0.016547034,0.004174499
1.76966E+18,4.639265137,-0.028549218,-0.128207278,0.096597211,-0.011259839,-0.01809939,-0.003539613
1.76966E+18,4.64925293,0.04825462,-0.124532973,0.063138593,-0.012939574,-0.029212179,-0.014057335
1.76966E+18,4.659240967,0.055381074,-0.091362525,0.049711541,-0.012817334,-0.039346304,-0.022961613
1.76966E+18,4.66922998,0.030958617,-0.065403323,0.035043256,-0.015020216,-0.043855444,-0.027343299
1.76966E+18,4.679218018,0.033522403,-0.061317515,0.002351824,-0.01830283,-0.046718609,-0.029181944
1.76966E+18,4.689205811,0.049651591,-0.033328269,0.001025836,-0.018161612,-0.051912021,-0.032165252
1.76966E+18,4.699193848,0.036409832,-0.035084173,0.011601883,-0.017125107,-0.053409785,-0.032374308
1.76966E+18,4.709182129,0.011228702,-0.017851883,0.000366787,-0.019702736,-0.048680257,-0.029884823
1.76966E+18,4.719170898,-0.017126455,-0.025640637,-0.001082242,-0.019047864,-0.046236809,-0.027444568
1.76966E+18,4.729158691,-0.009676175,-0.004850363,-0.007743161,-0.017806804,-0.047438137,-0.027271509
1.76966E+18,4.739146729,-0.002369652,-0.015541853,-0.033135085,-0.018841708,-0.052557796,-0.027459528
1.76966E+18,4.74913501,0.011070845,-0.008901684,-0.043341129,-0.018727338,-0.045146812,-0.029479953
1.76966E+18,4.759123047,-0.017906207,-0.023543373,-0.054808572,-0.017785111,-0.054193567,-0.030040281
1.76966E+18,4.769111816,0.00894556,-0.028542204,-0.037711891,-0.017041344,-0.05066907,-0.026649421
1.76966E+18,4.779099854,-0.025921208,-0.053991702,-0.040010231,-0.020188667,-0.04476431,-0.021209914
1.76966E+18,4.789088135,-0.002989245,-0.042310617,-0.036507776,-0.017650614,-0.032195948,-0.02156619
1.76966E+18,4.799075928,0.001010017,-0.027352702,-0.054389762,-0.018135576,-0.033070531,-0.017380498
1.76966E+18,4.809063721,0.037105413,-0.043771922,-0.047680912,-0.015267357,-0.029547878,-0.020347973
1.76966E+18,4.819052979,0.071309369,-0.050219783,-0.067306527,-0.017237831,-0.029782768,-0.019254746
1.76966E+18,4.829041016,0.059512548,-0.053045361,-0.06769611,-0.015682615,-0.026939234,-0.021104466
1.76966E+18,4.839029053,0.070454761,-0.05986907,-0.080166593,-0.01330974,-0.029851934,-0.018136639
1.76966E+18,4.849016846,0.047735528,-0.067246321,-0.05622896,-0.014230453,-0.027582075,-0.017803833
1.76966E+18,4.859004883,0.02327336,-0.073843235,-0.063657649,-0.012780363,-0.024204388,-0.01695535
1.76966E+18,4.868993896,0.002193163,-0.068020228,-0.029305005,-0.013618274,-0.017262252,-0.018455122
1.76966E+18,4.878981934,-0.012259726,-0.059957333,-0.023467677,-0.011202787,-0.00625967,-0.020739581
1.76966E+18,4.888969727,-0.010649952,-0.045926469,-0.041078153,-0.00953654,-0.002120355,-0.021589324
1.76966E+18,4.898958008,-0.029228433,-0.033710546,-0.035450668,-0.00907821,-0.001970153,-0.016251283
1.76966E+18,4.908946045,-0.027582419,-0.030858664,-0.062916767,-0.005731158,0.003301663,-0.013494825
1.76966E+18,4.918935059,-0.001505728,-0.026857027,-0.050358022,-0.004174807,0.01188796,-0.011406373
1.76966E+18,4.928922852,0.016967465,-0.054003393,-0.051245911,-0.000762287,0.019462861,-0.010704506
1.76966E+18,4.938910889,0.008935002,-0.050563482,-0.031141865,-0.000738585,0.02597429,-0.01263663
1.76966E+18,4.948898926,0.018315409,-0.068686583,-0.028050913,-0.003325487,0.029121453,-0.01067276
1.76966E+18,4.958887939,0.018082733,-0.085409754,-0.039097792,-0.003732685,0.028194407,-0.013098367
1.76966E+18,4.968875732,0.023567886,-0.091477676,-0.045996904,-0.008976185,0.02287663,-0.010809159
1.76966E+18,4.978864014,0.035591538,-0.066135145,-0.032836978,-0.00627787,0.020355681,-0.011569226
1.76966E+18,4.988852051,0.034419023,-0.045152562,-0.028002982,-0.007013204,0.022242865,-0.011283068
1.76966E+18,4.998840088,-0.000508498,-0.023030162,-0.010609657,-0.009610319,0.028905028,-0.006993781
1.76966E+18,5.008828857,-0.048434616,-0.013922727,-0.022867665,-0.005994763,0.034504343,-0.005056369
1.76966E+18,5.018816895,-0.072557835,0.012259762,-0.002441548,-0.003764899,0.035447899,-0.001903186
1.76966E+18,5.028804932,-0.09116671,-0.006488193,-0.005715455,-0.005773768,0.035166383,-0.005153271
1.76966E+18,5.038792969,-0.073839143,-0.025634792,0.002897475,-0.003644571,0.036189303,-0.008007381
1.76966E+18,5.048780762,-0.066167878,-0.030834114,0.031661797,-0.003363874,0.036429521,-0.007887539
1.76966E+18,5.05877002,-0.057396579,-0.035147886,0.055349839,-0.004261359,0.038472697,-0.003069879
1.76966E+18,5.068758057,-0.024348844,-0.040298693,0.074270228,-0.005416372,0.041188058,0.00250385
1.76966E+18,5.07874585,0.045903673,-0.026206454,0.063034256,-0.007806026,0.029148174,0.006233607
1.76966E+18,5.088733643,0.113086281,-0.036223991,0.055360945,-0.012479122,0.012388084,0.009017447
1.76966E+18,5.098721924,0.113750261,-0.033773675,0.066679335,-0.013975286,-0.003686756,0.0119898
1.76966E+18,5.108710938,0.097589437,-0.019921091,0.078817808,-0.016359027,-0.014765311,0.007704117
1.76966E+18,5.118698975,0.103110757,-0.039767947,0.05229279,-0.019881323,-0.023009392,0.001809743
1.76966E+18,5.128687012,0.08285364,-0.058429977,0.034960546,-0.020921554,-0.025167352,-0.003708859
1.76966E+18,5.138675049,0.046174891,-0.078394907,0.016520634,-0.01865121,-0.025798254,-0.00744261
1.76966E+18,5.148663086,-0.01434066,-0.090941085,-0.015686814,-0.017639291,-0.017035514,-0.007628252
1.76966E+18,5.158651855,-0.063315411,-0.084019761,-0.026319559,-0.015827009,-0.01051929,-0.007191493
1.76966E+18,5.168639893,-0.049480947,-0.077581252,-0.042990416,-0.014592294,-0.002586852,-0.01084551
1.76966E+18,5.17862793,0.006301183,-0.086814945,-0.064069444,-0.009290473,0.004847096,-0.015776355
1.76966E+18,5.188615967,0.020550657,-0.059054247,-0.075945176,-0.005214855,0.015195215,-0.015626432
1.76966E+18,5.19860376,0.018149405,-0.002186696,-0.082606387,-0.002411878,0.023738638,-0.007936556
1.76966E+18,5.208593018,0.014047267,0.025777415,-0.081085753,0.00162661,0.029072989,0.001032625
1.76966E+18,5.218580811,0.023845023,0.046014732,-0.048496904,0.003306265,0.028152332,0.005698217
1.76966E+18,5.228568848,0.017975217,0.021159108,-0.010483108,0.002531482,0.0230329,0.007965712
1.76966E+18,5.238556641,0.028023148,-0.005352467,0.005971768,0.002957055,0.015132366,0.006022137
1.76966E+18,5.248544922,0.050706068,-0.043012628,0.018104396,0.002862808,0.00756226,0.003414509
1.76966E+18,5.258533936,0.058469688,-0.060329089,0.019788696,0.001925908,-0.003149507,0.00112419
1.76966E+18,5.268521973,0.052875814,-0.059621233,0.010280279,1.38133E-05,-0.009176578,0.001158155
1.76966E+18,5.278510254,0.039549884,-0.081231007,-0.005019289,0.001272956,-0.009626385,-0.00163337
1.76966E+18,5.288498047,0.046416847,-0.080376436,-0.008539573,0.002842208,-0.012468477,-0.004004451
1.76966E+18,5.29848584,0.036378268,-0.060222706,-0.023873335,0.005713362,-0.006938422,-0.006445772
1.76966E+18,5.308474854,-0.005422062,-0.054578562,-0.022009879,0.006044951,0.0020756,-0.006661533
1.76966E+18,5.318463135,-0.023938546,-0.056486442,-0.017283435,0.007805834,0.008591024,-0.013117036
1.76966E+18,5.328450928,-0.024327838,-0.016048633,0.017135259,0.009936347,0.015432841,-0.019011455
1.76966E+18,5.338438965,-0.047128867,-0.019276947,-0.002036182,0.010224501,0.022551471,-0.01691315
1.76966E+18,5.348427734,-0.058412515,-0.045854573,0.020407413,0.01055683,0.025442423,-0.014734866
1.76966E+18,5.358416016,-0.015225663,-0.03936112,0.027988662,0.012684696,0.016142664,-0.011891942
1.76966E+18,5.368403809,0.038394905,-0.042390112,0.025492169,0.012762374,0.008040137,-0.008562203
1.76966E+18,5.378391846,0.036856407,-0.065825933,0.026646599,0.010632643,0.005533037,-0.002673422
1.76966E+18,5.388379883,0.052373125,-0.070692077,0.054836044,0.008448383,-0.006567728,-0.003624383
1.76966E+18,5.398369141,0.098896428,-0.09027473,0.039698096,0.006675783,-0.016012097,-0.003086957
1.76966E+18,5.408356934,0.071621431,-0.087895141,0.026276013,0.005467865,-0.018766569,-0.003949361
1.76966E+18,5.418344971,0.040728316,-0.074991236,0.007384265,0.003639872,-0.019993486,-0.005389598
1.76966E+18,5.428332764,0.018006781,-0.055675125,-0.006660335,0.002080509,-0.016919259,-0.004515832
1.76966E+18,5.438320801,0.019572167,-0.043973582,-0.032236382,0.003366016,-0.010847783,-0.004596526
1.76966E+18,5.448309814,0.000280571,-0.014684359,-0.025010523,0.005621648,0.001219426,-0.006243211
1.76966E+18,5.458297852,-0.028681284,-0.027461423,-0.034058629,0.007302902,0.009465371,-0.004723079
1.76966E+18,5.468286133,-0.044797758,-0.038847909,-0.021323651,0.0083199,0.016090944,-0.00478918
1.76966E+18,5.478273926,-0.027786965,-0.028397242,-0.008956629,0.00624796,0.022538457,-0.006851798
1.76966E+18,5.488261963,-0.008898798,-0.054200377,0.005775369,0.006305227,0.022606544,-0.010247683
1.76966E+18,5.498250732,0.004373429,-0.046916065,0.011499299,0.00840726,0.018096214,-0.011803767
1.76966E+18,5.508239014,0.042200142,-0.041648354,0.005697627,0.005349135,0.015071042,-0.012208393
1.76966E+18,5.518226807,0.058217211,-0.0628098,0.007292787,0.003870282,0.00926828,-0.014174871
1.76966E+18,5.528214844,0.068030128,-0.040183542,0.014828444,0.003438208,8.89E-07,-0.016893977
1.76966E+18,5.538202881,0.066705638,-0.026267245,-0.00829875,0.003617705,-0.00723492,-0.012324525
1.76966E+18,5.548192139,0.037286651,-0.027060441,-0.014348551,0.000389356,-0.012319995,-0.006004505
1.76966E+18,5.558180176,0.018916297,-0.029852702,-0.008219255,0.000794956,-0.013886999,-0.00023956
1.76966E+18,5.568167725,0.02401921,-0.034775545,-0.003684241,-0.001919413,-0.011452622,0.002057187
1.76966E+18,5.578155762,0.025468751,-0.044821723,-0.003248773,-0.00086853,-0.00616385,0.002022832
1.76966E+18,5.58814502,0.037136977,-0.041895606,-0.000865092,-0.002020944,-0.003581224,0.000252042
1.76966E+18,5.598133057,0.040429004,-0.056145666,-0.030847266,-0.004061458,-0.002195315,-0.001518427
1.76966E+18,5.60812085,0.054454023,-0.050493339,-0.043914837,-0.000355191,-0.001606152,0.001225818
1.76966E+18,5.618108887,0.044900633,-0.030025136,-0.033367724,-0.000760524,0.000186954,0.005393398
1.76966E+18,5.628097168,0.018456863,-0.037042906,-0.002466098,0.000439403,-0.000626944,0.007452894
1.76966E+18,5.638085938,-0.00790975,-0.033040684,0.033736558,0.000899864,0.000445245,0.011389578
1.76966E+18,5.64807373,-0.023317747,-0.036344987,0.058637775,0.000562341,-0.005018443,0.012008922
1.76966E+18,5.658061768,-0.032217641,-0.041055064,0.094876086,-0.002425726,-0.011698715,0.010788396
1.76966E+18,5.668050049,-0.055854574,-0.064110945,0.093138302,-0.003933156,-0.019974949,0.010612482
1.76966E+18,5.678037842,-0.063100307,-0.066796239,0.088102939,-0.007741476,-0.025782503,0.00902071
1.76966E+18,5.688026855,-0.057384815,-0.068339961,0.067642042,-0.009000055,-0.026049063,0.006962834
1.76966E+18,5.698015137,-0.061924286,-0.073609426,0.060486325,-0.008999788,-0.023238894,0.005596099
1.76966E+18,5.70800293,-0.055820708,-0.077373747,0.053806409,-0.007457567,-0.013772893,0.001505362
1.76966E+18,5.717990723,-0.03543368,-0.086893271,0.043124271,-0.008309246,-0.006167171,-0.004534154
1.76966E+18,5.72797876,-0.012639738,-0.07542612,0.031521512,-0.008899778,-0.001104892,-0.008560872
1.76966E+18,5.737968018,0.002833726,-0.087100776,0.018780104,-0.010296873,-0.001018606,-0.010494594
1.76966E+18,5.747956055,0.013199673,-0.091523853,0.024784313,-0.009641273,-0.003279042,-0.011333331
1.76966E+18,5.757943848,0.010552995,-0.083646251,0.008107319,-0.009513441,-0.0059952,-0.009391621
1.76966E+18,5.767931885,0.020831155,-0.04876783,0.001877484,-0.007099739,-0.00526111,-0.009191064
1.76966E+18,5.777920166,0.008815686,-0.042086745,0.01146452,-0.003006993,-0.001940947,-0.007355347
1.76966E+18,5.787908936,0.019133666,-0.011182488,0.001721709,-0.001121069,-0.007480002,-0.005582058
1.76966E+18,5.797896729,0.011630817,-0.013081015,0.002796353,-0.004051612,-0.011547714,-0.003068567
1.76966E+18,5.807884766,-0.020665223,-0.036647769,0.020588907,-0.005854023,-0.014372707,-0.003349971
1.76966E+18,5.817873047,-0.016292963,-0.056734864,0.017572189,-0.008376835,-0.014333292,-0.007704239
1.76966E+18,5.827862061,0.013301344,-0.090683895,0.003910159,-0.012562957,-0.016426589,-0.015553535
1.76966E+18,5.837849854,-0.005051438,-0.105976741,0.001224573,-0.012870817,-0.0137344,-0.024262339
1.76966E+18,5.847837646,0.029537097,-0.02826631,0.003860767,-0.014751919,-0.006988738,-0.024592586
1.76966E+18,5.857825928,0.0225076,-0.062954761,-0.072892218,-0.012660805,0.008837096,-0.01790699
1.76966E+18,5.867813965,-0.050613787,-0.149207396,-0.015863924,-0.009691536,0.013914804,-0.018167427
1.76966E+18,5.877802979,-0.071538502,-0.152713942,-0.057848086,-0.006575105,0.005486964,-0.036093164
1.76966E+18,5.887791016,-0.057449186,-0.082536829,-0.05850275,0.001019587,-0.003202522,-0.052609574
1.76966E+18,5.897779053,-0.068327138,0.065254855,-0.004968144,0.003856919,0.00851592,-0.064124547
1.76966E+18,5.90776709,-0.078373827,0.164745157,0.03091887,0.0019685,0.027584441,-0.048295304
1.76966E+18,5.917754883,-0.055916533,0.187489488,0.038473815,-0.000726353,0.027316261,-0.018625824
1.76966E+18,5.927743896,0.0750327,0.110668114,0.013905191,-0.004877045,0.016732428,0.013420059
1.76966E+18,5.937731934,0.189166445,-0.026547231,-0.010419395,-0.010598047,-0.013924817,0.030231796
1.76966E+18,5.947719971,0.267713364,-0.122802788,0.023045652,-0.018360337,-0.056486197,0.027190611
1.76966E+18,5.957707764,0.185769349,-0.204123812,0.074115622,-0.026725059,-0.080972634,0.013423398
1.76966E+18,5.967696045,0.046737201,-0.259666251,0.077731767,-0.033082604,-0.086138919,-0.008580135
1.76966E+18,5.977684814,-0.011427439,-0.175066644,0.023818682,-0.034301266,-0.079425357,-0.027040102
1.76966E+18,5.987672852,-0.05247253,-0.058587798,-0.029361704,-0.028776227,-0.0516981,-0.030201308
1.76966E+18,5.997660645,-0.139330145,0.05899521,-0.063195584,-0.017526768,-0.010841213,-0.020330837
1.76966E+18,6.007648926,-0.14907997,0.122763625,-0.130697633,-0.006511252,0.019088954,-0.003912114
1.76966E+18,6.017636963,-0.09440613,0.149179923,-0.133014093,0.000561837,0.03125827,0.003053917
1.76966E+18,6.027625977,-0.050570532,0.085190558,-0.100961836,0.001740239,0.02986435,0.006436701
1.76966E+18,6.03761377,0.003744447,0.017487726,-0.05559563,-0.001058211,0.014426539,0.004857446
1.76966E+18,6.047602051,0.055613787,-0.029829906,-0.007961188,-0.005817872,-0.007984262,-0.002093602
1.76966E+18,6.057590088,0.096702132,-0.049765609,0.012473113,-0.010519152,-0.022154942,-0.00405289
1.76966E+18,6.067577881,0.108729291,-0.071430328,0.00153174,-0.011528593,-0.029475989,-0.004914651
1.76966E+18,6.077566895,0.116115237,-0.068438161,-0.029721185,-0.013373098,-0.028820585,0.001745116
1.76966E+18,6.087554932,0.108314244,-0.042315293,-0.067749594,-0.009078668,-0.023183011,0.006558657
1.76966E+18,6.097542969,0.090467622,-0.028380876,-0.067361179,-0.007095946,-0.012486693,0.011990973
1.76966E+18,6.107531006,0.03835987,-0.042839609,-0.079908818,-0.008127056,-0.006165572,0.015079759
1.76966E+18,6.11752002,0.018785364,-0.045532502,-0.066897361,-0.007457537,-0.000984392,0.012142292
1.76966E+18,6.127507813,-0.001510405,-0.0662199,-0.064687868,-0.008782591,-0.002152402,0.006102138
1.76966E+18,6.137495605,-0.009897161,-0.02891922,-0.048221302,-0.008517073,-0.004605972,0.001775034
1.76966E+18,6.147483643,-0.046788603,-0.003929741,-0.010252806,-0.01066041,-0.00482135,0.003297418
1.76966E+18,6.157471924,-0.038352783,0.022235213,0.000403028,-0.013190413,-0.006283958,0.007288697
1.76966E+18,6.167460938,-0.012846659,0.009662731,-0.008126023,-0.013458037,-0.009068365,0.007290973
1.76966E+18,6.17744873,0.012249241,-0.012034137,-0.002150456,-0.013980815,-0.012076939,0.006982313
1.76966E+18,6.187436768,0.022844284,-0.037103111,-0.006813187,-0.015088147,-0.01799031,0.006834951
1.76966E+18,6.197425049,0.018628749,-0.041477089,-0.019691666,-0.014186667,-0.016332226,0.010210241
1.76966E+18,6.207412842,0.007115969,-0.052651978,-0.01797171,-0.0124968,-0.0137926,0.009384324
1.76966E+18,6.217401611,0.018619324,-0.048365095,-0.019903847,-0.010956162,-0.006288345,0.004329911
1.76966E+18,6.227389648,0.015800759,-0.072283146,-0.028404841,-0.009785216,-0.002805214,0.001141343
1.76966E+18,6.23737793,-0.002625672,-0.061558923,-0.029096623,-0.008592386,-0.000629412,-0.002443804
1.76966E+18,6.247365967,-0.026338593,-0.038611762,-0.019480069,-0.012709743,0.002865597,-0.000247779
1.76966E+18,6.25735376,-0.016428572,-0.016287118,-0.008156711,-0.011459389,-2.84603E-05,-0.000220881
1.76966E+18,6.267342773,-0.005906009,-0.025531916,1.43208E-05,-0.012417162,-0.00193816,0.001398481
1.76966E+18,6.277330811,0.0104244,-0.035006431,0.014314649,-0.012932484,-0.011046437,0.00359985
1.76966E+18,6.287318848,0.051840041,-0.05222177,0.009318448,-0.011464512,-0.017397704,0.00274263
1.76966E+18,6.297306641,0.060976154,-0.067893971,-0.009107436,-0.00957793,-0.018073348,0.0003599
1.76966E+18,6.307294678,0.061700962,-0.06732114,-0.002704583,-0.008454192,-0.017569777,-0.004032384
1.76966E+18,6.317283936,0.017326434,-0.061258479,-0.00910539,-0.004744675,-0.012407506,-0.001379343
1.76966E+18,6.327271973,0.022762451,-0.04987433,-0.012711013,-0.00419637,-0.007702607,-0.00170483
1.76966E+18,6.337259766,0.045272426,-0.050731824,-0.014554887,-0.002709793,-0.006129744,-0.003585022
1.76966E+18,6.347247559,0.072927326,-0.047473114,-0.041558337,-0.002030265,-0.011721708,-0.004940856
1.76966E+18,6.35723584,0.079302121,-0.035372927,-0.02773644,-0.001167401,-0.018408107,-0.008361686
1.76966E+18,6.367224854,0.061591108,-0.022518121,-0.004803309,-0.002874119,-0.023477219,-0.006443572
1.76966E+18,6.377212646,0.04594459,-0.010464111,-0.015012276,-0.002289022,-0.027643202,-0.001803547
1.76966E+18,6.387200928,0.037734395,-0.011700375,0.010566402,-0.003058583,-0.030020766,0.001221325
1.76966E+18,6.397188965,0.028277963,-0.032413492,0.001009762,-0.001095833,-0.028211148,0.001085504
1.76966E+18,6.407177734,0.012595278,-0.051586979,-0.007725918,-0.000112434,-0.024520732,-0.001057956
1.76966E+18,6.417165527,-0.000364778,-0.054983052,-0.021039865,0.002088136,-0.022620566,-0.00771
1.76966E+18,6.427153809,-0.008339995,-0.041803252,-0.012852175,0.005540507,-0.014810548,-0.009599313
1.76966E+18,6.437141846,-0.03759411,-0.029101007,-0.008488135,0.005368467,-0.00651853,-0.009534597
1.76966E+18,6.447129883,-0.026665925,-0.016657705,-0.017827333,0.007105195,-7.48171E-05,-0.006589529
1.76966E+18,6.457118896,0.012554325,-0.018921558,-0.014214111,0.00748576,0.004426192,-0.002511963
1.76966E+18,6.467106934,0.043505928,-0.041187166,-0.034688744,0.007090617,0.002622471,-0.001415352
1.76966E+18,6.477094727,0.060412639,-0.079465166,-0.022108956,0.007046942,-0.004478848,-0.002808718
1.76966E+18,6.487082764,0.045140287,-0.076026424,0.006243571,0.006674277,-0.014902588,-0.008780601
1.76966E+18,6.497070557,0.021988544,-0.062132923,0.011292086,0.005644433,-0.019713055,-0.00849804
1.76966E+18,6.507059814,-0.007825579,-0.04720891,0.018301965,0.006456799,-0.022450306,-0.007421485
1.76966E+18,6.517047852,-0.009924013,-0.035106969,0.005922084,0.007164667,-0.021243626,-0.004104518
1.76966E+18,6.527035889,-0.002773008,-0.008919804,-0.006083996,0.009904411,-0.016790587,0.000527319
1.76966E+18,6.537023926,0.017292459,-0.005136778,-0.003960136,0.009047939,-0.008189645,0.002834416
1.76966E+18,6.547011963,0.027493608,-0.037904491,0.003228022,0.008559803,-0.006759898,0.000805564
1.76966E+18,6.557000732,0.075198741,-0.058217211,-0.01508651,0.008085229,-0.012117911,-0.000565963
1.76966E+18,6.56698877,0.077134678,-0.074048987,-0.024999124,0.006389081,-0.017964955,-0.004039109
1.76966E+18,6.576976807,0.073546882,-0.062187868,-0.037035015,0.007419459,-0.018849924,-0.005350983
1.76966E+18,6.586964844,0.069367587,-0.033070495,-0.048566755,0.01057648,-0.013989799,-0.009413351
1.76966E+18,6.596952881,0.038045361,-0.030349546,-0.046802083,0.012193019,-0.007409126,-0.008311335
1.76966E+18,6.60694165,0.016530279,-0.049454059,-0.067042323,0.011953673,0.0038243,-0.008303505
1.76966E+18,6.616929688,-0.03099252,-0.075682725,-0.063563833,0.016442964,0.013619406,-0.009924039
1.76966E+18,6.626917725,-0.029058958,-0.100108726,-0.083089202,0.016214667,0.018463058,-0.022283826
1.76966E+18,6.636905762,0.013214907,-0.029833413,-0.049205053,0.019444283,0.017419897,-0.031746835
1.76966E+18,6.64689502,-0.052950669,-0.010613164,-0.002954466,0.017624948,0.024375133,-0.027707597
1.76966E+18,6.656882813,-0.080266509,0.003424129,0.028084231,0.01490373,0.033908449,-0.018448584
1.76966E+18,6.66687085,-0.045890777,0.044117959,0.027613106,0.016970433,0.035246722,-0.007302528
1.76966E+18,6.676858887,0.024420156,0.035585693,0.03565642,0.016733145,0.025794633,0.006030321
1.76966E+18,6.686846924,0.056720799,0.002636194,0.039468087,0.011832518,0.016282123,0.012305191
1.76966E+18,6.696835693,0.076346706,-0.027341011,0.053295829,0.006509923,-0.000456377,0.010704365
1.76966E+18,6.70682373,0.124262303,-0.019049568,0.047624213,0.004105543,-0.01438936,0.006097341
1.76966E+18,6.716811768,0.14316227,-0.032338089,0.023191198,0.001874613,-0.021874441,0.00399664
1.76966E+18,6.726800049,0.094772078,-0.037101358,-0.011646891,0.002735103,-0.024366433,0.014125053
1.76966E+18,6.736787842,0.046682256,-0.023254034,-0.014262626,0.004517557,-0.021588489,0.025002202
1.76966E+18,6.746776611,0.007795184,0.00338672,-0.015459143,0.010359983,-0.013715741,0.03210476
1.76966E+18,6.756764648,-0.027998599,-0.001204115,-0.02023907,0.013819163,-0.009625658,0.035051815
1.76966E+18,6.76675293,-0.009249438,-0.020040333,-0.032736733,0.014303178,-0.013331944,0.031039163
1.76966E+18,6.776740723,-0.008396036,-0.005206921,-0.011385902,0.010777419,-0.017138135,0.026382357
1.76966E+18,6.78672876,0.001474164,-0.019307927,-0.019045184,0.009966094,-0.018447289,0.022571264
1.76966E+18,6.796717773,0.033088652,-0.039835167,-0.033825405,0.011091279,-0.007975473,0.018143225
1.76966E+18,6.806706055,0.035754035,-0.059482701,-0.048343175,0.011938206,0.002517224,0.011902422
1.76966E+18,6.816693848,0.037705206,-0.082113635,-0.049652504,0.012520906,0.012247084,0.00979879
1.76966E+18,6.826681885,0.036479975,-0.067461425,-0.052177931,0.014349259,0.017432004,0.007872235
1.76966E+18,6.836669678,0.032439796,-0.034945057,-0.061258479,0.015543953,0.019265059,0.006767556
1.76966E+18,6.846658936,0.042913296,0.003470306,-0.070481357,0.016743744,0.018136784,0.009127168
1.76966E+18,6.856646729,0.048522368,0.008730419,-0.043233869,0.017696889,0.013649624,0.012072358
1.76966E+18,6.866634766,0.048476738,-0.026293548,-0.028519992,0.017734936,0.014972309,0.015840413
1.76966E+18,6.876622803,0.026866964,-0.079631755,-0.018587212,0.016081646,0.014759788,0.011488276
1.76966E+18,6.886611816,0.003171579,-0.099492055,-0.002377251,0.013575632,0.013731563,0.005650585
1.76966E+18,6.896599609,0.005702596,-0.121453127,-0.008090075,0.011865084,0.011151493,-0.003263282
1.76966E+18,6.906587646,-0.021192462,-0.102014852,-0.017817981,0.012341879,0.01028527,-0.007879813
1.76966E+18,6.916575928,-0.044841049,-0.076290628,-0.021525019,0.01255786,0.010616301,-0.00938663
1.76966E+18,6.926563721,-0.049697257,-0.030372926,-0.02505933,0.012928335,0.015714852,-0.007017874
1.76966E+18,6.936552734,-0.044450588,-0.002310031,-0.02195172,0.015531044,0.019583894,-0.003544312
1.76966E+18,6.946540771,-0.017625673,0.019597265,-0.012296295,0.018776232,0.023564732,0.003177881
1.76966E+18,6.956529053,0.010526034,-0.007504092,0.00208499,0.019048141,0.024854235,0.007350522
1.76966E+18,6.966516846,0.034414274,-0.035990766,0.027173254,0.015571618,0.024091331,0.003914594
1.76966E+18,6.976504639,0.02059972,-0.080706106,0.045400984,0.014128185,0.018984454,-0.000188805
1.76966E+18,6.986493652,0.01500464,-0.106831312,0.067336629,0.010282034,0.009882458,-0.00194281
1.76966E+18,6.996481934,0.003283807,-0.103120183,0.071494334,0.01132333,0.002164884,-0.002010189
1.76966E+18,7.006469971,-0.00879826,-0.071909052,0.067125033,0.011726937,-0.003874313,0.004080887
1.76966E+18,7.016457764,-0.026319888,-0.035191725,0.078595106,0.012371955,-0.009317282,0.013120455
1.76966E+18,7.026445801,-0.043743244,-0.020605566,0.076490242,0.011858717,-0.009883221,0.019659882
1.76966E+18,7.036434814,-0.038505927,-0.016050387,0.063899056,0.010152429,-0.006650676,0.021010106
1.76966E+18,7.046422852,-0.035292263,-0.04796762,0.042415246,0.010207714,-0.001824887,0.019625776
1.76966E+18,7.056410645,-0.026429742,-0.071366031,0.04373685,0.008867345,0.003136049,0.016666738
1.76966E+18,7.066398682,-0.051205323,-0.106148006,0.017730595,0.008360866,0.002127439,0.015974458
1.76966E+18,7.076386963,-0.054050739,-0.09342881,0.012695815,0.009293505,0.001948741,0.01118503
1.76966E+18,7.086375977,-0.055402154,-0.064711834,0.022221184,0.009036832,0.006080299,0.01280464
1.76966E+18,7.09636377,-0.044386254,-0.039881344,0.046393795,0.010248037,0.007950104,0.013188668
1.76966E+18,7.106351563,-0.030570458,-0.031572365,0.062017188,0.00740707,0.005431056,0.013488466
1.76966E+18,7.116339844,-0.008820472,-0.026533787,0.05400953,0.003392088,0.002846991,0.009363763
1.76966E+18,7.126328857,0.008284977,-0.058093877,0.043541328,0.00190136,0.002100098,0.005805798
1.76966E+18,7.136316406,0.014911153,-0.094715342,0.031128713,-0.002875019,-0.004272314,0.00339617
1.76966E+18,7.146304199,0.000315642,-0.096256142,0.000650865,-0.003477986,-0.00868297,0.00041675
1.76966E+18,7.15629248,0.013923348,-0.063289692,-0.012491233,-0.004026864,-0.010166084,0.000559762
1.76966E+18,7.166280518,-0.00039163,-0.033474984,-0.017984277,-0.004274518,-0.006558815,0.002368277
1.76966E+18,7.176269287,0.005195194,-0.02252572,-0.016269582,-0.00531901,-0.000883618,0.004159785
1.76966E+18,7.186257324,0.001132803,-0.034579146,-0.021959318,-0.003125484,0.004004383,0.004389813
1.76966E+18,7.196245361,0.030604361,-0.050689154,-0.014549334,-0.005335907,0.007655044,0.000208117
1.76966E+18,7.206233398,0.018891747,-0.06306582,-0.004212065,-0.00613378,0.012123669,-0.003997496
1.76966E+18,7.216221191,0.002610438,-0.08295067,-0.01025076,-0.006956164,0.006980306,-0.004326663
1.76966E+18,7.226210449,-0.014808278,-0.063420041,0.001850596,-0.008110078,0.002554309,-0.003591715
1.76966E+18,7.236198486,-0.053896425,-0.052625675,0.023759938,-0.008253622,-0.002013811,0.001104503
1.76966E+18,7.246186523,-0.057742579,-0.017032968,0.058577861,-0.00863958,-0.004709836,0.003204353
1.76966E+18,7.256174072,-0.065067808,-0.003937339,0.065341656,-0.009295516,-0.004578276,0.008113091
1.76966E+18,7.266162354,-0.042288953,-0.003251695,0.056039575,-0.007222575,-0.005409555,0.011699783
1.76966E+18,7.276151367,-0.024016835,0.005591536,0.040559682,-0.005930409,-0.005470275,0.014717943
1.76966E+18,7.286139404,0.001947554,-0.03336334,0.007052257,-0.002741062,-0.006784739,0.014855219
1.76966E+18,7.296127197,-0.006225195,-0.059148939,-0.001047755,-0.004934974,-0.005190838,0.017730368
1.76966E+18,7.306115479,0.001563012,-0.084179335,-0.002272329,-0.002970774,-0.003746571,0.01467006
1.76966E+18,7.316103516,0.010250212,-0.106180155,0.015735037,-0.003815529,-0.002785169,0.013012509
1.76966E+18,7.326092285,0.004198073,-0.075978493,0.035013153,-0.00589813,-0.006044523,0.007629016
1.76966E+18,7.336080566,-0.006419219,-0.070062547,0.050374096,-0.006874179,-0.009320743,0.003840936
1.76966E+18,7.346068359,-0.010252477,-0.057604632,0.038310441,-0.008641689,-0.013441985,0.003871295
1.76966E+18,7.356056396,0.009355821,-0.042094928,0.014192191,-0.011688878,-0.016536579,0.000991885
1.76966E+18,7.366044434,0.034191023,-0.031931846,-0.018919512,-0.011931906,-0.01749908,0.000236683
1.76966E+18,7.376033691,0.031900867,-0.024882512,-0.030246377,-0.011107391,-0.018838117,-0.001195299
1.76966E+18,7.386021484,0.030789033,-0.018651509,-0.045032735,-0.010209255,-0.013963433,-0.003787689
1.76966E+18,7.396009277,0.00784074,-0.011812603,-0.055456222,-0.012355763,-0.0059862,-0.006307305
1.76966E+18,7.405997314,-0.017310031,-0.056125207,-0.056169046,-0.010786499,-0.000410126,-0.006489359
1.76966E+18,7.415986572,-0.036925417,-0.093215459,-0.050044426,-0.010306065,0.006195845,-0.012513429
1.76966E+18,7.425974365,-0.014189817,-0.068592475,-0.031568566,-0.009071513,0.007731318,-0.017982287
1.76966E+18,7.435962402,-0.004816424,-0.091780458,-0.035206922,-0.006343104,0.008807502,-0.022649478
1.76966E+18,7.445950439,-0.021088381,-0.079033789,-0.009366379,-0.006791151,0.012953829,-0.023371032
1.76966E+18,7.455938477,-0.008502419,-0.03232523,-0.021662673,-0.003918399,0.0182434,-0.019957658
1.76966E+18,7.465927246,0.02293547,0.010685645,-0.017658699,-0.003324882,0.013516875,-0.00994854
1.76966E+18,7.475915283,0.02468783,0.036357846,0.004916706,-0.004835693,0.006604107,0.00160878
1.76966E+18,7.48590332,0.009313772,0.047762453,0.042578913,-0.005919748,-0.007776661,0.008144641
1.76966E+18,7.495891357,0.016883367,0.024341245,0.049737844,-0.00987401,-0.012928013,0.011151083
1.76966E+18,7.505879395,0.017742577,-0.02572247,0.079251816,-0.015480504,-0.016440367,0.005491155
1.76966E+18,7.515868408,0.052483015,-0.081754739,0.047750178,-0.01737055,-0.030059509,0.001060187
1.76966E+18,7.525856201,0.048110828,-0.135511463,0.042801323,-0.017452199,-0.031657547,-0.002318813
1.76966E+18,7.535844238,0.004533588,-0.141823131,0.004210311,-0.016813839,-0.028956035,-0.003735615
1.76966E+18,7.545832275,-0.020851065,-0.125256611,-0.024728199,-0.015207961,-0.025184376,-0.003785595
1.76966E+18,7.555820313,-0.071636628,-0.084775548,-0.032091421,-0.012902463,-0.021500958,-0.004890008
1.76966E+18,7.56580957,-0.065046728,-0.057296589,-0.058535483,-0.00919257,-0.017959364,-0.00343617
1.76966E+18,7.575797363,-0.047901569,-0.024607203,-0.071326868,-0.007040469,-0.009762419,-0.005460705
1.76966E+18,7.5857854,-0.045630153,-0.008674305,-0.057485974,-0.005690495,0.000907623,-0.005223327
1.76966E+18,7.595773438,-0.031013562,-0.027590018,-0.037313539,-0.00475253,0.009203636,-0.012274312
1.76966E+18,7.605761719,-0.044260034,-0.028934418,-0.02755027,-0.006297158,0.011557098,-0.016685361
1.76966E+18,7.615750488,-0.053790079,-0.030195816,-0.003546587,-0.00549528,0.008653186,-0.01975492
1.76966E+18,7.625738281,-0.052919105,-0.035411505,0.022841362,-0.006725766,0.006197513,-0.019162953
1.76966E+18,7.635726318,-0.052131133,-0.006439678,0.041599838,-0.008574266,-0.00229078,-0.020906525
1.76966E+18,7.6457146,0.020113362,0.033707624,0.051282443,-0.007308725,-0.012835633,-0.014770468
1.76966E+18,7.655703613,0.024359329,0.026319852,0.023552141,-0.009367881,-0.013558415,-0.007769284
1.76966E+18,7.665691162,0.021263737,-0.007749591,0.012011633,-0.009204178,-0.012304815,0.00206514
1.76966E+18,7.675679199,0.041215807,-0.052253919,-0.012552315,-0.005595328,-0.01729984,0.004217507
1.76966E+18,7.68566748,0.13794596,-0.060712535,-0.000481062,-0.006042951,-0.025205771,0.001082842
1.76966E+18,7.695655273,0.093400716,-0.110472884,-0.044982759,-0.006123911,-0.028008748,0.001602692
1.76966E+18,7.705644287,0.016255517,-0.120094114,-0.040353638,-0.005377317,-0.029300524,0.003844559
1.76966E+18,7.715632568,0.01735208,-0.043753217,0.006760872,-0.00281509,-0.030752746,0.001159293
1.76966E+18,7.725620605,0.00742931,-0.017241642,0.006333879,-0.006644151,-0.027145298,0.000787919
1.76966E+18,7.735608398,-0.035801929,-0.007325813,-0.006355214,-0.008343515,-0.01821918,0.007943833
1.76966E+18,7.745596436,-0.024083434,-0.048036593,-0.017571605,-0.006789866,-0.005859025,0.009568311
1.76966E+18,7.755585449,0.039696014,-0.073722823,-0.038592766,-0.005553626,0.003986948,0.00536611
1.76966E+18,7.765573486,0.046472997,-0.102137017,-0.029082594,-0.004842625,0.011930785,-0.001329665
1.76966E+18,7.775561279,0.041246203,-0.10525661,-0.04092267,-0.004473511,0.011625587,-0.007865328
1.76966E+18,7.785549316,0.034021549,-0.110723643,-0.048072249,-0.002758373,0.011118893,-0.012831003
1.76966E+18,7.795537354,0.003254618,-0.082425185,-0.043579029,-0.001545569,0.016774116,-0.01764733
1.76966E+18,7.805526367,-0.031888007,-0.095011695,-0.020713702,-0.004523754,0.022080489,-0.017079059
1.76966E+18,7.81551416,-0.06794245,-0.097794019,-0.022381928,-0.003026525,0.023004871,-0.015297405
1.76966E+18,7.825502197,-0.063220719,-0.09114859,-0.01729571,-0.003056629,0.028354693,-0.017961759
1.76966E+18,7.835490479,-0.067684164,-0.059859718,0.001072598,-0.000484015,0.030463384,-0.017440312
1.76966E+18,7.845478516,-0.081859953,-0.029835751,0.006682839,0.000128925,0.033596028,-0.012835369
1.76966E+18,7.855467285,-0.069887775,-0.026590485,0.010442191,0.001121219,0.036683962,-0.008220378
1.76966E+18,7.865455322,-0.028173992,-0.033685997,0.033944063,0.002343995,0.035298884,-0.004404139
1.76966E+18,7.875443604,0.011780418,-0.070447747,0.037167409,-0.000248592,0.035369724,-0.00554264
1.76966E+18,7.885431396,0.003946655,-0.106755909,0.044724692,-0.001375651,0.028426953,-0.010216399
1.76966E+18,7.89542041,0.02207509,-0.122356798,0.036030806,-0.004469445,0.022773329,-0.01360394
1.76966E+18,7.905408203,0.011332747,-0.111256727,0.029941549,-0.005838446,0.01497208,-0.020924065
1.76966E+18,7.915396484,-0.007038776,-0.077698157,0.015163082,-0.006249372,0.011094783,-0.021316616
1.76966E+18,7.925384521,-0.009188684,-0.063765493,0.017620997,-0.005147788,0.013656957,-0.020085063
1.76966E+18,7.935372314,-0.016004209,-0.043500704,0.010581308,-0.004563491,0.01890498,-0.020330872
1.76966E+18,7.945361328,-0.003014927,-0.033812838,0.013505086,-0.004380034,0.02530678,-0.021207765
1.76966E+18,7.955349365,0.011615656,-0.036765258,0.009545242,-0.003298258,0.028890062,-0.020695107
1.76966E+18,7.965337402,0.015707272,-0.041251463,0.031583764,-0.006409527,0.027646046,-0.022835918
1.76966E+18,7.975325195,0.018287315,-0.031891514,0.028354865,-0.008793322,0.019842451,-0.024632486
1.76966E+18,7.985313232,0.027583588,-0.033080432,0.026632571,-0.009206887,0.011826069,-0.027569149
1.76966E+18,7.99530249,0.026665925,-0.039894788,0.008647125,-0.011788555,0.005538878,-0.029877575
1.76966E+18,8.005290527,0.023929157,-0.048545712,0.010645605,-0.012222264,0.001987322,-0.029800151
1.76966E+18,8.01527832,-0.001253215,-0.027441549,-0.001718787,-0.01070373,0.001978001,-0.023733735
1.76966E+18,8.025266357,-0.027466684,-0.030799043,-0.012824118,-0.008725616,0.00302283,-0.017146017
1.76966E+18,8.035254395,-0.054240161,-0.023636312,0.006750936,-0.005450993,0.005184252,-0.011840202
1.76966E+18,8.045243408,-0.054442332,-0.021004794,0.010637129,-0.004340721,0.004300348,-0.009933645
1.76966E+18,8.055231201,-0.03706457,0.007823241,0.006108546,-0.003923138,0.007230092,-0.011028737
1.76966E+18,8.065219482,-0.005931728,0.011406945,0.017509061,-0.002483737,0.009642277,-0.010361932
1.76966E+18,8.07520752,-0.001031097,0.001523264,0.025007308,-0.001817681,0.012299579,-0.007399965
1.76966E+18,8.085195557,0.006289419,-0.02778291,0.00502835,-0.000668848,0.010038094,-0.006263203
1.76966E+18,8.095184082,0.037956513,-0.034923429,-0.005131225,0.000195081,0.00874353,-0.007906905
1.76966E+18,8.105172363,0.02325703,-0.046147419,-0.011766718,-0.000222915,0.004959214,-0.005605207
1.76966E+18,8.1151604,0.023625206,-0.048844987,-0.009953239,-0.002266625,-0.001631843,-0.001298875
1.76966E+18,8.125148438,0.018051278,-0.032350949,-0.005989011,-0.002589174,-0.003247402,0.003038784
1.76966E+18,8.135136719,0.033169206,-0.032486558,-0.024452012,-0.001901812,-0.002887609,0.003115484
1.76966E+18,8.145125732,0.045396381,-0.015821254,-0.012738193,-0.003081571,-0.003807202,-0.000526382
1.76966E+18,8.15511377,0.033231238,0,-0.001716156,-0.001379012,-0.000611675,-0.000830248
1.76966E+18,8.165101807,0.01371281,0.006517419,-0.005594167,-0.004393084,-0.000892868,-0.00046254
1.76966E+18,8.175089844,0.006128127,-0.02956804,-0.030916532,-0.006028264,-0.001020966,-0.000773064
1.76966E+18,8.185078857,-0.01694887,-0.05742986,-0.034498774,-0.005560854,0.002368438,-0.004990176
1.76966E+18,8.195066895,0.013963022,-0.091230423,-0.044399406,-0.006096416,0.004758891,-0.010888279
1.76966E+18,8.205054932,0.018788872,-0.094723526,-0.029069735,-0.008053086,0.008259333,-0.017763995
1.76966E+18,8.215042969,0.001515008,-0.05793138,-0.021962241,-0.003622385,0.017353229,-0.018877195
1.76966E+18,8.225030762,-0.011892609,0.000503858,-0.028071371,-0.001793822,0.021407198,-0.014970284
1.76966E+18,8.235019775,-0.001238017,0.040908933,-0.028391982,-0.006316136,0.021757938,-0.00434294
1.76966E+18,8.245008057,0.014835092,0.04286942,-0.027027415,-0.010444127,0.016967142,0.003089748
1.76966E+18,8.25499585,0.046847055,0.015015198,-0.014981588,-0.01288305,0.007224766,0.003822649
1.76966E+18,8.264983887,0.091128241,-0.023590719,-0.001011223,-0.018150011,-0.002369538,-0.005639031
1.76966E+18,8.274971924,0.101642584,-0.061758245,-0.01244827,-0.023501633,-0.005441228,-0.014988326
1.76966E+18,8.284960938,0.075641772,-0.115430214,-0.018974457,-0.026001358,-0.010325324,-0.020212397
1.76966E+18,8.294948975,0.049303252,-0.130239076,-0.01551701,-0.025875391,-0.009897355,-0.01874819
1.76966E+18,8.304936768,0.032860725,-0.105855745,-0.025965924,-0.023920007,-0.004184838,-0.015304795
1.76966E+18,8.314924805,0.023551483,-0.056095397,-0.033771044,-0.020547647,-0.001628203,-0.013848844
1.76966E+18,8.324912842,0.014725275,-0.034475686,-0.025747897,-0.01823335,-0.002131364,-0.013690475
1.76966E+18,8.3349021,-0.018495478,-0.016347908,-0.034996202,-0.015989104,-0.000457833,-0.013175951
1.76966E+18,8.344889893,-0.016747758,0.003949614,-0.032853345,-0.014555947,0.004029451,-0.012102414
1.76966E+18,8.35487793,-0.013294366,0.027488311,-0.028592473,-0.012661374,-0.001312317,-0.005892722
1.76966E+18,8.364865967,-0.016459004,0.019788989,-0.039192193,-0.010437137,0.000569634,-0.000103331
1.76966E+18,8.37485498,-0.026412206,-0.006800328,-0.037781449,-0.006667965,0.013387161,0.00017417
1.76966E+18,8.384842773,-0.008061799,-0.024424247,-0.030073651,-0.002139471,0.012330081,-0.004011378
1.76966E+18,8.394830811,0.031253143,-0.031626726,-0.024838965,-0.001283264,0.006568333,-0.002115207
1.76966E+18,8.404819092,0.003427709,-0.044411389,-0.007829378,-0.00195138,0.015653919,-0.003342284
1.76966E+18,8.414806885,0.029461072,-0.044238955,0.029861762,-0.004185506,0.013396357,-0.007020109
1.76966E+18,8.424795654,0.039810617,-0.04531389,0.016883915,-0.004367868,-0.004722619,-0.003424788
1.76966E+18,8.434783691,0.047338017,-0.093610012,0.004589666,-0.00790428,-0.017607259,-0.00194407
1.76966E+18,8.444771973,0.052428179,-0.094604868,-0.01245207,-0.010661734,-0.016192408,-0.010617811
1.76966E+18,8.454759766,0.070389295,-0.096035777,-0.016860534,-0.011150424,-0.02023056,-0.018910628
1.76966E+18,8.464747803,0.055962126,-0.084087565,-0.004456103,-0.009960975,-0.024796087,-0.021324107
1.76966E+18,8.474737061,-0.045812488,-0.082412326,-0.014605156,-0.008609952,-0.018229,-0.020542204
1.76966E+18,8.484725098,-0.101171423,-0.047983402,0.001473872,-0.004469436,-0.007338056,-0.023926707
1.76966E+18,8.494712891,-0.106034609,-0.044832244,-0.006605974,-0.004154384,-0.001150734,-0.030816305
1.76966E+18,8.504700684,-0.104130273,-0.035806642,0.010604396,-0.004755293,0.008337364,-0.03480849
1.76966E+18,8.514688721,-0.086558413,-0.033947862,0.007625673,-0.003290555,0.014253043,-0.031645723
1.76966E+18,8.524677979,-0.036049803,-0.018894086,0.011449323,1.14513E-05,0.016394496,-0.025134036
1.76966E+18,8.534665771,-0.014076456,-0.02179273,0.008445757,-0.001098554,0.017927146,-0.014183383
1.76966E+18,8.544653809,0.010519019,-0.072319971,0.016490824,-0.001768458,0.010932827,-0.008360265
1.76966E+18,8.55464209,0.07214761,-0.103603582,0.024547874,-0.001514392,-0.001853276,-0.010950189
1.76966E+18,8.564630859,0.067563716,-0.133691847,0.024943595,-0.002501276,-0.010209618,-0.016657062
1.76966E+18,8.574618896,0.038384457,-0.107811555,0.042720367,-0.002366786,-0.015162565,-0.019437402
1.76966E+18,8.584606689,0.007149799,-0.03123042,0.044056292,-0.000241998,-0.0134131,-0.019684877
1.76966E+18,8.594594971,-0.030848764,0.025733576,0.035964171,0.001214751,-0.007223114,-0.010299899
1.76966E+18,8.604583008,-0.045745852,0.04330898,0.030169805,0.001597557,0.00161471,-0.003519472
1.76966E+18,8.614572021,-0.041201706,0.023900516,0.02501023,-0.000156667,0.00447388,-0.002399613
1.76966E+18,8.624559814,-0.016428609,-0.015828268,0.027916765,0.001041425,0.005001612,-0.007822396
1.76966E+18,8.634547852,-0.020850005,-0.069699559,0.030752866,-0.000286161,0.000236684,-0.016086984
1.76966E+18,8.644535889,-0.011723244,-0.083106153,0.026481472,-0.00026332,-0.003434056,-0.022408051
1.76966E+18,8.654523682,0.010292225,-0.080498017,0.005459434,2.72311E-05,-0.006082837,-0.026350861
1.76966E+18,8.664512939,0.007649053,-0.027740824,0.017905075,0.002146499,-0.004252127,-0.022865953
1.76966E+18,8.674500977,-0.003000862,0.001087795,0.006885083,0.004351064,-0.005109399,-0.01539978
1.76966E+18,8.684489014,0.005328502,0.019444121,0.003370645,0.005392993,-0.008181142,-0.006704187
1.76966E+18,8.694476807,0.01267828,0.007536825,0.016738953,0.0056665,-0.009233356,0.000516442
1.76966E+18,8.704464844,0.007672398,-0.010764555,0.012458207,0.006418285,-0.01209439,0.003732471
1.76966E+18,8.714453857,0.020793745,-0.041634325,0.00319032,0.006276072,-0.016536275,0.005210526
1.76966E+18,8.724441895,0.018237046,-0.063382631,0.006056231,0.003913466,-0.017945919,0.002156746
1.76966E+18,8.734429688,0.019071853,-0.062003744,-0.002715981,0.003424776,-0.018752061,0.003512827
1.76966E+18,8.744417969,0.01037066,-0.04947744,-0.005350129,0.002153397,-0.018380195,0.004501753
1.76966E+18,8.754406006,-0.009147804,-0.058573185,-0.013660569,0.000859633,-0.015436338,0.006141196
1.76966E+18,8.764394775,-0.008832126,-0.048543958,-0.017105449,0.001142524,-0.014466308,0.005725531
1.76966E+18,8.774382568,-0.003386756,-0.074090488,-0.044395607,0.000723076,-0.012236178,0.001846903
1.76966E+18,8.78437085,0.015886099,-0.077643796,-0.039752165,0.000985829,-0.009411309,-0.001873106
1.76966E+18,8.794358887,0.018898762,-0.035201662,-0.055540978,0.002672143,-0.00971704,-0.001458186
1.76966E+18,8.804346924,0.002709917,0.000574,-0.06703297,0.003779375,-0.007896362,0.002842003
1.76966E+18,8.814335693,-0.021370157,0.000758125,-0.089843937,0.00526675,-0.004498434,0.007672178
1.76966E+18,8.824323975,-0.027571898,0.029354105,-0.080448917,0.004000647,-0.000510723,0.007628715
1.76966E+18,8.834312012,-0.032084443,0.007905659,-0.063720485,0.002656017,0.003271498,0.008879868
1.76966E+18,8.844300049,-0.027682957,-0.026596331,-0.069925185,0.002604012,0.004341272,0.004831099
1.76966E+18,8.854289063,-0.010531952,-0.04332827,-0.080028353,0.002240757,0.009990104,0.00206301
1.76966E+18,8.864276855,-0.005342603,-0.06060206,-0.068767539,0.003344206,0.017663948,-0.002491423
1.76966E+18,8.874264893,0.012708675,-0.069360536,-0.075666651,0.002210232,0.021633923,-0.00270634
1.76966E+18,8.88425293,-0.010528408,-0.049308513,-0.057395081,0.001338524,0.028418664,-0.003743783
1.76966E+18,8.894240723,-0.007034136,-0.056520344,-0.027334289,0.000870607,0.033065613,-0.007777407
1.76966E+18,8.90422998,-0.001830723,-0.063802318,-0.024526831,-0.004146872,0.037121214,-0.018516887
1.76966E+18,8.914217773,-0.007220051,-0.083964816,-0.015604396,-0.00255297,0.04024883,-0.023588078
1.76966E+18,8.924205811,0.02903554,-0.11764789,-0.033426177,-4.11961E-05,0.042066406,-0.033239037
1.76966E+18,8.934193848,0.051850672,-0.066083122,-0.053463002,0.000720734,0.037817065,-0.039313972
1.76966E+18,8.944181885,0.013445246,-0.02127835,-0.023991993,0.003348872,0.03135778,-0.035551887
1.76966E+18,8.954170898,-0.063301383,-0.029828737,0.006313713,0.005549975,0.029328985,-0.031178175
1.76966E+18,8.964158936,-0.076522026,-0.014504911,0.029329263,0.00546445,0.020541707,-0.033472937
1.76966E+18,8.974146973,-0.080112269,-0.035665772,0.055331427,0.005774975,0.022046395,-0.042578284
1.76966E+18,8.98413501,-0.069750997,-0.049721186,0.101173433,0.005912442,0.016017886,-0.050287779
1.76966E+18,8.994122803,-0.028108525,-0.074558105,0.084383334,0.001744328,0.02075991,-0.05150884
1.76966E+18,9.004111816,-0.028033779,-0.06041969,0.072316171,0.001613802,0.026891571,-0.046068531
1.76966E+18,9.014099854,0.006378376,-0.026264322,0.056050681,0.00521413,0.021904003,-0.036196992
1.76966E+18,9.024087891,0.047211833,-0.017261516,0.036456046,0.005047031,0.010144514,-0.02278178
1.76966E+18,9.034075928,0.04621347,-0.016992636,0.042773851,0.003769779,-0.004615257,-0.016289527
1.76966E+18,9.044063965,0.074706647,-0.017600539,0.069632047,-0.000808866,-0.016254922,-0.017021522
1.76966E+18,9.054052734,0.120561147,-0.036505146,0.056309039,-0.003913579,-0.034272809,-0.027258446
1.76966E+18,9.064040771,0.17205168,-0.042080315,0.022510522,-0.006256537,-0.045310773,-0.034126543
1.76966E+18,9.074028809,0.139837583,-0.045226797,-0.004347382,-0.003075124,-0.050315652,-0.026812172
1.76966E+18,9.084016846,0.087632764,-0.031332127,-0.010807517,-0.002392326,-0.05346122,-0.016296733
1.76966E+18,9.094005859,0.038840457,-0.010125088,-0.006704758,-0.00154331,-0.050539732,-0.007750117
1.76966E+18,9.103993896,-0.029796588,-0.011874562,0.02858955,-0.00020971,-0.046227135,-8.68E-07
1.76966E+18,9.113981934,-0.063318918,-0.022630349,0.06318857,-0.002559417,-0.045341633,-0.001895974
1.76966E+18,9.123969971,-0.034396775,-0.032080315,0.080160163,-0.005547117,-0.042903557,-0.008881872
1.76966E+18,9.133958008,0.011671806,-0.021382395,0.038615854,-0.00690959,-0.037927177,-0.018548613
1.76966E+18,9.143947021,0.085770477,-0.022076223,-0.012886954,-0.009926702,-0.035048656,-0.024607928
1.76966E+18,9.153935059,0.100929395,-0.010538345,-0.057119187,-0.00676766,-0.032042481,-0.021060066
1.76966E+18,9.16392334,0.033778351,-0.035227381,-0.078511519,-0.00641808,-0.027452026,-0.012399925
1.76966E+18,9.173911133,-0.017014336,-0.069300915,-0.056951429,-0.008273505,-0.023498563,-0.006875197
1.76966E+18,9.18389917,-0.014347674,-0.075113985,-0.019784605,-0.010622539,-0.021128826,-0.015859749
1.76966E+18,9.193888184,-0.004533479,-0.093920977,0.012976386,-0.01284974,-0.020100845,-0.029508447
1.76966E+18,9.203876221,-0.011975538,-0.055118076,0.046651569,-0.01648088,-0.027560165,-0.038890619
1.76966E+18,9.213864014,-0.041385428,-0.007311784,0.057189037,-0.018124051,-0.033373583,-0.040657092
1.76966E+18,9.223852051,-0.068850687,-0.006910218,0.022926994,-0.019273305,-0.036403406,-0.030766487
1.76966E+18,9.233840088,-0.052238721,-0.00575228,-0.008161095,-0.019180361,-0.040986974,-0.020482691
1.76966E+18,9.243829346,0.00239296,-0.02906009,-0.006334171,-0.022047607,-0.047697976,-0.014993174
1.76966E+18,9.253817139,0.045424329,-0.042675359,0.037692894,-0.020414824,-0.048199717,-0.016607583
1.76966E+18,9.263804932,0.032282048,-0.058809916,0.051768181,-0.02465627,-0.054451525,-0.01999931
1.76966E+18,9.273792969,0.028675402,-0.040597968,0.049404082,-0.028055262,-0.061764564,-0.021375099
1.76966E+18,9.28378125,0.041257857,-0.008897592,0.020808687,-0.030441461,-0.068281502,-0.018379223
1.76966E+18,9.29377002,0.044236617,-0.001420973,-0.019448505,-0.032510471,-0.069956362,-0.007520715
1.76966E+18,9.303758057,0.060526036,-0.019205051,-0.037576282,-0.029888885,-0.070137382,0.001632697
1.76966E+18,9.313746338,0.113051283,-0.03737959,-0.024314357,-0.027913885,-0.068591952,0.001592217
1.76966E+18,9.323734375,0.122298346,-0.050195233,-0.029496728,-0.027157456,-0.059835177,-0.002163711
1.76966E+18,9.3337229,0.080365878,-0.038694765,-0.022023616,-0.027036283,-0.052909624,-0.003970134
1.76966E+18,9.343710938,0.046865869,-0.034315527,-0.028272447,-0.027081106,-0.050654586,-0.00414512
1.76966E+18,9.353699219,0.02615392,-0.020184125,-0.036388826,-0.024422472,-0.050173085,-0.002602617
1.76966E+18,9.363687256,0.014245967,0.007568974,-0.021145956,-0.02449804,-0.046389159,-0.005748824
1.76966E+18,9.373675049,0.031161994,0.011044541,-0.04316928,-0.023669265,-0.043703094,-0.008455661
1.76966E+18,9.383664307,0.028784196,0.011535539,-0.042102819,-0.023697669,-0.035381213,-0.007665304
1.76966E+18,9.3936521,-0.006603855,0.012544424,-0.049944765,-0.021632122,-0.030140111,-0.008172103
1.76966E+18,9.403640137,-0.004379165,0.003857844,-0.057248366,-0.02193531,-0.024021268,-0.006066005
1.76966E+18,9.41362793,-0.004254187,-0.009048983,-0.078773092,-0.015172744,-0.017100513,-0.004317906
1.76966E+18,9.423615967,0.0137047,-0.020476971,-0.065473758,-0.013146556,-0.012207025,9.88226E-05
1.76966E+18,9.433605225,0.020636034,-0.04892156,-0.070408,-0.010753173,-0.007403747,0.003872788
1.76966E+18,9.443593262,0.014330212,-0.052190206,-0.039852702,-0.00917796,0.000789716,0.006399364
1.76966E+18,9.453581055,0.015881533,-0.052172086,-0.01463672,-0.010449619,0.004051556,0.006873141
1.76966E+18,9.463569336,0.042908546,-0.053059975,-0.010505904,-0.00851959,-0.003791347,0.005998611
1.76966E+18,9.473557129,0.040901262,-0.047531567,-0.002208616,-0.010906581,-0.012664201,0.007401831
1.76966E+18,9.483546143,0.023889373,-0.046575289,-0.01219868,-0.01112664,-0.018658035,0.010847412
1.76966E+18,9.493533936,0.019226167,-0.020175358,-0.009708616,-0.01009786,-0.023003515,0.014813125
1.76966E+18,9.503522217,0.014748729,-0.023512978,-0.006466858,-0.007734607,-0.021109384,0.01740846
1.76966E+18,9.513510254,-0.001238054,-0.040274727,-0.010940204,-0.007270417,-0.014628049,0.01738023
1.76966E+18,9.523499023,-0.006342099,-0.056221653,0.002608721,-0.006696169,-0.005467825,0.012101014
1.76966E+18,9.533486816,0.004416611,-0.05850655,0.005086802,-0.007252504,0.000318958,0.007456196
1.76966E+18,9.543475098,-0.00354107,-0.054738721,-0.026943537,-0.006878619,0.001008719,0.007298796
1.76966E+18,9.553463135,0.03983513,-0.009665069,-0.040713995,-0.007400865,-3.6305E-05,0.006661768
1.76966E+18,9.563451172,0.067522727,0.048465632,-0.021401684,-0.003423869,-0.002635778,0.010420475
1.76966E+18,9.573440186,0.049113831,0.035510874,-0.001283026,-0.005034815,-0.006858753,0.019245658
1.76966E+18,9.583428223,0.050962125,0.009552841,-0.005818915,-0.008117466,-0.008037577,0.027546952
1.76966E+18,9.59341626,0.042804538,-0.037454409,0.013031331,-0.010566243,-0.007699623,0.024447298
1.76966E+18,9.603404297,0.06172785,-0.101965752,0.01154986,-0.009504941,-0.013062255,0.021323062
1.76966E+18,9.613391846,0.066101242,-0.118113169,0.02526099,-0.010431455,-0.020968381,0.018799985
1.76966E+18,9.623381104,0.03667758,-0.101191845,0.00787088,-0.007543862,-0.022152441,0.015477192
1.76966E+18,9.633369141,0.014359292,-0.067260934,-0.002070961,-0.005351548,-0.017484186,0.016497981
1.76966E+18,9.643357178,-0.003591302,-0.0365484,-0.013090952,-0.00276861,-0.016416894,0.018398624
1.76966E+18,9.653344971,-0.006938311,-0.008269231,-0.015732114,-0.001194682,-0.009421303,0.022525458
1.76966E+18,9.663333252,0.012957645,-0.011544892,-0.020515549,0.00098391,-0.004805568,0.024792716
1.76966E+18,9.673322021,0.021898528,-0.029081133,-0.028366555,0.002481671,-0.001885944,0.02284275
1.76966E+18,9.683310059,0.042768225,-0.038924482,-0.030909225,0.001471122,0.000223315,0.018552328
1.76966E+18,9.693298096,0.039221419,-0.050089434,-0.024486499,0.000680163,0.001271802,0.016840447
1.76966E+18,9.703286133,0.035180034,-0.046340311,-0.042907998,-0.000579402,0.001961418,0.014659336
1.76966E+18,9.71327417,0.025119244,-0.071612699,-0.050440147,0.002812933,0.006104765,0.016350975
1.76966E+18,9.723263184,0.022058687,-0.075143796,-0.047641164,0.004538385,0.004869945,0.020562854
1.76966E+18,9.733251221,0.029513752,-0.040831192,-0.030911856,0.00423079,0.004765549,0.020840887
1.76966E+18,9.743239258,0.045826516,-0.034236616,-0.029049569,0.003490781,0.007158791,0.020731181
1.76966E+18,9.753227051,0.052726213,-0.018434651,-0.008034838,0.005845282,0.009474143,0.017439248
1.76966E+18,9.763216309,0.057850095,-0.016506314,-0.006812895,0.005744521,0.00726102,0.01343366
1.76966E+18,9.773204102,0.031316235,-0.05918401,-0.019054829,0.004674996,0.000656913,0.016174853
1.76966E+18,9.783192139,-0.007224764,-0.084857381,-0.035222412,0.005021841,0.001075509,0.015214888
1.76966E+18,9.793180176,-0.02313998,-0.089517774,-0.018285306,0.005798419,0.004193272,0.009907475
1.76966E+18,9.803168213,-0.007505261,-0.084199794,-0.012282851,0.007697675,0.009877399,0.005182209
1.76966E+18,9.813156982,-0.019718261,-0.087058106,-0.013657646,0.009170404,0.023381488,0.001658581
1.76966E+18,9.82314502,-0.047872343,-0.081501641,-0.025736499,0.008603434,0.037448924,-0.005315615
1.76966E+18,9.833133057,-0.025108649,-0.047442719,-0.044920215,0.009125681,0.041346196,-0.005816556
1.76966E+18,9.843121338,-0.002564919,-0.009992402,-0.046714697,0.014758918,0.035652395,-0.00033451
1.76966E+18,9.853109131,-0.010077157,0.015717209,-0.035809857,0.017347511,0.026705772,0.006190767
1.76966E+18,9.863098145,-0.004002842,0.025946342,-0.013979718,0.013575656,0.017974243,0.010860799
1.76966E+18,9.873086182,0.043455622,-0.003581366,-0.003477028,0.009675191,0.017361183,0.0104046
1.76966E+18,9.883074219,0.074715926,-0.077615155,-0.008617606,0.011134869,0.020991869,0.005332875
1.76966E+18,9.893062012,0.046968745,-0.126958739,0.026895606,0.014273937,0.008685935,0.006678837
1.76966E+18,9.903050049,0.02413374,-0.139527713,0.041721711,0.012251542,-0.002228853,0.007724837
1.76966E+18,9.913039063,0.020659342,-0.114918173,-0.000852817,0.011660587,0.008249088,0.006141854
1.76966E+18,9.923027344,0.003623999,-0.086705055,0.00781272,0.012581021,0.0072656,0.000625081
1.76966E+18,9.933015137,0.030104046,-0.068808163,-0.007670096,0.013119246,-0.012911839,0.002054666
1.76966E+18,9.943003174,-0.020430209,-0.052944824,0.006430325,0.014053116,-0.013042014,0.000732833
1.76966E+18,9.952991211,-0.060499185,-0.069050155,0.027351241,0.014044328,-0.005780906,-0.000714595
1.76966E+18,9.962980225,-0.044006315,-0.076247958,0.018685704,0.014361409,-0.005442897,-0.006180574
1.76966E+18,9.972968018,-0.024811785,-0.048565586,0.019805063,0.018433116,-0.009972935,-0.005071633
1.76966E+18,9.982956055,-0.023753874,-0.021343232,0.030904841,0.020796856,-0.012047732,-0.006317072
1.76966E+18,9.992944092,0.041635494,-0.020752865,0.019534722,0.022923123,-0.017175382,-0.008559721
1.76966E+18,10.00293335,0.068557403,0.010730653,0.032096389,0.023767557,-0.016790483,-0.008810733
1.76966E+18,10.01292114,0.042975145,0.006885083,0.048710547,0.0224429,-0.02127498,-0.003797864
1.76966E+18,10.02290894,0.022052915,-0.012028876,0.051386488,0.021440439,-0.029426936,0.000529543
1.76966E+18,10.03289697,0.043252282,-0.022912089,0.023861353,0.020774383,-0.036206279,0.002341026
1.76966E+18,10.04288525,0.037547421,-0.042419338,0.002448854,0.022076808,-0.040376663,0.004532558
1.76966E+18,10.05287402,0.005407997,-0.048885904,-0.015450959,0.024425983,-0.041221686,0.005778651
1.76966E+18,10.06286206,-0.017880561,-0.028455695,-0.033163726,0.027678711,-0.032779925,0.009723983
1.76966E+18,10.07285034,-0.041541971,-0.024974867,-0.060808981,0.032244969,-0.019992227,0.011254768
1.76966E+18,10.08283838,-0.066142086,-0.018974165,-0.057557578,0.033374917,-0.006448188,0.011952783
1.76966E+18,10.09282617,-0.075645316,-0.028014965,-0.045755497,0.033909414,-0.000396154,0.012030014
1.76966E+18,10.10281494,-0.087790548,-0.023036008,-0.0164464,0.030882716,0.001846211,0.009323744
1.76966E+18,10.11280322,-0.085223218,-0.03207447,-0.006933599,0.030103475,-0.000874208,0.011647352
1.76966E+18,10.12279126,-0.078100235,-0.029441783,0.004680559,0.026099393,-0.005508731,0.01389231
1.76966E+18,10.13277905,-0.034422494,-0.034638183,0.027747839,0.021342987,-0.010226788,0.015468368
1.76966E+18,10.1427666,0.010432547,-0.054421326,0.023003859,0.016243124,-0.013578871,0.016878974
1.76966E+18,10.15275586,0.030228038,-0.078628716,0.005483108,0.009856598,-0.017511295,0.01421528
1.76966E+18,10.1627439,0.041115233,-0.089144849,0.002437456,0.004647495,-0.016391328,0.009596876
1.76966E+18,10.17273169,0.00984565,-0.088371526,-0.030715749,0.000401883,-0.014344955,0.002575718
1.76966E+18,10.18271948,-0.012476072,-0.091139238,-0.030185879,-0.001772525,-0.012430304,-0.00242218
1.76966E+18,10.19270776,-0.055337929,-0.072412325,-0.018694179,-0.004352862,-0.005883189,-0.006271513
1.76966E+18,10.20269678,-0.085528412,-0.046225745,-0.03014847,-0.004684675,0.000807293,-0.005463154
1.76966E+18,10.21268481,-0.070900167,-0.024903555,-0.020630408,-0.003268938,0.007230039,-0.005165945
1.76966E+18,10.22267261,-0.065243237,-0.044236617,0.003520283,-0.004154989,0.015192536,-0.005768443
1.76966E+18,10.23266089,-0.077569598,-0.040277065,0.01464578,-0.004172833,0.014977352,-0.005040601
1.76966E+18,10.24264893,-0.078006784,-0.044289808,0.058629007,-0.006093409,0.017750539,-0.003988194
1.76966E+18,10.2526377,-0.060715385,-0.041232759,0.093725162,-0.007907289,0.016546257,-0.00328725
1.76966E+18,10.26262549,-0.037457259,-0.08350129,0.101716746,-0.011874245,0.013061349,-0.002662148
1.76966E+18,10.27261377,0.007831424,-0.081146836,0.086748894,-0.01584555,0.002484872,-0.003150571
1.76966E+18,10.28260181,0.0345908,-0.090291681,0.063810501,-0.017067004,-0.007984495,-0.008188048
1.76966E+18,10.29259082,0.019015666,-0.074642276,0.044697804,-0.018368492,-0.016360935,-0.006359522
1.76966E+18,10.30257886,-0.012339257,-0.050297524,0.004100129,-0.017372405,-0.019706026,-0.004894995
1.76966E+18,10.31256665,-0.071679956,-0.043111412,1.11059E-05,-0.015248268,-0.016898254,0.000383657
1.76966E+18,10.32255469,-0.089380484,-0.003194412,0.002089958,-0.014041157,-0.010484244,0.000350527
1.76966E+18,10.33254272,-0.072887542,0.008255203,-0.008618191,-0.01151728,-0.000237465,-0.00064949
1.76966E+18,10.34253198,-0.073911624,-0.002769465,-0.005599135,-0.011715131,0.009374436,-0.005423248
1.76966E+18,10.35251978,-0.062633859,-0.02231763,-0.006667057,-0.012114605,0.013444811,-0.007390259
1.76966E+18,10.36250781,-0.041860024,-0.037955929,-0.027783202,-0.009679313,0.014861628,-0.011217252
1.76966E+18,10.37249585,-0.027900326,-0.066321023,-0.02777122,-0.008795675,0.017136501,-0.009988203
1.76966E+18,10.38248389,-0.030247875,-0.052751347,0.009130524,-0.012007614,0.014568894,-0.006536372
1.76966E+18,10.39247266,-0.021891587,-0.045401569,0.023249066,-0.012920545,0.011943816,-0.002826323
1.76966E+18,10.40246069,-0.019777956,-0.031105332,0.066686933,-0.014742458,0.00689844,-0.00158712
1.76966E+18,10.41244873,-0.026753603,-0.017051088,0.083834175,-0.016293485,0.001779578,-0.001189776
1.76966E+18,10.42243677,0.010692074,-0.02728782,0.079511344,-0.016643722,-0.00229676,-0.000763461
1.76966E+18,10.4324248,0.018465046,-0.038731005,0.054232525,-0.018761203,-0.006298426,0.002225138
1.76966E+18,10.44241357,0.009411971,-0.053421794,0.047407063,-0.019665901,-0.010685543,0.007080795
1.76966E+18,10.45240161,-0.001442637,-0.06721008,0.048724283,-0.018468011,-0.015231293,0.014881993
1.76966E+18,10.46238965,-0.011374833,-0.074939213,0.028688627,-0.016748693,-0.01924157,0.016522946
1.76966E+18,10.47237769,-0.027722704,-0.082960023,0.027916473,-0.016891705,-0.022588897,0.016158625
1.76966E+18,10.48236572,-0.018157588,-0.072335168,0.011257892,-0.016528733,-0.022081919,0.00905029
1.76966E+18,10.49235498,0.004393267,-0.060292848,-0.000230594,-0.015255209,-0.014601367,0.002696521
1.76966E+18,10.50234277,0.002138181,-0.034341246,-0.005940496,-0.013588484,-0.006113836,-0.001426122
1.76966E+18,10.51233081,-0.037038851,-0.032362639,-0.034248599,-0.012526684,0.003962766,-0.001302018
1.76966E+18,10.52231885,-0.016446108,-0.037045244,-0.037108957,-0.010253539,0.01238356,-0.000895912
1.76966E+18,10.53230786,-0.016277766,-0.048670215,-0.040156069,-0.009165638,0.017991113,-0.001803251
1.76966E+18,10.54229565,0.008088577,-0.077832597,-0.025281156,-0.010105483,0.01980648,-0.007755194
1.76966E+18,10.55228369,0.02145546,-0.083315412,-0.005315934,-0.01089085,0.021953253,-0.016014189
1.76966E+18,10.56227173,0.01549447,-0.068058222,0.001535247,-0.012114543,0.017451908,-0.01792247
1.76966E+18,10.57226001,0.014110358,-0.046734279,-0.004331892,-0.01332788,0.014533617,-0.017169861
1.76966E+18,10.58224878,0.007533282,-0.024532384,-0.016178981,-0.011404527,0.01419788,-0.012276212
1.76966E+18,10.59223657,0.036831893,-0.031086628,0.010248715,-0.011475101,0.008545054,-0.006427911
1.76966E+18,10.60222461,0.053172787,-0.040931145,0.005631284,-0.011512524,-0.000573374,-0.004491466
1.76966E+18,10.61221289,0.042789413,-0.081026424,-0.00870207,-0.011993758,-0.007291464,-0.007436655
1.76966E+18,10.62220068,0.023883564,-0.124366969,-0.004365502,-0.012249383,-0.005801608,-0.017231397
1.76966E+18,10.6321897,0.02374211,-0.145291684,0.000306874,-0.011343109,-0.00280129,-0.031011125
1.76966E+18,10.64217773,0.019198,-0.131816116,-0.004144552,-0.008376099,0.00096513,-0.040989812
1.76966E+18,10.65216602,-0.035736426,-0.099922263,-0.021132512,-0.005095085,0.013212475,-0.045248475
1.76966E+18,10.66215381,-0.074651629,-0.038636312,-0.007702829,-0.001958286,0.026819577,-0.038016286
1.76966E+18,10.6721416,-0.079589706,0.03442191,-0.018938509,-6.58438E-05,0.033276409,-0.027270963
1.76966E+18,10.68213086,-0.029198074,0.096557171,-0.01849135,0.000717086,0.028689297,-0.015572593
1.76966E+18,10.6921189,-0.002824446,0.089333649,0.001138941,-0.001703728,0.021246828,-0.009305376
1.76966E+18,10.70210669,0.039992988,0.063893503,0.003743278,-0.00558227,0.014699712,-0.009745863
1.76966E+18,10.71209473,0.055988941,0.017332828,0.006013269,-0.010430022,0.006193576,-0.015721198
1.76966E+18,10.72208374,0.060043258,-0.031464813,-0.016949673,-0.012777201,0.000793002,-0.016005456
1.76966E+18,10.73207178,0.063117843,-0.074048987,-0.025746728,-0.012513282,-0.000324461,-0.012746014
1.76966E+18,10.74205957,0.045357693,-0.088362759,-0.032095512,-0.008762743,-0.002438372,-0.003409185
1.76966E+18,10.75204761,0.035552923,-0.082422263,-0.014716215,-0.007380563,-0.002754488,-0.000396351
1.76966E+18,10.76203589,0.028776086,-0.084267014,0.013783611,-0.006120284,-0.002414919,-0.003822007
1.76966E+18,10.7720249,0.032635099,-0.097549689,0.023161388,-0.008946165,-0.006851478,-0.012272749
1.76966E+18,10.7820127,0.036905507,-0.092879359,0.001853519,-0.010999884,-0.008325415,-0.0210348
1.76966E+18,10.79200073,0.02098313,-0.049161798,-0.003189736,-0.010027298,-0.006609273,-0.02558987
1.76966E+18,10.80198877,0.019236579,0.002042319,-0.034550504,-0.012237581,-0.001813665,-0.021442104
1.76966E+18,10.81197681,0.000341361,0.027777065,-0.048079556,-0.010959264,0.005825346,-0.010938331
1.76966E+18,10.82196558,-0.01346859,0.034230771,-0.051743339,-0.006813429,0.009076107,-0.003061978
1.76966E+18,10.83195361,-0.019175862,0.046761167,-0.023243221,-0.005812081,0.00639164,0.001054736
1.76966E+18,10.84194189,-0.01591412,0.037190205,-0.005192308,-0.004952653,0.002730521,-0.002662893
1.76966E+18,10.85192993,0.003656769,0.028722821,0.002095803,-0.006078104,-0.002181147,-0.00082984
1.76966E+18,10.86191772,0.012573066,0.034422494,0.012136428,-0.004786535,-0.009097215,0.001118207
1.76966E+18,10.87190674,0.015959786,-0.001509236,0.005234978,-0.005033676,-0.017573524,0.007395012
1.76966E+18,10.88189478,0.01966328,-0.032176761,-0.02003741,-0.005169802,-0.021158881,0.012990467
1.76966E+18,10.89188281,0.022438626,-0.052308864,-0.025128012,-0.00682176,-0.026096914,0.015077585
1.76966E+18,10.90187061,0.035397477,-0.049736968,-0.027915596,-0.005842149,-0.028112877,0.01570919
1.76966E+18,10.91185986,0.026601518,-0.056778703,-0.047724459,-0.003909493,-0.023609472,0.016142486
1.76966E+18,10.9218479,0.006698548,-0.04680033,-0.053834758,-0.001972511,-0.014041428,0.015219488
1.76966E+18,10.93183569,-0.006224062,-0.03316811,-0.045206923,-0.000611369,-0.003436987,0.012641548
1.76966E+18,10.94182349,0.02143555,-0.032613399,-0.055121876,0.001855406,0.008760699,0.013770977
1.76966E+18,10.95181177,0.02818455,-0.037121232,-0.061747431,0.002597096,0.014788764,0.010903285
1.76966E+18,10.96180078,0.037448052,-0.034096331,-0.05901976,0.00096887,0.010105792,0.007333456
1.76966E+18,10.97178882,0.020389293,-0.056384735,-0.04604162,0.000465799,-0.001844078,0.001693413
1.76966E+18,10.98177661,-0.022364977,-0.07164251,-0.032571313,0.000683066,-0.005103273,-0.003507703
1.76966E+18,10.99176489,-0.05811207,-0.054144847,-0.024855917,-0.000728942,-0.002957032,-0.0045482
1.76966E+18,11.00175293,-0.054315016,0.001515081,-0.02914923,0.001394845,-0.001899615,-0.000737232
1.76966E+18,11.0117417,-0.053355158,0.043345221,-0.033861938,0.006580818,0.008270998,0.007771834
1.76966E+18,11.02172949,-0.047540444,0.067188453,-0.040536593,0.008631679,0.016483568,0.014139354
1.76966E+18,11.03171777,-0.009428338,0.039426586,-0.035775955,0.009115576,0.01736401,0.018031297
1.76966E+18,11.04170581,0.006794482,-0.00854571,-0.035795536,0.00835644,0.012711055,0.017230511
1.76966E+18,11.05169385,0.018745617,-0.052189037,-0.021711773,0.006077307,0.003831543,0.009392561
1.76966E+18,11.06168286,0.012615151,-0.075532503,-0.007959142,0.005046426,-0.001746181,0.006097431
1.76966E+18,11.07167065,0.024800095,-0.067361472,-0.009464578,0.002939333,-0.005491384,0.001420388
1.76966E+18,11.08165869,0.020157822,-0.076978026,-0.034051615,0.00609739,-0.000492774,0.004503549
1.76966E+18,11.09164673,0.024291524,-0.077256258,-0.043235038,0.009440457,0.007927343,0.009758499
1.76966E+18,11.10163452,0.005914192,-0.042594695,-0.030438685,0.012759969,0.013682399,0.010621698
1.76966E+18,11.11162378,-0.005579882,-0.033366848,-0.025601767,0.014591157,0.01854986,0.010538075
1.76966E+18,11.12161182,0.002096095,-0.037941316,-0.019629414,0.016280128,0.023186848,0.005484406
1.76966E+18,11.13159985,0.009471593,-0.029408465,-0.016502222,0.017454315,0.019722875,0.0021717
1.76966E+18,11.14158813,0.036185485,-0.021862872,-0.018458324,0.017326629,0.014534734,0.001572829
1.76966E+18,11.15157715,0.030681627,-0.009867314,0.008223638,0.015906632,0.012538696,0.005779824
1.76966E+18,11.16156519,0.041285914,-0.003407763,0.003106734,0.018023401,0.007309614,0.010682367
1.76966E+18,11.17155322,0.054963762,0.003359247,0.004481822,0.019345393,0.002054132,0.015046222
1.76966E+18,11.18154126,0.051426163,-0.0009592,0.006701836,0.018672425,-0.001485831,0.016939374
1.76966E+18,11.1915293,0.062900364,-0.040495677,0.001244447,0.016770661,-0.004214506,0.016376648
1.76966E+18,11.20151807,0.076546576,-0.072757193,-0.009304419,0.014748945,-0.007887395,0.013350215
1.76966E+18,11.21150635,0.102207086,-0.08652736,-0.012481588,0.014461056,-0.012390801,0.007774089
1.76966E+18,11.22149414,0.068555065,-0.103306645,-0.005545944,0.011569683,-0.015669862,0.004710475
1.76966E+18,11.23148218,0.020228038,-0.093195001,-0.020073066,0.010188835,-0.017007833,0.007433024
1.76966E+18,11.24147021,-0.003941943,-0.076226331,-0.008036591,0.010164966,-0.016208407,0.004477023
1.76966E+18,11.25145947,-0.001305822,-0.035268882,-0.023930326,0.011200137,-0.017228929,0.005290352
1.76966E+18,11.26144751,-0.001498641,-0.004901801,-0.012817688,0.014251541,-0.015481913,0.005693589
1.76966E+18,11.2714353,-0.020999533,0.011221651,-0.022514322,0.014457937,-0.010117773,0.011360263
1.76966E+18,11.2814231,-0.028390228,0.018373861,-0.025662849,0.01515857,-0.005480428,0.016329221
1.76966E+18,11.29141235,-0.019321956,-0.000199322,-0.008787702,0.016694151,0.001011027,0.01637556
1.76966E+18,11.30140039,-0.00117372,-0.043827451,0.00752455,0.014951328,0.003047189,0.012757305
1.76966E+18,11.31138818,0.03097155,-0.072115973,0.000245207,0.012052476,0.003976366,0.009056044
1.76966E+18,11.32137622,0.054998834,-0.071112349,-0.017692601,0.008848732,0.000322421,0.006116624
1.76966E+18,11.3313645,0.078650891,-0.048098553,-0.037116263,0.008149386,-0.004371666,0.007055654
1.76966E+18,11.34135327,0.103814558,-0.023597149,-0.056539633,0.008866742,-0.007302688,0.006933307
1.76966E+18,11.35134106,0.084609507,-0.02011106,-0.044133156,0.006808917,-0.010810869,0.008627344
1.76966E+18,11.3613291,0.065360142,-0.017261516,-0.016534078,0.005895789,-0.010360318,0.007619447
1.76966E+18,11.37131738,0.015105288,-0.023567923,0.006066168,0.002415836,-0.010171234,0.005738989
1.76966E+18,11.38130518,-0.011523265,-0.042355041,0.013586335,0.000363871,-0.006982631,0.002562637
1.76966E+18,11.39129419,-0.024922771,-0.040989013,-0.00249737,-0.000508581,-0.003248879,0.001373802
1.76966E+18,11.40128247,-0.030783261,-0.027198388,-0.007040858,0.001520262,0.001172785,0.002898159
1.76966E+18,11.41127026,-0.034938042,-0.01960954,-0.015305998,0.000715188,0.006797115,0.006446554
1.76966E+18,11.42125806,-0.032550892,-0.020381109,-0.024974867,0.002155168,0.012863707,0.009819893
1.76966E+18,11.43124609,-0.023649756,-0.021045711,-0.025874738,0.001705094,0.017410256,0.011635637
1.76966E+18,11.44123535,0.002262027,-0.003974164,0.003100012,0.002383934,0.016106637,0.014321434
1.76966E+18,11.45122339,-0.000203487,-0.011096564,0.025483985,0.001419603,0.007022862,0.01099701
1.76966E+18,11.46121118,-0.015293431,-0.028334114,0.01854951,-0.002883955,0.000759498,0.010862006
1.76966E+18,11.47119922,-0.03033201,-0.058906362,0.014974866,-0.004809154,-0.007179918,0.009709124
1.76966E+18,11.48118823,-0.006061529,-0.063724576,0.000444237,-0.004109817,-0.011389487,0.004521374
1.76966E+18,11.49117627,0.016042715,-0.064524787,-0.003848492,-0.004722344,-0.014430285,0.005004738
1.76966E+18,11.50116406,0.021083705,-0.051371875,-0.005664602,-0.002647812,-0.002780232,0.00505443
1.76966E+18,11.5111521,0.002639701,-0.025429625,-0.014641981,0.00060657,0.007549371,0.00652849
1.76966E+18,11.52114038,0.022992717,-0.02048457,-0.022347149,0.002002725,0.009853678,0.010357035
1.76966E+18,11.53112939,0.014582652,-0.017732056,-0.025423195,0.001837076,0.006531118,0.012623651
1.76966E+18,11.54111719,-0.003018471,-0.025354806,-0.010604396,-0.001600025,0.000534284,0.010330793
1.76966E+18,11.55110498,0.003733926,-0.014068857,0.002052841,-0.003829624,-0.006475156,0.004797542
1.76966E+18,11.56109326,0.019093919,-0.011405776,0.003155249,-0.00627033,-0.008403693,0.002034532
1.76966E+18,11.5710813,0.01820077,-6.13748E-05,-0.01067863,-0.003638594,-0.006982098,0.004303812
1.76966E+18,11.58107031,0.000416253,-0.00993395,0.001370996,-0.001827332,-0.002482403,0.015821414
1.76966E+18,11.59105835,-0.01401099,-0.041302317,0.016763796,0.002193775,-0.000751348,0.024086535
1.76966E+18,11.60104639,-0.005209259,-0.056422729,0.011409867,0.003132889,-0.000375647,0.026755964
1.76966E+18,11.61103442,0.00932075,-0.077824998,0.012796645,0.00376539,-0.004372519,0.020932162
1.76966E+18,11.62102222,-0.023179837,-0.099515436,0.024993279,0.000705986,-0.006849686,0.010463065
1.76966E+18,11.63101123,-0.022687669,-0.091260818,0.012565467,0.000346725,-0.006234496,0.002402741
1.76966E+18,11.64099927,0.00176058,-0.047092006,-0.00413257,0.001112905,-0.003062153,0.00140302
1.76966E+18,11.6509873,-0.005873312,0.005503274,-0.011055647,0.004046643,0.000302218,0.005200954
1.76966E+18,11.6609751,-0.027775311,0.020929975,-0.017496786,0.006372681,0.006861689,0.011814172
1.76966E+18,11.67096436,-0.007744915,0.030750528,-0.006830723,0.008391357,0.01040316,0.015398521
1.76966E+18,11.68095215,0.001702201,0.029643443,-0.003342004,0.008438694,0.011794288,0.016185965
1.76966E+18,11.69094019,0.04038469,-0.01285539,0.027443303,0.007275159,0.012505885,0.011179224
1.76966E+18,11.70092798,0.074665621,-0.056765843,0.036561552,0.004280701,0.009530602,0.007031084
1.76966E+18,11.71091626,0.072993998,-0.078905194,0.033127194,0.001821539,0.004068192,0.009590914
1.76966E+18,11.72090527,0.053687167,-0.111374801,0.028072833,-0.000763948,-0.005307768,0.010631481
1.76966E+18,11.73089331,0.042665385,-0.134552263,0.015643852,-0.001964767,-0.01608425,0.009031986
1.76966E+18,11.7408811,0.0236358,-0.12992168,-0.018581074,-0.002019539,-0.021577783,0.005626
1.76966E+18,11.75086938,0.045368324,-0.114873749,-0.044279579,0.000354403,-0.026506761,-0.003989609
1.76966E+18,11.76085742,0.015573965,-0.062466101,-0.040207507,0.00090318,-0.017942514,-0.008662232
1.76966E+18,11.77084619,-0.046905544,-0.033335283,-0.022478958,0.005710718,-0.006156695,-0.008612164
1.76966E+18,11.78083423,-0.104764954,0.006689853,-0.034024727,0.007595989,0.006220098,-0.004111993
1.76966E+18,11.79082227,-0.104445878,-0.001695698,-0.029125849,0.00888709,0.013645524,0.000977841
1.76966E+18,11.8008103,-0.062522836,-0.011754151,-0.020742344,0.009082447,0.015081003,0.000857662
1.76966E+18,11.81079932,-0.005115736,-0.034698388,-0.003666998,0.00646163,0.008645473,0.002767415
1.76966E+18,11.82078735,0.008128361,-0.053014966,0.009227847,0.006736945,0.001941036,0.004789145
1.76966E+18,11.83077515,0.03568623,-0.060000003,0.009318448,0.005978477,-0.005946714,0.005171841
1.76966E+18,11.84076318,0.059456398,-0.065113985,0.009069734,0.003160109,-0.014077149,0.006578931
1.76966E+18,11.85075122,0.078155326,-0.041506899,-0.006366905,0.005330319,-0.020571267,0.010079922
1.76966E+18,11.86074048,0.071305898,-0.01629121,-0.018351357,0.005794387,-0.020980099,0.012741558
1.76966E+18,11.87072827,0.043534094,-0.007858897,-0.022366438,0.005244977,-0.018409882,0.015611913
1.76966E+18,11.88071631,0.021601664,0.004469839,-0.026545477,0.005333182,-0.0194121,0.018662173
1.76966E+18,11.89070435,0.023887035,-0.007106617,-0.044389177,0.00300052,-0.016125226,0.016073847
1.76966E+18,11.90069238,0.042058688,-0.014967268,-0.057050798,0.002170956,-0.01631147,0.012994078
1.76966E+18,11.91068115,0.02456519,-0.028220132,-0.046144788,0.001556032,-0.014886679,0.008209176
1.76966E+18,11.92066919,0.024424795,-0.035510874,-0.047398003,0.000907996,-0.012603318,0.007052367
1.76966E+18,11.93065723,0.012430443,-0.018818682,-0.046167,0.002553031,-0.010005139,0.005391886
1.76966E+18,11.94064526,0.000903671,-0.012017186,-0.027824996,0.002627301,-0.005731566,0.007814302
1.76966E+18,11.95063428,-0.010201113,-0.029428339,-0.036947629,0.004530129,0.002062707,0.009933646
1.76966E+18,11.96062207,-0.002028327,-0.02531915,-0.024641397,0.002963568,0.00182139,0.012173166
1.76966E+18,11.97061035,-0.011150376,-0.014510756,-0.022304479,0.003453856,-0.000778654,0.013564402
1.76966E+18,11.98059814,0.004538191,-0.033928573,-0.023274785,0.003800689,-0.002622326,0.014928937
1.76966E+18,11.99058618,0.016013562,-0.037198389,-0.017663667,0.003417194,-0.006727588,0.015499386
1.76966E+18,12.0005752,0.016195933,-0.040310968,-0.025545945,0.004689818,-0.011252246,0.015287291
1.76966E+18,12.01056348,0.020266506,-0.030657004,-0.015917116,0.005448286,-0.010775007,0.015596485
1.76966E+18,12.02055127,-0.008412439,-0.03984978,-0.013193244,0.004622752,-0.009776571,0.016039066
1.76966E+18,12.03053931,-0.019573263,-0.046917234,0.001002747,0.006995895,-0.004897926,0.014963948
1.76966E+18,12.0405271,-0.022902737,-0.032446226,-0.006301438,0.003653859,-0.001428199,0.015488003
1.76966E+18,12.05051636,-0.017235212,-0.042422261,-0.007917934,0.002883673,0.000980363,0.013863475
1.76966E+18,12.06050415,-0.032402423,-0.050148471,-0.009660393,0.002259684,0.001253426,0.012525859
1.76966E+18,12.07049219,-0.020046763,-0.076299396,-0.017921733,0.001836774,0.000917069,0.007457332
1.76966E+18,12.08048022,-0.001443733,-0.067882865,-0.018811083,0.001772793,0.000691659,0.004367745
1.76966E+18,12.09046924,0.001679952,-0.06911796,-0.030329672,0.005020252,-0.000802375,0.003457743
1.76966E+18,12.10045728,0.001215842,-0.074023268,-0.011190087,0.005738195,-0.000993075,0.003617302
1.76966E+18,12.11044507,-0.022108992,-0.053597735,-0.016111761,0.006685214,0.001197109,0.005784849
1.76966E+18,12.12043311,-0.040969176,-0.038520577,-0.001236848,0.007104158,0.00476088,0.00861513
1.76966E+18,12.13042139,-0.043473231,-0.024984804,0.009381869,0.007142775,0.005537991,0.011932097
1.76966E+18,12.14040991,-0.03219079,-0.007547931,0.014254735,0.007710397,0.004531069,0.012666294
1.76966E+18,12.15039795,-0.030006979,0.005644143,0.023294366,0.004597162,0.002212787,0.01472625
1.76966E+18,12.16038623,-0.008259294,0.008136545,0.032813013,0.002909485,0.004025333,0.013067103
1.76966E+18,12.17037427,0.014862017,-0.012327567,0.018551263,0.002185372,-0.001087671,0.010566661
1.76966E+18,12.18036206,-0.001035773,-0.009180501,0.000917992,0.000429748,-0.005133223,0.011533011
1.76966E+18,12.19035083,0.006462474,-0.023123101,-0.008583996,0.000518165,-0.006314335,0.010049364
1.76966E+18,12.20033911,0.006433211,-0.027963527,-0.034497605,-0.000948324,-0.005675747,0.010677679
1.76966E+18,12.21032715,0.015841712,-0.037136429,-0.030650282,1.65395E-05,-0.00370048,0.011493405
