time,seconds_elapsed,z,y,x
1769658437088381200,0.059381103515625,-0.1909027099609375,0.963653564453125,0.16339111328125
1769658437098369000,0.069369140625,-0.188751220703125,0.9614410400390625,0.162506103515625
1769658437108357000,0.079357177734375,-0.191497802734375,0.9602203369140625,0.162445068359375
1769658437118345200,0.08934521484375,-0.1991119384765625,0.957061767578125,0.163330078125
1769658437128333000,0.0993330078125,-0.2053985595703125,0.95281982421875,0.1648101806640625
1769658437138321200,0.109321044921875,-0.211334228515625,0.95269775390625,0.166839599609375
1769658437148309200,0.119309326171875,-0.2303314208984375,0.9641571044921875,0.1596221923828125
1769658437158297000,0.129297119140625,-0.2068023681640625,0.9692535400390625,0.160247802734375
1769658437168285200,0.13928515625,-0.2024078369140625,0.968109130859375,0.1604461669921875
1769658437178273300,0.149273193359375,-0.202850341796875,0.963409423828125,0.165771484375
1769658437188260000,0.159260009765625,-0.19677734375,0.9609832763671875,0.1714630126953125
1769658437198248200,0.169248291015625,-0.1891632080078125,0.9552764892578125,0.1696319580078125
1769658437208236300,0.179236328125,-0.1875152587890625,0.95452880859375,0.1667633056640625
1769658437218224400,0.189224365234375,-0.192047119140625,0.9542236328125,0.163787841796875
1769658437228212200,0.199212158203125,-0.2005462646484375,0.9573822021484375,0.161407470703125
1769658437238200000,0.209199951171875,-0.2098388671875,0.962127685546875,0.16033935546875
1769658437248188200,0.219188232421875,-0.2126617431640625,0.9698638916015625,0.161041259765625
1769658437258176000,0.229176025390625,-0.20703125,0.973236083984375,0.1572113037109375
1769658437268164000,0.2391640625,-0.1963043212890625,0.968292236328125,0.1566925048828125
1769658437278152200,0.249152099609375,-0.191436767578125,0.962646484375,0.15911865234375
1769658437288140300,0.259140380859375,-0.188446044921875,0.9571533203125,0.1574554443359375
1769658437298127000,0.269127197265625,-0.196990966796875,0.9558563232421875,0.1609649658203125
1769658437308115200,0.279115234375,-0.2034759521484375,0.9593658447265625,0.1641387939453125
1769658437318103000,0.28910302734375,-0.206817626953125,0.9608306884765625,0.1645660400390625
1769658437328091100,0.299091064453125,-0.206939697265625,0.963134765625,0.1618194580078125
1769658437338079200,0.309079345703125,-0.203155517578125,0.961944580078125,0.1628265380859375
1769658437348067300,0.3190673828125,-0.1936187744140625,0.9644927978515625,0.1630096435546875
1769658437358055200,0.32905517578125,-0.18670654296875,0.9649505615234375,0.1619110107421875
1769658437368043300,0.339043212890625,-0.1833953857421875,0.9671630859375,0.1613616943359375
1769658437378031400,0.34903125,-0.1844024658203125,0.9697265625,0.1630401611328125
1769658437388019200,0.359019287109375,-0.1887054443359375,0.9675140380859375,0.163299560546875
1769658437398006300,0.36900634765625,-0.1851959228515625,0.9666595458984375,0.1629791259765625
1769658437407994400,0.378994384765625,-0.1835174560546875,0.9630584716796875,0.160400390625
1769658437417982200,0.388982177734375,-0.1817169189453125,0.959259033203125,0.159912109375
1769658437427970000,0.398969970703125,-0.1866455078125,0.960205078125,0.1598358154296875
1769658437437958100,0.408958251953125,-0.19085693359375,0.9625091552734375,0.1602935791015625
1769658437447946000,0.418946044921875,-0.1899566650390625,0.966522216796875,0.1617431640625
1769658437457934000,0.42893408203125,-0.18890380859375,0.957550048828125,0.1530914306640625
1769658437467922200,0.438922119140625,-0.1903076171875,0.921142578125,0.125946044921875
1769658437477910300,0.44891015625,-0.1876220703125,0.9577178955078125,0.1684722900390625
1769658437487898000,0.458898193359375,-0.18701171875,0.9824981689453125,0.1843719482421875
1769658437497886200,0.46888623046875,-0.191009521484375,0.97332763671875,0.176177978515625
1769658437507873300,0.478873291015625,-0.1926727294921875,0.9674072265625,0.169189453125
1769658437517861000,0.488861083984375,-0.1941070556640625,0.9677734375,0.1688079833984375
1769658437527849200,0.49884912109375,-0.192169189453125,0.9660186767578125,0.17156982421875
1769658437537837300,0.50883740234375,-0.183074951171875,0.959991455078125,0.16802978515625
1769658437547825200,0.5188251953125,-0.1832733154296875,0.9560394287109375,0.1653900146484375
1769658437557813200,0.528813232421875,-0.1820220947265625,0.9635162353515625,0.1664581298828125
1769658437567801300,0.53880126953125,-0.176666259765625,0.9718780517578125,0.165802001953125
1769658437577789200,0.5487890625,-0.1647491455078125,0.97576904296875,0.168365478515625
1769658437587777000,0.558777099609375,-0.1547088623046875,0.97454833984375,0.1778411865234375
1769658437597765000,0.56876513671875,-0.158843994140625,0.9705657958984375,0.184326171875
1769658437607753200,0.578753173828125,-0.1635894775390625,0.9653472900390625,0.181243896484375
1769658437617740000,0.588739990234375,-0.165679931640625,0.9642181396484375,0.17352294921875
1769658437627728100,0.59872802734375,-0.16058349609375,0.967620849609375,0.168121337890625
1769658437637716200,0.60871630859375,-0.158905029296875,0.9736328125,0.168975830078125
1769658437647704000,0.6187041015625,-0.1545867919921875,0.9732513427734375,0.16815185546875
1769658437657692200,0.628692138671875,-0.1579437255859375,0.9711761474609375,0.1697235107421875
1769658437667680300,0.63868017578125,-0.1669464111328125,0.9705047607421875,0.1675262451171875
1769658437677668000,0.648668212890625,-0.1666107177734375,0.9717254638671875,0.1631622314453125
1769658437687656200,0.65865625,-0.1611785888671875,0.9705657958984375,0.1578521728515625
1769658437697644300,0.668644287109375,-0.159637451171875,0.9680633544921875,0.159881591796875
1769658437707632000,0.678632080078125,-0.1631622314453125,0.966888427734375,0.160614013671875
1769658437717620200,0.6886201171875,-0.1682891845703125,0.9674835205078125,0.1609954833984375
1769658437727607300,0.698607177734375,-0.1676788330078125,0.9686126708984375,0.1607208251953125
1769658437737595100,0.70859521484375,-0.167724609375,0.971649169921875,0.15985107421875
1769658437747583200,0.718583251953125,-0.172271728515625,0.9673309326171875,0.16265869140625
1769658437757571000,0.728571044921875,-0.17193603515625,0.966888427734375,0.161956787109375
1769658437767559200,0.73855908203125,-0.1727752685546875,0.9496307373046875,0.1452789306640625
1769658437777547000,0.748547119140625,-0.179412841796875,0.930999755859375,0.133575439453125
1769658437787534800,0.758534912109375,-0.1632080078125,0.9737396240234375,0.162994384765625
1769658437797523000,0.76852294921875,-0.15911865234375,0.981536865234375,0.1678924560546875
1769658437807510800,0.7785107421875,-0.1624908447265625,0.9745941162109375,0.1633148193359375
1769658437817499000,0.788498779296875,-0.163055419921875,0.96807861328125,0.154876708984375
1769658437827487000,0.798487060546875,-0.15643310546875,0.9673919677734375,0.1491851806640625
1769658437837473800,0.808473876953125,-0.147613525390625,0.9688262939453125,0.155364990234375
1769658437847462000,0.8184619140625,-0.142974853515625,0.9716033935546875,0.1602630615234375
1769658437857450000,0.828449951171875,-0.1296234130859375,0.9765167236328125,0.16375732421875
1769658437867438000,0.83843798828125,-0.1125335693359375,0.98321533203125,0.1620941162109375
1769658437877426000,0.848426025390625,-0.1133575439453125,0.9747467041015625,0.159149169921875
1769658437887414000,0.8584140625,-0.0999755859375,0.9582366943359375,0.14501953125
1769658437897402000,0.868402099609375,-0.0812530517578125,0.9486541748046875,0.14288330078125
1769658437907390000,0.878389892578125,-0.0726318359375,0.9511871337890625,0.149322509765625
1769658437917378000,0.8883779296875,-0.0687255859375,0.956939697265625,0.1530914306640625
1769658437927366100,0.8983662109375,-0.0742645263671875,0.954071044921875,0.15765380859375
1769658437937353000,0.90835302734375,-0.0900115966796875,0.9676971435546875,0.170135498046875
1769658437947341000,0.918341064453125,-0.10357666015625,0.980621337890625,0.1671600341796875
1769658437957329200,0.9283291015625,-0.101318359375,0.9985504150390625,0.1693878173828125
1769658437967317000,0.93831689453125,-0.1074981689453125,0.989654541015625,0.1849517822265625
1769658437977304800,0.948304931640625,-0.104400634765625,0.99285888671875,0.194000244140625
1769658437987293000,0.95829296875,-0.0906982421875,0.9940643310546875,0.1953277587890625
1769658437997281000,0.968281005859375,-0.0861358642578125,0.9720916748046875,0.197265625
1769658438007268900,0.978268798828125,-0.079925537109375,0.9612274169921875,0.201751708984375
1769658438017257000,0.988257080078125,-0.0820159912109375,0.9547882080078125,0.21807861328125
1769658438027245000,0.9982451171875,-0.0826416015625,0.9675445556640625,0.2143402099609375
1769658438037233000,1.00823291015625,-0.080810546875,0.981048583984375,0.22088623046875
1769658438047220000,1.018219970703125,-0.072601318359375,0.986541748046875,0.226837158203125
1769658438057208000,1.0282080078125,-0.068389892578125,0.98272705078125,0.2314910888671875
1769658438067196000,1.03819580078125,-0.0704345703125,0.977813720703125,0.2461700439453125
1769658438077184000,1.04818408203125,-0.062164306640625,0.9720916748046875,0.2504119873046875
1769658438087172000,1.058172119140625,-0.058349609375,0.9702301025390625,0.2421112060546875
1769658438097160000,1.068159912109375,-0.06207275390625,0.9634552001953125,0.237945556640625
1769658438107148000,1.07814794921875,-0.050628662109375,0.9598236083984375,0.2471923828125
1769658438117136100,1.08813623046875,-0.0413665771484375,0.9549102783203125,0.2529144287109375
1769658438127124000,1.0981240234375,-0.0299835205078125,0.9462890625,0.2551727294921875
1769658438137111800,1.10811181640625,-0.0463409423828125,0.940643310546875,0.275726318359375
1769658438147100000,1.118099853515625,-0.05072021484375,0.951171875,0.27276611328125
1769658438157087000,1.1280869140625,-0.04815673828125,0.9559173583984375,0.2641448974609375
1769658438167074800,1.13807470703125,-0.0444183349609375,0.9586639404296875,0.278961181640625
1769658438177063000,1.14806298828125,-0.036468505859375,0.9513397216796875,0.2786712646484375
1769658438187051000,1.158051025390625,-0.028717041015625,0.9486846923828125,0.279754638671875
1769658438197038800,1.168038818359375,-0.0288848876953125,0.945281982421875,0.283172607421875
1769658438207027000,1.17802685546875,-0.0330047607421875,0.9448394775390625,0.2850341796875
1769658438217015000,1.18801513671875,-0.03497314453125,0.9456024169921875,0.2819061279296875
1769658438227003000,1.1980029296875,-0.0363616943359375,0.9376068115234375,0.2734527587890625
1769658438236991000,1.207990966796875,-0.0424957275390625,0.929412841796875,0.2735595703125
1769658438246979000,1.21797900390625,-0.0446624755859375,0.9257965087890625,0.2730712890625
1769658438256966000,1.2279658203125,-0.0349578857421875,0.925384521484375,0.27203369140625
1769658438266954000,1.2379541015625,-0.025360107421875,0.929840087890625,0.2689361572265625
1769658438276942000,1.247942138671875,-0.0206298828125,0.940093994140625,0.2698516845703125
1769658438286930200,1.25793017578125,-0.0166473388671875,0.9542236328125,0.2668914794921875
1769658438296918000,1.26791796875,-0.021453857421875,0.9650421142578125,0.25482177734375
1769658438306906000,1.277906005859375,-0.0353240966796875,0.9638214111328125,0.2505645751953125
1769658438316894000,1.28789404296875,-0.048980712890625,0.9640655517578125,0.250579833984375
1769658438326881800,1.2978818359375,-0.0456390380859375,0.969635009765625,0.2457122802734375
1769658438336870000,1.307869873046875,-0.040252685546875,0.9655303955078125,0.2400665283203125
1769658438346858000,1.31785791015625,-0.0340118408203125,0.9658050537109375,0.233245849609375
1769658438356845800,1.327845703125,-0.0338592529296875,0.97076416015625,0.231964111328125
1769658438366833000,1.3378330078125,-0.041900634765625,0.9679718017578125,0.2242279052734375
1769658438376821000,1.347821044921875,-0.0530853271484375,0.9669647216796875,0.2221221923828125
1769658438386808800,1.357808837890625,-0.0702056884765625,0.957855224609375,0.22821044921875
1769658438396797000,1.367796875,-0.0833282470703125,0.9603271484375,0.236968994140625
1769658438406785000,1.377784912109375,-0.0961456298828125,0.9654083251953125,0.239990234375
1769658438416773000,1.387773193359375,-0.105499267578125,0.976165771484375,0.254608154296875
1769658438426761000,1.397760986328125,-0.1112823486328125,0.9901123046875,0.26397705078125
1769658438436749000,1.4077490234375,-0.118865966796875,0.9971466064453125,0.25067138671875
1769658438446737200,1.417737060546875,-0.1336212158203125,1.0006103515625,0.2604217529296875
1769658438456725000,1.42772509765625,-0.14410400390625,1.01165771484375,0.2824554443359375
1769658438466712800,1.437712890625,-0.1551513671875,1.0103759765625,0.2873382568359375
1769658438476700200,1.4477001953125,-0.1491851806640625,1.0107269287109375,0.2946624755859375
1769658438486688000,1.45768798828125,-0.1390838623046875,1.0043182373046875,0.2995147705078125
1769658438496676000,1.467676025390625,-0.13189697265625,0.9898681640625,0.2920684814453125
1769658438506664000,1.477663818359375,-0.1192779541015625,0.9816131591796875,0.2823028564453125
1769658438516651800,1.48765185546875,-0.10321044921875,0.9698638916015625,0.273284912109375
1769658438526639900,1.497639892578125,-0.085540771484375,0.9524993896484375,0.25091552734375
1769658438536628000,1.5076279296875,-0.0723724365234375,0.9363555908203125,0.228790283203125
1769658438546616000,1.517615966796875,-0.0655975341796875,0.919708251953125,0.2139892578125
1769658438556604000,1.52760400390625,-0.0616455078125,0.912109375,0.203521728515625
1769658438566592000,1.537592041015625,-0.056549072265625,0.919769287109375,0.1993408203125
1769658438576578800,1.547578857421875,-0.0584869384765625,0.9319305419921875,0.1952056884765625
1769658438586567000,1.55756689453125,-0.0584259033203125,0.935302734375,0.1962738037109375
1769658438596555000,1.567554931640625,-0.0681915283203125,0.92999267578125,0.195953369140625
1769658438606543000,1.577543212890625,-0.062957763671875,0.9441375732421875,0.19232177734375
1769658438616531000,1.587531005859375,-0.0534515380859375,0.9708709716796875,0.208282470703125
1769658438626519000,1.59751904296875,-0.0655364990234375,0.976318359375,0.2195281982421875
1769658438636507100,1.607507080078125,-0.073486328125,0.97418212890625,0.228790283203125
1769658438646495000,1.617494873046875,-0.07745361328125,0.970672607421875,0.243988037109375
1769658438656482800,1.62748291015625,-0.0805206298828125,0.970489501953125,0.255279541015625
1769658438666471000,1.637470947265625,-0.0847625732421875,0.97003173828125,0.269134521484375
1769658438676459000,1.647458984375,-0.087921142578125,0.967559814453125,0.2791595458984375
1769658438686445800,1.65744580078125,-0.08721923828125,0.9623260498046875,0.2837066650390625
1769658438696434000,1.667433837890625,-0.088836669921875,0.9531707763671875,0.2834320068359375
1769658438706422000,1.677422119140625,-0.091217041015625,0.9349365234375,0.284454345703125
1769658438716409900,1.687409912109375,-0.0847320556640625,0.9232177734375,0.2891387939453125
1769658438726398000,1.69739794921875,-0.0719757080078125,0.921783447265625,0.290557861328125
1769658438736386000,1.707385986328125,-0.0618896484375,0.924285888671875,0.289520263671875
1769658438746374000,1.717373779296875,-0.065277099609375,0.9337310791015625,0.28717041015625
1769658438756362200,1.7273623046875,-0.0776824951171875,0.9430389404296875,0.287811279296875
1769658438766350300,1.737350341796875,-0.0851287841796875,0.950286865234375,0.2899627685546875
1769658438776338200,1.747338134765625,-0.0869598388671875,0.9495086669921875,0.288818359375
1769658438786325200,1.7573251953125,-0.0852813720703125,0.94140625,0.286407470703125
1769658438796313300,1.767313232421875,-0.0823516845703125,0.936126708984375,0.280914306640625
1769658438806301200,1.77730126953125,-0.083251953125,0.9388885498046875,0.2744293212890625
1769658438816289300,1.787289306640625,-0.08929443359375,0.9423370361328125,0.2744598388671875
1769658438826277400,1.79727734375,-0.095062255859375,0.9447784423828125,0.265594482421875
1769658438836265000,1.807264892578125,-0.10455322265625,0.9470672607421875,0.2723541259765625
1769658438846253000,1.817253173828125,-0.1067657470703125,0.9445037841796875,0.26904296875
1769658438856241200,1.8272412109375,-0.1025543212890625,0.939910888671875,0.2657012939453125
1769658438866229200,1.837229248046875,-0.0994415283203125,0.935577392578125,0.2680206298828125
1769658438876217000,1.847217041015625,-0.0977783203125,0.9324951171875,0.271240234375
1769658438886205200,1.857205078125,-0.0975494384765625,0.931182861328125,0.275970458984375
1769658438896192000,1.86719189453125,-0.098876953125,0.9358673095703125,0.282684326171875
1769658438906180000,1.87718017578125,-0.095733642578125,0.9468536376953125,0.286407470703125
1769658438916168200,1.887168212890625,-0.1049041748046875,0.944549560546875,0.2906341552734375
1769658438926156300,1.89715625,-0.1114501953125,0.94219970703125,0.29095458984375
1769658438936144100,1.90714404296875,-0.116668701171875,0.9535980224609375,0.28564453125
1769658438946132200,1.91713232421875,-0.1284637451171875,0.9642181396484375,0.284576416015625
1769658438956120300,1.927120361328125,-0.137115478515625,0.9680023193359375,0.2812652587890625
1769658438966108200,1.937108154296875,-0.1287994384765625,0.982177734375,0.2829132080078125
1769658438976096300,1.94709619140625,-0.115997314453125,1.0057525634765625,0.2858428955078125
1769658438986084000,1.957083984375,-0.098052978515625,1.0298614501953125,0.2921295166015625
1769658438996071200,1.9670712890625,-0.081146240234375,1.0406646728515625,0.2982940673828125
1769658439006059300,1.977059326171875,-0.0655975341796875,1.0354766845703125,0.29339599609375
1769658439016047400,1.98704736328125,-0.030181884765625,1.033660888671875,0.2699127197265625
1769658439026035000,1.997034912109375,0.002899169921875,1.0272979736328125,0.24163818359375
1769658439036023000,2.00702294921875,0.0322113037109375,1.007476806640625,0.2238616943359375
1769658439046011100,2.01701123046875,0.04193115234375,0.9873046875,0.21917724609375
1769658439055999200,2.026999267578125,0.061676025390625,0.99383544921875,0.2355194091796875
1769658439065987000,2.036987060546875,0.07855224609375,0.9998321533203125,0.231597900390625
1769658439075975200,2.04697509765625,0.0717926025390625,0.993682861328125,0.2259521484375
1769658439085963300,2.05696337890625,0.053741455078125,0.984222412109375,0.234588623046875
1769658439095951000,2.066951171875,0.0496368408203125,0.976104736328125,0.2504425048828125
1769658439105938200,2.076938232421875,0.0435028076171875,0.9707183837890625,0.2766876220703125
1769658439115926300,2.08692626953125,0.0371856689453125,0.9590301513671875,0.296630859375
1769658439125914000,2.0969140625,0.032196044921875,0.9508514404296875,0.302032470703125
1769658439135902200,2.106902099609375,0.0378875732421875,0.9616546630859375,0.3053741455078125
1769658439145890300,2.116890380859375,0.05255126953125,0.9835205078125,0.310882568359375
1769658439155878100,2.126878173828125,0.074859619140625,1.0110931396484375,0.3155364990234375
1769658439165866200,2.1368662109375,0.09307861328125,1.0247802734375,0.3089752197265625
1769658439175854000,2.14685400390625,0.1008148193359375,1.025970458984375,0.306121826171875
1769658439185842200,2.15684228515625,0.1090545654296875,1.02398681640625,0.29833984375
1769658439195830000,2.166830078125,0.10400390625,1.0083160400390625,0.2889404296875
1769658439205817300,2.1768173828125,0.0907135009765625,0.98681640625,0.28106689453125
1769658439215805200,2.18680517578125,0.0840301513671875,0.9733428955078125,0.2716217041015625
1769658439225793000,2.19679296875,0.0820465087890625,0.9635467529296875,0.26617431640625
1769658439235781000,2.206781005859375,0.09112548828125,0.9611053466796875,0.26116943359375
1769658439245769200,2.216769287109375,0.1106719970703125,0.9625091552734375,0.2646484375
1769658439255757000,2.226757080078125,0.1252288818359375,0.9519500732421875,0.262298583984375
1769658439265745200,2.2367451171875,0.1421356201171875,0.9534912109375,0.270904541015625
1769658439275733200,2.246733154296875,0.1464996337890625,0.937774658203125,0.2809295654296875
1769658439285721000,2.25672119140625,0.1452789306640625,0.923431396484375,0.2866058349609375
1769658439295709200,2.266709228515625,0.1458282470703125,0.9156341552734375,0.2973480224609375
1769658439305696300,2.2766962890625,0.15283203125,0.8966064453125,0.305694580078125
1769658439315684000,2.28668408203125,0.1631927490234375,0.8804779052734375,0.313385009765625
1769658439325672200,2.296672119140625,0.1793670654296875,0.8686370849609375,0.30914306640625
1769658439335660300,2.306660400390625,0.1946563720703125,0.8596038818359375,0.3070220947265625
1769658439345648400,2.3166484375,0.2065277099609375,0.8575439453125,0.309112548828125
1769658439355636200,2.32663623046875,0.2296600341796875,0.86517333984375,0.3055572509765625
1769658439365624000,2.3366240234375,0.2529754638671875,0.8831329345703125,0.306884765625
1769658439375612200,2.346612060546875,0.265777587890625,0.9062652587890625,0.3060150146484375
1769658439385600000,2.35660009765625,0.271392822265625,0.9302978515625,0.306732177734375
1769658439395588000,2.366588134765625,0.2717742919921875,0.95526123046875,0.3065032958984375
1769658439405576200,2.376576171875,0.2527923583984375,0.96484375,0.3224029541015625
1769658439415563000,2.38656298828125,0.2248687744140625,0.9536895751953125,0.3167877197265625
1769658439425551000,2.396551025390625,0.2277984619140625,0.968505859375,0.297637939453125
1769658439435539200,2.406539306640625,0.2328643798828125,1.011627197265625,0.3364715576171875
1769658439445527000,2.416527099609375,0.2060699462890625,1.007232666015625,0.3372039794921875
1769658439455515100,2.42651513671875,0.1737518310546875,0.9774169921875,0.3300018310546875
1769658439465503200,2.436503173828125,0.147735595703125,0.9505462646484375,0.333953857421875
1769658439475491300,2.4464912109375,0.1358184814453125,0.926849365234375,0.3376617431640625
1769658439485479200,2.456479248046875,0.1306915283203125,0.901458740234375,0.333160400390625
1769658439495467300,2.46646728515625,0.1261138916015625,0.8765869140625,0.3296356201171875
1769658439505455400,2.476455322265625,0.12603759765625,0.8554840087890625,0.322479248046875
1769658439515443200,2.486443115234375,0.1275482177734375,0.8387908935546875,0.3148040771484375
1769658439525430300,2.49643017578125,0.1395416259765625,0.8385467529296875,0.31231689453125
1769658439535418400,2.50641845703125,0.153228759765625,0.8410797119140625,0.3159637451171875
1769658439545406200,2.51640625,0.1693115234375,0.8447723388671875,0.323089599609375
1769658439555394000,2.52639404296875,0.1758880615234375,0.8429107666015625,0.327362060546875
1769658439565382100,2.536382080078125,0.183746337890625,0.8427581787109375,0.3249053955078125
1769658439575370000,2.546369873046875,0.1895751953125,0.8440399169921875,0.3259124755859375
1769658439585358000,2.556358154296875,0.19110107421875,0.8429718017578125,0.3279876708984375
1769658439595346200,2.56634619140625,0.19158935546875,0.848358154296875,0.3342437744140625
1769658439605334300,2.576334228515625,0.1885986328125,0.86322021484375,0.342620849609375
1769658439615322000,2.586322021484375,0.1834259033203125,0.8809661865234375,0.3480377197265625
1769658439625309200,2.59630908203125,0.1778106689453125,0.8952178955078125,0.3514251708984375
1769658439635297300,2.60629736328125,0.1705474853515625,0.913116455078125,0.3516082763671875
1769658439645285000,2.61628515625,0.164459228515625,0.9216156005859375,0.3458251953125
1769658439655273200,2.626273193359375,0.1571502685546875,0.9220428466796875,0.34161376953125
1769658439665261300,2.63626123046875,0.151092529296875,0.9159088134765625,0.33441162109375
1769658439675249200,2.646249267578125,0.1466522216796875,0.9136810302734375,0.3382415771484375
1769658439685237200,2.6562373046875,0.14019775390625,0.9104156494140625,0.33544921875
1769658439695225300,2.666225341796875,0.1350860595703125,0.9158172607421875,0.338470458984375
1769658439705213200,2.676213134765625,0.1287689208984375,0.92791748046875,0.3476715087890625
1769658439715201000,2.686200927734375,0.12158203125,0.94720458984375,0.3602447509765625
1769658439725188400,2.696188232421875,0.1157379150390625,0.966888427734375,0.3679962158203125
1769658439735176200,2.70617626953125,0.1182708740234375,0.9790191650390625,0.3735504150390625
1769658439745164000,2.7161640625,0.1314849853515625,0.9863739013671875,0.375946044921875
1769658439755152400,2.72615234375,0.1523895263671875,0.99462890625,0.374237060546875
1769658439765140500,2.736140380859375,0.1660003662109375,0.9865875244140625,0.3681488037109375
1769658439775128300,2.74612841796875,0.183258056640625,0.978729248046875,0.3642120361328125
1769658439785116400,2.756116455078125,0.1996612548828125,0.97222900390625,0.3536224365234375
1769658439795104500,2.7661044921875,0.208038330078125,0.9600677490234375,0.3503570556640625
1769658439805092600,2.776092529296875,0.20843505859375,0.954925537109375,0.3492889404296875
1769658439815080400,2.78608056640625,0.2040557861328125,0.95166015625,0.3484649658203125
1769658439825068500,2.796068603515625,0.1934967041015625,0.9567413330078125,0.3552398681640625
1769658439835055600,2.8060556640625,0.1749420166015625,0.95721435546875,0.3619384765625
1769658439845043500,2.81604345703125,0.1516265869140625,0.947113037109375,0.3698577880859375
1769658439855031600,2.826031494140625,0.1354217529296875,0.9413299560546875,0.3790740966796875
1769658439865019600,2.83601953125,0.119232177734375,0.934661865234375,0.380523681640625
1769658439875007500,2.846007568359375,0.106658935546875,0.92340087890625,0.3885498046875
1769658439884995600,2.85599560546875,0.0988616943359375,0.9139251708984375,0.392486572265625
1769658439894983400,2.8659833984375,0.1001434326171875,0.912353515625,0.401092529296875
1769658439904971300,2.87597119140625,0.1072998046875,0.916412353515625,0.4069366455078125
1769658439914959400,2.88595947265625,0.1257476806640625,0.93450927734375,0.3995513916015625
1769658439924947500,2.895947509765625,0.156585693359375,0.9721832275390625,0.3887481689453125
1769658439934935600,2.905935546875,0.19244384765625,1.0098114013671875,0.3744049072265625
1769658439944922400,2.91592236328125,0.219146728515625,1.0387725830078125,0.3584136962890625
1769658439954910500,2.925910400390625,0.233001708984375,1.0605316162109375,0.356597900390625
1769658439964898600,2.935898681640625,0.2404022216796875,1.0777130126953125,0.3689117431640625
1769658439974886400,2.945886474609375,0.2324371337890625,1.08349609375,0.40203857421875
1769658439984874500,2.95587451171875,0.215057373046875,1.070556640625,0.4339752197265625
1769658439994862600,2.965862548828125,0.19091796875,1.0540008544921875,0.4404754638671875
1769658440004850400,2.975850341796875,0.1639556884765625,1.0367584228515625,0.445556640625
1769658440014838500,2.985838623046875,0.158447265625,1.0320587158203125,0.4240875244140625
1769658440024826600,2.99582666015625,0.186859130859375,1.0164947509765625,0.379730224609375
1769658440034814500,3.005814453125,0.23419189453125,0.980072021484375,0.3246307373046875
1769658440044801500,3.015801513671875,0.2634735107421875,0.9552154541015625,0.2511138916015625
1769658440054789600,3.02578955078125,0.2890625,0.908447265625,0.2191162109375
1769658440064777500,3.035777587890625,0.2857818603515625,0.8765869140625,0.1536102294921875
1769658440074765600,3.045765625,0.2841644287109375,0.846405029296875,0.080657958984375
1769658440084753400,3.05575341796875,0.2941436767578125,0.8377685546875,0.0372314453125
1769658440094741500,3.065741455078125,0.3095550537109375,0.84344482421875,0.009185791015625
1769658440104729300,3.075729248046875,0.3007049560546875,0.859222412109375,-0.009735107421875
1769658440114717400,3.085717529296875,0.2563323974609375,0.8831024169921875,-0.0093994140625
1769658440124705500,3.09570556640625,0.18585205078125,0.926513671875,0.004852294921875
1769658440134693400,3.105693359375,0.109893798828125,0.98388671875,0.0264434814453125
1769658440144681500,3.115681396484375,0.0459747314453125,1.0438690185546875,0.065277099609375
1769658440154668500,3.12566845703125,0.007049560546875,1.0800323486328125,0.10418701171875
1769658440164656400,3.135656494140625,-0.0205841064453125,1.081329345703125,0.1357879638671875
1769658440174644500,3.14564453125,-0.004119873046875,1.0599517822265625,0.184356689453125
1769658440184632600,3.155632568359375,0.055999755859375,1.027557373046875,0.2137451171875
1769658440194620400,3.165620361328125,0.1195831298828125,0.9798431396484375,0.2229156494140625
1769658440204608500,3.1756083984375,0.1732635498046875,0.9510955810546875,0.2529296875
1769658440214596600,3.1855966796875,0.2050018310546875,0.936859130859375,0.2644805908203125
1769658440224584700,3.195584716796875,0.219024658203125,0.9259490966796875,0.2666015625
1769658440234572300,3.205572265625,0.224517822265625,0.9268035888671875,0.266815185546875
1769658440244560400,3.215560302734375,0.2279510498046875,0.935882568359375,0.2549591064453125
1769658440254547500,3.22554736328125,0.2263946533203125,0.93890380859375,0.2442474365234375
1769658440264535600,3.23553564453125,0.2259063720703125,0.9373016357421875,0.2271881103515625
1769658440274523400,3.2455234375,0.22064208984375,0.9319610595703125,0.2115020751953125
1769658440284511500,3.255511474609375,0.210906982421875,0.9285430908203125,0.19219970703125
1769658440294499300,3.265499267578125,0.1816253662109375,0.92156982421875,0.1835174560546875
1769658440304487400,3.2754873046875,0.143096923828125,0.9195404052734375,0.1758880615234375
1769658440314475500,3.2854755859375,0.1135101318359375,0.92437744140625,0.163726806640625
1769658440324463400,3.29546337890625,0.08941650390625,0.934783935546875,0.1529083251953125
1769658440334451500,3.305451416015625,0.0709381103515625,0.94219970703125,0.1605072021484375
1769658440344439600,3.315439453125,0.062835693359375,0.9400177001953125,0.17242431640625
1769658440354427600,3.325427734375,0.0701904296875,0.919403076171875,0.170135498046875
1769658440364414500,3.33541455078125,0.0847625732421875,0.889862060546875,0.1762237548828125
1769658440374402600,3.345402587890625,0.1029205322265625,0.8718109130859375,0.1794586181640625
1769658440384390400,3.355390380859375,0.1227569580078125,0.8629302978515625,0.178863525390625
1769658440394378500,3.36537841796875,0.15032958984375,0.88555908203125,0.182342529296875
1769658440404366600,3.37536669921875,0.157684326171875,0.8954620361328125,0.1990814208984375
1769658440414354700,3.385354736328125,0.1553955078125,0.885498046875,0.2130889892578125
1769658440424342300,3.39534228515625,0.1540679931640625,0.8765716552734375,0.2194366455078125
1769658440434330400,3.405330322265625,0.152069091796875,0.878387451171875,0.228729248046875
1769658440444318500,3.415318359375,0.1523895263671875,0.8874664306640625,0.2361297607421875
1769658440454306300,3.425306396484375,0.142303466796875,0.8960723876953125,0.24127197265625
1769658440464294400,3.43529443359375,0.12139892578125,0.9060821533203125,0.2420501708984375
1769658440474281500,3.445281494140625,0.0980377197265625,0.9133758544921875,0.24041748046875
1769658440484269300,3.455269287109375,0.080230712890625,0.914093017578125,0.2459259033203125
1769658440494257400,3.46525732421875,0.0740203857421875,0.910888671875,0.24945068359375
1769658440504245500,3.47524560546875,0.07867431640625,0.9097747802734375,0.2520751953125
1769658440514233600,3.485233642578125,0.077423095703125,0.9062347412109375,0.25323486328125
1769658440524221400,3.495221435546875,0.0765380859375,0.9072723388671875,0.257049560546875
1769658440534209500,3.50520947265625,0.0771636962890625,0.90753173828125,0.2623443603515625
1769658440544197600,3.51519775390625,0.0809783935546875,0.9013214111328125,0.2631683349609375
1769658440554185500,3.525185546875,0.0974884033203125,0.90185546875,0.2689666748046875
1769658440564173600,3.535173583984375,0.1050262451171875,0.9046630859375,0.2808837890625
1769658440574160600,3.54516064453125,0.12127685546875,0.912139892578125,0.28717041015625
1769658440584148500,3.5551484375,0.1202545166015625,0.92431640625,0.2961883544921875
1769658440594136600,3.565136474609375,0.1100311279296875,0.9416046142578125,0.2979736328125
1769658440604124700,3.575124755859375,0.0976104736328125,0.9570159912109375,0.3029327392578125
1769658440614112300,3.5851123046875,0.08746337890625,0.96575927734375,0.3038330078125
1769658440624100400,3.595100341796875,0.0751953125,0.964691162109375,0.308380126953125
1769658440634088400,3.60508837890625,0.076446533203125,0.9595947265625,0.3042449951171875
1769658440644076500,3.61507666015625,0.0831298828125,0.9572601318359375,0.3039398193359375
1769658440654064400,3.625064453125,0.08184814453125,0.9576568603515625,0.305908203125
1769658440664052500,3.635052490234375,0.0781402587890625,0.958160400390625,0.3108367919921875
1769658440674040600,3.64504052734375,0.07086181640625,0.971221923828125,0.32086181640625
1769658440684027400,3.65502734375,0.0571441650390625,0.971771240234375,0.3248748779296875
1769658440694015500,3.665015380859375,0.049285888671875,0.9771270751953125,0.324554443359375
1769658440704003600,3.675003662109375,0.0432281494140625,0.97900390625,0.3211212158203125
1769658440713991400,3.684991455078125,0.0417022705078125,0.98980712890625,0.32244873046875
1769658440723979500,3.6949794921875,0.0453338623046875,0.9981842041015625,0.322998046875
1769658440733967600,3.704967529296875,0.0687255859375,1.020599365234375,0.32763671875
1769658440743955500,3.71495556640625,0.10552978515625,1.0481109619140625,0.328948974609375
1769658440753943000,3.724943115234375,0.133148193359375,1.0657501220703125,0.3337860107421875
1769658440763931100,3.73493115234375,0.1645660400390625,1.068023681640625,0.31365966796875
1769658440773919000,3.7449189453125,0.19146728515625,1.07611083984375,0.297332763671875
1769658440783906800,3.75490673828125,0.19842529296875,1.048980712890625,0.275665283203125
1769658440793894000,3.764893798828125,0.2503509521484375,1.0511322021484375,0.2210845947265625
1769658440803882000,3.774882080078125,0.2976226806640625,1.115081787109375,0.2527008056640625
1769658440813870000,3.7848701171875,0.2999725341796875,1.1259307861328125,0.2669677734375
1769658440823858000,3.79485791015625,0.26837158203125,1.10479736328125,0.2881011962890625
1769658440833845800,3.804845703125,0.2229766845703125,1.069732666015625,0.302886962890625
1769658440843833900,3.814833740234375,0.211029052734375,1.0682525634765625,0.3165130615234375
1769658440853822000,3.824822021484375,0.2058868408203125,1.06109619140625,0.3271331787109375
1769658440863809800,3.834809814453125,0.194793701171875,1.0242767333984375,0.313934326171875
1769658440873798000,3.8447978515625,0.2119293212890625,0.980072021484375,0.3081207275390625
1769658440883786000,3.854785888671875,0.254547119140625,0.9500579833984375,0.3015899658203125
1769658440893772800,3.864772705078125,0.30450439453125,0.920501708984375,0.311553955078125
1769658440903761000,3.874760986328125,0.351806640625,0.901336669921875,0.32098388671875
1769658440913749000,3.8847490234375,0.367706298828125,0.8383331298828125,0.3143310546875
1769658440923737000,3.894737060546875,0.361480712890625,0.768890380859375,0.288421630859375
1769658440933725000,3.904724853515625,0.3733978271484375,0.73974609375,0.2659912109375
1769658440943713000,3.914713134765625,0.402557373046875,0.7236175537109375,0.2382354736328125
1769658440953701000,3.924701171875,0.437255859375,0.733184814453125,0.2321624755859375
1769658440963689000,3.93468896484375,0.4739837646484375,0.7555999755859375,0.2299041748046875
1769658440973676800,3.9446767578125,0.519744873046875,0.7877197265625,0.2212677001953125
1769658440983665000,3.954664794921875,0.5519561767578125,0.835113525390625,0.2168121337890625
1769658440993652700,3.96465283203125,0.543853759765625,0.8885650634765625,0.2165985107421875
1769658441003640000,3.97464013671875,0.5101318359375,0.9550323486328125,0.221099853515625
1769658441013628000,3.9846279296875,0.453704833984375,1.0041046142578125,0.22674560546875
1769658441023615700,3.99461572265625,0.390228271484375,1.038543701171875,0.2382049560546875
1769658441033603800,4.004603759765625,0.3294677734375,1.0624237060546875,0.2563018798828125
1769658441043592000,4.014592041015625,0.28759765625,1.0584564208984375,0.2645263671875
1769658441053580000,4.024580078125,0.2614288330078125,1.034698486328125,0.270111083984375
1769658441063568000,4.03456787109375,0.285919189453125,0.99749755859375,0.2820892333984375
1769658441073556000,4.044555908203125,0.231414794921875,0.9853668212890625,0.324737548828125
1769658441083544000,4.0545439453125,0.194427490234375,0.9465484619140625,0.26849365234375
1769658441093532000,4.064531982421875,0.251373291015625,0.8892974853515625,0.2665252685546875
1769658441103519000,4.07451904296875,0.2592620849609375,0.863311767578125,0.3019866943359375
1769658441113507000,4.084507080078125,0.24786376953125,0.847381591796875,0.2970123291015625
1769658441123495000,4.094494873046875,0.2535400390625,0.82501220703125,0.3012237548828125
1769658441133483000,4.10448291015625,0.2668304443359375,0.8178863525390625,0.32293701171875
1769658441143471000,4.11447119140625,0.2857513427734375,0.8241424560546875,0.332916259765625
1769658441153459000,4.124458984375,0.2666778564453125,0.8482513427734375,0.355072021484375
1769658441163446800,4.13444677734375,0.2486572265625,0.8616790771484375,0.3585662841796875
1769658441173435000,4.144434814453125,0.2504425048828125,0.82684326171875,0.3565826416015625
1769658441183423000,4.154423095703125,0.2708892822265625,0.7812042236328125,0.357818603515625
1769658441193410800,4.164410888671875,0.2837982177734375,0.7784881591796875,0.3545074462890625
1769658441203399000,4.17439892578125,0.2743072509765625,0.7936553955078125,0.3512115478515625
1769658441213385700,4.1843857421875,0.2822723388671875,0.8116302490234375,0.33447265625
1769658441223373800,4.194373779296875,0.2791900634765625,0.81488037109375,0.3269805908203125
1769658441233362000,4.20436181640625,0.2409515380859375,0.7861328125,0.352294921875
1769658441243350000,4.21435009765625,0.2045745849609375,0.7802734375,0.3707275390625
1769658441253337900,4.224337890625,0.19647216796875,0.8026580810546875,0.368804931640625
1769658441263326000,4.234325927734375,0.209686279296875,0.837158203125,0.3641357421875
1769658441273314000,4.24431396484375,0.2125396728515625,0.8571319580078125,0.3591156005859375
1769658441283302000,4.254302001953125,0.2083587646484375,0.85614013671875,0.3521270751953125
1769658441293290000,4.2642900390625,0.20648193359375,0.857635498046875,0.339691162109375
1769658441303278000,4.274278076171875,0.204925537109375,0.863311767578125,0.3226776123046875
1769658441313266000,4.284265869140625,0.2117767333984375,0.8712615966796875,0.305389404296875
1769658441323253000,4.2942529296875,0.2155914306640625,0.8820648193359375,0.303314208984375
1769658441333241000,4.304240966796875,0.2169036865234375,0.890960693359375,0.3055419921875
1769658441343229000,4.31422900390625,0.2193450927734375,0.9030303955078125,0.309906005859375
1769658441353216800,4.324216796875,0.213165283203125,0.9238433837890625,0.3240509033203125
1769658441363204900,4.334204833984375,0.2121124267578125,0.9429931640625,0.3370208740234375
1769658441373193000,4.34419287109375,0.2220611572265625,0.9507598876953125,0.3496246337890625
1769658441383180800,4.354180908203125,0.2250518798828125,0.953582763671875,0.369659423828125
1769658441393169000,4.3641689453125,0.2144622802734375,0.94415283203125,0.384002685546875
1769658441403157000,4.374156982421875,0.189483642578125,0.9403533935546875,0.4065704345703125
1769658441413144800,4.384144775390625,0.172698974609375,0.9418792724609375,0.41650390625
1769658441423133000,4.3941328125,0.1854248046875,0.9361724853515625,0.4222564697265625
1769658441433120000,4.4041201171875,0.169708251953125,0.946807861328125,0.45751953125
1769658441443107800,4.41410791015625,0.1274261474609375,0.9719085693359375,0.5022430419921875
1769658441453096000,4.424095947265625,0.147491455078125,1.038665771484375,0.5132293701171875
1769658441463084000,4.434083984375,0.215576171875,1.0911865234375,0.483734130859375
1769658441473071900,4.44407177734375,0.2630157470703125,1.149444580078125,0.48583984375
1769658441483060000,4.45406005859375,0.285186767578125,1.1796417236328125,0.4789886474609375
1769658441493048000,4.464048095703125,0.2781219482421875,1.1962890625,0.491424560546875
1769658441503036000,4.474035888671875,0.27789306640625,1.1887969970703125,0.497528076171875
1769658441513023700,4.484023681640625,0.24334716796875,1.14111328125,0.4953765869140625
1769658441523011800,4.49401171875,0.214111328125,1.1137237548828125,0.4431915283203125
1769658441533000000,4.504,0.221923828125,1.0595245361328125,0.3504180908203125
1769658441542986800,4.51398681640625,0.258453369140625,0.9903564453125,0.292877197265625
1769658441552974800,4.523974853515625,0.2866973876953125,0.950164794921875,0.21588134765625
1769658441562963000,4.533962890625,0.3029022216796875,0.9261016845703125,0.1575469970703125
1769658441572950800,4.54395068359375,0.3202667236328125,0.8801727294921875,0.101043701171875
1769658441582939000,4.55393896484375,0.317047119140625,0.8534088134765625,0.0257720947265625
1769658441592927000,4.563927001953125,0.2864990234375,0.8552398681640625,-0.0351409912109375
1769658441602915000,4.5739150390625,0.2787017822265625,0.865753173828125,-0.0682525634765625
1769658441612903000,4.58390283203125,0.28546142578125,0.90771484375,-0.0513153076171875
1769658441622891000,4.59389111328125,0.243377685546875,0.9616546630859375,-0.05474853515625
1769658441632879000,4.603879150390625,0.1623992919921875,1.0082550048828125,-0.0338897705078125
1769658441642867000,4.613866943359375,0.094696044921875,1.0516510009765625,0.035888671875
1769658441652854000,4.62385400390625,0.0419769287109375,1.0883941650390625,0.1306304931640625
1769658441662842000,4.633842041015625,-0.005035400390625,1.09423828125,0.1961822509765625
1769658441672830000,4.643829833984375,-0.0384674072265625,1.0688323974609375,0.2606658935546875
1769658441682818000,4.653818115234375,-0.0476226806640625,1.01824951171875,0.31744384765625
1769658441692806000,4.663805908203125,-0.02105712890625,0.9640350341796875,0.35101318359375
1769658441702793700,4.673793701171875,0.031402587890625,0.9116058349609375,0.3571624755859375
1769658441712781800,4.68378173828125,0.092559814453125,0.87017822265625,0.365142822265625
1769658441722770000,4.69377001953125,0.147613525390625,0.8535308837890625,0.379852294921875
1769658441732758000,4.703758056640625,0.1817626953125,0.8367919921875,0.360626220703125
1769658441742745900,4.713745849609375,0.203826904296875,0.8251495361328125,0.3397674560546875
1769658441752733000,4.72373291015625,0.2170257568359375,0.830413818359375,0.313323974609375
1769658441762721500,4.733721435546875,0.22540283203125,0.83966064453125,0.284027099609375
1769658441772709600,4.743709716796875,0.226959228515625,0.836517333984375,0.241790771484375
1769658441782697700,4.75369775390625,0.2282562255859375,0.8376617431640625,0.2066192626953125
1769658441792685600,4.763685546875,0.2144927978515625,0.8505859375,0.1887969970703125
1769658441802673700,4.773673583984375,0.191162109375,0.8745269775390625,0.1650543212890625
1769658441812661800,4.783661865234375,0.162841796875,0.906982421875,0.1372222900390625
1769658441822649600,4.793649658203125,0.1027984619140625,0.9064178466796875,0.13287353515625
1769658441832637400,4.803637451171875,0.04534912109375,0.90948486328125,0.1313018798828125
1769658441842625500,4.81362548828125,0.0146484375,0.919158935546875,0.1402740478515625
1769658441852613600,4.823613525390625,0.018402099609375,0.9203643798828125,0.14910888671875
1769658441862600400,4.833600341796875,0.0192413330078125,0.9105987548828125,0.166168212890625
1769658441872588500,4.843588623046875,0.03753662109375,0.9001922607421875,0.180877685546875
1769658441882576600,4.85357666015625,0.060394287109375,0.8906402587890625,0.1918487548828125
1769658441892564500,4.863564453125,0.0800933837890625,0.8868255615234375,0.2067413330078125
1769658441902552600,4.873552490234375,0.0970306396484375,0.89251708984375,0.220306396484375
1769658441912540700,4.883540771484375,0.1106109619140625,0.891448974609375,0.2305755615234375
1769658441922528500,4.893528564453125,0.1222686767578125,0.886871337890625,0.2403106689453125
1769658441932516600,4.9035166015625,0.1327362060546875,0.887481689453125,0.254119873046875
1769658441942504700,4.913504638671875,0.1353302001953125,0.8798065185546875,0.265472412109375
1769658441952492800,4.923492919921875,0.1329803466796875,0.872467041015625,0.2787322998046875
1769658441962480600,4.933480712890625,0.124176025390625,0.8689422607421875,0.287933349609375
1769658441972467700,4.9434677734375,0.1058807373046875,0.8642730712890625,0.2923583984375
1769658441982455600,4.95345556640625,0.0854339599609375,0.863800048828125,0.296173095703125
1769658441992443600,4.963443603515625,0.074554443359375,0.8693084716796875,0.294708251953125
1769658442002431700,4.973431640625,0.0684661865234375,0.8762359619140625,0.2843017578125
1769658442012419600,4.983419677734375,0.064849853515625,0.885589599609375,0.2698516845703125
1769658442022407400,4.993407470703125,0.0660247802734375,0.9016571044921875,0.2520751953125
1769658442032395500,5.0033955078125,0.0692596435546875,0.9221343994140625,0.2384490966796875
1769658442042383600,5.013383544921875,0.07373046875,0.94012451171875,0.234588623046875
1769658442052371500,5.023371337890625,0.07269287109375,0.9588775634765625,0.2363739013671875
1769658442062359600,5.033359619140625,0.0649261474609375,0.9748687744140625,0.2465057373046875
1769658442072347600,5.04334765625,0.0484466552734375,0.9875335693359375,0.2726593017578125
1769658442082334500,5.05333447265625,0.031280517578125,0.9832000732421875,0.293731689453125
1769658442092322600,5.063322509765625,0.0319671630859375,0.9732208251953125,0.311859130859375
1769658442102310700,5.073310546875,0.038970947265625,0.966033935546875,0.3280029296875
1769658442112298500,5.083298583984375,0.0442962646484375,0.959808349609375,0.34063720703125
1769658442122286600,5.09328662109375,0.0567779541015625,0.9552764892578125,0.3497772216796875
1769658442132274700,5.103274658203125,0.0691680908203125,0.9505157470703125,0.353546142578125
1769658442142262800,5.1132626953125,0.075164794921875,0.95166015625,0.3542633056640625
1769658442152250600,5.123250732421875,0.0749664306640625,0.9588623046875,0.363067626953125
1769658442162238700,5.13323876953125,0.0648040771484375,0.966400146484375,0.3739776611328125
1769658442172226600,5.1432265625,0.0579071044921875,0.9849853515625,0.384979248046875
1769658442182213600,5.153213623046875,0.0690765380859375,1.03265380859375,0.395050048828125
1769658442192201700,5.16320166015625,0.0802764892578125,1.0720672607421875,0.395721435546875
1769658442202189600,5.173189453125,0.0952301025390625,1.0755767822265625,0.3993377685546875
1769658442212177400,5.183177490234375,0.1412811279296875,1.109375,0.4018402099609375
1769658442222165500,5.19316552734375,0.19781494140625,1.1730804443359375,0.3870391845703125
1769658442232153600,5.203153564453125,0.2311553955078125,1.1614532470703125,0.3533172607421875
1769658442242141400,5.213141357421875,0.27532958984375,1.1295013427734375,0.28564453125
1769658442252129500,5.223129638671875,0.346923828125,1.144439697265625,0.2089691162109375
1769658442262117600,5.23311767578125,0.3675384521484375,1.11932373046875,0.1787872314453125
1769658442272105700,5.243105712890625,0.3432159423828125,1.0694427490234375,0.1592254638671875
1769658442282093600,5.253093505859375,0.3204803466796875,1.02532958984375,0.1490020751953125
1769658442292080600,5.26308056640625,0.3050689697265625,1.0324554443359375,0.168487548828125
1769658442302068700,5.27306884765625,0.2548980712890625,1.000762939453125,0.168731689453125
1769658442312056600,5.283056640625,0.1949462890625,0.976715087890625,0.1920013427734375
1769658442322044700,5.293044677734375,0.1648712158203125,0.9556427001953125,0.2474822998046875
1769658442332032800,5.30303271484375,0.197509765625,0.906951904296875,0.2796173095703125
1769658442342020600,5.3130205078125,0.2558746337890625,0.8389434814453125,0.3082733154296875
1769658442352008700,5.3230087890625,0.3094024658203125,0.7988739013671875,0.3307952880859375
1769658442361996500,5.33299658203125,0.354736328125,0.7919921875,0.344146728515625
1769658442371984400,5.342984375,0.435089111328125,0.7712860107421875,0.375396728515625
1769658442381972500,5.352972412109375,0.553985595703125,0.768341064453125,0.3747100830078125
1769658442391960600,5.362960693359375,0.59906005859375,0.822540283203125,0.3569183349609375
1769658442401947400,5.372947509765625,0.5826568603515625,0.8494110107421875,0.2667694091796875
1769658442411935500,5.382935546875,0.5272979736328125,0.901519775390625,0.2432708740234375
1769658442421923600,5.392923583984375,0.4909820556640625,0.9559783935546875,0.230621337890625
1769658442431911700,5.40291162109375,0.4594573974609375,1.010467529296875,0.2058868408203125
1769658442441899500,5.4128994140625,0.39984130859375,1.071380615234375,0.2045440673828125
1769658442451887600,5.4228876953125,0.32568359375,1.0908355712890625,0.20050048828125
1769658442461875700,5.432875732421875,0.2696990966796875,1.08123779296875,0.1971588134765625
1769658442471863600,5.442863525390625,0.2159271240234375,1.05718994140625,0.217254638671875
1769658442481851600,5.4528515625,0.179107666015625,1.0115814208984375,0.2377166748046875
1769658442491839700,5.46283984375,0.162109375,0.961944580078125,0.2500152587890625
1769658442501827600,5.47282763671875,0.1497955322265625,0.91619873046875,0.2645416259765625
1769658442511814700,5.482814697265625,0.150909423828125,0.874725341796875,0.2764892578125
1769658442521802800,5.492802734375,0.1593170166015625,0.83477783203125,0.29608154296875
1769658442531790600,5.50279052734375,0.175933837890625,0.8115081787109375,0.305389404296875
1769658442541778700,5.51277880859375,0.1971435546875,0.786651611328125,0.3116912841796875
1769658442551766500,5.5227666015625,0.2128448486328125,0.7683563232421875,0.3315582275390625
1769658442561754600,5.532754638671875,0.2392120361328125,0.7542266845703125,0.342010498046875
1769658442571742500,5.542742431640625,0.2545623779296875,0.74371337890625,0.3415985107421875
1769658442581730600,5.55273046875,0.269775390625,0.7447357177734375,0.33685302734375
1769658442591718700,5.56271875,0.2967529296875,0.7456512451171875,0.3348236083984375
1769658442601706500,5.57270654296875,0.2895355224609375,0.75286865234375,0.331573486328125
1769658442611693600,5.582693603515625,0.2535858154296875,0.769927978515625,0.32708740234375
1769658442621681700,5.592681640625,0.224090576171875,0.7899322509765625,0.334442138671875
1769658442631669500,5.60266943359375,0.2152557373046875,0.812591552734375,0.3514862060546875
1769658442641657600,5.61265771484375,0.2110443115234375,0.81561279296875,0.3579254150390625
1769658442651645700,5.622645751953125,0.201751708984375,0.806976318359375,0.360748291015625
1769658442661633500,5.632633544921875,0.19970703125,0.8035125732421875,0.3600311279296875
1769658442671621600,5.64262158203125,0.215301513671875,0.809478759765625,0.3514251708984375
1769658442681609700,5.652609619140625,0.2238311767578125,0.815155029296875,0.340179443359375
1769658442691597800,5.662597900390625,0.2295684814453125,0.8265838623046875,0.337371826171875
1769658442701585400,5.67258544921875,0.228607177734375,0.841033935546875,0.3316802978515625
1769658442711573500,5.682573486328125,0.201690673828125,0.86053466796875,0.3144989013671875
1769658442721560600,5.692560546875,0.196441650390625,0.8729095458984375,0.28912353515625
1769658442731548700,5.702548583984375,0.1822357177734375,0.8831787109375,0.2865447998046875
1769658442741536500,5.71253662109375,0.123260498046875,0.9049530029296875,0.258697509765625
1769658442751524600,5.722524658203125,0.1343536376953125,0.912811279296875,0.2330474853515625
1769658442761511700,5.73251171875,0.16180419921875,0.92254638671875,0.257965087890625
1769658442771499800,5.742499755859375,0.1717071533203125,0.93206787109375,0.2724151611328125
1769658442781487900,5.75248779296875,0.19219970703125,0.942626953125,0.28900146484375
1769658442791475700,5.762475830078125,0.188262939453125,0.95654296875,0.305084228515625
1769658442801463800,5.7724638671875,0.1771240234375,0.9667205810546875,0.3156280517578125
1769658442811452000,5.782451904296875,0.1733245849609375,0.9764251708984375,0.3206329345703125
1769658442821439700,5.792439697265625,0.15814208984375,0.983001708984375,0.3316497802734375
1769658442831426800,5.8024267578125,0.15185546875,0.9914398193359375,0.344818115234375
1769658442841415000,5.812414794921875,0.1508331298828125,0.9954071044921875,0.3534393310546875
1769658442851402800,5.82240283203125,0.145751953125,0.9967041015625,0.3538665771484375
1769658442861390800,5.832390869140625,0.133148193359375,0.9963226318359375,0.3531951904296875
1769658442871379000,5.84237890625,0.117584228515625,1.00299072265625,0.3492279052734375
1769658442881366800,5.85236669921875,0.1084136962890625,1.0076904296875,0.3406982421875
1769658442891355000,5.86235498046875,0.1025848388671875,1.0228271484375,0.3390960693359375
1769658442901343000,5.872343017578125,0.1033172607421875,1.0371551513671875,0.341461181640625
1769658442911330800,5.882330810546875,0.119110107421875,1.0597381591796875,0.345733642578125
1769658442921318700,5.892318603515625,0.1486968994140625,1.0820465087890625,0.3568878173828125
1769658442931306800,5.902306640625,0.1768798828125,1.10577392578125,0.3652496337890625
1769658442941294000,5.912294189453125,0.1878662109375,1.139251708984375,0.384796142578125
1769658442951281700,5.92228173828125,0.1906890869140625,1.1589508056640625,0.41778564453125
1769658442961269800,5.932269775390625,0.1833953857421875,1.149688720703125,0.4349517822265625
1769658442971257900,5.9422578125,0.1638641357421875,1.121826171875,0.4723358154296875
1769658442981245700,5.95224560546875,0.1875457763671875,1.1109771728515625,0.4875946044921875
1769658442991233800,5.96223388671875,0.246551513671875,1.1015167236328125,0.469512939453125
1769658443001222000,5.972221923828125,0.2789306640625,1.0625,0.3978271484375
1769658443011210000,5.9822099609375,0.30755615234375,1.0174407958984375,0.324920654296875
1769658443021197800,5.99219775390625,0.367340087890625,0.9950714111328125,0.2495269775390625
1769658443031186000,6.00218603515625,0.3641510009765625,0.9337921142578125,0.1798095703125
1769658443041174000,6.012174072265625,0.386962890625,0.87518310546875,0.0344390869140625
1769658443051160800,6.022160888671875,0.437103271484375,0.83306884765625,0.0691070556640625
1769658443061149000,6.03214892578125,0.5362396240234375,0.780364990234375,0.016143798828125
1769658443071137000,6.042136962890625,0.5934906005859375,0.7731475830078125,-0.115692138671875
1769658443081124900,6.052124755859375,0.532745361328125,0.8193206787109375,-0.1556854248046875
1769658443091113000,6.062113037109375,0.4117279052734375,0.93341064453125,-0.09381103515625
1769658443101100800,6.072100830078125,0.271728515625,1.0402069091796875,-0.0571746826171875
1769658443111088600,6.082088623046875,0.1427764892578125,1.1119842529296875,-0.03790283203125
1769658443121076700,6.09207666015625,0.068878173828125,1.1660614013671875,0.0297088623046875
1769658443131064800,6.10206494140625,0.045928955078125,1.22174072265625,0.1498870849609375
1769658443141053000,6.112052978515625,0.0181732177734375,1.2237091064453125,0.2129364013671875
1769658443151040800,6.122040771484375,0.022308349609375,1.173095703125,0.2409820556640625
1769658443161027800,6.13202783203125,0.0689239501953125,1.106842041015625,0.3076171875
1769658443171015700,6.142015625,0.1400146484375,1.0351104736328125,0.352203369140625
1769658443181003800,6.152003662109375,0.217620849609375,0.9748077392578125,0.3778839111328125
1769658443190992000,6.161991943359375,0.274871826171875,0.92962646484375,0.3914947509765625
1769658443200980000,6.17197998046875,0.2868499755859375,0.88330078125,0.3750762939453125
1769658443210967800,6.1819677734375,0.30926513671875,0.841217041015625,0.35198974609375
1769658443220956000,6.191955810546875,0.33758544921875,0.808563232421875,0.3117523193359375
1769658443230944000,6.201944091796875,0.354949951171875,0.782684326171875,0.2722015380859375
1769658443240931800,6.211931884765625,0.3586578369140625,0.771087646484375,0.2324676513671875
1769658443250920000,6.221919921875,0.3421478271484375,0.775665283203125,0.2093505859375
1769658443260907000,6.231906982421875,0.3021087646484375,0.7952880859375,0.192962646484375
1769658443270894800,6.241894775390625,0.2459564208984375,0.8141021728515625,0.1750640869140625
1769658443280883000,6.251883056640625,0.155181884765625,0.82818603515625,0.129486083984375
1769658443290870800,6.261870849609375,0.04925537109375,0.8544158935546875,0.134521484375
1769658443300858600,6.271858642578125,0.0118560791015625,0.85992431640625,0.1098480224609375
1769658443310846700,6.2818466796875,0.023223876953125,0.85455322265625,0.09991455078125
1769658443320834800,6.291834716796875,0.0601959228515625,0.8416290283203125,0.0989837646484375
1769658443330823000,6.301822998046875,0.0923004150390625,0.82464599609375,0.0991058349609375
1769658443340810800,6.311810791015625,0.111114501953125,0.8167724609375,0.1116485595703125
1769658443350798800,6.321798828125,0.1245574951171875,0.8241119384765625,0.13067626953125
1769658443360787000,6.331786865234375,0.144744873046875,0.844757080078125,0.1498565673828125
1769658443370773800,6.341773681640625,0.16943359375,0.85980224609375,0.161376953125
1769658443380761900,6.351761962890625,0.199493408203125,0.871978759765625,0.1773834228515625
1769658443390750000,6.36175,0.213653564453125,0.8717498779296875,0.19549560546875
1769658443400737800,6.37173779296875,0.21820068359375,0.86572265625,0.2027130126953125
1769658443410726000,6.381725830078125,0.2123870849609375,0.85870361328125,0.21112060546875
1769658443420714000,6.3917138671875,0.19384765625,0.85595703125,0.2138519287109375
1769658443430701800,6.401701904296875,0.16943359375,0.8614349365234375,0.2120208740234375
1769658443440690000,6.41168994140625,0.1469879150390625,0.873291015625,0.2116546630859375
1769658443450677800,6.421677734375,0.127532958984375,0.885986328125,0.208526611328125
1769658443460665900,6.431665771484375,0.1197052001953125,0.902862548828125,0.2061614990234375
1769658443470653700,6.44165380859375,0.1159820556640625,0.9220428466796875,0.20098876953125
1769658443480640800,6.451640869140625,0.10943603515625,0.94488525390625,0.19671630859375
1769658443490628900,6.46162890625,0.1071014404296875,0.963714599609375,0.196258544921875
1769658443500616700,6.47161669921875,0.124542236328125,0.978363037109375,0.1935882568359375
1769658443510604800,6.481604736328125,0.1503448486328125,0.987274169921875,0.1966094970703125
1769658443520593000,6.491593017578125,0.1654815673828125,0.9904632568359375,0.19635009765625
1769658443530580700,6.501580810546875,0.1685791015625,1.0014190673828125,0.1957244873046875
1769658443540568800,6.51156884765625,0.1622314453125,1.01715087890625,0.195220947265625
1769658443550557000,6.521556884765625,0.1455230712890625,1.02496337890625,0.2034454345703125
1769658443560544800,6.531544677734375,0.12994384765625,1.02838134765625,0.2170562744140625
1769658443570532900,6.541532958984375,0.1138153076171875,1.0228424072265625,0.225494384765625
1769658443580521000,6.55152099609375,0.104705810546875,1.0157470703125,0.2249908447265625
1769658443590507800,6.5615078125,0.1053314208984375,1.00537109375,0.21630859375
1769658443600495900,6.571495849609375,0.1090087890625,1.007354736328125,0.20697021484375
1769658443610484000,6.58148388671875,0.1128997802734375,1.0303955078125,0.2028961181640625
1769658443620472000,6.59147216796875,0.126190185546875,1.0632476806640625,0.2071380615234375
1769658443630460000,6.6014599609375,0.160736083984375,1.088134765625,0.20562744140625
1769658443640447700,6.61144775390625,0.213287353515625,1.107513427734375,0.194549560546875
1769658443650435800,6.621435791015625,0.2554473876953125,1.124603271484375,0.190887451171875
1769658443660423700,6.631423583984375,0.2806396484375,1.1249542236328125,0.197113037109375
1769658443670411800,6.641411865234375,0.3230133056640625,1.1250152587890625,0.200469970703125
1769658443680400000,6.65139990234375,0.3635406494140625,1.1202850341796875,0.2010498046875
1769658443690388000,6.661387939453125,0.361541748046875,1.0821075439453125,0.194671630859375
1769658443700374800,6.671374755859375,0.3521575927734375,1.0550994873046875,0.205810546875
1769658443710363000,6.68136279296875,0.33642578125,1.046051025390625,0.23046875
1769658443720350700,6.691350830078125,0.2894134521484375,1.031005859375,0.2598724365234375
1769658443730338800,6.7013388671875,0.2258758544921875,1.0074005126953125,0.2848968505859375
1769658443740327000,6.711326904296875,0.194854736328125,0.9910736083984375,0.29473876953125
1769658443750315000,6.72131494140625,0.1955718994140625,0.99053955078125,0.2969207763671875
1769658443760303600,6.7313037109375,0.2270965576171875,0.9691162109375,0.2933349609375
1769658443770291500,6.74129150390625,0.2761077880859375,0.9212188720703125,0.2881011962890625
1769658443780279600,6.751279541015625,0.3284454345703125,0.8431243896484375,0.281158447265625
1769658443790267600,6.761267578125,0.350006103515625,0.762847900390625,0.26654052734375
1769658443800255700,6.771255859375,0.378204345703125,0.72613525390625,0.2543487548828125
1769658443810242600,6.78124267578125,0.414825439453125,0.71600341796875,0.2518310546875
1769658443820230700,6.791230712890625,0.4513397216796875,0.705718994140625,0.248748779296875
1769658443830218800,6.80121875,0.491058349609375,0.7115631103515625,0.235809326171875
1769658443840206600,6.81120654296875,0.5284576416015625,0.7402496337890625,0.229461669921875
1769658443850194700,6.821194580078125,0.5512847900390625,0.78729248046875,0.23583984375
1769658443860182800,6.831182861328125,0.5390167236328125,0.830718994140625,0.2445220947265625
1769658443870170600,6.841170654296875,0.5120391845703125,0.8712921142578125,0.236083984375
1769658443880158700,6.85115869140625,0.49163818359375,0.92388916015625,0.218048095703125
1769658443890146800,6.861146728515625,0.4564208984375,0.9710540771484375,0.215545654296875
1769658443900134700,6.871134765625,0.404022216796875,1.003326416015625,0.2096099853515625
1769658443910122800,6.881122802734375,0.3410186767578125,1.020355224609375,0.21453857421875
1769658443920109800,6.89110986328125,0.29217529296875,1.0278472900390625,0.22119140625
1769658443930097700,6.90109765625,0.255645751953125,1.0360870361328125,0.262054443359375
1769658443940085800,6.911085693359375,0.2281951904296875,1.0256805419921875,0.3043975830078125
1769658443950073600,6.921073486328125,0.2251129150390625,0.9925537109375,0.3289794921875
1769658443960061700,6.931061767578125,0.2370452880859375,0.9471893310546875,0.3531646728515625
1769658443970049500,6.941049560546875,0.25482177734375,0.897857666015625,0.3577117919921875
1769658443980037600,6.95103759765625,0.2682037353515625,0.8397064208984375,0.3452301025390625
1769658443990025700,6.961025634765625,0.2983551025390625,0.786529541015625,0.33538818359375
1769658444000013600,6.971013671875,0.33721923828125,0.7525634765625,0.3216705322265625
1769658444010001700,6.981001708984375,0.3709259033203125,0.7355804443359375,0.3081817626953125
1769658444019989800,6.99098974609375,0.3747100830078125,0.7341156005859375,0.3023223876953125
1769658444029976600,7.0009765625,0.3535919189453125,0.744415283203125,0.2919158935546875
1769658444039964700,7.010964599609375,0.3303680419921875,0.7653656005859375,0.2869873046875
1769658444049952800,7.020952880859375,0.31317138671875,0.78680419921875,0.276947021484375
1769658444059940600,7.030940673828125,0.29425048828125,0.8075408935546875,0.2703094482421875
1769658444069928700,7.0409287109375,0.2765045166015625,0.8255157470703125,0.256927490234375
1769658444079916800,7.050916748046875,0.269805908203125,0.8388671875,0.2395782470703125
1769658444089905000,7.06090478515625,0.2685089111328125,0.851776123046875,0.2247314453125
1769658444099892700,7.070892822265625,0.26251220703125,0.86431884765625,0.220458984375
1769658444109880600,7.080880615234375,0.26055908203125,0.881866455078125,0.2108001708984375
1769658444119868700,7.09086865234375,0.2677154541015625,0.9031219482421875,0.2084808349609375
1769658444129855700,7.100855712890625,0.2767333984375,0.9162750244140625,0.19891357421875
1769658444139843600,7.110843505859375,0.284820556640625,0.9231414794921875,0.194793701171875
1769658444149831700,7.120831787109375,0.2828521728515625,0.924468994140625,0.1913604736328125
1769658444159819500,7.130819580078125,0.2766876220703125,0.9273529052734375,0.1881256103515625
1769658444169807600,7.1408076171875,0.2726898193359375,0.928436279296875,0.18597412109375
1769658444179795700,7.150795654296875,0.268310546875,0.9344024658203125,0.1884307861328125
1769658444189783600,7.160783447265625,0.25848388671875,0.94000244140625,0.1957550048828125
1769658444199771600,7.170771728515625,0.2478790283203125,0.940521240234375,0.209136962890625
1769658444209759700,7.180759765625,0.24139404296875,0.9412689208984375,0.22589111328125
1769658444219747800,7.190747802734375,0.2418060302734375,0.9435882568359375,0.24688720703125
1769658444229735700,7.200735595703125,0.2441864013671875,0.9433135986328125,0.2697906494140625
1769658444239722800,7.21072265625,0.2450408935546875,0.9385986328125,0.2849273681640625
1769658444249710800,7.2207109375,0.2483367919921875,0.9327850341796875,0.296112060546875
1769658444259698700,7.23069873046875,0.2623748779296875,0.9268951416015625,0.298248291015625
1769658444269686800,7.240686767578125,0.2789459228515625,0.925262451171875,0.2960968017578125
1769658444279675000,7.2506748046875,0.2942047119140625,0.923736572265625,0.2887420654296875
1769658444289662700,7.260662841796875,0.30010986328125,0.924560546875,0.2802734375
1769658444299650600,7.270650634765625,0.29833984375,0.932525634765625,0.2686004638671875
1769658444309638700,7.280638671875,0.2898712158203125,0.9414215087890625,0.26007080078125
1769658444319626500,7.29062646484375,0.283233642578125,0.94976806640625,0.256622314453125
1769658444329614600,7.300614501953125,0.2779388427734375,0.962890625,0.2568359375
1769658444339602700,7.310602783203125,0.2662200927734375,0.9739227294921875,0.2606353759765625
1769658444349589500,7.320589599609375,0.245758056640625,0.9848785400390625,0.273193359375
1769658444359577600,7.33057763671875,0.225982666015625,0.9960479736328125,0.282989501953125
1769658444369565700,7.340565673828125,0.2138519287109375,1.003936767578125,0.2939605712890625
1769658444379553800,7.3505537109375,0.20947265625,1.00872802734375,0.306732177734375
1769658444389541600,7.360541748046875,0.2133026123046875,1.011077880859375,0.3217010498046875
1769658444399529700,7.37052978515625,0.227447509765625,1.013275146484375,0.32757568359375
1769658444409517800,7.380517822265625,0.2462615966796875,1.0245361328125,0.3314971923828125
1769658444419505700,7.390505615234375,0.26751708984375,1.044189453125,0.336669921875
1769658444429493800,7.40049365234375,0.2923583984375,1.071075439453125,0.3402099609375
1769658444439481900,7.41048193359375,0.3097686767578125,1.0970611572265625,0.3436279296875
1769658444449469400,7.420469482421875,0.310394287109375,1.103240966796875,0.3441314697265625
1769658444459456800,7.430456787109375,0.2978057861328125,1.090972900390625,0.35028076171875
1769658444469444900,7.44044482421875,0.278076171875,1.0683746337890625,0.3589324951171875
1769658444479432700,7.4504326171875,0.2604522705078125,1.0478668212890625,0.36181640625
1769658444489420500,7.460420654296875,0.2591705322265625,1.0277862548828125,0.36236572265625
1769658444499408600,7.47040869140625,0.2769317626953125,1.0165863037109375,0.3413543701171875
1769658444509396700,7.480396728515625,0.31121826171875,1.012451171875,0.3347320556640625
1769658444519384600,7.490384521484375,0.3303985595703125,0.990447998046875,0.3155670166015625
1769658444529372700,7.50037255859375,0.33056640625,0.9600830078125,0.263031005859375
1769658444539360800,7.51036083984375,0.3708648681640625,0.948272705078125,0.1933746337890625
1769658444549348600,7.5203486328125,0.4082794189453125,0.908538818359375,0.119842529296875
1769658444559336700,7.530336669921875,0.41009521484375,0.8511810302734375,0.0439910888671875
1769658444569323800,7.54032373046875,0.41131591796875,0.792327880859375,-0.02117919921875
1769658444579311600,7.5503115234375,0.415557861328125,0.774322509765625,-0.089569091796875
1769658444589299700,7.5602998046875,0.4051055908203125,0.797454833984375,-0.111328125
1769658444599287800,7.570287841796875,0.364990234375,0.8350982666015625,-0.092742919921875
1769658444609275600,7.580275634765625,0.299407958984375,0.884552001953125,-0.0831146240234375
1769658444619263700,7.590263671875,0.23272705078125,0.9514007568359375,-0.0451202392578125
1769658444629251800,7.600251953125,0.205169677734375,1.007354736328125,0.0381011962890625
1769658444639239700,7.61023974609375,0.18475341796875,1.0528411865234375,0.121917724609375
1769658444649227500,7.6202275390625,0.1803131103515625,1.0718536376953125,0.1809234619140625
1769658444659215600,7.630215576171875,0.1726226806640625,1.06109619140625,0.233306884765625
1769658444669203700,7.64020361328125,0.1795501708984375,1.038787841796875,0.2927093505859375
1769658444679190500,7.6501904296875,0.1990509033203125,1.0206451416015625,0.3408660888671875
1769658444689178600,7.6601787109375,0.2266845703125,0.986053466796875,0.341522216796875
1769658444699166700,7.670166748046875,0.2635345458984375,0.9447021484375,0.32562255859375
1769658444709154600,7.680154541015625,0.2716217041015625,0.89862060546875,0.28729248046875
1769658444719142700,7.690142578125,0.2887115478515625,0.8532562255859375,0.244415283203125
1769658444729130800,7.700130859375,0.3068084716796875,0.8212738037109375,0.20379638671875
1769658444739118600,7.71011865234375,0.3134613037109375,0.7968597412109375,0.1832733154296875
1769658444749106700,7.720106689453125,0.30389404296875,0.77978515625,0.1578216552734375
1769658444759094500,7.730094482421875,0.2899322509765625,0.786895751953125,0.131805419921875
1769658444769082600,7.74008251953125,0.2653350830078125,0.80841064453125,0.0960540771484375
1769658444779070700,7.75007080078125,0.2412109375,0.8529205322265625,0.0738983154296875
1769658444789057500,7.7600576171875,0.2119598388671875,0.90069580078125,0.061859130859375
1769658444799045600,7.770045654296875,0.1729888916015625,0.9398345947265625,0.0557708740234375
1769658444809033700,7.78003369140625,0.124542236328125,0.9700927734375,0.0691375732421875
1769658444819021600,7.790021484375,0.095123291015625,0.9838104248046875,0.0832366943359375
1769658444829009400,7.800009521484375,0.093475341796875,0.9718017578125,0.1007537841796875
1769658444838997500,7.80999755859375,0.116363525390625,0.9432373046875,0.116119384765625
1769658444848985600,7.819985595703125,0.1370086669921875,0.919525146484375,0.1339874267578125
1769658444858973400,7.829973388671875,0.146728515625,0.906005859375,0.1560211181640625
1769658444868961500,7.83996142578125,0.1473236083984375,0.9020538330078125,0.1709747314453125
1769658444878949600,7.84994970703125,0.1527252197265625,0.9022979736328125,0.1795806884765625
1769658444888937500,7.8599375,0.159515380859375,0.896209716796875,0.18255615234375
1769658444898924500,7.869924560546875,0.1654205322265625,0.8869781494140625,0.1881561279296875
1769658444908912600,7.87991259765625,0.178466796875,0.87530517578125,0.190643310546875
1769658444918900500,7.889900390625,0.18890380859375,0.8660125732421875,0.192962646484375
1769658444928888600,7.899888671875,0.1863250732421875,0.864959716796875,0.1995086669921875
1769658444938876700,7.909876708984375,0.1810302734375,0.8672027587890625,0.19903564453125
1769658444948864500,7.919864501953125,0.1724700927734375,0.8717498779296875,0.20208740234375
1769658444958852600,7.9298525390625,0.1610565185546875,0.879730224609375,0.208770751953125
1769658444968840700,7.9398408203125,0.149688720703125,0.887664794921875,0.212493896484375
1769658444978828500,7.94982861328125,0.142364501953125,0.9010772705078125,0.2139739990234375
1769658444988816400,7.95981640625,0.14495849609375,0.916046142578125,0.215423583984375
1769658444998803700,7.9698037109375,0.1460723876953125,0.9280548095703125,0.2200927734375
1769658445008791600,7.97979150390625,0.1450042724609375,0.936859130859375,0.22723388671875
1769658445018779400,7.989779296875,0.135528564453125,0.94366455078125,0.2408599853515625
1769658445028767500,7.999767578125,0.114044189453125,0.941131591796875,0.248687744140625
1769658445038755600,8.009755615234376,0.10833740234375,0.9303436279296875,0.2494964599609375
1769658445048743400,8.019743408203125,0.110504150390625,0.92578125,0.251983642578125
1769658445058731500,8.0297314453125,0.1217803955078125,0.9190521240234375,0.2447357177734375
1769658445068719600,8.0397197265625,0.1277008056640625,0.9152984619140625,0.2382659912109375
1769658445078707500,8.04970751953125,0.1244659423828125,0.9213104248046875,0.2368316650390625
1769658445088695600,8.059695556640625,0.109954833984375,0.9386749267578125,0.2417449951171875
1769658445098683600,8.06968359375,0.0918731689453125,0.96319580078125,0.251007080078125
1769658445108671700,8.079671630859375,0.08685302734375,1.0013427734375,0.2682647705078125
1769658445118658600,8.089658447265625,0.1174468994140625,1.0543975830078125,0.276641845703125
1769658445128646700,8.099646728515625,0.1537017822265625,1.102264404296875,0.2861328125
1769658445138634500,8.109634521484375,0.1912994384765625,1.1479034423828125,0.2895050048828125
1769658445148622600,8.11962255859375,0.2534027099609375,1.2038116455078125,0.266815185546875
1769658445158610700,8.129610595703125,0.31072998046875,1.2483978271484375,0.2718963623046875
1769658445168598500,8.1395986328125,0.3431854248046875,1.245849609375,0.247283935546875
1769658445178586400,8.14958642578125,0.364013671875,1.2210235595703125,0.1988983154296875
1769658445188574500,8.159574462890625,0.378143310546875,1.1930084228515625,0.1757965087890625
1769658445198562600,8.1695625,0.3718109130859375,1.1519622802734375,0.1809539794921875
1769658445208550400,8.17955029296875,0.3424072265625,1.0953521728515625,0.2273712158203125
1769658445218537500,8.189537353515625,0.291534423828125,1.0577239990234375,0.247222900390625
1769658445228525600,8.199525634765624,0.2458038330078125,1.026336669921875,0.2540435791015625
1769658445238513400,8.209513427734375,0.24224853515625,1.0184478759765625,0.280609130859375
1769658445248501500,8.21950146484375,0.28460693359375,0.9897003173828125,0.2986297607421875
1769658445258489600,8.229489501953125,0.33135986328125,0.9422149658203125,0.313201904296875
1769658445268477400,8.2394775390625,0.34417724609375,0.8785400390625,0.34027099609375
1769658445278465500,8.249465576171875,0.359466552734375,0.8168487548828125,0.3073272705078125
1769658445288453600,8.25945361328125,0.43096923828125,0.791717529296875,0.3362274169921875
1769658445298441700,8.269441650390625,0.5210113525390625,0.7979583740234375,0.32550048828125
1769658445308429600,8.2794296875,0.5684967041015625,0.772491455078125,0.2867889404296875
1769658445318417700,8.289417724609375,0.5983428955078125,0.769500732421875,0.2599029541015625
1769658445328404700,8.29940478515625,0.6163330078125,0.772796630859375,0.2384033203125
1769658445338392600,8.309392578125,0.6512298583984375,0.7954254150390625,0.201385498046875
1769658445348380700,8.319380615234374,0.683380126953125,0.8289337158203125,0.1692352294921875
1769658445358368500,8.329368408203125,0.6765899658203125,0.8719024658203125,0.149688720703125
1769658445368356400,8.3393564453125,0.609527587890625,0.928253173828125,0.1542510986328125
1769658445378344400,8.349344482421875,0.5090484619140625,0.97900390625,0.16400146484375
1769658445388332500,8.35933251953125,0.4019317626953125,1.004058837890625,0.1781158447265625
1769658445398320400,8.3693203125,0.3041534423828125,1.0108184814453125,0.1996612548828125
1769658445408308500,8.37930859375,0.2392578125,0.9929351806640625,0.2132110595703125
1769658445418296600,8.389296630859375,0.1949310302734375,0.9605865478515625,0.2494354248046875
1769658445428284700,8.39928466796875,0.1654815673828125,0.9222869873046875,0.2706756591796875
1769658445438271500,8.409271484375,0.1593017578125,0.877899169921875,0.284271240234375
1769658445448259600,8.419259521484374,0.1571044921875,0.839874267578125,0.2993621826171875
1769658445458247700,8.42924755859375,0.1591644287109375,0.8081512451171875,0.323028564453125
1769658445468235500,8.439235595703124,0.1693878173828125,0.776702880859375,0.3300628662109375
1769658445478223600,8.4492236328125,0.2094573974609375,0.76123046875,0.3440704345703125
1769658445488211700,8.459211669921874,0.2768402099609375,0.7497100830078125,0.354888916015625
1769658445498199600,8.469199462890625,0.3291168212890625,0.7323455810546875,0.35498046875
1769658445508187600,8.479187744140624,0.37152099609375,0.7244873046875,0.3464508056640625
1769658445518175500,8.489175537109375,0.407806396484375,0.7212982177734375,0.327301025390625
1769658445528163600,8.49916357421875,0.4207763671875,0.7331390380859375,0.299041748046875
1769658445538151400,8.5091513671875,0.41192626953125,0.7432708740234375,0.29791259765625
1769658445548138500,8.519138427734376,0.4075775146484375,0.74066162109375,0.28643798828125
1769658445558126300,8.529126220703125,0.391448974609375,0.763336181640625,0.254730224609375
1769658445568114400,8.539114501953126,0.3319854736328125,0.784576416015625,0.2509918212890625
1769658445578102500,8.5491025390625,0.2648773193359375,0.8004302978515625,0.251800537109375
1769658445588090600,8.559090576171876,0.2312164306640625,0.8221435546875,0.2487945556640625
1769658445598078500,8.569078369140625,0.21990966796875,0.83306884765625,0.256195068359375
1769658445608066600,8.579066650390626,0.2231903076171875,0.8285980224609375,0.273773193359375
1769658445618054700,8.5890546875,0.241943359375,0.829132080078125,0.2646026611328125
1769658445628042500,8.59904248046875,0.25970458984375,0.83392333984375,0.2699432373046875
1769658445638030600,8.609030517578125,0.264892578125,0.8433685302734375,0.2642974853515625
1769658445648018700,8.619018798828124,0.2705230712890625,0.8484344482421875,0.2592010498046875
1769658445658005500,8.629005615234375,0.2771148681640625,0.8496246337890625,0.2587738037109375
1769658445667993600,8.63899365234375,0.27685546875,0.8475189208984375,0.265899658203125
1769658445677981700,8.648981689453125,0.274658203125,0.8321990966796875,0.26708984375
1769658445687969500,8.658969482421876,0.2811279296875,0.8165130615234375,0.2626495361328125
1769658445697957600,8.66895751953125,0.2935333251953125,0.8124542236328125,0.25433349609375
1769658445707945500,8.678945556640626,0.3034820556640625,0.8325347900390625,0.2659454345703125
1769658445717933600,8.68893359375,0.302825927734375,0.865325927734375,0.2861480712890625
1769658445727921400,8.69892138671875,0.2930755615234375,0.8973236083984375,0.3040008544921875
1769658445737909500,8.708909423828125,0.2847137451171875,0.91748046875,0.310943603515625
1769658445747897600,8.718897705078126,0.2851409912109375,0.939178466796875,0.3184814453125
1769658445757885400,8.728885498046875,0.273101806640625,0.97247314453125,0.3519744873046875
1769658445767871700,8.738871826171875,0.24786376953125,1.003875732421875,0.3873291015625
1769658445777859600,8.748859619140624,0.2171478271484375,1.029205322265625,0.425750732421875
1769658445787847700,8.75884765625,0.194671630859375,1.0505218505859375,0.467529296875
1769658445797835800,8.768835693359375,0.173858642578125,1.0640106201171875,0.4995574951171875
1769658445807824000,8.778823974609375,0.1555023193359375,1.0684051513671875,0.5371856689453125
1769658445817811700,8.788811767578125,0.154022216796875,1.069793701171875,0.5570526123046875
1769658445827799800,8.7987998046875,0.1735687255859375,1.0632171630859375,0.571533203125
1769658445837788000,8.808787841796875,0.2161102294921875,1.0546112060546875,0.5655670166015625
1769658445847775700,8.818775634765625,0.2637481689453125,1.0540008544921875,0.5442047119140625
1769658445857763800,8.828763916015625,0.3122711181640625,1.0661163330078125,0.5156097412109375
1769658445867752000,8.838751953125,0.3380279541015625,1.0990753173828125,0.5023956298828125
1769658445877738800,8.84873876953125,0.3305206298828125,1.117340087890625,0.485748291015625
1769658445887726800,8.858726806640625,0.3087615966796875,1.1199493408203125,0.474334716796875
1769658445897715000,8.86871484375,0.2902679443359375,1.1169281005859375,0.45599365234375
1769658445907703000,8.878703125,0.27362060546875,1.1084442138671875,0.441253662109375
1769658445917691000,8.88869091796875,0.2555389404296875,1.1066741943359375,0.4263153076171875
1769658445927678700,8.8986787109375,0.2560272216796875,1.109649658203125,0.3930816650390625
1769658445937666800,8.908666748046874,0.2621612548828125,1.107666015625,0.3550262451171875
1769658445947654700,8.918654541015625,0.293212890625,1.090972900390625,0.2993621826171875
1769658445957642800,8.928642822265624,0.3347930908203125,1.0615997314453125,0.1728515625
1769658445967630800,8.938630859375,0.3467559814453125,1.0083770751953125,0.065093994140625
1769658445977618700,8.94861865234375,0.3863983154296875,0.9524688720703125,0.0850830078125
1769658445987605800,8.958605712890625,0.4727630615234375,0.903106689453125,0.0312347412109375
1769658445997593900,8.96859375,0.5518341064453125,0.8449859619140625,-0.0629425048828125
1769658446007581700,8.978581787109375,0.5672760009765625,0.79327392578125,-0.133544921875
1769658446017569800,8.98856982421875,0.5158233642578125,0.8063812255859375,-0.1631317138671875
1769658446027558000,8.998557861328125,0.4152374267578125,0.8727569580078125,-0.126953125
1769658446037546000,9.0085458984375,0.3083953857421875,0.943389892578125,-0.0947113037109375
1769658446047533800,9.018533935546875,0.214508056640625,1.0110931396484375,-0.08319091796875
1769658446057522000,9.02852197265625,0.138885498046875,1.0671234130859375,-0.014404296875
1769658446067510000,9.038510009765625,0.0919647216796875,1.124908447265625,0.0873565673828125
1769658446077497600,9.04849755859375,0.03497314453125,1.1434173583984375,0.162506103515625
1769658446087485700,9.058485595703125,0.010955810546875,1.1146087646484375,0.2163848876953125
1769658446097473000,9.06847314453125,0.043701171875,1.062225341796875,0.2702789306640625
1769658446107460900,9.0784609375,0.1108551025390625,1.0010986328125,0.316192626953125
1769658446117448700,9.08844873046875,0.173309326171875,0.936004638671875,0.342559814453125
1769658446127436800,9.098436767578125,0.232147216796875,0.9000244140625,0.354827880859375
1769658446137424600,9.108424560546876,0.29144287109375,0.8702850341796875,0.32818603515625
1769658446147412700,9.118412841796875,0.33660888671875,0.8360137939453125,0.2803955078125
1769658446157400800,9.12840087890625,0.3679962158203125,0.803802490234375,0.2420501708984375
1769658446167389000,9.138388916015625,0.3961944580078125,0.7833251953125,0.202606201171875
1769658446177376800,9.148376708984374,0.4099578857421875,0.779022216796875,0.1746368408203125
1769658446187364900,9.15836474609375,0.38671875,0.7799224853515625,0.1581268310546875
1769658446197353000,9.16835302734375,0.3376312255859375,0.7901458740234375,0.15032958984375
1769658446207339800,9.17833984375,0.2636260986328125,0.8075408935546875,0.13409423828125
1769658446217327900,9.188327880859376,0.1932830810546875,0.8347015380859375,0.117523193359375
1769658446227316000,9.19831591796875,0.11651611328125,0.86712646484375,0.0985107421875
1769658446237303800,9.2083037109375,0.0166778564453125,0.90594482421875,0.085662841796875
1769658446247292000,9.2182919921875,-0.03497314453125,0.9246978759765625,0.096221923828125
1769658446257280000,9.228280029296876,-0.010162353515625,0.9200439453125,0.100006103515625
1769658446267267600,9.238267578125,0.0275115966796875,0.8979034423828125,0.0938262939453125
1769658446277255700,9.248255615234376,0.05499267578125,0.8769378662109375,0.1052703857421875
1769658446287243800,9.258243896484375,0.083770751953125,0.874359130859375,0.1229095458984375
1769658446297232000,9.26823193359375,0.103057861328125,0.883514404296875,0.140960693359375
1769658446307219700,9.2782197265625,0.1187591552734375,0.8978118896484375,0.1657257080078125
1769658446317206800,9.288206787109376,0.136962890625,0.9052886962890625,0.18109130859375
1769658446327194600,9.298194580078125,0.1501312255859375,0.8997955322265625,0.1984405517578125
1769658446337182700,9.3081826171875,0.1605377197265625,0.8858795166015625,0.209320068359375
1769658446347170800,9.3181708984375,0.17376708984375,0.8738861083984375,0.21710205078125
1769658446357159000,9.328158935546876,0.184814453125,0.8610076904296875,0.223907470703125
1769658446367146800,9.338146728515625,0.1855621337890625,0.855743408203125,0.222747802734375
1769658446377134800,9.348134765625,0.18017578125,0.8573150634765625,0.2128448486328125
1769658446387123000,9.358123046875,0.1619415283203125,0.8697509765625,0.202972412109375
1769658446397110800,9.36811083984375,0.138580322265625,0.891448974609375,0.199462890625
1769658446407099000,9.378098876953125,0.1139068603515625,0.9121246337890625,0.191650390625
1769658446417086700,9.388086669921876,0.0804595947265625,0.934173583984375,0.1795196533203125
1769658446427073800,9.39807373046875,0.054229736328125,0.9503326416015625,0.1775970458984375
1769658446437062000,9.408061767578126,0.051239013671875,0.9510498046875,0.180267333984375
1769658446447050000,9.418050048828125,0.054656982421875,0.937347412109375,0.19110107421875
1769658446457037600,9.42803759765625,0.04840087890625,0.92047119140625,0.20489501953125
1769658446467025700,9.438025634765625,0.03826904296875,0.923553466796875,0.229888916015625
1769658446477013800,9.448013671875,0.031982421875,0.9337005615234375,0.249176025390625
1769658446487001900,9.458001953125,0.0299530029296875,0.9429168701171875,0.2641754150390625
1769658446496989700,9.46798974609375,0.038543701171875,0.945831298828125,0.2710418701171875
1769658446506977800,9.477977783203125,0.052276611328125,0.937652587890625,0.272247314453125
1769658446516966000,9.4879658203125,0.0611419677734375,0.927703857421875,0.2721710205078125
1769658446526953700,9.49795361328125,0.0888671875,0.921478271484375,0.264678955078125
1769658446536940800,9.50794091796875,0.1129302978515625,0.9237823486328125,0.25537109375
1769658446546929000,9.517928955078125,0.1180419921875,0.921051025390625,0.251495361328125
1769658446556916700,9.527916748046875,0.1075592041015625,0.9269256591796875,0.2501068115234375
1769658446566904800,9.53790478515625,0.0930938720703125,0.9438018798828125,0.248565673828125
1769658446576893000,9.547892822265625,0.0845947265625,0.97442626953125,0.24554443359375
1769658446586881000,9.557881103515625,0.0893707275390625,1.0242919921875,0.25274658203125
1769658446596868900,9.567868896484375,0.1101837158203125,1.077056884765625,0.2658538818359375
1769658446606856700,9.577856689453125,0.1558685302734375,1.1300506591796875,0.272216796875
1769658446616844800,9.5878447265625,0.2087554931640625,1.18017578125,0.2602081298828125
1769658446626832600,9.59783251953125,0.2306671142578125,1.1993255615234375,0.23077392578125
1769658446636820700,9.60782080078125,0.2268829345703125,1.1800079345703125,0.197479248046875
1769658446646807800,9.617807861328124,0.239410400390625,1.1489715576171875,0.20050048828125
1769658446656795600,9.627795654296875,0.2389678955078125,1.1083831787109375,0.2140655517578125
1769658446666783700,9.63778369140625,0.226226806640625,1.08966064453125,0.227447509765625
1769658446676771800,9.647771728515625,0.2410888671875,1.087188720703125,0.260711669921875
1769658446686759700,9.657759765625,0.2422637939453125,1.077484130859375,0.30352783203125
1769658446696747800,9.667747802734375,0.217376708984375,1.072601318359375,0.3199310302734375
1769658446706735900,9.67773583984375,0.20855712890625,1.053314208984375,0.34027099609375
1769658446716724000,9.687723876953125,0.2329864501953125,1.007904052734375,0.3287200927734375
1769658446726711800,9.6977119140625,0.2677154541015625,0.9510040283203125,0.334930419921875
1769658446736700000,9.707699951171875,0.3118438720703125,0.8915863037109375,0.352813720703125
1769658446746688000,9.71768798828125,0.3919525146484375,0.822357177734375,0.3582305908203125
1769658446756674800,9.7276748046875,0.4886474609375,0.7693023681640625,0.3125152587890625
1769658446766663000,9.737662841796874,0.578521728515625,0.7733612060546875,0.268218994140625
1769658446776651000,9.747651123046875,0.6127166748046875,0.766632080078125,0.2576751708984375
1769658446786638800,9.757638916015624,0.6165008544921875,0.76116943359375,0.2484283447265625
1769658446796626700,9.767626708984375,0.6170501708984375,0.8082427978515625,0.24237060546875
1769658446806614800,9.77761474609375,0.6013031005859375,0.8774871826171875,0.2251434326171875
1769658446816602600,9.7876025390625,0.5744781494140625,0.941070556640625,0.202301025390625
1769658446826590700,9.7975908203125,0.521728515625,1.00848388671875,0.20184326171875
1769658446836578800,9.807578857421875,0.4284515380859375,1.0527801513671875,0.1842498779296875
1769658446846567000,9.81756689453125,0.337860107421875,1.0677947998046875,0.17547607421875
1769658446856553700,9.8275537109375,0.276458740234375,1.0690765380859375,0.1838226318359375
1769658446866541800,9.837541748046876,0.2368927001953125,1.0529022216796875,0.2056427001953125
1769658446876529700,9.84752978515625,0.206756591796875,1.0256500244140625,0.246185302734375
1769658446886517800,9.857517822265624,0.1909942626953125,0.986114501953125,0.2696685791015625
1769658446896505900,9.867505859375,0.1984100341796875,0.9375152587890625,0.2864532470703125
1769658446906494000,9.877493896484374,0.22039794921875,0.88714599609375,0.32049560546875
1769658446916481800,9.887481689453125,0.16583251953125,0.8697509765625,0.3420562744140625
1769658446926470000,9.897469970703124,0.1741943359375,0.8231048583984375,0.3190155029296875
1769658446936458000,9.9074580078125,0.2271881103515625,0.7863922119140625,0.2979583740234375
1769658446946445800,9.91744580078125,0.2736968994140625,0.781036376953125,0.3314208984375
1769658446956433700,9.92743359375,0.3106689453125,0.7668914794921875,0.3613739013671875
1769658446966421000,9.9374208984375,0.3381500244140625,0.7337646484375,0.3367462158203125
1769658446976408800,9.947408935546875,0.358062744140625,0.73077392578125,0.3311614990234375
1769658446986396700,9.957396728515626,0.3939971923828125,0.7395477294921875,0.3309783935546875
1769658446996384800,9.967384765625,0.424652099609375,0.7382354736328125,0.3054656982421875
1769658447006372600,9.97737255859375,0.3882598876953125,0.73309326171875,0.2965545654296875
1769658447016360700,9.987360595703125,0.3279266357421875,0.73883056640625,0.293914794921875
1769658447026348800,9.997348876953126,0.27789306640625,0.7648468017578125,0.2920684814453125
1769658447036337000,10.0073369140625,0.2421112060546875,0.79803466796875,0.2821807861328125
1769658447046324700,10.01732470703125,0.20556640625,0.8248443603515625,0.2774658203125
1769658447056312800,10.027312744140625,0.1658935546875,0.836761474609375,0.2715911865234375
1769658447066301000,10.037301025390626,0.1530303955078125,0.8517303466796875,0.2726593017578125
1769658447076288800,10.047288818359375,0.162200927734375,0.8692474365234375,0.2689361572265625
1769658447086275800,10.05727587890625,0.1699066162109375,0.884033203125,0.2718963623046875
1769658447096264000,10.067263916015625,0.1874237060546875,0.8953857421875,0.27215576171875
1769658447106251800,10.077251708984376,0.19830322265625,0.8999786376953125,0.2791290283203125
1769658447116240000,10.087239990234375,0.204803466796875,0.893218994140625,0.291656494140625
1769658447126228000,10.09722802734375,0.2013092041015625,0.87579345703125,0.3007659912109375
1769658447136215800,10.1072158203125,0.177032470703125,0.890350341796875,0.310760498046875
1769658447146203600,10.11720361328125,0.1931915283203125,0.898223876953125,0.3090667724609375
1769658447156191700,10.127191650390625,0.239471435546875,0.8972625732421875,0.3156585693359375
1769658447166179800,10.137179931640626,0.2266998291015625,0.8956756591796875,0.331756591796875
1769658447176167700,10.147167724609375,0.2159576416015625,0.909271240234375,0.337860107421875
1769658447186155800,10.15715576171875,0.22607421875,0.92388916015625,0.3360595703125
1769658447196142800,10.167142822265625,0.21728515625,0.9279937744140625,0.34649658203125
1769658447206130700,10.177130615234375,0.1962432861328125,0.9424896240234375,0.3481903076171875
1769658447216118800,10.187118896484375,0.1937408447265625,0.947235107421875,0.342803955078125
1769658447226107000,10.19710693359375,0.1963958740234375,0.940948486328125,0.3523712158203125
1769658447236094700,10.2070947265625,0.187713623046875,0.9402618408203125,0.365875244140625
1769658447246082800,10.217082763671876,0.189208984375,0.941131591796875,0.3695068359375
1769658447256071000,10.22707080078125,0.1898956298828125,0.9433441162109375,0.3765411376953125
1769658447266059000,10.23705908203125,0.1627349853515625,0.954254150390625,0.39154052734375
1769658447276046800,10.247046875,0.1533966064453125,0.9713897705078125,0.4073028564453125
1769658447286035000,10.257034912109376,0.152801513671875,0.98565673828125,0.41607666015625
1769658447296021800,10.267021728515624,0.1493988037109375,0.9942779541015625,0.4285125732421875
1769658447306009900,10.277009765625,0.159088134765625,0.9960479736328125,0.4370880126953125
1769658447315998000,10.286998046875,0.170166015625,1.0148162841796875,0.447113037109375
1769658447325985800,10.29698583984375,0.18414306640625,1.035919189453125,0.4447479248046875
1769658447335973600,10.3069736328125,0.2013092041015625,1.06427001953125,0.43719482421875
1769658447345961700,10.316961669921875,0.2060089111328125,1.09912109375,0.4225921630859375
1769658447355949800,10.32694970703125,0.2024078369140625,1.14422607421875,0.4104156494140625
1769658447365937700,10.336937744140625,0.2056732177734375,1.169677734375,0.4031982421875
1769658447375925800,10.34692578125,0.1959991455078125,1.16400146484375,0.389190673828125
1769658447385913900,10.356913818359375,0.17730712890625,1.1393280029296875,0.378662109375
1769658447395902000,10.36690185546875,0.193206787109375,1.1192626953125,0.373992919921875
1769658447405888800,10.376888671875,0.2181549072265625,1.0913848876953125,0.3170013427734375
1769658447415876900,10.386876953125,0.2410430908203125,1.0547943115234375,0.259124755859375
1769658447425864700,10.39686474609375,0.304718017578125,1.03179931640625,0.2912139892578125
1769658447435852800,10.406852783203124,0.3642425537109375,0.9942779541015625,0.24798583984375
1769658447445841000,10.4168408203125,0.4120330810546875,0.963470458984375,0.1693878173828125
1769658447455829000,10.4268291015625,0.4363250732421875,0.8888702392578125,0.115142822265625
1769658447465816800,10.43681689453125,0.4370574951171875,0.81829833984375,0.0400390625
1769658447475805000,10.446804931640624,0.4406890869140625,0.79388427734375,-0.0418853759765625
1769658447485792800,10.456792724609375,0.439208984375,0.8003692626953125,-0.092315673828125
1769658447495780600,10.466780517578124,0.413665771484375,0.8123016357421875,-0.099517822265625
1769658447505768700,10.476768798828125,0.387603759765625,0.866455078125,-0.0898895263671875
1769658447515755800,10.486755859375,0.3484344482421875,0.916656494140625,-0.08184814453125
1769658447525743600,10.49674365234375,0.3186798095703125,0.98065185546875,-0.05523681640625
1769658447535731700,10.506731689453124,0.2320709228515625,1.037261962890625,0.0133514404296875
1769658447545719800,10.5167197265625,0.15191650390625,1.0943603515625,0.07623291015625
1769658447555707600,10.526707763671874,0.10980224609375,1.1294708251953125,0.141693115234375
1769658447565695700,10.53669580078125,0.1011962890625,1.12939453125,0.20452880859375
1769658447575683800,10.546683837890624,0.100738525390625,1.10198974609375,0.2596893310546875
1769658447585672000,10.556671875,0.112945556640625,1.045684814453125,0.3052215576171875
1769658447595659800,10.56665966796875,0.1422271728515625,0.97412109375,0.3131103515625
1769658447605648000,10.57664794921875,0.207916259765625,0.9139862060546875,0.30059814453125
1769658447615636000,10.586635986328124,0.268280029296875,0.8842315673828125,0.272918701171875
1769658447625622800,10.596622802734375,0.2990570068359375,0.869110107421875,0.2374267578125
1769658447635611000,10.60661083984375,0.3038330078125,0.84942626953125,0.2078399658203125
1769658447645599000,10.616598876953125,0.3162384033203125,0.8764495849609375,0.160552978515625
1769658447655586800,10.6265869140625,0.267303466796875,0.8782501220703125,0.148529052734375
1769658447665575000,10.636574951171875,0.2241668701171875,0.862884521484375,0.1346588134765625
1769658447675562800,10.646562744140626,0.1865081787109375,0.8524017333984375,0.114288330078125
1769658447685550600,10.656550537109375,0.1465606689453125,0.8474273681640625,0.0931549072265625
1769658447695538700,10.66653857421875,0.108245849609375,0.8434906005859375,0.0807952880859375
1769658447705526800,10.67652685546875,0.088287353515625,0.8394622802734375,0.0780181884765625
1769658447715515000,10.686514892578124,0.07293701171875,0.8353424072265625,0.0699462890625
1769658447725502700,10.696502685546875,0.090362548828125,0.836883544921875,0.07470703125
1769658447735489800,10.70648974609375,0.1182098388671875,0.8199920654296875,0.1025543212890625
1769658447745478000,10.716477783203125,0.1459503173828125,0.7991790771484375,0.133880615234375
1769658447755465700,10.7264658203125,0.178985595703125,0.812103271484375,0.16290283203125
1769658447765454000,10.7364541015625,0.176483154296875,0.864959716796875,0.185821533203125
1769658447775442200,10.746442138671876,0.2048492431640625,0.932861328125,0.186859130859375
1769658447785430300,10.75643017578125,0.2019805908203125,0.915496826171875,0.196990966796875
1769658447795418000,10.766418212890626,0.18817138671875,0.8851165771484375,0.2030181884765625
1769658447805406200,10.77640625,0.176239013671875,0.8883056640625,0.214447021484375
1769658447815394000,10.78639404296875,0.158843994140625,0.8900604248046875,0.2236328125
1769658447825382000,10.7963818359375,0.1537628173828125,0.8855438232421875,0.2336273193359375
1769658447835370000,10.806369873046876,0.1356658935546875,0.86944580078125,0.23565673828125
1769658447845357000,10.816357177734375,0.1111297607421875,0.864471435546875,0.2361907958984375
1769658447855345000,10.826344970703126,0.10296630859375,0.8578338623046875,0.2389678955078125
1769658447865333000,10.8363330078125,0.09442138671875,0.847625732421875,0.241790771484375
1769658447875321000,10.846321044921876,0.0787506103515625,0.84783935546875,0.2467041015625
1769658447885309000,10.856308837890625,0.0745086669921875,0.855194091796875,0.24957275390625
1769658447895297000,10.866297119140626,0.086761474609375,0.8633575439453125,0.2468109130859375
1769658447905285000,10.87628515625,0.10040283203125,0.8739166259765625,0.2513275146484375
1769658447915273200,10.886273193359376,0.1129913330078125,0.8923492431640625,0.2654266357421875
1769658447925261000,10.896260986328125,0.1198883056640625,0.9209747314453125,0.28948974609375
1769658447935249200,10.906249267578126,0.1147918701171875,0.960693359375,0.3216094970703125
1769658447945237200,10.9162373046875,0.0919342041015625,0.9892425537109375,0.352874755859375
1769658447955224000,10.92622412109375,0.067413330078125,1.00750732421875,0.377838134765625
1769658447965212200,10.936212158203125,0.054718017578125,1.01995849609375,0.387542724609375
1769658447975200300,10.9462001953125,0.0476531982421875,1.02593994140625,0.393890380859375
1769658447985188000,10.95618798828125,0.0477142333984375,1.0396728515625,0.4136199951171875
1769658447995176200,10.96617626953125,0.0601348876953125,1.0669403076171875,0.434234619140625
1769658448005164000,10.9761640625,0.0890655517578125,1.113189697265625,0.4445648193359375
1769658448015152000,10.986152099609376,0.1237945556640625,1.1779327392578125,0.459442138671875
1769658448025140000,10.996139892578125,0.1494903564453125,1.22698974609375,0.4807281494140625
1769658448035128000,11.006128173828126,0.1646270751953125,1.2639007568359375,0.5205230712890625
1769658448045116200,11.0161162109375,0.191619873046875,1.2805938720703125,0.5027618408203125
1769658448055104000,11.02610400390625,0.229522705078125,1.2493438720703125,0.4604034423828125
1769658448065091000,11.036091064453124,0.357147216796875,1.269195556640625,0.3432769775390625
1769658448075079200,11.0460791015625,0.4669189453125,1.2456207275390625,0.25360107421875
1769658448085067000,11.05606689453125,0.5164031982421875,1.1009979248046875,0.1663055419921875
1769658448095055000,11.06605517578125,0.5396270751953125,0.9928741455078125,0.098724365234375
1769658448105043200,11.076043212890625,0.5098419189453125,0.9595947265625,0.0915679931640625
1769658448115031000,11.086031005859375,0.3773040771484375,0.9129486083984375,0.133392333984375
1769658448125019100,11.09601904296875,0.22930908203125,0.8864288330078125,0.1619720458984375
1769658448135007200,11.10600732421875,0.17718505859375,0.914520263671875,0.220733642578125
1769658448144995300,11.115995361328125,0.1911773681640625,0.887176513671875,0.2716827392578125
1769658448154983200,11.125983154296875,0.2364959716796875,0.8176422119140625,0.2801971435546875
1769658448164971000,11.135970947265625,0.29132080078125,0.77178955078125,0.298553466796875
1769658448174958000,11.1459580078125,0.364410400390625,0.7701416015625,0.314422607421875
1769658448184946200,11.1559462890625,0.4503173828125,0.7922515869140625,0.3290863037109375
1769658448194934000,11.16593408203125,0.53118896484375,0.827789306640625,0.3349761962890625
1769658448204922000,11.175922119140624,0.58172607421875,0.8726654052734375,0.3292388916015625
1769658448214910000,11.185909912109375,0.5632781982421875,0.900360107421875,0.2940826416015625
1769658448224898000,11.19589794921875,0.495758056640625,0.9437408447265625,0.284820556640625
1769658448234886100,11.20588623046875,0.4328460693359375,0.9817657470703125,0.26593017578125
1769658448244874000,11.2158740234375,0.374664306640625,0.994720458984375,0.237152099609375
1769658448254862000,11.225862060546875,0.31683349609375,1.001708984375,0.237213134765625
1769658448264850200,11.23585009765625,0.2682952880859375,0.980621337890625,0.2514495849609375
1769658448274838300,11.24583837890625,0.2245941162109375,0.9386749267578125,0.266815185546875
1769658448284825000,11.2558251953125,0.186981201171875,0.91119384765625,0.279876708984375
1769658448294813200,11.265813232421875,0.16802978515625,0.8876800537109375,0.3031768798828125
1769658448304801000,11.275801025390624,0.1728363037109375,0.862060546875,0.325531005859375
1769658448314789000,11.2857890625,0.1760406494140625,0.8333282470703125,0.340911865234375
1769658448324777200,11.295777099609374,0.1834716796875,0.802947998046875,0.3527679443359375
1769658448334765300,11.305765380859375,0.1982269287109375,0.7788543701171875,0.3684539794921875
1769658448344753200,11.315753173828124,0.21197509765625,0.76263427734375,0.377899169921875
1769658448354741000,11.325740966796875,0.2303619384765625,0.7452850341796875,0.371429443359375
1769658448364729000,11.33572900390625,0.2519073486328125,0.7351226806640625,0.3636016845703125
1769658448374717000,11.345717041015625,0.2580718994140625,0.7303466796875,0.355316162109375
1769658448384705000,11.355705078125,0.2576141357421875,0.7332000732421875,0.3409576416015625
1769658448394692000,11.365692138671875,0.2488861083984375,0.7425689697265625,0.333892822265625
1769658448404680000,11.375679931640626,0.2317657470703125,0.757843017578125,0.33203125
1769658448414668000,11.38566796875,0.2090911865234375,0.77899169921875,0.338958740234375
1769658448424656100,11.39565625,0.196563720703125,0.79449462890625,0.34820556640625
1769658448434644000,11.40564404296875,0.20172119140625,0.800445556640625,0.355194091796875
1769658448444632000,11.415632080078124,0.210784912109375,0.796844482421875,0.3599700927734375
1769658448454620200,11.4256201171875,0.22003173828125,0.7934112548828125,0.3709716796875
1769658448464608300,11.435608154296874,0.2246551513671875,0.787750244140625,0.377532958984375
1769658448474596000,11.44559619140625,0.2317657470703125,0.79046630859375,0.3805389404296875
1769658448484584200,11.455584228515624,0.2310791015625,0.8005523681640625,0.3781280517578125
1769658448494572300,11.465572265625,0.23016357421875,0.8188934326171875,0.381622314453125
1769658448504559000,11.47555908203125,0.230987548828125,0.8390045166015625,0.3907928466796875
1769658448514547200,11.485547119140625,0.2294921875,0.8548583984375,0.3997955322265625
1769658448524535300,11.495535400390626,0.2346649169921875,0.8715362548828125,0.4107666015625
1769658448534523100,11.505523193359375,0.245086669921875,0.886932373046875,0.421539306640625
1769658448544511000,11.515510986328126,0.2421417236328125,0.915313720703125,0.434967041015625
1769658448554499000,11.5254990234375,0.2299652099609375,0.9619293212890625,0.4503173828125
1769658448564487000,11.53548681640625,0.2214202880859375,0.9897308349609375,0.4575042724609375
1769658448574475000,11.54547509765625,0.2206573486328125,1.0019378662109375,0.458740234375
1769658448584463000,11.555463134765626,0.225921630859375,0.9986419677734375,0.4629974365234375
1769658448594451200,11.565451171875,0.21307373046875,0.980865478515625,0.4605865478515625
1769658448604439000,11.57543896484375,0.1925811767578125,0.9531402587890625,0.465087890625
1769658448614426000,11.585426025390625,0.1798553466796875,0.922027587890625,0.4811859130859375
1769658448624414200,11.595414306640626,0.1668548583984375,0.9055938720703125,0.496734619140625
1769658448634402000,11.605402099609375,0.1527252197265625,0.897979736328125,0.5202789306640625
1769658448644390100,11.61539013671875,0.1432342529296875,0.901397705078125,0.5296173095703125
1769658448654378200,11.625378173828125,0.13720703125,0.9176177978515625,0.540283203125
1769658448664366000,11.635365966796876,0.1534271240234375,0.9487152099609375,0.5423736572265625
1769658448674354200,11.645354248046875,0.18280029296875,0.985321044921875,0.5267333984375
1769658448684342300,11.65534228515625,0.2188568115234375,1.013397216796875,0.5124969482421875
1769658448694330000,11.665330078125,0.2525482177734375,1.0408782958984375,0.51202392578125
1769658448704318000,11.67531787109375,0.269683837890625,1.0618438720703125,0.51812744140625
1769658448714306000,11.68530615234375,0.2730255126953125,1.06927490234375,0.5038604736328125
1769658448724293000,11.695293212890626,0.2720947265625,1.057952880859375,0.456573486328125
1769658448734281000,11.705281005859375,0.26129150390625,1.013702392578125,0.388946533203125
1769658448744269000,11.71526904296875,0.2540435791015625,0.9448394775390625,0.350799560546875
1769658448754257200,11.725257080078125,0.2657012939453125,0.90087890625,0.3178863525390625
1769658448764245200,11.735245361328126,0.32745361328125,0.8971710205078125,0.225830078125
1769658448774233000,11.745233154296875,0.388763427734375,0.864715576171875,0.18121337890625
1769658448784221200,11.75522119140625,0.4483642578125,0.850616455078125,0.1262664794921875
1769658448794209300,11.765209228515625,0.4905242919921875,0.841583251953125,0.0844879150390625
1769658448804197000,11.775197021484376,0.516387939453125,0.8387298583984375,0.039093017578125
1769658448814185200,11.785185302734375,0.5495147705078125,0.8842315673828125,0.03997802734375
1769658448824173300,11.79517333984375,0.539642333984375,0.9227142333984375,0.004638671875
1769658448834160000,11.80516015625,0.4561004638671875,0.9773712158203125,-0.0545196533203125
1769658448844148200,11.815148193359375,0.2927398681640625,1.122039794921875,0.0681610107421875
1769658448854136300,11.82513623046875,0.0568389892578125,1.26116943359375,0.171112060546875
1769658448864124400,11.83512451171875,-0.1673431396484375,1.3506622314453125,0.2587738037109375
1769658448874112300,11.8451123046875,-0.270416259765625,1.3719024658203125,0.329986572265625
1769658448884100000,11.85510009765625,-0.1876678466796875,1.2680816650390625,0.36041259765625
1769658448894088200,11.865088134765625,-0.037353515625,1.060394287109375,0.3629302978515625
1769658448904076000,11.875075927734375,0.08660888671875,0.8967742919921875,0.3886871337890625
1769658448914064100,11.885064208984375,0.208892822265625,0.845367431640625,0.3575897216796875
1769658448924052200,11.89505224609375,0.2958526611328125,0.8377685546875,0.3325958251953125
1769658448934040000,11.9050400390625,0.3189544677734375,0.8381195068359375,0.3368988037109375
1769658448944027100,11.915027099609375,0.3030853271484375,0.8334808349609375,0.33380126953125
1769658448954015200,11.92501513671875,0.3085174560546875,0.8509368896484375,0.322662353515625
1769658448964003000,11.935003173828125,0.303955078125,0.849029541015625,0.2859344482421875
1769658448973991200,11.9449912109375,0.3404998779296875,0.8309478759765625,0.2754058837890625
1769658448983979300,11.954979248046875,0.3923797607421875,0.82867431640625,0.237762451171875
1769658448993967400,11.96496728515625,0.39910888671875,0.817535400390625,0.2081298828125
1769658449003955200,11.974955078125,0.3619384765625,0.8140106201171875,0.202972412109375
1769658449013943300,11.984943359375,0.309967041015625,0.8196258544921875,0.185394287109375
1769658449023931400,11.994931396484375,0.2519378662109375,0.825958251953125,0.1881256103515625
1769658449033919000,12.0049189453125,0.2053680419921875,0.83270263671875,0.180328369140625
1769658449043907000,12.014906982421875,0.159820556640625,0.8434600830078125,0.1773529052734375
1769658449053894400,12.024894287109374,0.140625,0.8557586669921875,0.1643218994140625
1769658449063882200,12.03488232421875,0.1358642578125,0.8545684814453125,0.1551971435546875
1769658449073870000,12.0448701171875,0.1212158203125,0.8627166748046875,0.17340087890625
1769658449083858200,12.054858154296875,0.1282196044921875,0.8743743896484375,0.1653289794921875
1769658449093846000,12.064845947265624,0.1692657470703125,0.8699951171875,0.1953582763671875
1769658449103834000,12.074834228515625,0.1857147216796875,0.8609161376953125,0.220245361328125
1769658449113822200,12.084822265625,0.1931304931640625,0.863739013671875,0.240570068359375
1769658449123810300,12.094810302734375,0.2073974609375,0.862396240234375,0.237548828125
1769658449133798100,12.104798095703124,0.22039794921875,0.851959228515625,0.2514801025390625
1769658449143786200,12.1147861328125,0.2099761962890625,0.845550537109375,0.267822265625
1769658449153774300,12.1247744140625,0.19537353515625,0.8431243896484375,0.2726593017578125
1769658449163761200,12.13476123046875,0.1831512451171875,0.846282958984375,0.2685394287109375
1769658449173749200,12.144749267578124,0.17205810546875,0.8492431640625,0.263916015625
1769658449183737300,12.1547373046875,0.16009521484375,0.8533172607421875,0.2599639892578125
1769658449193725200,12.16472509765625,0.1504669189453125,0.8585205078125,0.2561798095703125
1769658449203713300,12.17471337890625,0.1476593017578125,0.8716583251953125,0.2501068115234375
1769658449213701400,12.184701416015624,0.13983154296875,0.88079833984375,0.246246337890625
1769658449223689000,12.19468896484375,0.1351470947265625,0.8799896240234375,0.2386474609375
1769658449233677000,12.204677001953126,0.1492919921875,0.88848876953125,0.2302093505859375
1769658449243665200,12.2146650390625,0.1578369140625,0.9004974365234375,0.22430419921875
1769658449253653200,12.2246533203125,0.1602935791015625,0.915557861328125,0.22027587890625
1769658449263641000,12.23464111328125,0.153656005859375,0.929595947265625,0.2191619873046875
1769658449273628200,12.244628173828126,0.14849853515625,0.943603515625,0.2164764404296875
1769658449283616000,12.254615966796875,0.14764404296875,0.953216552734375,0.220703125
1769658449293604000,12.26460400390625,0.139190673828125,0.9550323486328125,0.230743408203125
1769658449303592200,12.27459228515625,0.1290740966796875,0.953369140625,0.2360382080078125
1769658449313580300,12.284580322265626,0.1203155517578125,0.948577880859375,0.2382049560546875
1769658449323568000,12.294568115234375,0.114715576171875,0.94403076171875,0.2406768798828125
1769658449333556200,12.30455615234375,0.1063995361328125,0.9484100341796875,0.2537384033203125
1769658449343544300,12.31454443359375,0.0942840576171875,0.9635772705078125,0.2659454345703125
1769658449353532200,12.3245322265625,0.071746826171875,0.9822235107421875,0.27874755859375
1769658449363520300,12.334520263671875,0.0538482666015625,0.99676513671875,0.29345703125
1769658449373508000,12.344508056640626,0.04736328125,1.0123291015625,0.29949951171875
1769658449383495200,12.3544951171875,0.0485992431640625,1.0182342529296875,0.2985382080078125
1769658449393483300,12.364483154296876,0.0643310546875,1.018768310546875,0.296539306640625
1769658449403471000,12.37447119140625,0.08587646484375,1.0238189697265625,0.2950286865234375
1769658449413459000,12.384458984375,0.1086578369140625,1.0414886474609375,0.2870635986328125
1769658449423447000,12.394447021484375,0.15777587890625,1.087066650390625,0.26861572265625
1769658449433435100,12.40443505859375,0.2418670654296875,1.1304473876953125,0.2738800048828125
1769658449443423200,12.41442333984375,0.32720947265625,1.15936279296875,0.2928466796875
1769658449453411000,12.4244111328125,0.396026611328125,1.1834716796875,0.2989654541015625
1769658449463399200,12.434399169921875,0.4122161865234375,1.19036865234375,0.29644775390625
1769658449473387300,12.44438720703125,0.339263916015625,1.1658172607421875,0.3029327392578125
1769658449483375000,12.454375,0.2589263916015625,1.1228790283203125,0.3179931640625
1769658449493362200,12.464362060546875,0.19293212890625,1.0514068603515625,0.314483642578125
1769658449503350300,12.474350341796875,0.1624908447265625,0.95025634765625,0.3164215087890625
1769658449513338000,12.484338134765625,0.1819000244140625,0.8602752685546875,0.3292236328125
1769658449523326200,12.494326171875,0.245574951171875,0.8157196044921875,0.331787109375
1769658449533314300,12.504314208984376,0.302154541015625,0.813232421875,0.3549957275390625
1769658449543302400,12.514302490234375,0.3590545654296875,0.8284149169921875,0.379669189453125
1769658449553290200,12.524290283203126,0.4401092529296875,0.831390380859375,0.396820068359375
1769658449563278000,12.534278076171875,0.5308990478515625,0.8117828369140625,0.3876495361328125
1769658449573266200,12.54426611328125,0.6241455078125,0.7998504638671875,0.353424072265625
1769658449583254000,12.55425390625,0.6862335205078125,0.7873687744140625,0.3263092041015625
1769658449593242000,12.5642421875,0.723388671875,0.7878570556640625,0.278564453125
1769658449603229200,12.574229248046874,0.72943115234375,0.8218841552734375,0.249114990234375
1769658449613217000,12.584217041015625,0.68548583984375,0.8494720458984375,0.2790679931640625
1769658449623205000,12.594205078125,0.614410400390625,0.89251708984375,0.2904815673828125
1769658449633193200,12.604193115234375,0.5399169921875,0.9293365478515625,0.2917633056640625
1769658449643181000,12.61418115234375,0.4466552734375,0.9618988037109375,0.3120269775390625
1769658449653169200,12.624169189453125,0.3545989990234375,0.9976043701171875,0.3218994140625
1769658449663157200,12.6341572265625,0.314788818359375,1.00665283203125,0.3169708251953125
1769658449673145300,12.644145263671875,0.3191375732421875,0.980010986328125,0.28912353515625
1769658449683133200,12.65413330078125,0.3116607666015625,0.948760986328125,0.287109375
1769658449693121300,12.664121337890625,0.3017578125,0.900054931640625,0.291473388671875
1769658449703109400,12.674109375,0.2992401123046875,0.856109619140625,0.2942047119140625
1769658449713096200,12.68409619140625,0.277130126953125,0.8180084228515625,0.306610107421875
1769658449723084300,12.694084228515624,0.2614898681640625,0.7886810302734375,0.3005828857421875
1769658449733072400,12.704072265625,0.263397216796875,0.7659759521484375,0.3044586181640625
1769658449743060200,12.714060302734374,0.2697601318359375,0.7523651123046875,0.3157958984375
1769658449753048000,12.724048095703125,0.2834014892578125,0.7344970703125,0.3145294189453125
1769658449763036200,12.7340361328125,0.3040313720703125,0.7216949462890625,0.3128204345703125
1769658449773024000,12.74402392578125,0.318939208984375,0.7177734375,0.311798095703125
1769658449783012000,12.75401220703125,0.3243560791015625,0.7151947021484375,0.30792236328125
1769658449793000200,12.764000244140625,0.3299102783203125,0.7194061279296875,0.30426025390625
1769658449802988300,12.77398828125,0.3258819580078125,0.727081298828125,0.294342041015625
1769658449812976000,12.78397607421875,0.3122100830078125,0.7409515380859375,0.2842864990234375
1769658449822963200,12.793963134765624,0.298614501953125,0.7534637451171875,0.269744873046875
1769658449832951000,12.803950927734375,0.2826995849609375,0.7630615234375,0.2463836669921875
1769658449842939100,12.813939208984374,0.2765960693359375,0.7745361328125,0.2203521728515625
1769658449852927200,12.82392724609375,0.2704620361328125,0.784576416015625,0.198883056640625
1769658449862915300,12.833915283203124,0.269744873046875,0.791595458984375,0.1824188232421875
1769658449872903200,12.843903076171875,0.2774810791015625,0.7955322265625,0.17779541015625
1769658449882891300,12.853891357421874,0.287750244140625,0.7913360595703125,0.1815338134765625
1769658449892879400,12.86387939453125,0.297119140625,0.7979583740234375,0.189605712890625
1769658449902867200,12.8738671875,0.292877197265625,0.819366455078125,0.204925537109375
1769658449912855000,12.88385498046875,0.2779541015625,0.845916748046875,0.2163543701171875
1769658449922843100,12.893843017578124,0.2775726318359375,0.873687744140625,0.2272491455078125
1769658449932831200,12.903831298828125,0.2867279052734375,0.892608642578125,0.24371337890625
1769658449942818000,12.913818115234376,0.28204345703125,0.903411865234375,0.2602996826171875
1769658449952806100,12.92380615234375,0.2764892578125,0.9147491455078125,0.2735748291015625
1769658449962794000,12.9337939453125,0.28997802734375,0.93328857421875,0.286102294921875
1769658449972782000,12.943781982421875,0.2935333251953125,0.9596710205078125,0.3036651611328125
1769658449982770200,12.953770263671874,0.2958831787109375,0.9871063232421875,0.3169403076171875
1769658449992758300,12.96375830078125,0.2957305908203125,1.0234832763671875,0.3281707763671875
1769658450002746000,12.97374609375,0.2943267822265625,1.0594482421875,0.319244384765625
1769658450012734200,12.983734130859375,0.2923431396484375,1.097869873046875,0.29931640625
1769658450022722300,12.993722412109374,0.2894439697265625,1.1324920654296875,0.2823638916015625
1769658450032710100,13.003710205078125,0.2940216064453125,1.1654510498046875,0.2628326416015625
1769658450042698200,13.0136982421875,0.2953643798828125,1.193084716796875,0.251678466796875
1769658450052685300,13.023685302734375,0.304290771484375,1.202728271484375,0.24212646484375
1769658450062673200,13.033673095703126,0.3242340087890625,1.2037200927734375,0.236297607421875
1769658450072661200,13.0436611328125,0.3343505859375,1.198944091796875,0.229461669921875
1769658450082649300,13.0536494140625,0.3491973876953125,1.2021026611328125,0.2218170166015625
1769658450092637200,13.06363720703125,0.360382080078125,1.219085693359375,0.219482421875
1769658450102625000,13.073625,0.3780059814453125,1.2448883056640625,0.2203521728515625
1769658450112613000,13.083613037109375,0.3803253173828125,1.244171142578125,0.23309326171875
1769658450122601200,13.093601318359376,0.4129486083984375,1.2274322509765625,0.261474609375
1769658450132589000,13.103589111328125,0.4473419189453125,1.1780548095703125,0.1815185546875
1769658450142577200,13.1135771484375,0.4523468017578125,1.0894012451171875,0.1839447021484375
1769658450152565200,13.123565185546875,0.529541015625,1.002288818359375,0.22113037109375
1769658450162553000,13.133552978515626,0.5610198974609375,0.88177490234375,0.1644134521484375
1769658450172540200,13.1435400390625,0.5216064453125,0.789215087890625,0.0934295654296875
