time,seconds_elapsed,acc_z,acc_y,acc_x,gyro_z,gyro_y,gyro_x
1.76966E+18,0.069369141,0.144992554,-0.034659225,-0.029522155,-0.001378206,0.009638574,0.009299786
1.76966E+18,0.079357178,0.118722241,-0.046530865,-0.029883974,-0.001690861,-0.003604261,-0.002086293
1.76966E+18,0.089345215,0.043638212,-0.077651979,-0.02085881,-0.005912868,-0.000366307,-0.010742893
1.76966E+18,0.099333008,-0.020280279,-0.119769704,-0.006109277,-0.00654457,0.033167418,-0.03933965
1.76966E+18,0.109321045,-0.082653149,-0.121832482,0.013728812,-0.007477871,0.058388554,-0.029675743
1.76966E+18,0.119309326,-0.272088948,-0.010023381,-0.057577014,-0.010546898,0.092178211,-0.016275249
1.76966E+18,0.129297119,-0.044372226,0.039486792,-0.052410278,-0.00838126,0.087231241,-0.010967327
1.76966E+18,0.139285156,-0.002995967,0.02798457,-0.050930707,-0.009952525,0.05123809,0.005308582
1.76966E+18,0.149273193,-0.007919103,-0.018268063,0.001535393,-0.011395381,0.035145283,0.005995966
1.76966E+18,0.15926001,0.051120531,-0.042265609,0.057915452,-0.010698432,0.021655038,0.000410785
1.76966E+18,0.169248291,0.125112234,-0.098485509,0.040626756,-0.00597831,-0.002133946,-0.009788675
1.76966E+18,0.179236328,0.139938048,-0.106213473,0.013170739,-0.005559661,-0.019346222,-0.026963932
1.76966E+18,0.189224365,0.092914431,-0.109918172,-0.014999416,-0.006069402,-0.030748276,-0.04680939
1.76966E+18,0.199212158,0.006078735,-0.079893621,-0.037035453,-0.004930901,-0.017721957,-0.055716332
1.76966E+18,0.209199951,-0.089966394,-0.034525954,-0.046648646,-0.00766107,0.014515655,-0.051326726
1.76966E+18,0.219188232,-0.121818746,0.040449499,-0.039618601,-0.003563264,0.041365113,-0.027789174
1.76966E+18,0.229176025,-0.068901102,0.0731459,-0.077782766,-0.002362614,0.042161051,-0.00680267
1.76966E+18,0.239164063,0.03565715,0.024655718,-0.08359759,-0.002293638,0.029110495,0.006819931
1.76966E+18,0.2491521,0.083288086,-0.030695583,-0.060016954,-0.006901193,0.010328667,0.002218989
1.76966E+18,0.259140381,0.111524146,-0.084906481,-0.075653791,-0.010615238,0.003044655,-0.013688871
1.76966E+18,0.269127197,0.025416327,-0.098259299,-0.040324996,-0.010460345,0.007566385,-0.028140964
1.76966E+18,0.279115234,-0.041391164,-0.064664488,-0.008271569,-0.009997222,0.018298658,-0.0367001
1.76966E+18,0.289103027,-0.077807462,-0.0511217,-0.003665245,-0.008620748,0.035813432,-0.040040534
1.76966E+18,0.299091064,-0.083003862,-0.029395606,-0.030327772,-0.011800562,0.048976105,-0.040557988
1.76966E+18,0.309079346,-0.050558221,-0.042084992,-0.020091917,-0.011540589,0.057173852,-0.044011891
1.76966E+18,0.319067383,0.03745967,-0.018280338,-0.017958851,-0.013512926,0.05441615,-0.052740138
1.76966E+18,0.329055176,0.098729254,-0.015218612,-0.02815452,-0.017070876,0.047407124,-0.064766265
1.76966E+18,0.339043213,0.123989368,0.004828735,-0.032456162,-0.021229669,0.049148832,-0.065575331
1.76966E+18,0.34903125,0.107592944,0.028441666,-0.014784751,-0.023670962,0.056836061,-0.055467315
1.76966E+18,0.359019287,0.060164838,0.005469956,-0.010952917,-0.02838023,0.061209507,-0.042864174
1.76966E+18,0.369006348,0.090428605,-0.004005729,-0.012565613,-0.029963706,0.061958671,-0.035106819
1.76966E+18,0.378994385,0.102589437,-0.040499768,-0.035994566,-0.030590881,0.054188363,-0.04548569
1.76966E+18,0.388982178,0.114552846,-0.079221421,-0.038883273,-0.032553896,0.061897416,-0.062503822
1.76966E+18,0.398969971,0.058769877,-0.071757661,-0.037693917,-0.035062596,0.07966736,-0.069587298
1.76966E+18,0.408958252,0.009334376,-0.051136898,-0.031086043,-0.041371386,0.085621908,-0.070817403
1.76966E+18,0.418946045,0.009783727,-0.013885902,-0.01422434,-0.04783541,0.082952887,-0.071780667
1.76966E+18,0.428934082,0.011904519,-0.104352939,-0.093927115,-0.102006644,0.058487955,-0.070523672
1.76966E+18,0.438922119,-0.00961597,-0.46477089,-0.349000339,-0.136229068,0.026358515,-0.083336942
1.76966E+18,0.448910156,0.006791706,-0.109857967,0.079071929,-0.103324674,0.020430699,-0.117942221
1.76966E+18,0.458898193,-3.27332E-05,0.129441788,0.242452519,-0.074409932,0.067180097,-0.131935552
1.76966E+18,0.46888623,-0.052999184,0.036042789,0.16709625,-0.067866646,0.098543167,-0.126127183
1.76966E+18,0.478873291,-0.081838325,-0.025132688,0.10299568,-0.068099141,0.101469979,-0.107151628
1.76966E+18,0.488861084,-0.106690589,-0.024327801,0.103805973,-0.065165408,0.094771065,-0.095028497
1.76966E+18,0.498849121,-0.097619686,-0.044091071,0.135092653,-0.060469728,0.084739737,-0.092686512
1.76966E+18,0.508837402,-0.018241759,-0.105765729,0.104882662,-0.064022042,0.086254038,-0.092808291
1.76966E+18,0.518825195,-0.02943813,-0.147115976,0.084390202,-0.069170468,0.116596766,-0.082243793
1.76966E+18,0.528813232,-0.025964901,-0.0760311,0.098637192,-0.067916535,0.142926827,-0.06534487
1.76966E+18,0.53880127,0.019199937,0.004135492,0.095182229,-0.067338094,0.14787738,-0.044556767
1.76966E+18,0.548789063,0.130679221,0.040819502,0.123338357,-0.05795332,0.116158895,-0.034194056
1.76966E+18,0.5587771,0.224741652,0.027571898,0.219207545,-0.045819428,0.081723161,-0.038781349
1.76966E+18,0.568765137,0.179501558,-0.012628011,0.284606046,-0.032441214,0.085554421,-0.04687009
1.76966E+18,0.578753174,0.127148124,-0.064933952,0.254831524,-0.025655214,0.122602992,-0.054222815
1.76966E+18,0.58873999,0.099583825,-0.077232293,0.17876959,-0.028894784,0.154613331,-0.053783573
1.76966E+18,0.598728027,0.142399908,-0.045113399,0.125527537,-0.027618865,0.155707896,-0.052484222
1.76966E+18,0.608716309,0.152156309,0.01268354,0.133623165,-0.025843225,0.133069351,-0.049245447
1.76966E+18,0.618704102,0.187991592,0.007740239,0.125779174,-0.02834633,0.107089952,-0.05218957
1.76966E+18,0.628692139,0.148361154,-0.013929157,0.141954064,-0.031625811,0.10038434,-0.049969643
1.76966E+18,0.638680176,0.05321385,-0.021847675,0.121132371,-0.034839984,0.108652927,-0.047468401
1.76966E+18,0.648668213,0.04971081,-0.011187749,0.079024583,-0.037918717,0.106878817,-0.051134199
1.76966E+18,0.65865625,0.095816143,-0.02400456,0.028098259,-0.040508106,0.091831431,-0.064077169
1.76966E+18,0.668644287,0.102729138,-0.050260699,0.049744713,-0.039553944,0.082363181,-0.076818839
1.76966E+18,0.67863208,0.059074266,-0.063685413,0.058934273,-0.042401128,0.081610039,-0.083450377
1.76966E+18,0.688620117,-0.000768646,-0.059860887,0.064902826,-0.039910682,0.070634417,-0.087891825
1.76966E+18,0.698607178,-0.004807108,-0.050906011,0.064680708,-0.041452918,0.044905882,-0.096966811
1.76966E+18,0.708595215,-0.016327596,-0.023499534,0.059175681,-0.045127701,0.03337219,-0.11608208
1.76966E+18,0.718583252,-0.072979311,-0.068413026,0.089989483,-0.044090133,0.027979288,-0.128827706
1.76966E+18,0.728571045,-0.083132603,-0.075617259,0.08692425,-0.055895366,0.022365622,-0.147793934
1.76966E+18,0.738559082,-0.10640578,-0.248550982,-0.069083911,-0.117955007,0.01466882,-0.16038537
1.76966E+18,0.748547119,-0.188126617,-0.435879727,-0.171805304,-0.135737672,0.002412058,-0.189133912
1.76966E+18,0.758534912,-0.049310851,-0.02186521,0.128629595,-0.121006653,0.009519768,-0.234030291
1.76966E+18,0.768522949,-0.033377953,0.049141924,0.186939014,-0.105512284,0.016980529,-0.275399834
1.76966E+18,0.778510742,-0.094252986,-0.024634675,0.15060528,-0.089802563,0.028295767,-0.306355596
1.76966E+18,0.788498779,-0.130157973,-0.094330143,0.075132398,-0.081414841,0.044854686,-0.327605277
1.76966E+18,0.798487061,-0.097315296,-0.106824298,0.025290509,-0.070213586,0.065703243,-0.342471033
1.76966E+18,0.808473877,-0.044208413,-0.098346977,0.090229722,-0.054685224,0.103450358,-0.346638083
1.76966E+18,0.818461914,-0.032516368,-0.076304072,0.140346482,-0.024561679,0.156684011,-0.343546689
1.76966E+18,0.828449951,0.06446765,-0.032665421,0.17303733,0.010665887,0.189381406,-0.347872436
1.76966E+18,0.838437988,0.196425805,0.029104514,0.150266988,0.071366258,0.236475691,-0.342349291
1.76966E+18,0.848426025,0.152817987,-0.056346157,0.105864951,0.17195268,0.338978976,-0.309898525
1.76966E+18,0.858414063,0.250795108,-0.218754979,-0.057701955,0.256509632,0.337269247,-0.278993875
1.76966E+18,0.8684021,0.404645653,-0.311516265,-0.110630266,0.336622775,0.244533792,-0.24894172
1.76966E+18,0.878389893,0.463084398,-0.283719326,-0.086305534,0.420819402,0.168363392,-0.231098264
1.76966E+18,0.88837793,0.477512737,-0.222692903,-0.095173169,0.500503182,0.100023411,-0.224238932
1.76966E+18,0.898366211,0.400582861,-0.244752175,-0.102271749,0.55708468,0.080974355,-0.218265727
1.76966E+18,0.908353027,0.224029705,-0.103978845,-0.035545653,0.57618928,0.11451482,-0.207167521
1.76966E+18,0.918341064,0.068546371,0.03030746,-0.12069471,0.554524779,0.167263523,-0.212418482
1.76966E+18,0.928329102,0.066386562,0.213328278,-0.152034728,0.515044272,0.198890716,-0.225023389
1.76966E+18,0.938316895,-0.019802433,0.132698744,-0.048424424,0.461939484,0.201168507,-0.229219198
1.76966E+18,0.948304932,-0.016072452,0.169905316,-0.003501432,0.41215241,0.202301905,-0.250554234
1.76966E+18,0.958292969,0.089786727,0.186652452,-0.029659664,0.366710901,0.17424497,-0.269233912
1.76966E+18,0.968281006,0.104787897,-0.024663901,-0.0455401,0.331263244,0.16158542,-0.286018848
1.76966E+18,0.978268799,0.134246485,-0.127625094,-0.033399435,0.303795129,0.182554349,-0.300190061
1.76966E+18,0.98825708,0.080046839,-0.18756606,0.096617815,0.280743271,0.280236244,-0.309601128
1.76966E+18,0.998245117,0.037863648,-0.059725278,0.032022009,0.245824426,0.368797272,-0.305442601
1.76966E+18,1.00823291,0.019287469,0.074972531,0.071254095,0.210305527,0.398072988,-0.291430533
1.76966E+18,1.018219971,0.064795494,0.130704355,0.107972153,0.182950869,0.355257362,-0.274597764
1.76966E+18,1.028208008,0.074553429,0.095025724,0.134551386,0.16932945,0.312411398,-0.235934749
1.76966E+18,1.038195801,0.028339302,0.049101008,0.259530934,0.184617862,0.268404275,-0.182740226
1.76966E+18,1.048184082,0.087996263,-0.003931494,0.280534997,0.2068097,0.246200696,-0.1545178
1.76966E+18,1.058172119,0.106525753,-0.018591888,0.177501908,0.208933845,0.235072404,-0.128714159
1.76966E+18,1.068159912,0.05377784,-0.081301734,0.115615361,0.200021654,0.236316413,-0.104414448
1.76966E+18,1.078147949,0.151419226,-0.113319505,0.186627172,0.179052994,0.234136343,-0.093738101
1.76966E+18,1.08813623,0.22823249,-0.158289112,0.225116185,0.158620849,0.195561349,-0.100566976
1.76966E+18,1.098124023,0.326093802,-0.240122177,0.232034147,0.146680027,0.148732051,-0.106525801
1.76966E+18,1.108111816,0.152746603,-0.292601721,0.418052686,0.155372649,0.197289497,-0.084856518
1.76966E+18,1.118099854,0.098311906,-0.186224582,0.373038363,0.150130212,0.222943187,-0.055793971
1.76966E+18,1.128086914,0.114502614,-0.13654899,0.27327582,0.14326717,0.206411973,-0.024736833
1.76966E+18,1.138074707,0.14584413,-0.106366033,0.403949342,0.139843136,0.156648144,-3.54827E-05
1.76966E+18,1.148062988,0.221747183,-0.174954416,0.387433091,0.133267924,0.097162113,0.016233863
1.76966E+18,1.158051025,0.297379019,-0.197785256,0.385006741,0.133233562,0.063041426,0.01272142
1.76966E+18,1.168038818,0.294791998,-0.227948924,0.405420876,0.135743544,0.062782407,-0.001502423
1.76966E+18,1.178026855,0.251552575,-0.229057177,0.410086822,0.142265618,0.072218783,-0.023908395
1.76966E+18,1.188015137,0.227232921,-0.218327694,0.365322236,0.144573241,0.070492789,-0.045495979
1.76966E+18,1.19800293,0.206533247,-0.293272752,0.267095378,0.152066857,0.067818709,-0.064454757
1.76966E+18,1.207990967,0.137182611,-0.370171868,0.252487884,0.157380715,0.091411553,-0.08651489
1.76966E+18,1.217979004,0.103372039,-0.402073903,0.231026578,0.165378451,0.13545917,-0.115542814
1.76966E+18,1.22796582,0.18117782,-0.402613417,0.203567931,0.167840257,0.180934489,-0.166928217
1.76966E+18,1.237954102,0.251876839,-0.355541285,0.155398944,0.175490707,0.209837511,-0.215135694
1.76966E+18,1.247942139,0.270759307,-0.251488789,0.145706986,0.186772034,0.201300308,-0.247868881
1.76966E+18,1.257930176,0.280138545,-0.109279874,0.09751228,0.18588841,0.165568143,-0.273263156
1.76966E+18,1.267917969,0.203371532,0.000233809,-0.038676352,0.165831432,0.114200734,-0.272219241
1.76966E+18,1.277906006,0.039734044,-0.008758476,-0.095837917,0.143597767,0.098745346,-0.249296591
1.76966E+18,1.287894043,-0.118230695,-0.0037047,-0.109030284,0.122000128,0.086341709,-0.213371813
1.76966E+18,1.297881836,-0.105911311,0.053176294,-0.16788287,0.099136353,0.062502958,-0.182591259
1.76966E+18,1.307869873,-0.070280026,0.014647534,-0.231778127,0.070299536,0.022929797,-0.16099979
1.76966E+18,1.31785791,-0.024152444,0.018459201,-0.304594357,0.046940692,-0.000258879,-0.150971919
1.76966E+18,1.327845703,-0.036684594,0.067581836,-0.32058746,0.019519236,-0.018601647,-0.146165237
1.76966E+18,1.337833008,-0.128188573,0.039931613,-0.396892409,-0.008839436,-0.038795862,-0.132378846
1.76966E+18,1.347821045,-0.248556864,0.029191023,-0.415533981,-0.02756116,-0.041446626,-0.111558884
1.76966E+18,1.357808838,-0.424557538,-0.061332713,-0.352327291,-0.036841214,-0.044779304,-0.087094024
1.76966E+18,1.367796875,-0.558643352,-0.038381461,-0.262266789,-0.041419711,-0.04009999,-0.066572845
1.76966E+18,1.377784912,-0.688266342,0.010020459,-0.227805716,-0.04603976,-0.010103474,-0.045505911
1.76966E+18,1.387773193,-0.783811705,0.114316115,-0.08042992,-0.029942688,0.03108903,-0.036390003
1.76966E+18,1.397760986,-0.84426179,0.250592717,0.012892799,0.00629095,0.018574037,-0.031509761
1.76966E+18,1.407749023,-0.921572993,0.319779066,-0.11861615,0.020091372,-0.02522089,-0.03520029
1.76966E+18,1.417737061,-1.068542255,0.354101023,-0.02451251,0.023682112,-0.054108996,-0.041692011
1.76966E+18,1.427725098,-1.173648643,0.462819756,0.189950033,0.020308986,-0.083454221,-0.050219811
1.76966E+18,1.437712891,-1.284786128,0.450420878,0.236951438,0.007882144,-0.091690049,-0.070420422
1.76966E+18,1.447700195,-1.232052901,0.45363341,0.309093129,-0.008604199,-0.076335736,-0.108662099
1.76966E+18,1.457687988,-1.142859537,0.390034506,0.358567939,-0.024756538,-0.066454075,-0.148584753
1.76966E+18,1.467676025,-1.08590197,0.247115397,0.28887101,-0.042689633,-0.057560794,-0.185008809
1.76966E+18,1.477663818,-0.979326094,0.164494397,0.197905083,-0.05563366,-0.036906913,-0.221176937
1.76966E+18,1.487651855,-0.842578952,0.047221185,0.115573422,-0.06978415,-0.029843586,-0.257807165
1.76966E+18,1.497639893,-0.693290892,-0.125534844,-0.096148882,-0.090276375,-0.023584358,-0.288757354
1.76966E+18,1.50762793,-0.590159019,-0.286684606,-0.303962489,-0.106196284,-0.041882839,-0.307613343
1.76966E+18,1.517615967,-0.549897151,-0.452996866,-0.43881958,-0.113614529,-0.059419222,-0.309150279
1.76966E+18,1.527604004,-0.53625441,-0.530492193,-0.531139844,-0.111008152,-0.076549776,-0.296381563
1.76966E+18,1.537592041,-0.510271243,-0.458057656,-0.562592966,-0.097231619,-0.060885325,-0.277407885
1.76966E+18,1.547578857,-0.551791002,-0.341042804,-0.594968757,-0.081600562,-0.024008853,-0.245536402
1.76966E+18,1.557566895,-0.57112231,-0.30968262,-0.578119329,-0.055170827,0.000630181,-0.199751064
1.76966E+18,1.567554932,-0.682684158,-0.362944254,-0.576720861,-0.042156599,0.002672381,-0.152482733
1.76966E+18,1.577543213,-0.644296267,-0.225068985,-0.609039076,-0.027397094,0.004168545,-0.13491413
1.76966E+18,1.587531006,-0.562844311,0.03655483,-0.45030485,-0.015514058,0.002717385,-0.124163635
1.76966E+18,1.597519043,-0.691706838,0.089680271,-0.338718745,-0.009206094,-0.013513783,-0.107800633
1.76966E+18,1.60750708,-0.777584794,0.068555065,-0.247051099,-0.000884145,-0.034405965,-0.087551646
1.76966E+18,1.617494873,-0.822202519,0.034146015,-0.097901571,0.00997676,-0.043618105,-0.072027281
1.76966E+18,1.62748291,-0.85644498,0.032488896,0.012408523,0.013910469,-0.043607872,-0.059477411
1.76966E+18,1.637470947,-0.901156228,0.028289106,0.147265614,0.021171579,-0.038565442,-0.045940563
1.76966E+18,1.647458984,-0.934202758,0.004549918,0.243723708,0.030033635,-0.035517786,-0.038504016
1.76966E+18,1.657445801,-0.92888244,-0.046043958,0.285580444,0.041999217,-0.036814746,-0.031480193
1.76966E+18,1.667433838,-0.945531961,-0.134780811,0.278941737,0.049956527,-0.047124624,-0.022169266
1.76966E+18,1.677422119,-0.968723452,-0.312492416,0.284776142,0.04768059,-0.060550421,-0.021156732
1.76966E+18,1.687409912,-0.905599764,-0.426403458,0.326905557,0.039096255,-0.085887551,-0.046409097
1.76966E+18,1.697397949,-0.783463915,-0.439580335,0.337554669,0.032072965,-0.117794886,-0.0898109
1.76966E+18,1.707385986,-0.691481212,-0.414128498,0.324165611,0.033010166,-0.128986925,-0.137877852
1.76966E+18,1.717373779,-0.734642309,-0.320474063,0.297602598,0.036909565,-0.132451966,-0.159283802
1.76966E+18,1.727362305,-0.867117181,-0.227983995,0.299760945,0.04153581,-0.126085117,-0.160545245
1.76966E+18,1.737350342,-0.949955623,-0.155474055,0.315915961,0.050431833,-0.12859489,-0.150719777
1.76966E+18,1.747338135,-0.975881507,-0.161411044,0.298727218,0.056544624,-0.138409942,-0.14776811
1.76966E+18,1.757325195,-0.966540847,-0.238974176,0.268365398,0.058724955,-0.155440852,-0.155914456
1.76966E+18,1.767313232,-0.945717839,-0.288726341,0.207381644,0.061313171,-0.178634524,-0.174099967
1.76966E+18,1.77730127,-0.964212112,-0.259437703,0.136150346,0.068267487,-0.191762567,-0.188281029
1.76966E+18,1.787289307,-1.034057801,-0.223221895,0.128213707,0.074375145,-0.198170289,-0.188811436
1.76966E+18,1.797277344,-1.101160914,-0.196875156,0.033081309,0.07750196,-0.187172756,-0.180579066
1.76966E+18,1.807264893,-1.203675532,-0.171927177,0.090818043,0.084728852,-0.174237713,-0.161991358
1.76966E+18,1.817253174,-1.233488487,-0.194499659,0.04952654,0.084944032,-0.167261571,-0.147135451
1.76966E+18,1.827241211,-1.199227321,-0.236989139,0.00796791,0.085406177,-0.172378123,-0.136734352
1.76966E+18,1.837229248,-1.174917055,-0.276869314,0.021676994,0.087882116,-0.183143154,-0.133951887
1.76966E+18,1.847217041,-1.164374619,-0.30440731,0.043964814,0.092503689,-0.199063838,-0.136084214
1.76966E+18,1.857205078,-1.167733281,-0.314451734,0.080617259,0.099922985,-0.213669151,-0.13846615
1.76966E+18,1.867191895,-1.185867488,-0.265542449,0.136207629,0.103947401,-0.225929886,-0.140613616
1.76966E+18,1.877180176,-1.159719486,-0.154768537,0.162259769,0.106039308,-0.249122307,-0.146483228
1.76966E+18,1.887168213,-1.253466276,-0.174188108,0.192723297,0.109359659,-0.259484142,-0.138811648
1.76966E+18,1.89715625,-1.320134505,-0.194092832,0.184954124,0.10977751,-0.296890378,-0.130541995
1.76966E+18,1.907144043,-1.375112295,-0.078967738,0.121405196,0.116008177,-0.318333119,-0.12552309
1.76966E+18,1.917132324,-1.493310805,0.02860767,0.099116208,0.118989319,-0.320275873,-0.107392028
1.76966E+18,1.927120361,-1.578807653,0.069168229,0.054646367,0.120899916,-0.328748077,-0.091372825
1.76966E+18,1.937108154,-1.496207695,0.21176702,0.058248483,0.128527209,-0.330219477,-0.079148382
1.76966E+18,1.947096191,-1.368958449,0.446789828,0.073577862,0.139169157,-0.320941031,-0.076015003
1.76966E+18,1.957083984,-1.192163958,0.687322923,0.121034317,0.146820694,-0.293918729,-0.087804288
1.76966E+18,1.967071289,-1.028006831,0.797664874,0.166582893,0.154850602,-0.23632656,-0.105426788
1.76966E+18,1.977059326,-0.881577083,0.751209412,0.104026776,0.141195253,-0.165373281,-0.145956904
1.76966E+18,1.987047363,-0.547156912,0.73747724,-0.138910166,0.123101719,-0.113983348,-0.211821392
1.76966E+18,1.997034912,-0.243887101,0.678633421,-0.42617754,0.082870677,-0.056085695,-0.290866137
1.76966E+18,2.007022949,0.013321254,0.48699792,-0.60660688,0.044037685,0.001425751,-0.365346968
1.76966E+18,2.01701123,0.071531414,0.291457812,-0.655935559,0.036924116,0.044693861,-0.41288358
1.76966E+18,2.026999268,0.221849401,0.35827977,-0.499388322,0.04913098,0.102585398,-0.465474635
1.76966E+18,2.036987061,0.33797874,0.420541872,-0.542218871,0.053870343,0.182602987,-0.49799633
1.76966E+18,2.046975098,0.218530523,0.364022697,-0.601533523,0.05415697,0.282032549,-0.4920367
1.76966E+18,2.056963379,-0.012426862,0.275192906,-0.520157846,0.053082388,0.378268808,-0.458655298
1.76966E+18,2.066951172,-0.104739345,0.199784906,-0.368204659,0.074858971,0.430059522,-0.403978944
1.76966E+18,2.076938232,-0.210597465,0.151720255,-0.116663263,0.105491184,0.385318696,-0.31983611
1.76966E+18,2.08692627,-0.307559125,0.042221185,0.070072484,0.127182424,0.285753518,-0.225468904
1.76966E+18,2.096914063,-0.380098218,-0.033105566,0.112663379,0.125877216,0.173393697,-0.143900812
1.76966E+18,2.1069021,-0.338227746,0.077079733,0.134966397,0.113688767,0.071221799,-0.086185887
1.76966E+18,2.116890381,-0.201820284,0.294856807,0.179901517,0.084220625,-0.020852741,-0.060916752
1.76966E+18,2.126878174,0.013158757,0.56737494,0.21957857,0.03075031,-0.111581527,-0.066071391
1.76966E+18,2.136866211,0.18887064,0.702148152,0.154194536,-0.02940597,-0.18498677,-0.091969833
1.76966E+18,2.146854004,0.260686241,0.713252314,0.129081722,-0.061684426,-0.241755038,-0.129134253
1.76966E+18,2.156842285,0.334835254,0.69298168,0.057125032,-0.068799861,-0.247078702,-0.163524985
1.76966E+18,2.166830078,0.275828939,0.538802341,-0.030971185,-0.053624433,-0.20088993,-0.172533482
1.76966E+18,2.176817383,0.134939289,0.328119609,-0.105935532,-0.021175411,-0.142051116,-0.154972866
1.76966E+18,2.186805176,0.059342927,0.197034146,-0.199304136,0.018300517,-0.082186632,-0.12656185
1.76966E+18,2.196792969,0.030335444,0.102944826,-0.256611832,0.056995183,0.005969862,-0.105645373
1.76966E+18,2.206781006,0.108082774,0.081843586,-0.311876038,0.084017195,0.10791564,-0.102981284
1.76966E+18,2.216769287,0.285989025,0.099134328,-0.285405088,0.100896314,0.150284141,-0.110037863
1.76966E+18,2.22675708,0.413283791,-0.000508534,-0.316768194,0.103774235,0.158423617,-0.12841922
1.76966E+18,2.236745117,0.561139772,0.018642741,-0.240291688,0.095893681,0.152848825,-0.154671863
1.76966E+18,2.246733154,0.584489156,-0.131516256,-0.149093706,0.084864043,0.111154966,-0.174832597
1.76966E+18,2.256721191,0.552694673,-0.268346401,-0.099834001,0.076839134,0.08380457,-0.192623585
1.76966E+18,2.266709229,0.537812819,-0.341179582,2.83493E-05,0.057874672,0.052788541,-0.201499701
1.76966E+18,2.276696289,0.586255655,-0.524545852,0.077818568,0.044217981,0.024348643,-0.212457538
1.76966E+18,2.286684082,0.666919602,-0.679572163,0.149835172,0.03857442,0.000394682,-0.233735293
1.76966E+18,2.296672119,0.802481919,-0.792190827,0.104542324,0.040717199,-0.007668571,-0.263116628
1.76966E+18,2.3066604,0.926483781,-0.877029503,0.08042086,0.035072625,0.013155345,-0.290084779
1.76966E+18,2.316648438,1.013607865,-0.893393778,0.098702366,0.023690538,0.048974331,-0.31507057
1.76966E+18,2.32663623,1.20795321,-0.814548789,0.06246347,0.022347858,0.06131028,-0.344127864
1.76966E+18,2.336624023,1.400924928,-0.633819881,0.073804072,0.029473411,0.068705611,-0.377730042
1.76966E+18,2.346612061,1.487927358,-0.401753585,0.063198507,0.031507716,0.077446185,-0.401409715
1.76966E+18,2.356600098,1.502532222,-0.160488668,0.068259589,0.029476788,0.088237844,-0.41337502
1.76966E+18,2.366588135,1.465532133,0.090043259,0.064285425,0.034664765,0.095791571,-0.402973682
1.76966E+18,2.376576172,1.241270665,0.190092948,0.216837163,0.063682027,0.109296463,-0.35227108
1.76966E+18,2.386562988,0.934291605,0.086132223,0.158815182,0.029770078,0.142540008,-0.282609105
1.76966E+18,2.396551025,0.933998321,0.235372936,-0.028713469,0.011837951,0.16909945,-0.246268123
1.76966E+18,2.406539307,0.957465706,0.661633771,0.353154974,0.008868826,0.144281328,-0.215155572
1.76966E+18,2.4165271,0.673258304,0.621228111,0.361617097,-0.003674663,0.093732141,-0.171187848
1.76966E+18,2.426515137,0.340227834,0.330471725,0.293257847,-0.022902051,0.067932293,-0.127799988
1.76966E+18,2.436503174,0.072494451,0.067592942,0.335892289,-0.041666947,0.060618721,-0.103455767
1.76966E+18,2.446491211,-0.055160454,-0.164853878,0.377517262,-0.054866802,0.050015662,-0.096953429
1.76966E+18,2.456479248,-0.115942547,-0.414311453,0.339819692,-0.068897404,0.045574043,-0.101417951
1.76966E+18,2.466467285,-0.172328597,-0.658849693,0.312763635,-0.078131765,0.065328367,-0.115013108
1.76966E+18,2.476455322,-0.18694296,-0.866460178,0.251418939,-0.086793169,0.106798045,-0.131930023
1.76966E+18,2.486443115,-0.189141931,-1.030795,0.186541978,-0.097835131,0.152661964,-0.155130059
1.76966E+18,2.496430176,-0.092287823,-1.033579662,0.173798524,-0.100228779,0.194984645,-0.181785911
1.76966E+18,2.506418457,0.017972879,-1.008707087,0.221700677,-0.097628511,0.219527662,-0.206636682
1.76966E+18,2.51640625,0.148551416,-0.971872856,0.303741247,-0.091512829,0.255539715,-0.230687425
1.76966E+18,2.526394043,0.183358379,-0.989103392,0.358173971,-0.093543909,0.284508288,-0.245235443
1.76966E+18,2.53638208,0.228799257,-0.989472225,0.34772272,-0.105816282,0.31071353,-0.255794078
1.76966E+18,2.546369873,0.253101339,-0.97600601,0.373119027,-0.125550315,0.323807627,-0.261107028
1.76966E+18,2.556358154,0.235077022,-0.986015363,0.410960097,-0.146426827,0.307497919,-0.261066258
1.76966E+18,2.566346191,0.207539173,-0.933224268,0.491549007,-0.165206701,0.2791785,-0.258678228
1.76966E+18,2.576334229,0.147272628,-0.787934923,0.594024754,-0.179535031,0.241931006,-0.252540976
1.76966E+18,2.586322021,0.068066259,-0.614797201,0.667878218,-0.18777521,0.194654375,-0.232963815
1.76966E+18,2.596309082,-0.012138328,-0.47637891,0.721665923,-0.191245571,0.158677474,-0.204046413
1.76966E+18,2.606297363,-0.104428197,-0.302938991,0.744281074,-0.201506466,0.142417684,-0.162255883
1.76966E+18,2.616285156,-0.181270321,-0.222505856,0.708952864,-0.205175236,0.143794,-0.1268204
1.76966E+18,2.626273193,-0.26712665,-0.221992646,0.689959117,-0.219263449,0.158228144,-0.09193565
1.76966E+18,2.63626123,-0.338114203,-0.286577639,0.64276482,-0.220011264,0.170259506,-0.064723469
1.76966E+18,2.646249268,-0.391199604,-0.313096812,0.703455728,-0.208754793,0.179823905,-0.041851453
1.76966E+18,2.656237305,-0.461930114,-0.349861485,0.698209936,-0.193462387,0.190404907,-0.016024914
1.76966E+18,2.666225342,-0.517458817,-0.301575301,0.748533179,-0.17342563,0.201363504,0.008820429
1.76966E+18,2.676213135,-0.582522825,-0.187437465,0.857409149,-0.144739121,0.214031637,0.039859571
1.76966E+18,2.686200928,-0.653625383,-0.002615151,0.996935985,-0.118537806,0.23301217,0.069510147
1.76966E+18,2.696188232,-0.709549661,0.186121122,1.087730355,-0.100781977,0.266222864,0.095610991
1.76966E+18,2.70617627,-0.68182228,0.300803148,1.155908403,-0.084235899,0.294620991,0.116433889
1.76966E+18,2.716164063,-0.548661326,0.368801164,1.192124503,-0.067788213,0.309943229,0.122376196
1.76966E+18,2.726152344,-0.340432563,0.446161467,1.186421907,-0.047824666,0.335358024,0.121513769
1.76966E+18,2.736140381,-0.203696818,0.363798825,1.137466446,-0.04759936,0.359100103,0.133719832
1.76966E+18,2.746128418,-0.030751258,0.283015562,1.110155829,-0.049102984,0.368113041,0.141644597
1.76966E+18,2.756116455,0.135412825,0.215339033,1.017274424,-0.044886667,0.345810413,0.161204726
1.76966E+18,2.766104492,0.225563636,0.091928342,0.995117684,-0.037274923,0.322687715,0.189076647
1.76966E+18,2.776092529,0.241614461,0.036892099,0.993257735,-0.03211638,0.281311512,0.229892254
1.76966E+18,2.786080566,0.215952635,-0.000401567,0.992662546,-0.030452762,0.231122464,0.273789227
1.76966E+18,2.796068604,0.134895816,0.043469724,1.065594657,-0.027952852,0.183961615,0.316908747
1.76966E+18,2.806055664,-0.019285715,0.04150573,1.13671212,-0.025933616,0.150120586,0.367261112
1.76966E+18,2.816043457,-0.214772047,-0.064983052,1.219550562,-0.031406146,0.134618059,0.410707921
1.76966E+18,2.826031494,-0.336759573,-0.129734633,1.315363637,-0.036711477,0.121622376,0.445072353
1.76966E+18,2.836019531,-0.455757709,-0.203443428,1.334780723,-0.030723626,0.107436784,0.460967153
1.76966E+18,2.846007568,-0.538246607,-0.321890944,1.417512929,-0.019174702,0.118076667,0.464297324
1.76966E+18,2.855995605,-0.574817803,-0.422269135,1.459262551,-0.000920331,0.140071988,0.452066243
1.76966E+18,2.865983398,-0.524507712,-0.444049005,1.544582727,0.030180885,0.146752149,0.423778981
1.76966E+18,2.875971191,-0.420150681,-0.409157724,1.599898956,0.061622161,0.172928616,0.381970286
1.76966E+18,2.885959473,-0.21065336,-0.235123346,1.523550606,0.079186514,0.210883319,0.323663771
1.76966E+18,2.89594751,0.113961895,0.132134096,1.412959796,0.088105172,0.237322912,0.263507754
1.76966E+18,2.905935547,0.48151262,0.499847464,1.267999974,0.079931468,0.276987284,0.205174223
1.76966E+18,2.915922363,0.753089819,0.783138336,1.108344688,0.068263359,0.298394293,0.151431367
1.76966E+18,2.9259104,0.893454422,0.996399394,1.088412053,0.068054497,0.293115348,0.098234639
1.76966E+18,2.935898682,0.966305869,1.165723695,1.205763883,0.090734243,0.263155848,0.054156922
1.76966E+18,2.945886475,0.887036371,1.224455285,1.523435602,0.131563619,0.20602341,0.049456023
1.76966E+18,2.955874512,0.718591337,1.1001456,1.825469753,0.146686107,0.122608416,0.080499157
1.76966E+18,2.965862549,0.489881951,0.939699017,1.877283819,0.12658754,0.024748184,0.13353014
1.76966E+18,2.975850342,0.240953951,0.771123489,1.916441525,0.091818385,-0.090262823,0.175629914
1.76966E+18,2.985838623,0.207680774,0.724504945,1.696480969,0.062937595,-0.2386031,0.1723281
1.76966E+18,2.99582666,0.506906589,0.571228108,1.252788523,0.037275378,-0.355444491,0.101831578
1.76966E+18,3.005814453,0.984900679,0.214021521,0.705165454,0.006894143,-0.414747328,-0.002337863
1.76966E+18,3.015801514,1.276502284,-0.028897593,-0.021319267,-0.00150307,-0.426234603,-0.12262246
1.76966E+18,3.025789551,1.522594475,-0.485386977,-0.340673094,0.002726666,-0.3847574,-0.195031762
1.76966E+18,3.035777588,1.479171366,-0.795260736,-0.986805636,-0.020525659,-0.308604032,-0.22285673
1.76966E+18,3.045765625,1.449244722,-1.089109826,-1.702757273,-0.04068765,-0.231450677,-0.218699545
1.76966E+18,3.055753418,1.531772199,-1.172066342,-2.126896585,-0.051550686,-0.182642654,-0.218782902
1.76966E+18,3.065741455,1.665610176,-1.114644081,-2.3990982,-0.04972944,-0.102023751,-0.22490266
1.76966E+18,3.075729248,1.560053998,-0.957864788,-2.581993638,-0.026978856,-0.065565608,-0.213564783
1.76966E+18,3.085717529,1.107969279,-0.72117434,-2.578645497,0.006712569,-0.060299706,-0.179480448
1.76966E+18,3.095705566,0.403800435,-0.293038943,-2.440617082,0.013851972,-0.015587628,-0.115308382
1.76966E+18,3.105693359,-0.347912251,0.270949277,-2.230076389,0.015601844,0.049234185,-0.018021584
1.76966E+18,3.115681396,-0.973476637,0.85916476,-1.849935793,0.018106546,0.080800898,0.081134558
1.76966E+18,3.125668457,-1.345355455,1.212323534,-1.468391468,0.0105994,0.121682309,0.180094272
1.76966E+18,3.135656494,-1.599771969,1.222200785,-1.157144667,0.009618025,0.1836759,0.246504977
1.76966E+18,3.145644531,-1.420681768,1.009555813,-0.679369042,0.024356615,0.254881591,0.233758807
1.76966E+18,3.155632568,-0.82010993,0.689894235,-0.38977001,0.028566273,0.316349208,0.145661712
1.76966E+18,3.165620361,-0.197481889,0.22168811,-0.298242357,0.037265692,0.348648757,0.00942495
1.76966E+18,3.175608398,0.314585005,-0.058293199,-0.003261632,0.053905655,0.35580948,-0.127018645
1.76966E+18,3.18559668,0.600519085,-0.193871298,0.109017132,0.067112446,0.315616727,-0.226141304
1.76966E+18,3.195584717,0.707324093,-0.295511471,0.127236095,0.074516296,0.261786789,-0.269749224
1.76966E+18,3.205572266,0.729616735,-0.281392345,0.126194184,0.062364258,0.21696046,-0.273613065
1.76966E+18,3.215560303,0.734428374,-0.187322899,0.008213702,0.032502763,0.138044327,-0.241550446
1.76966E+18,3.225547363,0.696946346,-0.153987031,-0.097281686,0.001806766,0.007414487,-0.19506295
1.76966E+18,3.235535645,0.677038845,-0.167390118,-0.263961318,-0.031331211,-0.104778901,-0.15967086
1.76966E+18,3.245523438,0.614826865,-0.218631645,-0.415480497,-0.065241411,-0.178989962,-0.144921824
1.76966E+18,3.255511475,0.511604976,-0.251924843,-0.600781535,-0.091557965,-0.2703031,-0.139725462
1.76966E+18,3.265499268,0.220073514,-0.320659941,-0.68185589,-0.098275281,-0.347854733,-0.120103903
1.76966E+18,3.275487305,-0.158965258,-0.341230435,-0.753393186,-0.092807539,-0.376759887,-0.096260086
1.76966E+18,3.285475586,-0.447548829,-0.294703662,-0.870209594,-0.087659881,-0.374860376,-0.070475183
1.76966E+18,3.295463379,-0.680291125,-0.193832719,-0.974057506,-0.076781131,-0.323876023,-0.039846968
1.76966E+18,3.305451416,-0.857432822,-0.122339847,-0.897435162,-0.05881916,-0.222417176,-0.017315757
1.76966E+18,3.315439453,-0.933632264,-0.144748663,-0.77878774,-0.036065113,-0.125720471,-0.006924634
1.76966E+18,3.325427734,-0.860223183,-0.347372007,-0.800281194,-0.012441466,-0.056814335,-0.014094735
1.76966E+18,3.335414551,-0.718738637,-0.636588177,-0.741513656,0.019576123,-0.013848757,-0.035256475
1.76966E+18,3.345402588,-0.545405977,-0.811969878,-0.71302815,0.050529759,0.022345869,-0.060958412
1.76966E+18,3.355390381,-0.359401613,-0.896698664,-0.722420833,0.037269082,0.055238839,-0.106002584
1.76966E+18,3.365378418,-0.103218529,-0.672225892,-0.688965138,0.006974995,0.084289484,-0.157759532
1.76966E+18,3.375366699,-0.049361851,-0.572431639,-0.523230386,-0.009792801,0.039214946,-0.20010592
1.76966E+18,3.385354736,-0.091440412,-0.667141721,-0.384476287,-0.014334803,-0.027583392,-0.223782703
1.76966E+18,3.395342285,-0.124424837,-0.75142627,-0.32140696,-0.015711658,-0.067714304,-0.233192191
1.76966E+18,3.405330322,-0.163232414,-0.73023969,-0.230275321,-0.011664134,-0.113964327,-0.229062974
1.76966E+18,3.415318359,-0.176859811,-0.637829117,-0.159176709,-0.004880795,-0.1705091,-0.207659423
1.76966E+18,3.425306396,-0.288433642,-0.550341972,-0.111829267,0.006209303,-0.212598279,-0.166083127
1.76966E+18,3.435294434,-0.500528724,-0.449531235,-0.109342418,0.021923285,-0.246450245,-0.110554636
1.76966E+18,3.445281494,-0.730847446,-0.375911872,-0.132376965,0.037729248,-0.268754184,-0.05329036
1.76966E+18,3.455269287,-0.901489552,-0.367225293,-0.087243399,0.054550305,-0.280461967,-0.010723723
1.76966E+18,3.465257324,-0.955418418,-0.397170349,-0.06287965,0.065764874,-0.275735915,0.005017956
1.76966E+18,3.475245605,-0.90264106,-0.406371308,-0.048295537,0.074640661,-0.276005685,-0.002504942
1.76966E+18,3.485233643,-0.909188728,-0.438924501,-0.048693596,0.07981097,-0.266215742,-0.023200614
1.76966E+18,3.495221436,-0.91441903,-0.42609483,-0.023299627,0.082836851,-0.258633465,-0.045128547
1.76966E+18,3.505209473,-0.906889365,-0.420497449,0.016550445,0.08459945,-0.253661811,-0.0659355
1.76966E+18,3.515197754,-0.869357361,-0.478018494,0.012253625,0.083087303,-0.27484113,-0.088174231
1.76966E+18,3.525185547,-0.710962158,-0.468912228,0.057389528,0.076212406,-0.243070677,-0.132749468
1.76966E+18,3.535173584,-0.645897857,-0.436908485,0.163881525,0.066435143,-0.232074216,-0.191570446
1.76966E+18,3.545160645,-0.501277935,-0.35817514,0.215695299,0.063142054,-0.222488075,-0.248782068
1.76966E+18,3.555148438,-0.530580895,-0.232567816,0.294590849,0.064148724,-0.204157546,-0.283220202
1.76966E+18,3.565136475,-0.652474897,-0.056305825,0.302444485,0.071160577,-0.195674032,-0.290732563
1.76966E+18,3.575124756,-0.795281778,0.101722591,0.340620487,0.080623589,-0.192522451,-0.270312786
1.76966E+18,3.585112305,-0.913646146,0.194209151,0.338310748,0.086079001,-0.189002842,-0.241593346
1.76966E+18,3.595100342,-1.049698,0.190094702,0.37120501,0.093327597,-0.195200279,-0.207870528
1.76966E+18,3.605088379,-1.050219685,0.146193016,0.318100612,0.103234127,-0.206990585,-0.186549351
1.76966E+18,3.61507666,-0.995934261,0.129442372,0.301418649,0.109550342,-0.215123609,-0.179411799
1.76966E+18,3.625064453,-1.018694374,0.139540573,0.306227219,0.119846433,-0.225637227,-0.168455198
1.76966E+18,3.63505249,-1.064001543,0.150846395,0.338807007,0.132520691,-0.225229502,-0.15909712
1.76966E+18,3.645040527,-1.143571484,0.285583951,0.420040353,0.150568515,-0.210560739,-0.143119037
1.76966E+18,3.655027344,-1.28485627,0.29771921,0.44116585,0.158567324,-0.203780591,-0.126744315
1.76966E+18,3.665015381,-1.366875505,0.356764689,0.419491486,0.158341184,-0.206648439,-0.10478887
1.76966E+18,3.675003662,-1.429968798,0.381268431,0.367997446,0.146221399,-0.193782702,-0.098006062
1.76966E+18,3.684991455,-1.448102713,0.49273091,0.364888082,0.126977816,-0.182311594,-0.083459072
1.76966E+18,3.694979492,-1.415119604,0.579680879,0.356254401,0.109796964,-0.17043443,-0.082169034
1.76966E+18,3.704967529,-1.189613981,0.804209181,0.388922745,0.100686572,-0.157545388,-0.10985785
1.76966E+18,3.714955566,-0.838346721,1.07922673,0.391191859,0.080458537,-0.089173526,-0.180319771
1.76966E+18,3.724943115,-0.586360796,1.25837626,0.431146268,0.058417588,-0.027275985,-0.267062902
1.76966E+18,3.734931152,-0.306828399,1.288041915,0.229116506,0.04307485,0.025957143,-0.355500102
1.76966E+18,3.744918945,-0.08046996,1.376226394,0.065890522,0.062092341,0.13406758,-0.410010755
1.76966E+18,3.754906738,-0.056573243,1.11953536,-0.145922967,0.010306641,0.190452561,-0.450861245
1.76966E+18,3.764893799,0.401716906,1.150744737,-0.677442458,0.001868351,0.278746694,-0.51898849
1.76966E+18,3.77488208,0.80684859,1.789108107,-0.360733885,0.002981552,0.337118387,-0.559716761
1.76966E+18,3.784870117,0.769865305,1.908040776,-0.21590222,0.057101782,0.353702843,-0.530867577
1.76966E+18,3.79485791,0.406612423,1.714145513,-0.010266542,0.153011262,0.360626787,-0.402893603
1.76966E+18,3.804845703,-0.078972561,1.38277187,0.126590782,0.210683063,0.448213488,-0.238031626
1.76966E+18,3.81483374,-0.223766378,1.378129597,0.25077655,0.238059014,0.505807817,-0.066400737
1.76966E+18,3.824822021,-0.285289937,1.314078273,0.34434506,0.228389531,0.419109076,0.122062832
1.76966E+18,3.834809814,-0.384095325,0.954130278,0.203339091,0.187224239,0.219072655,0.291341633
1.76966E+18,3.844797852,-0.18855171,0.517519315,0.134376906,0.127213791,0.008678472,0.371279508
1.76966E+18,3.854785889,0.26471009,0.217434544,0.060939037,0.04804334,-0.14868851,0.35061869
1.76966E+18,3.864772705,0.788821496,-0.078805241,0.152599376,-0.02894864,-0.280702084,0.248839498
1.76966E+18,3.874760986,1.277869626,-0.272569571,0.244389771,-0.100534678,-0.34019497,0.102313191
1.76966E+18,3.884749023,1.447097627,-0.894915873,0.183332076,-0.157607272,-0.368283063,-0.030817969
1.76966E+18,3.894737061,1.388410461,-1.578925726,-0.063038932,-0.176237956,-0.322373092,-0.139135927
1.76966E+18,3.904724854,1.496077785,-1.865959876,-0.272244285,-0.194091454,-0.250925899,-0.240553617
1.76966E+18,3.914713135,1.762002658,-2.023600754,-0.530938184,-0.20344314,-0.187143996,-0.337397605
1.76966E+18,3.924701172,2.071489755,-1.927095021,-0.575349864,-0.199979976,-0.106797226,-0.431200117
1.76966E+18,3.934688965,2.39045809,-1.702336417,-0.580914805,-0.19880046,-0.036167797,-0.515557289
1.76966E+18,3.944676758,2.789894922,-1.380352534,-0.64832713,-0.197251812,-0.041099157,-0.588263094
1.76966E+18,3.954664795,3.052981211,-0.906953516,-0.676113547,-0.196216896,-0.131304413,-0.617717445
1.76966E+18,3.964652832,2.923517795,-0.373801748,-0.664727645,-0.202368796,-0.249839962,-0.596531272
1.76966E+18,3.974640137,2.550176943,0.285854585,-0.608905805,-0.207357153,-0.314578742,-0.510197461
1.76966E+18,3.98462793,1.964813049,0.772621034,-0.543153522,-0.20297803,-0.357032567,-0.400825411
1.76966E+18,3.994615723,1.322580436,1.113302018,-0.422636799,-0.187495738,-0.400288969,-0.263758123
1.76966E+18,4.00460376,0.720870096,1.347228263,-0.238997557,-0.175420612,-0.418812513,-0.115163222
1.76966E+18,4.014592041,0.317580387,1.30473586,-0.153176299,-0.172312975,-0.426620632,0.017728781
1.76966E+18,4.024580078,0.082073888,1.064665706,-0.094155955,-0.185179636,-0.53771168,0.163949817
1.76966E+18,4.034567871,0.352950537,0.690250209,0.027502924,-0.192570165,-0.526374102,0.167990893
1.76966E+18,4.044555908,-0.150680391,0.56187342,0.449557247,-0.117115207,-0.292825133,0.27309376
1.76966E+18,4.054543945,-0.478970388,0.171054486,-0.098491646,-0.092019707,-0.20747295,0.324309826
1.76966E+18,4.064531982,0.112685591,-0.399897728,-0.11484803,-0.071728073,-0.171137363,0.285092682
1.76966E+18,4.074519043,0.216771404,-0.662332859,0.235426128,-0.036834266,-0.022608612,0.241203234
1.76966E+18,4.08450708,0.123778648,-0.824427209,0.190356568,-0.023762671,0.105135232,0.202255845
1.76966E+18,4.094494873,0.194615686,-1.048919855,0.236039291,-0.01151506,0.081835769,0.200603619
1.76966E+18,4.10448291,0.342477074,-1.123416001,0.449776735,-0.005984735,-0.051559437,0.18734552
1.76966E+18,4.114471191,0.544816487,-1.066518055,0.548631661,-0.047735643,-0.035355166,0.14327845
1.76966E+18,4.124458984,0.368266326,-0.834608996,0.772431941,-0.083182089,0.067926198,0.103979155
1.76966E+18,4.134446777,0.19948943,-0.707961807,0.817149619,-0.113445453,0.036806893,0.112662397
1.76966E+18,4.144434814,0.229582224,-1.055626075,0.807811882,-0.120477855,-0.102087773,0.145087823
1.76966E+18,4.154423096,0.447759257,-1.509877909,0.828174286,-0.143964276,-0.221071422,0.137386754
1.76966E+18,4.164410889,0.592244885,-1.54356449,0.805165751,-0.174398854,-0.234089732,0.117819704
1.76966E+18,4.174398926,0.514818823,-1.402006732,0.784768568,-0.189516276,-0.203767791,0.095471255
1.76966E+18,4.184385742,0.605077479,-1.23276894,0.635055268,-0.21864602,-0.18358691,0.058481455
1.76966E+18,4.194373779,0.585309825,-1.207910393,0.577481324,-0.21660018,-0.255839288,0.056532823
1.76966E+18,4.204361816,0.22561259,-1.496297127,0.835916279,-0.152399078,-0.375735581,0.097652823
1.76966E+18,4.214350098,-0.11017317,-1.559590911,1.020177745,-0.104668573,-0.367843837,0.138212234
1.76966E+18,4.224337891,-0.167765089,-1.345617321,1.003255836,-0.094415575,-0.314556062,0.141403049
1.76966E+18,4.234325928,-0.018204057,-1.012453872,0.959767407,-0.09031111,-0.284033298,0.122518562
1.76966E+18,4.244313965,0.027049335,-0.82119188,0.913168445,-0.092626944,-0.279027224,0.094806269
1.76966E+18,4.254302002,0.000270049,-0.834971399,0.847801362,-0.097452596,-0.267219573,0.059617653
1.76966E+18,4.264290039,-0.007687924,-0.823791249,0.730024293,-0.099946372,-0.222255141,0.029965138
1.76966E+18,4.274278076,-0.015629823,-0.771110629,0.568070813,-0.092465289,-0.174337149,0.021252075
1.76966E+18,4.284265869,0.057955345,-0.695911304,0.403379141,-0.07908155,-0.136777788,0.032900464
1.76966E+18,4.29425293,0.102824707,-0.592738514,0.387113358,-0.060673248,-0.094352022,0.064387016
1.76966E+18,4.304240967,0.125291098,-0.508561517,0.412456473,-0.04229464,-0.034678508,0.106135704
1.76966E+18,4.314229004,0.160455643,-0.393426486,0.458138905,-0.020834358,0.03141183,0.139682218
1.76966E+18,4.324216797,0.114899468,-0.192938401,0.598259908,0.00797755,0.045771446,0.213347465
1.76966E+18,4.334204834,0.127345985,-0.009655717,0.724302993,0.032950543,0.029364241,0.298989415
1.76966E+18,4.344192871,0.254939514,0.061228083,0.844307383,0.053768054,0.018257717,0.362229735
1.76966E+18,4.354180908,0.319307796,0.083175711,1.035518814,0.062539436,0.006760584,0.399565905
1.76966E+18,4.364168945,0.253029881,-0.015369419,1.170798222,0.05866947,0.034405999,0.421047062
1.76966E+18,4.374156982,0.046406362,-0.058813423,1.387178873,0.073034562,0.084844403,0.441486031
1.76966E+18,4.384144775,-0.078896573,-0.049769701,1.478649242,0.073302865,0.004255349,0.432000548
1.76966E+18,4.394132813,0.085090897,-0.11114333,1.527991658,0.063537322,-0.091440551,0.3800897
1.76966E+18,4.404120117,-0.031853082,-0.011665303,1.866556965,0.060800284,-0.090052433,0.373112887
1.76966E+18,4.41410791,-0.407994233,0.230225637,2.295648639,0.12875323,-0.033526041,0.434227109
1.76966E+18,4.424095947,-0.165124073,0.881285407,2.387534311,0.173862994,-0.113873176,0.515786946
1.76966E+18,4.434083984,0.55375368,1.393158824,2.078850055,0.205141276,-0.104679413,0.52736932
1.76966E+18,4.444071777,1.069068324,1.961771782,2.080157046,0.164477736,-0.126320526,0.47196731
1.76966E+18,4.454060059,1.330340257,2.255679325,1.996428669,0.168134257,-0.102909744,0.423149437
1.76966E+18,4.464048096,1.302342681,2.417562662,2.101067147,0.157855421,-0.205342025,0.360965312
1.76966E+18,4.474035889,1.340579911,2.343433011,2.142315396,0.150626004,-0.365078688,0.349984825
1.76966E+18,4.484023682,1.045592756,1.875477062,2.100640154,0.149880111,-0.56824404,0.320466191
1.76966E+18,4.494011719,0.805052646,1.606107747,1.569487451,0.07304126,-0.747234821,0.267851174
1.76966E+18,4.504,0.922202523,1.073099772,0.64613605,0.003157658,-0.839826345,0.113526948
1.76966E+18,4.513986816,1.305556675,0.394166491,0.072779113,-0.036722381,-0.882507205,-0.093324766
1.76966E+18,4.523974854,1.589331385,0.000970891,-0.688422117,-0.061222728,-0.880205452,-0.287589669
1.76966E+18,4.533962891,1.737790592,-0.232026549,-1.265805825,-0.047284275,-0.816550076,-0.44440937
1.76966E+18,4.543950684,1.882221421,-0.677606416,-1.824447131,-0.058060855,-0.658822417,-0.554067433
1.76966E+18,4.553938965,1.812991525,-0.934749286,-2.563117673,-0.083810158,-0.43430382,-0.573572159
1.76966E+18,4.563927002,1.472277223,-0.912681831,-3.154807554,-0.131828949,-0.252551138,-0.505203664
1.76966E+18,4.573915039,1.359632841,-0.806938314,-3.470803595,-0.108036265,-0.175633982,-0.397741646
1.76966E+18,4.583902832,1.398821672,-0.39296939,-3.299462693,-0.048762467,-0.115187094,-0.269007295
1.76966E+18,4.593891113,0.971526819,0.137886376,-3.332054757,0.001298836,-0.034571081,-0.086645208
1.76966E+18,4.60387915,0.177674927,0.595087123,-3.128328713,0.018256987,0.079963855,0.103924572
1.76966E+18,4.613866943,-0.471814379,1.018784829,-2.445092474,0.050402675,0.188782468,0.289532512
1.76966E+18,4.623854004,-0.958290759,1.376105983,-1.521110081,0.105376922,0.139665782,0.464080691
1.76966E+18,4.633842041,-1.374936793,1.429679752,-0.887199599,0.128128573,0.16010049,0.566035807
1.76966E+18,4.643829834,-1.654667926,1.176767067,-0.264630595,0.138570487,0.26286757,0.58783859
1.76966E+18,4.653818115,-1.700918951,0.677552056,0.283252586,0.13563408,0.348561704,0.527170181
1.76966E+18,4.663805908,-1.407889945,0.143723996,0.605597703,0.09736909,0.342517287,0.373062909
1.76966E+18,4.673793701,-0.878481309,-0.371810282,0.664138447,0.0285546,0.357140988,0.154529512
1.76966E+18,4.683781738,-0.285514247,-0.778158794,0.745514416,0.003368069,0.330486923,-0.082043558
1.76966E+18,4.69377002,0.230349701,-0.939053705,0.892229995,0.014588766,0.208145559,-0.260900378
1.76966E+18,4.703758057,0.530695461,-1.098518875,0.703340285,0.02682168,0.060732748,-0.394299239
1.76966E+18,4.71374585,0.706503425,-1.206467793,0.496566251,0.014195368,-0.064689353,-0.478645027
1.76966E+18,4.72373291,0.791818925,-1.148522969,0.236978618,-0.039521396,-0.116697825,-0.525475025
1.76966E+18,4.733721436,0.82889997,-1.052737367,-0.045446577,-0.110520743,-0.189099059,-0.527288377
1.76966E+18,4.743709717,0.804849233,-1.080586328,-0.449928418,-0.183016822,-0.396348953,-0.493145287
1.76966E+18,4.753697754,0.787858204,-1.068390279,-0.782903066,-0.226839945,-0.624467611,-0.460362852
1.76966E+18,4.763685547,0.63220967,-0.941730815,-0.946627355,-0.237809673,-0.80282557,-0.418768734
1.76966E+18,4.773673584,0.390040789,-0.707830874,-1.169458498,-0.256900549,-0.879553616,-0.384558558
1.76966E+18,4.783661865,0.102232879,-0.391800346,-1.429493874,-0.295600116,-0.855548084,-0.345365196
1.76966E+18,4.793649658,-0.491853981,-0.400987862,-1.457042391,-0.298760474,-0.819018841,-0.267735094
1.76966E+18,4.803637451,-1.054700922,-0.375372943,-1.457683319,-0.256448209,-0.697108626,-0.17039974
1.76966E+18,4.813625488,-1.351141199,-0.284689048,-1.358021168,-0.195754766,-0.545483708,-0.102036141
1.76966E+18,4.823613525,-1.309323188,-0.276069104,-1.263211425,-0.129712418,-0.372151494,-0.0647844
1.76966E+18,4.833600342,-1.299098585,-0.373556834,-1.091128181,-0.069550276,-0.218815997,-0.070775181
1.76966E+18,4.843588623,-1.124233016,-0.475525508,-0.944675637,-0.029584376,-0.085245781,-0.117636323
1.76966E+18,4.85357666,-0.912784853,-0.567493013,-0.835916279,-0.007961105,0.007507595,-0.175968871
1.76966E+18,4.863564453,-0.739287212,-0.601935966,-0.68904814,-0.000453089,0.041215643,-0.230425805
1.76966E+18,4.87355249,-0.597173428,-0.542294275,-0.555548893,-0.000415272,0.025429223,-0.261904895
1.76966E+18,4.883540771,-0.488741256,-0.548726354,-0.454450864,-0.007597252,-0.020091509,-0.265967399
1.76966E+18,4.893528564,-0.396964013,-0.589873188,-0.358635451,-0.017053071,-0.087338187,-0.249980435
1.76966E+18,4.903516602,-0.312782339,-0.580581628,-0.223598035,-0.018641083,-0.161593631,-0.219128847
1.76966E+18,4.913504639,-0.300779767,-0.653108519,-0.11361615,-0.019645892,-0.224607751,-0.185086206
1.76966E+18,4.92349292,-0.332897053,-0.72279405,0.014049568,-0.018879598,-0.28232798,-0.161327422
1.76966E+18,4.933480713,-0.425165002,-0.755285868,0.100780926,-0.01511229,-0.330662757,-0.147938117
1.76966E+18,4.943467773,-0.60834481,-0.799113319,0.139770582,-0.017227944,-0.373348475,-0.143193275
1.76966E+18,4.953455566,-0.811778155,-0.8018331,0.172421975,-0.021017356,-0.40564543,-0.15152736
1.76966E+18,4.963443604,-0.921809579,-0.745813691,0.153293204,-0.027860804,-0.435751885,-0.170949593
1.76966E+18,4.973431641,-0.985970208,-0.675780954,0.04683394,-0.038468439,-0.467936456,-0.193707898
1.76966E+18,4.983419678,-1.027195368,-0.581912584,-0.098619072,-0.051698655,-0.487530321,-0.2149515
1.76966E+18,4.993407471,-1.023200746,-0.422121835,-0.275876212,-0.058807962,-0.474776179,-0.23241438
1.76966E+18,5.003395508,-1.000742392,-0.219021521,-0.411560693,-0.059507944,-0.448025852,-0.239101484
1.76966E+18,5.013383545,-0.966895067,-0.040102878,-0.451697766,-0.046816915,-0.414364308,-0.232245967
1.76966E+18,5.023371338,-0.986912604,0.146584646,-0.437490669,-0.022701006,-0.364791185,-0.209267363
1.76966E+18,5.033359619,-1.071711532,0.306499314,-0.34317777,0.013442617,-0.283962131,-0.171339422
1.76966E+18,5.043347656,-1.240549511,0.434272292,-0.094183135,0.058164321,-0.195232496,-0.128316745
1.76966E+18,5.053334473,-1.414565331,0.395781525,0.102619832,0.092212297,-0.140787631,-0.098257646
1.76966E+18,5.06332251,-1.413414992,0.302454422,0.268783915,0.111372627,-0.106360443,-0.097907953
1.76966E+18,5.073310547,-1.351943163,0.237046423,0.414806836,0.118384734,-0.087418973,-0.119295001
1.76966E+18,5.083298584,-1.309400345,0.181617381,0.526211155,0.117728852,-0.097724184,-0.146864146
1.76966E+18,5.093286621,-1.198626432,0.143186236,0.60338938,0.112609193,-0.127329215,-0.171617687
1.76966E+18,5.103274658,-1.089182746,0.102686467,0.627712504,0.105107896,-0.177582785,-0.180049807
1.76966E+18,5.113262695,-1.040582235,0.120072487,0.621144524,0.110943414,-0.238628298,-0.16753535
1.76966E+18,5.123250732,-1.049082498,0.196821964,0.691864659,0.12716718,-0.292196929,-0.13616322
1.76966E+18,5.13323877,-1.150210776,0.27684418,0.780254597,0.152050436,-0.354177475,-0.098420106
1.76966E+18,5.143226563,-1.214765228,0.465391068,0.866291543,0.175911725,-0.390944719,-0.074166961
1.76966E+18,5.153213623,-1.100706302,0.939245428,0.94219551,0.16547747,-0.391258448,-0.079105794
1.76966E+18,5.16320166,-0.987222546,1.331921973,0.927340763,0.160894915,-0.35656175,-0.081423111
1.76966E+18,5.173189453,-0.838884773,1.372934367,0.941369873,0.176971629,-0.314969569,-0.105595291
1.76966E+18,5.18317749,-0.390888492,1.712226527,0.943960766,0.171692818,-0.271428555,-0.178638071
1.76966E+18,5.193165527,0.147276281,2.345681667,0.781877522,0.128095001,-0.103841163,-0.295549512
1.76966E+18,5.203153564,0.444268054,2.241367891,0.439678827,0.095947161,-0.049971692,-0.412397116
1.76966E+18,5.213141357,0.834464326,1.938774937,-0.230227975,0.020575704,-0.032285374,-0.562433779
1.76966E+18,5.223129639,1.479317059,2.09673847,-0.980931776,-0.057148829,-0.053710051,-0.712752283
1.76966E+18,5.233117676,1.613833373,1.863193919,-1.271632632,-0.07651747,-0.047693968,-0.785776436
1.76966E+18,5.243105713,1.30718033,1.38734517,-1.45795366,-0.075149171,-0.082264222,-0.743174851
1.76966E+18,5.253093506,1.02451212,0.967283774,-1.554682973,-0.03451252,-0.08183492,-0.610329986
1.76966E+18,5.263080566,0.832405787,1.047651442,-1.366119426,0.038261347,-0.14304179,-0.352144986
1.76966E+18,5.273068848,0.328489612,0.742885821,-1.373300862,0.091578633,-0.172709137,-0.01632222
1.76966E+18,5.283056641,-0.240217454,0.507431636,-1.159910333,0.146559,-0.199200824,0.312343895
1.76966E+18,5.293044678,-0.489836796,0.296193024,-0.633803222,0.146858349,-0.186880514,0.53235352
1.76966E+18,5.303032715,-0.112631523,-0.189236039,-0.333878027,0.101350129,-0.186725423,0.581462681
1.76966E+18,5.313020508,0.51440469,-0.864769741,-0.063377663,0.043385904,-0.175853595,0.48413074
1.76966E+18,5.323008789,1.079391858,-1.265211659,0.153941438,-0.037480544,-0.150583178,0.285698533
1.76966E+18,5.332996582,1.54447839,-1.338749189,0.289794555,-0.10501378,-0.022236934,0.087207556
1.76966E+18,5.342984375,2.324840978,-1.544213894,0.608170476,-0.159841552,-0.02546625,-0.275856584
1.76966E+18,5.352972412,3.451474333,-1.569053736,0.614607816,-0.145196557,-0.104772255,-0.618366003
1.76966E+18,5.362960693,3.831797007,-1.027040616,0.44949821,-0.149644047,-0.23145856,-0.836389899
1.76966E+18,5.37294751,3.600304127,-0.750825382,-0.424266446,-0.20487161,-0.334774047,-0.890895247
1.76966E+18,5.382935547,2.991738514,-0.228274503,-0.642754883,-0.234580353,-0.418554485,-0.798152685
1.76966E+18,5.392923584,2.584860718,0.31416298,-0.754929017,-0.261753678,-0.552383602,-0.637798429
1.76966E+18,5.402911621,2.245822678,0.85272216,-0.987856899,-0.25688678,-0.68453306,-0.435655206
1.76966E+18,5.412899414,1.652650303,1.45017835,-0.994898926,-0.228830636,-0.720272422,-0.220627874
1.76966E+18,5.422887695,0.936721755,1.637084485,-1.031362279,-0.206913561,-0.738358855,-0.017304838
1.76966E+18,5.432875732,0.415472314,1.535664092,-1.06284492,-0.182791978,-0.703957975,0.145099789
1.76966E+18,5.442863525,-0.074012162,1.290261344,-0.864700767,-0.159210339,-0.600586891,0.253037274
1.76966E+18,5.452851563,-0.392830859,0.832594733,-0.663118457,-0.128180787,-0.51036489,0.304401398
1.76966E+18,5.462839844,-0.517768029,0.335823608,-0.541827826,-0.103283666,-0.420526594,0.302979499
1.76966E+18,5.472827637,-0.601641367,-0.121678753,-0.398084249,-0.086708948,-0.278443485,0.270999998
1.76966E+18,5.482814697,-0.561706831,-0.535678072,-0.278676948,-0.066470057,-0.190798074,0.216358513
1.76966E+18,5.492802734,-0.457873824,-0.933028453,-0.083992581,-0.059322134,-0.09693817,0.153336927
1.76966E+18,5.502790527,-0.283616158,-1.165372397,0.012329612,-0.069333307,0.027154038,0.073494419
1.76966E+18,5.512778809,-0.074540569,-1.412431095,0.083512104,-0.1046905,0.111831114,0.001042587
1.76966E+18,5.522766602,0.072900109,-1.594790235,0.291830444,-0.133292168,0.151686326,-0.062901802
1.76966E+18,5.532754639,0.316826062,-1.735624354,0.411389429,-0.162978962,0.197077513,-0.143951118
1.76966E+18,5.542742432,0.446099654,-1.840341451,0.427170351,-0.177687317,0.212449014,-0.18300572
1.76966E+18,5.552730469,0.571857638,-1.831622138,0.401319285,-0.189980999,0.144556776,-0.214321837
1.76966E+18,5.56271875,0.813604494,-1.823629385,0.400978217,-0.20356442,0.010297789,-0.234277189
1.76966E+18,5.572706543,0.722325263,-1.753776681,0.387078579,-0.203687206,-0.041876733,-0.220315561
1.76966E+18,5.582693604,0.353596434,-1.588118502,0.360365636,-0.195426777,-0.050790809,-0.155281365
1.76966E+18,5.592681641,0.056209817,-1.395011759,0.448490786,-0.18158634,-0.068537846,-0.059844323
1.76966E+18,5.602669434,-0.029561318,-1.177422316,0.629945963,-0.167490378,-0.07379888,0.026473176
1.76966E+18,5.612657715,-0.064369889,-1.15355278,0.706902069,-0.166416064,-0.064173952,0.068592131
1.76966E+18,5.622645752,-0.14682167,-1.244509647,0.748479695,-0.167288214,-0.062337548,0.084488027
1.76966E+18,5.632633545,-0.158100458,-1.28471657,0.755303112,-0.175766647,-0.110481642,0.050220072
1.76966E+18,5.642621582,-0.000531915,-1.231515725,0.684938951,-0.193730861,-0.139734671,-0.027336415
1.76966E+18,5.652609619,0.080991061,-1.180126314,0.590529313,-0.228587911,-0.199587345,-0.117018893
1.76966E+18,5.6625979,0.130080378,-1.071589367,0.580422638,-0.264483273,-0.287521154,-0.183534712
1.76966E+18,5.672585449,0.109057756,-0.932718072,0.543254352,-0.273818165,-0.286254019,-0.23565039
1.76966E+18,5.682573486,-0.166911541,-0.744248341,0.393683384,-0.288223952,-0.356678635,-0.196597278
1.76966E+18,5.692560547,-0.224547591,-0.626958179,0.1637012,-0.307595521,-0.412802637,-0.179688871
1.76966E+18,5.702548584,-0.370102017,-0.530479334,0.158057934,-0.275846571,-0.267804772,-0.138963267
1.76966E+18,5.712536621,-0.949234469,-0.322124168,-0.096376554,-0.238956481,-0.18331413,-0.007146917
1.76966E+18,5.722524658,-0.83331428,-0.25164135,-0.330707288,-0.210724592,-0.145436808,0.06363672
1.76966E+18,5.732511719,-0.552473431,-0.163192666,-0.071145374,-0.181954458,-0.11787869,0.114640251
1.76966E+18,5.742499756,-0.438951097,-0.077317633,0.08371581,-0.163404852,-0.141439319,0.166060567
1.76966E+18,5.752487793,-0.219486801,0.018799978,0.257768016,-0.145428509,-0.102157697,0.159333155
1.76966E+18,5.76247583,-0.24244419,0.148400171,0.427386624,-0.143921062,-0.035334807,0.142938092
1.76966E+18,5.772463867,-0.339307943,0.241703893,0.544196601,-0.152702838,0.010230814,0.118831687
1.76966E+18,5.782451904,-0.367001129,0.330616102,0.608222499,-0.163040176,0.030128218,0.101470195
1.76966E+18,5.792439697,-0.5079919,0.388954894,0.732331693,-0.172738597,0.024801631,0.085172981
1.76966E+18,5.802426758,-0.563621725,0.465801402,0.87828944,-0.18434906,0.009751508,0.056510009
1.76966E+18,5.812414795,-0.569603722,0.499064205,0.980460651,-0.19846195,-0.014703501,0.028750015
1.76966E+18,5.822402832,-0.616870208,0.506329227,1.002935518,-0.208514452,-0.041833591,0.012504905
1.76966E+18,5.832390869,-0.737900434,0.497092028,1.014945835,-0.211253777,-0.046072543,0.022902686
1.76966E+18,5.842378906,-0.885535173,0.556520953,0.994534039,-0.208382994,-0.054336503,0.064584509
1.76966E+18,5.852366699,-0.964662194,0.59576926,0.928032983,-0.201145321,-0.054091495,0.133198455
1.76966E+18,5.86235498,-1.00386257,0.736111797,0.928525443,-0.184833288,-0.038826045,0.220464051
1.76966E+18,5.872343018,-0.970621686,0.867165696,0.96674616,-0.162428379,-0.014911128,0.319722712
1.76966E+18,5.882330811,-0.781116621,1.077935521,1.021883233,-0.131816387,0.008271835,0.416209877
1.76966E+18,5.892318604,-0.448771503,1.28540046,1.141424828,-0.092898816,0.001436832,0.485443264
1.76966E+18,5.902306641,-0.125335668,1.506602833,1.231300475,-0.079384893,-0.007053067,0.519482791
1.76966E+18,5.912294189,0.032343788,1.823582039,1.429024357,-0.050532471,-0.040389717,0.541243196
1.76966E+18,5.922281738,0.112032826,2.006350928,1.75451464,-0.025167027,-0.11660371,0.528413117
1.76966E+18,5.932269775,0.092269118,1.906095487,1.922259563,-0.016135983,-0.175908044,0.503896594
1.76966E+18,5.942257813,-0.049299745,1.624363535,2.286995231,-0.016579127,-0.235121444,0.45709151
1.76966E+18,5.952245605,0.227306534,1.510894977,2.434023675,-0.028252827,-0.327311277,0.335206628
1.76966E+18,5.962233887,0.837477391,1.413311385,2.254498152,-0.051336315,-0.388238698,0.152609453
1.76966E+18,5.972221924,1.172826805,1.028150623,1.549722866,-0.042091951,-0.462863922,0.020985642
1.76966E+18,5.982209961,1.459448137,0.586229278,0.831009802,-0.047484342,-0.475554675,-0.135728046
1.76966E+18,5.992197754,2.038876503,0.368849094,0.088264413,-0.023204572,-0.451106071,-0.224225163
1.76966E+18,6.002186035,1.997142809,-0.230164262,-0.596162205,-0.14277412,-0.502159834,-0.226030454
1.76966E+18,6.012174072,2.21203176,-0.8056284,-2.013033036,-0.185726121,-0.433551192,-0.206909478
1.76966E+18,6.022160889,2.691124752,-1.218861996,-1.663575455,-0.128749341,-0.332656235,-0.264571607
1.76966E+18,6.032148926,3.640610419,-1.733324261,-2.176941304,-0.135486871,-0.407911569,-0.406791061
1.76966E+18,6.042136963,4.168286386,-1.80034028,-3.461277934,-0.214860857,-0.543578088,-0.545990348
1.76966E+18,6.052124756,3.528886074,-1.343223119,-3.839394623,-0.246069908,-0.441209942,-0.629056454
1.76966E+18,6.062113037,2.291449726,-0.218518832,-3.218643482,-0.166655511,-0.230515808,-0.599457026
1.76966E+18,6.07210083,0.873378433,0.835493962,-2.85191591,-0.046491284,-0.062638119,-0.419206291
1.76966E+18,6.082088623,-0.419112862,1.544542395,-2.661998026,0.038380601,0.140861675,-0.158572212
1.76966E+18,6.09207666,-1.154089371,2.077883548,-2.003119837,0.16911678,0.395145357,0.068631388
1.76966E+18,6.102064941,-1.375932818,2.62677123,-0.838752233,0.326513708,0.603697181,0.239951879
1.76966E+18,6.112052979,-1.636684818,2.649440158,-0.242995248,0.41023764,0.768698633,0.336573482
1.76966E+18,6.122040771,-1.582582495,2.156655471,0.007367022,0.422451228,0.830268145,0.34200868
1.76966E+18,6.132027832,-1.117684325,1.511349735,0.637496816,0.396843076,0.849223197,0.240520701
1.76966E+18,6.142015625,-0.424692708,0.813895293,1.054449578,0.356301785,0.800043762,0.088499546
1.76966E+18,6.152003662,0.319055282,0.230531342,1.288256434,0.313437134,0.658090651,-0.080695339
1.76966E+18,6.161991943,0.852923674,-0.203116096,1.406270235,0.240949944,0.503930807,-0.198289976
1.76966E+18,6.17197998,0.939166225,-0.648408379,1.234646278,0.153088257,0.331846416,-0.248255417
1.76966E+18,6.181967773,1.128705924,-1.053487309,1.002625575,0.066194691,0.158577845,-0.274518132
1.76966E+18,6.191955811,1.378477972,-1.367656134,0.606932605,-0.019288518,-0.053737614,-0.296696961
1.76966E+18,6.201944092,1.524078576,-1.61685126,0.22125308,-0.104232207,-0.311668783,-0.330703229
1.76966E+18,6.211931885,1.538608913,-1.727210746,-0.163621998,-0.183852196,-0.554436147,-0.36933291
1.76966E+18,6.221919922,1.357813808,-1.680065549,-0.383513726,-0.248854011,-0.785144508,-0.3909567
1.76966E+18,6.231906982,0.949709247,-1.486302972,-0.5365569,-0.295910448,-0.977132857,-0.401656747
1.76966E+18,6.241894775,0.387956238,-1.301665951,-0.703363519,-0.349336863,-1.091524005,-0.378706276
1.76966E+18,6.251883057,-0.507326568,-1.165709082,-1.137755784,-0.371673077,-1.036744952,-0.279079825
1.76966E+18,6.26187085,-1.542444692,-0.912650851,-1.075340537,-0.341876805,-0.922293603,-0.150022745
1.76966E+18,6.271858643,-1.897961427,-0.864326089,-1.30465578,-0.29224667,-0.752561033,-0.047202621
1.76966E+18,6.28184668,-1.773457826,-0.922353915,-1.392113845,-0.207469985,-0.569849908,-0.022989349
1.76966E+18,6.291834717,-1.40371529,-1.052200192,-1.39510309,-0.131256968,-0.39468047,-0.072818421
1.76966E+18,6.301822998,-1.091768524,-1.218818156,-1.391184017,-0.074891903,-0.273120731,-0.161137551
1.76966E+18,6.311810791,-0.921072058,-1.293299105,-1.267232935,-0.044277001,-0.177983552,-0.245206892
1.76966E+18,6.321798828,-0.810987005,-1.216668285,-1.080351643,-0.030979773,-0.144534752,-0.298805058
1.76966E+18,6.331786865,-0.63818246,-1.00856914,-0.892663125,-0.029253513,-0.169659808,-0.316286325
1.76966E+18,6.341773682,-0.420552101,-0.855392256,-0.780389037,-0.04858746,-0.243315488,-0.316360861
1.76966E+18,6.351761963,-0.147801036,-0.730914812,-0.623808629,-0.072636068,-0.323273718,-0.300014377
1.76966E+18,6.36175,-0.027073446,-0.729148387,-0.445721468,-0.104030229,-0.401068509,-0.275656641
1.76966E+18,6.371737793,0.003522183,-0.785479931,-0.373226287,-0.13653785,-0.487407923,-0.250454366
1.76966E+18,6.38172583,-0.063131579,-0.852660201,-0.288524243,-0.15917936,-0.575883806,-0.229556546
1.76966E+18,6.391713867,-0.251468623,-0.878649213,-0.25951106,-0.171127364,-0.645567,-0.22117053
1.76966E+18,6.401701904,-0.495325895,-0.82421152,-0.276230286,-0.16874285,-0.699543595,-0.218861982
1.76966E+18,6.411689941,-0.718908294,-0.707153998,-0.279756122,-0.161562428,-0.72290349,-0.220622331
1.76966E+18,6.421677734,-0.913595,-0.581382423,-0.31186201,-0.144062817,-0.709388733,-0.230422869
1.76966E+18,6.431665771,-0.996177422,-0.413831561,-0.337771965,-0.121154837,-0.676591396,-0.248891085
1.76966E+18,6.441653809,-1.041127009,-0.222668353,-0.392771968,-0.095546141,-0.641106248,-0.267669141
1.76966E+18,6.451640869,-1.115807864,0.005246668,-0.440288629,-0.078497119,-0.609329462,-0.27570042
1.76966E+18,6.461628906,-1.150341125,0.194266435,-0.451049093,-0.07220374,-0.585467041,-0.284273505
1.76966E+18,6.471616699,-0.992816275,0.342764221,-0.483551578,-0.06787584,-0.57393688,-0.30722329
1.76966E+18,6.481604736,-0.755425569,0.435652932,-0.460677483,-0.059372693,-0.567742944,-0.324887842
1.76966E+18,6.491593018,-0.623465222,0.47286418,-0.470739735,-0.053719603,-0.575057864,-0.324838042
1.76966E+18,6.501580811,-0.60843468,0.586183101,-0.485090917,-0.05392158,-0.588908911,-0.308683962
1.76966E+18,6.511568848,-0.683249683,0.745744133,-0.498452064,-0.055840123,-0.606355786,-0.273730755
1.76966E+18,6.521556885,-0.855356746,0.826693985,-0.426564347,-0.058201499,-0.632296562,-0.229619563
1.76966E+18,6.531544678,-1.01186935,0.863623493,-0.302538885,-0.055548191,-0.657790184,-0.190878823
1.76966E+18,6.541532959,-1.169699905,0.811903243,-0.229937614,-0.05742529,-0.68766582,-0.160912067
1.76966E+18,6.551520996,-1.256230334,0.744436557,-0.245462953,-0.063493565,-0.719861031,-0.153284773
1.76966E+18,6.561507813,-1.246558688,0.644588528,-0.341036958,-0.071728736,-0.748273849,-0.16429615
1.76966E+18,6.57149585,-1.207438684,0.666079644,-0.443045965,-0.076622024,-0.768845975,-0.174658522
1.76966E+18,6.581483887,-1.166875495,0.894166516,-0.493144167,-0.075341314,-0.738904595,-0.177366957
1.76966E+18,6.591472168,-1.035682772,1.218729894,-0.461191278,-0.055145498,-0.645253718,-0.180067658
1.76966E+18,6.601459961,-0.699366412,1.466078514,-0.485888205,-0.024525065,-0.542322159,-0.199681476
1.76966E+18,6.611447754,-0.191705352,1.660689232,-0.604309417,-0.00613647,-0.434724897,-0.233977392
1.76966E+18,6.621435791,0.208638659,1.833996466,-0.64917644,0.010253144,-0.334564745,-0.260169953
1.76966E+18,6.631423584,0.43774026,1.844218584,-0.596418956,0.028007109,-0.238272816,-0.289472431
1.76966E+18,6.641411865,0.829244838,1.852981152,-0.571019726,0.034914926,-0.15896903,-0.346811801
1.76966E+18,6.651399902,1.195488573,1.81609899,-0.570757568,0.013401643,-0.10886725,-0.404875636
1.76966E+18,6.661387939,1.13946025,1.451646669,-0.634929012,-0.020312883,-0.07049907,-0.43926239
1.76966E+18,6.671374756,1.00770434,1.19688105,-0.524129965,-0.035977066,-0.03679144,-0.4555628
1.76966E+18,6.681362793,0.814150437,1.118046583,-0.279839855,-0.03282411,-0.043791544,-0.414684504
1.76966E+18,6.69135083,0.321923969,0.978975381,0.008749708,-0.004282747,-0.065456629,-0.28145799
1.76966E+18,6.701338867,-0.314748671,0.751965784,0.251546073,0.005983381,-0.129085451,-0.06636975
1.76966E+18,6.711326904,-0.611513942,0.59089727,0.344098976,-0.018874831,-0.219149292,0.135144189
1.76966E+18,6.721314941,-0.577805441,0.579094604,0.362757207,-0.089975081,-0.37810111,0.268851668
1.76966E+18,6.731303711,-0.23138562,0.358536375,0.328906376,-0.180493519,-0.513682902,0.281660914
1.76966E+18,6.741291504,0.285736365,-0.12247721,0.283232712,-0.23997505,-0.621097326,0.190075263
1.76966E+18,6.751279541,0.827429606,-0.897673647,0.221923965,-0.252359271,-0.691422343,0.064701371
1.76966E+18,6.761267578,1.057198877,-1.691379554,0.084709497,-0.241633847,-0.696674287,-0.05005683
1.76966E+18,6.771255859,1.340504216,-2.05440155,-0.030339901,-0.196889266,-0.619142771,-0.166813269
1.76966E+18,6.781242676,1.693810289,-2.152710533,-0.053375616,-0.127930224,-0.500313461,-0.267361879
1.76966E+18,6.791230713,2.034322346,-2.248586152,-0.085108433,-0.062210858,-0.3458139,-0.348623455
1.76966E+18,6.80121875,2.395593115,-2.183041958,-0.214980721,-0.017559029,-0.200132504,-0.411900848
1.76966E+18,6.811206543,2.727043329,-1.891322865,-0.280847863,0.006915689,-0.141532302,-0.446535796
1.76966E+18,6.82119458,2.913459051,-1.418489665,-0.22324703,0.015843604,-0.154248133,-0.449997991
1.76966E+18,6.831182861,2.75722161,-0.981428035,-0.142840783,0.001313665,-0.141251639,-0.421561569
1.76966E+18,6.841170654,2.457932959,-0.573316021,-0.227503226,-0.036161058,-0.133348465,-0.413271099
1.76966E+18,6.851158691,2.224879697,-0.048522331,-0.403135687,-0.079158589,-0.188761115,-0.400233328
1.76966E+18,6.861146729,1.84970666,0.421560694,-0.424104533,-0.125897706,-0.249099717,-0.376070857
1.76966E+18,6.871134766,1.31123019,0.743573218,-0.47652621,-0.153284058,-0.300553858,-0.313986182
1.76966E+18,6.881122803,0.677448011,0.913650384,-0.422530416,-0.150528431,-0.319794923,-0.204782486
1.76966E+18,6.891109863,0.193081316,0.987640334,-0.3534712,-0.108799905,-0.281223565,-0.080460273
1.76966E+18,6.901097656,-0.160919753,1.067055816,0.047788756,-0.041384973,-0.194320396,0.040282831
1.76966E+18,6.911085693,-0.419004872,0.962677157,0.459689057,0.034200598,-0.067404792,0.125271231
1.76966E+18,6.921073486,-0.436275448,0.635564095,0.695268037,0.089993387,0.072169662,0.156399131
1.76966E+18,6.931061768,-0.308259309,0.189541744,0.92511958,0.132646039,0.15817672,0.145642623
1.76966E+18,6.941049561,-0.127061907,-0.294066533,0.962000573,0.134801939,0.193289191,0.105685703
1.76966E+18,6.951037598,0.006151508,-0.863442876,0.834367588,0.092691757,0.207512602,0.048979279
1.76966E+18,6.961025635,0.298103533,-1.383629948,0.737057553,0.035309669,0.174956515,-0.023674138
1.76966E+18,6.971013672,0.670230334,-1.715048599,0.60584934,-0.032908801,0.080392458,-0.101979598
1.76966E+18,6.981001709,0.9873697,-1.879565208,0.480242016,-0.091722883,-0.005575464,-0.169592828
1.76966E+18,6.990989746,1.008029334,-1.891799251,0.432385455,-0.142576754,-0.073902592,-0.21049659
1.76966E+18,7.000976563,0.783748869,-1.788964899,0.341942675,-0.167984486,-0.120376684,-0.219692379
1.76966E+18,7.0109646,0.539143994,-1.581942443,0.305981135,-0.178451508,-0.134831265,-0.223353431
1.76966E+18,7.020952881,0.353133347,-1.369966165,0.220025437,-0.173635617,-0.122912496,-0.23177363
1.76966E+18,7.030940674,0.148413907,-1.164292785,0.167484811,-0.16567196,-0.07769309,-0.245531514
1.76966E+18,7.040928711,-0.047866205,-0.984957963,0.049716509,-0.157193944,-0.007627776,-0.26665625
1.76966E+18,7.050916748,-0.139319039,-0.850175398,-0.105609077,-0.153358191,0.057790112,-0.285739928
1.76966E+18,7.060904785,-0.180726862,-0.71897303,-0.235479612,-0.142737538,0.122538194,-0.287859529
1.76966E+18,7.070892822,-0.269171746,-0.591118804,-0.2609937,-0.131461978,0.184105948,-0.272592962
1.76966E+18,7.080880615,-0.317219153,-0.414644631,-0.337997445,-0.120103963,0.261144489,-0.247152507
1.76966E+18,7.090868652,-0.275208395,-0.202259771,-0.34170156,-0.11105907,0.332397103,-0.216857448
1.76966E+18,7.100855713,-0.213792681,-0.069812372,-0.415576359,-0.099528104,0.382645369,-0.189710408
1.76966E+18,7.110843506,-0.159479491,0.000357727,-0.435672806,-0.087717779,0.416887492,-0.15326798
1.76966E+18,7.120831787,-0.200800805,0.015390461,-0.449214571,-0.071464814,0.455266804,-0.106961302
1.76966E+18,7.13081958,-0.279581788,0.044711833,-0.461389285,-0.050788827,0.483778059,-0.056484543
1.76966E+18,7.140807617,-0.332747269,0.055343117,-0.464282084,-0.025560794,0.499762863,-0.004001174
1.76966E+18,7.150795654,-0.385694431,0.11300737,-0.42362844,0.001401581,0.527979016,0.04310349
1.76966E+18,7.160783447,-0.48843672,0.16641572,-0.337265185,0.039218262,0.55989325,0.089963041
1.76966E+18,7.170771729,-0.595201397,0.169369894,-0.193735543,0.075869486,0.596546829,0.136586741
1.76966E+18,7.180759766,-0.658486121,0.17406302,-0.019184008,0.109479733,0.631702721,0.17289795
1.76966E+18,7.190747803,-0.651911418,0.19401509,0.194622116,0.149630338,0.668996274,0.200479239
1.76966E+18,7.200735596,-0.624958822,0.188684835,0.425071917,0.184070915,0.72371614,0.2204936
1.76966E+18,7.210722656,-0.612274989,0.139848616,0.578269844,0.207309395,0.764607906,0.238219336
1.76966E+18,7.220710938,-0.57520578,0.080218615,0.692213472,0.211841628,0.782545924,0.244922325
1.76966E+18,7.23069873,-0.432701973,0.019673838,0.718009008,0.200443029,0.783985376,0.242091119
1.76966E+18,7.240686768,-0.265702608,0.000730068,0.702856885,0.177144319,0.751179516,0.231632382
1.76966E+18,7.250674805,-0.111378893,-0.017439211,0.637575288,0.150258899,0.695914149,0.223767281
1.76966E+18,7.260662842,-0.047455579,-0.013162264,0.562074496,0.125938535,0.645822942,0.236246392
1.76966E+18,7.270650635,-0.055307753,0.059852703,0.455802717,0.10321299,0.598708689,0.273191631
1.76966E+18,7.280638672,-0.12378537,0.140336691,0.38046106,0.093887053,0.564675033,0.326495409
1.76966E+18,7.290626465,-0.169357034,0.213927997,0.354683499,0.090359427,0.544734299,0.367149353
1.76966E+18,7.300614502,-0.197861829,0.333294381,0.364255483,0.094469883,0.53429693,0.404158086
1.76966E+18,7.310602783,-0.285611424,0.431360203,0.407646589,0.109748177,0.524805188,0.442715585
1.76966E+18,7.3205896,-0.45532414,0.528028434,0.535048249,0.132348195,0.537143946,0.487229437
1.76966E+18,7.330577637,-0.614767683,0.626243309,0.633541795,0.159202978,0.573584557,0.526788056
1.76966E+18,7.340565674,-0.696517161,0.691938308,0.742098177,0.18580766,0.61748147,0.565326333
1.76966E+18,7.350553711,-0.700191757,0.727180302,0.866705677,0.214835852,0.662206113,0.58993876
1.76966E+18,7.360541748,-0.622611382,0.738808781,1.011287313,0.236148924,0.697066665,0.599179327
1.76966E+18,7.370529785,-0.443728687,0.749378105,1.065438151,0.248127833,0.701841712,0.595038652
1.76966E+18,7.380517822,-0.221327168,0.849610165,1.100699873,0.238342449,0.753924549,0.568952382
1.76966E+18,7.390505615,0.021453999,1.032798157,1.150455837,0.217153534,0.766331911,0.532613814
1.76966E+18,7.400493652,0.296391177,1.287635672,1.185289104,0.196331978,0.710448205,0.49437052
1.76966E+18,7.410481934,0.496072037,1.534460561,1.218735739,0.184251085,0.655253947,0.455633491
1.76966E+18,7.420469482,0.529907087,1.58762575,1.223032121,0.172594294,0.589550078,0.438647509
1.76966E+18,7.430456787,0.435508263,1.459844004,1.281663173,0.166226938,0.520228267,0.453745782
1.76966E+18,7.440444824,0.275068987,1.230086569,1.363589615,0.160452962,0.466930211,0.492009103
1.76966E+18,7.450432617,0.140141461,1.019843398,1.388280551,0.155665398,0.428136468,0.535564065
1.76966E+18,7.460420654,0.169620361,0.813258165,1.388518743,0.157156006,0.373927057,0.555846095
1.76966E+18,7.470408691,0.386178123,0.694178196,1.176050882,0.158533663,0.322963715,0.515164435
1.76966E+18,7.480396729,0.759422383,0.646402884,1.102603807,0.17023629,0.257879853,0.41784218
1.76966E+18,7.490384521,0.977078461,0.426150944,0.902859379,0.190694153,0.189987376,0.328779429
1.76966E+18,7.500372559,1.000798506,0.126186001,0.374280472,0.181057692,0.183523431,0.229500234
1.76966E+18,7.51036084,1.407101133,0.010311551,-0.319818375,0.149806559,0.216488034,0.104758039
1.76966E+18,7.520348633,1.773973666,-0.377917367,-1.046858977,0.089038819,0.224805757,0.002460088
1.76966E+18,7.53033667,1.782466623,-0.938141851,-1.79079796,0.041355979,0.317460835,-0.072845317
1.76966E+18,7.54032373,1.7768425,-1.512764278,-2.422659254,-0.025359504,0.400865167,-0.13349393
1.76966E+18,7.550311523,1.793406389,-1.686971675,-3.077538729,-0.088765375,0.498874277,-0.190202221
1.76966E+18,7.560299805,1.660478951,-1.457445711,-3.270334506,-0.076187372,0.57104373,-0.206452757
1.76966E+18,7.570287842,1.236211044,-1.084815929,-3.069806381,-0.000979699,0.687851608,-0.156797841
1.76966E+18,7.580275635,0.567800764,-0.596520371,-2.962039542,0.106545739,0.863899469,-0.020462621
1.76966E+18,7.590263672,-0.100908644,0.060873279,-2.580964587,0.207320288,1.068149567,0.146912798
1.76966E+18,7.600251953,-0.375345032,0.609931641,-1.761624911,0.322783828,1.25250113,0.295966238
1.76966E+18,7.610239746,-0.570312163,1.055521445,-0.943439957,0.426704645,1.363615632,0.409840077
1.76966E+18,7.620227539,-0.604853168,1.241772331,-0.373925667,0.489890754,1.457405686,0.430106282
1.76966E+18,7.630215576,-0.673825144,1.137343988,0.128103379,0.509335816,1.48179388,0.385346264
1.76966E+18,7.640203613,-0.606323387,0.92161391,0.698108083,0.508040011,1.443532944,0.287309498
1.76966E+18,7.65019043,-0.424587348,0.74871175,1.159376956,0.444885492,1.376744628,0.171967968
1.76966E+18,7.660178711,-0.171207777,0.415471729,1.15967214,0.361551166,1.210936069,0.064352922
1.76966E+18,7.670166748,0.169055129,0.016159108,1.000718719,0.275601357,0.96857959,0.000688992
1.76966E+18,7.680154541,0.227693488,-0.430011127,0.623513007,0.205181897,0.76357013,-0.04159455
1.76966E+18,7.690142578,0.374599036,-0.869567496,0.20370924,0.13924256,0.599521041,-0.083233878
1.76966E+18,7.700130859,0.531196834,-1.178309036,-0.191768626,0.082762755,0.472489327,-0.118270807
1.76966E+18,7.710118652,0.574507568,-1.413093359,-0.387643811,0.032733679,0.380658478,-0.154454917
1.76966E+18,7.720106689,0.457299239,-1.57595051,-0.629718437,0.000441766,0.331043631,-0.183450401
1.76966E+18,7.730094482,0.296146846,-1.501675898,-0.875858705,-0.027770432,0.282778352,-0.195772573
1.76966E+18,7.74008252,0.031233343,-1.286610421,-1.215792233,-0.051158566,0.268301159,-0.189550266
1.76966E+18,7.750070801,-0.227453834,-0.846729057,-1.42104651,-0.056020699,0.276901305,-0.159665614
1.76966E+18,7.760057617,-0.532299827,-0.375832962,-1.527480201,-0.0345328,0.296621323,-0.094749838
1.76966E+18,7.770045654,-0.925171602,0.008717559,-1.577198318,0.008035166,0.357691586,0.018155143
1.76966E+18,7.780033691,-1.400216342,0.303898776,-1.439450912,0.071744643,0.431993365,0.164952233
1.76966E+18,7.790021484,-1.677463257,0.434645801,-1.298661362,0.14479062,0.530777991,0.295530766
1.76966E+18,7.800009521,-1.675610615,0.312099618,-1.128195198,0.212078154,0.642977178,0.35438633
1.76966E+18,7.809997559,-1.433753577,0.028007951,-0.981449808,0.259537786,0.739591062,0.332205653
1.76966E+18,7.819985596,-1.220229484,-0.206358439,-0.811669142,0.285053819,0.796892405,0.259164751
1.76966E+18,7.829973389,-1.121676464,-0.338457463,-0.601563772,0.289490908,0.810737669,0.182906732
1.76966E+18,7.839961426,-1.11912824,-0.374966116,-0.460685374,0.281777024,0.78952986,0.120988779
1.76966E+18,7.849949707,-1.073684586,-0.369278718,-0.381446272,0.260075718,0.7529127,0.077484444
1.76966E+18,7.8599375,-1.016008642,-0.425508555,-0.35649537,0.238360658,0.695112288,0.071243517
1.76966E+18,7.869924561,-0.965526994,-0.513002714,-0.305667831,0.221360907,0.627313018,0.07595066
1.76966E+18,7.879912598,-0.843120511,-0.624879035,-0.285722629,0.20787181,0.554903269,0.079775721
1.76966E+18,7.889900391,-0.744968764,-0.71369129,-0.267811856,0.201008052,0.517146289,0.079292625
1.76966E+18,7.899888672,-0.773620858,-0.721803285,-0.208993317,0.198412776,0.47833553,0.082646087
1.76966E+18,7.909876709,-0.827367646,-0.697736181,-0.220233235,0.205185205,0.43399632,0.097446337
1.76966E+18,7.919864502,-0.910397812,-0.651412821,-0.198721368,0.214262649,0.40414083,0.120969139
1.76966E+18,7.929852539,-1.017839949,-0.571926612,-0.143676503,0.230436027,0.352999896,0.157875225
1.76966E+18,7.93984082,-1.120430263,-0.493572622,-0.119925479,0.234802008,0.314217091,0.193571717
1.76966E+18,7.949828613,-1.180002688,-0.362197235,-0.119073393,0.231181711,0.287624091,0.213423982
1.76966E+18,7.959816406,-1.141163839,-0.215783854,-0.118760819,0.222878069,0.257901102,0.207723662
1.76966E+18,7.969803711,-1.117738247,-0.09809914,-0.086920305,0.22223945,0.240846232,0.184654295
1.76966E+18,7.979791504,-1.118177808,-0.010880875,-0.031812019,0.232498124,0.244197235,0.1475223
1.76966E+18,7.989779297,-1.204796645,0.057862991,0.086623952,0.246433109,0.284394175,0.125129372
1.76966E+18,7.999767578,-1.411311152,0.035814825,0.147522365,0.264094055,0.308157802,0.112836562
1.76966E+18,8.009755615,-1.464731484,-0.06643442,0.138485364,0.279548645,0.325822532,0.101400144
1.76966E+18,8.019743408,-1.442995161,-0.106806762,0.145019442,0.285919249,0.31826669,0.070950709
1.76966E+18,8.029731445,-1.334515204,-0.167578919,0.055697776,0.277926832,0.279306233,0.034427326
1.76966E+18,8.039719727,-1.280770462,-0.198475577,-0.026167584,0.259544909,0.213472754,-0.001608783
1.76966E+18,8.04970752,-1.317589204,-0.133384973,-0.058502458,0.236701369,0.142814294,-0.015089172
1.76966E+18,8.059695557,-1.463485575,0.042507016,-0.027999329,0.214003876,0.088624485,-0.000925806
1.76966E+18,8.069683594,-1.641230791,0.287563727,0.045815556,0.200019613,0.055048414,0.030403888
1.76966E+18,8.079671631,-1.687429648,0.665513827,0.197317785,0.210209802,0.030194519,0.054048784
1.76966E+18,8.089658447,-1.383849436,1.189632978,0.261426977,0.207069665,0.058305249,0.03863148
1.76966E+18,8.099646729,-1.028911963,1.664027437,0.336598099,0.234442472,0.125055537,-0.009467239
1.76966E+18,8.109634521,-0.669433339,2.118514249,0.353595119,0.211970732,0.218579367,-0.109428458
1.76966E+18,8.119622559,-0.083576401,2.676379602,0.119693132,0.194072515,0.321809381,-0.253355175
1.76966E+18,8.129610596,0.439874642,3.126789374,0.161570618,0.185661718,0.386754036,-0.395844162
1.76966E+18,8.139598633,0.707607294,3.118040835,-0.085712536,0.168072864,0.391055465,-0.494418055
1.76966E+18,8.149586426,0.853970114,2.89222074,-0.562131486,0.113738783,0.436419219,-0.552718401
1.76966E+18,8.159574463,0.928411607,2.635607447,-0.783988523,0.089760214,0.559789062,-0.576820016
1.76966E+18,8.1695625,0.803184514,2.250974508,-0.72723437,0.136745572,0.547506034,-0.493623644
1.76966E+18,8.179550293,0.465306604,1.712199639,-0.274438288,0.256983906,0.542182028,-0.292241126
1.76966E+18,8.189537354,-0.060461483,1.354853351,-0.090566698,0.336834818,0.59131974,0.020981485
1.76966E+18,8.199525635,-0.505866286,1.050103512,-0.038136838,0.367510587,0.57724452,0.379956692
1.76966E+18,8.209513428,-0.505555028,0.966603975,0.204017136,0.347813308,0.390957415,0.652634561
1.76966E+18,8.219501465,-0.034456104,0.672780019,0.360616688,0.290365219,0.233571529,0.735524654
1.76966E+18,8.229489502,0.48517538,0.193892925,0.483569406,0.243674159,0.036754079,0.690893829
1.76966E+18,8.239477539,0.670289079,-0.443172222,0.730476421,0.118749902,-0.15852429,0.575382829
1.76966E+18,8.249465576,0.870518806,-1.059967319,0.396796255,0.02111895,-0.194493204,0.41030705
1.76966E+18,8.259453613,1.602372945,-1.314129711,0.676032299,-0.020064706,-0.14710173,0.167138875
1.76966E+18,8.26944165,2.493568336,-1.255057929,0.570035099,-0.048304863,-0.174290732,-0.073529668
1.76966E+18,8.279429688,2.948135519,-1.501421046,0.189793965,-0.05845999,-0.223540545,-0.284961134
1.76966E+18,8.289417725,3.212606248,-1.522702904,-0.073285016,-0.060500771,-0.139902651,-0.441630363
1.76966E+18,8.299404785,3.346088251,-1.478506619,-0.281332724,-0.053129986,-0.037737813,-0.548257709
1.76966E+18,8.309392578,3.636062546,-1.242256315,-0.639548196,-0.061457422,0.003039179,-0.610699773
1.76966E+18,8.319380615,3.895400003,-0.898009747,-0.949429553,-0.065590389,-0.029194392,-0.630072951
1.76966E+18,8.329368408,3.775895672,-0.461143932,-1.137197858,-0.0653238,-0.131197453,-0.578308046
1.76966E+18,8.339356445,3.076803985,0.104785486,-1.092683886,-0.038484298,-0.20647268,-0.4375965
1.76966E+18,8.349344482,2.065571763,0.611922522,-1.00072924,-0.029468164,-0.233260632,-0.266779482
1.76966E+18,8.35933252,1.005898752,0.861810891,-0.866366947,-0.035922427,-0.239809915,-0.073825538
1.76966E+18,8.369320313,0.056238897,0.926118236,-0.658598933,-0.051079277,-0.2704826,0.131599531
1.76966E+18,8.379308594,-0.553636338,0.743330642,-0.529792228,-0.036931373,-0.288561016,0.287414402
1.76966E+18,8.389296631,-0.951239525,0.41593584,-0.180431386,0.000426118,-0.234214962,0.375932008
1.76966E+18,8.399284668,-1.199433657,0.029860885,0.019894495,0.052139148,-0.163796812,0.403154761
1.76966E+18,8.409271484,-1.221141046,-0.41446869,0.142790807,0.100136496,-0.088588625,0.380850792
1.76966E+18,8.419259521,-1.209542671,-0.793997584,0.278769595,0.150226533,0.044003356,0.335669279
1.76966E+18,8.429247559,-1.165340541,-1.109133793,0.499878152,0.17847389,0.256273806,0.285976291
1.76966E+18,8.439235596,-1.050555055,-1.41979724,0.561717645,0.195980877,0.447522402,0.2488814
1.76966E+18,8.449223633,-0.650663756,-1.572179174,0.694257399,0.20143716,0.512322426,0.190035924
1.76966E+18,8.45921167,0.010494506,-1.684161878,0.796638746,0.171672136,0.465491712,0.110403687
1.76966E+18,8.469199463,0.518772822,-1.852587184,0.79568656,0.121066488,0.367315352,0.044658232
1.76966E+18,8.479187744,0.927356837,-1.927550948,0.712305097,0.06311243,0.26838401,-0.016447762
1.76966E+18,8.489175537,1.272617259,-1.956653708,0.527929357,-0.007358807,0.183369517,-0.084540263
1.76966E+18,8.499163574,1.385936179,-1.838250616,0.257258605,-0.052186858,0.061154727,-0.145124495
1.76966E+18,8.509151367,1.283007135,-1.735868684,0.252577461,-0.076728158,-0.010156469,-0.200809866
1.76966E+18,8.519138428,1.220252573,-1.75747086,0.14742665,-0.102557614,-0.035101634,-0.256173611
1.76966E+18,8.529126221,1.039777933,-1.530618499,-0.155358904,-0.104213297,-0.069566928,-0.259567261
1.76966E+18,8.539114502,0.438164331,-1.318400813,-0.185782099,-0.08614406,-0.089740664,-0.193305254
1.76966E+18,8.549102539,-0.231055366,-1.160901389,-0.172889008,-0.070813835,-0.047619838,-0.095895074
1.76966E+18,8.559090576,-0.565879149,-0.948282137,-0.196229551,-0.068129376,0.035081036,-0.015869137
1.76966E+18,8.569078369,-0.677808953,-0.843042477,-0.116018243,-0.050565828,0.114397958,0.033164985
1.76966E+18,8.57906665,-0.645769847,-0.889157747,0.064311436,-0.036144637,0.172485441,0.042367999
1.76966E+18,8.589054688,-0.464203612,-0.885582227,-0.017362346,-0.024916217,0.221295863,0.019887725
1.76966E+18,8.59904248,-0.295066942,-0.839485077,0.043575522,-0.022393912,0.233275846,0.003323115
1.76966E+18,8.609030518,-0.250289058,-0.747554397,-0.002703706,-0.028355664,0.24826093,0.003027504
1.76966E+18,8.619018799,-0.200695591,-0.698932697,-0.042808045,-0.033103812,0.25189665,0.019895967
1.76966E+18,8.629005615,-0.139194828,-0.689258275,-0.036534664,-0.039879426,0.247895002,0.056475017
1.76966E+18,8.638993652,-0.141102415,-0.713264589,0.044428924,-0.042406261,0.276840329,0.105802625
1.76966E+18,8.648981689,-0.158673143,-0.868361043,0.068819561,-0.045383941,0.336686879,0.156178191
1.76966E+18,8.658969482,-0.087674776,-1.028313705,0.038569092,-0.039375227,0.329702288,0.196597323
1.76966E+18,8.66895752,0.044209436,-1.074929325,-0.030130058,-0.041900169,0.334635258,0.209901676
1.76966E+18,8.678945557,0.152370828,-0.885234437,0.097807171,-0.054829609,0.364419371,0.21924682
1.76966E+18,8.688933594,0.157484518,-0.571605125,0.311658011,-0.07204029,0.346123457,0.235105678
1.76966E+18,8.698921387,0.075823303,-0.266619139,0.503073148,-0.080235228,0.330471158,0.256296277
1.76966E+18,8.708909424,0.009662147,-0.078397829,0.587970861,-0.087947741,0.328949422,0.272737294
1.76966E+18,8.718897705,0.031167584,0.124516607,0.678853201,-0.081082121,0.34224993,0.292932123
1.76966E+18,8.728885498,-0.06758622,0.440765161,1.023753996,-0.060982443,0.375662208,0.327804595
1.76966E+18,8.738871826,-0.292418766,0.738015,1.385103966,-0.022876672,0.412746966,0.382549554
1.76966E+18,8.748859619,-0.566115003,0.975241455,1.773204143,0.025703382,0.417797923,0.444700807
1.76966E+18,8.758847656,-0.752858641,1.173047754,2.188044005,0.095466353,0.381604284,0.501459599
1.76966E+18,8.768835693,-0.918636648,1.294274087,2.501998895,0.133272856,0.404229164,0.54164058
1.76966E+18,8.778823975,-1.057812479,1.326171447,2.869383762,0.134613246,0.422747731,0.568781734
1.76966E+18,8.788811768,-1.029336033,1.328071143,3.063036741,0.122301728,0.400428861,0.585273623
1.76966E+18,8.798799805,-0.793686034,1.251643737,3.204512081,0.089000404,0.341329038,0.565529943
1.76966E+18,8.808787842,-0.334186654,1.155505083,3.147300832,0.047214877,0.264661133,0.513835311
1.76966E+18,8.818775635,0.172202341,1.138489067,2.940283929,0.010002378,0.154057726,0.448157579
1.76966E+18,8.828763916,0.683222941,1.247413552,2.662657951,-0.0263274,0.015019942,0.363203526
1.76966E+18,8.838751953,0.967649831,1.561831968,2.53549989,-0.062573873,-0.146301597,0.297200859
1.76966E+18,8.84873877,0.924859322,1.732578411,2.374455926,-0.096775517,-0.293837786,0.261658818
1.76966E+18,8.858726807,0.74345836,1.749701395,2.264432978,-0.121989138,-0.419067025,0.250045747
1.76966E+18,8.868714844,0.596712532,1.711267327,2.08577094,-0.141122878,-0.553468764,0.251052946
1.76966E+18,8.878703125,0.471462351,1.619025681,1.940732208,-0.147772714,-0.684714794,0.252639294
1.76966E+18,8.888690918,0.334898163,1.592663744,1.791733487,-0.149015069,-0.781159043,0.24563463
1.76966E+18,8.898678711,0.380434757,1.613313149,1.462220962,-0.145681024,-0.826916456,0.21786508
1.76966E+18,8.908666748,0.47969578,1.586306484,1.08380266,-0.115674645,-0.831819117,0.193453208
1.76966E+18,8.918654541,0.820010561,1.41633161,0.531243888,-0.118187584,-0.797352552,0.155121863
1.76966E+18,8.928642822,1.258739686,1.121375435,-0.709009124,-0.231063008,-0.677254379,0.137524232
1.76966E+18,8.938630859,1.403419521,0.590678659,-1.754745965,-0.251562685,-0.51375109,0.145780772
1.76966E+18,8.948618652,1.816091099,0.034127895,-1.546344184,-0.19957009,-0.395993352,0.131254286
1.76966E+18,8.958605713,2.679495689,-0.455918891,-2.064632875,-0.165828228,-0.29892078,0.032184333
1.76966E+18,8.96859375,3.455865846,-1.028731638,-2.977786854,-0.170964405,-0.187981203,-0.137354106
1.76966E+18,8.978581787,3.589455401,-1.535782165,-3.655549921,-0.210311949,-0.109719627,-0.315738052
1.76966E+18,8.988569824,3.051177084,-1.405067873,-3.925653103,-0.234773606,0.001754969,-0.422215223
1.76966E+18,8.998557861,2.023691062,-0.750475253,-3.549643031,-0.193310186,0.103159286,-0.419472337
1.76966E+18,9.008545898,0.937746422,-0.053913961,-3.21483123,-0.135034367,0.226439953,-0.310627073
1.76966E+18,9.018533936,-0.010113398,0.612250439,-3.085913174,-0.07363762,0.362668484,-0.119420812
1.76966E+18,9.028521973,-0.762547822,1.161296526,-2.399471563,0.024386682,0.503464997,0.096349299
1.76966E+18,9.03851001,-1.216697803,1.725777498,-1.398110163,0.162753865,0.619033277,0.303222388
1.76966E+18,9.048497559,-1.755531708,1.904254828,-0.667374945,0.278609127,0.750953496,0.449368954
1.76966E+18,9.058485596,-1.964598822,1.618762646,-0.151120828,0.334935516,0.845954359,0.497605562
1.76966E+18,9.068473145,-1.61920396,1.103078146,0.363549965,0.34294498,0.87973386,0.438210934
1.76966E+18,9.078460938,-0.945807855,0.503538135,0.800976483,0.307525426,0.851662278,0.303997934
1.76966E+18,9.08844873,-0.331143487,-0.13310674,1.050706592,0.235984117,0.784178019,0.148395285
1.76966E+18,9.098436768,0.236314893,-0.483061165,1.16777259,0.150176927,0.648506105,0.014800179
1.76966E+18,9.108424561,0.803178377,-0.771654235,0.907180895,0.071273856,0.408558249,-0.057983216
1.76966E+18,9.118412842,1.232401276,-1.105302836,0.44092605,0.001613731,0.157183364,-0.094479062
1.76966E+18,9.128400879,1.529466845,-1.419798994,0.068943042,-0.073340937,-0.094624378,-0.119517036
1.76966E+18,9.138388916,1.79898039,-1.620344947,-0.312604499,-0.140306503,-0.355291158,-0.144359559
1.76966E+18,9.148376709,1.930395231,-1.663083434,-0.581464548,-0.192873314,-0.623608887,-0.172631681
1.76966E+18,9.158364746,1.702498622,-1.655149718,-0.739740947,-0.219125077,-0.861272573,-0.197221771
1.76966E+18,9.168353027,1.223729602,-1.555825421,-0.81480101,-0.237583175,-1.0250386,-0.209380433
1.76966E+18,9.178339844,0.503184792,-1.386674138,-0.972912135,-0.262745053,-1.090985537,-0.20375587
1.76966E+18,9.188327881,-0.180911863,-1.122289627,-1.132614183,-0.276689351,-1.036954284,-0.197655097
1.76966E+18,9.198315918,-0.927594153,-0.807072169,-1.31337524,-0.275632471,-0.892145336,-0.131388441
1.76966E+18,9.208303711,-1.894686497,-0.43095513,-1.431574333,-0.24484472,-0.733079016,-0.004936759
1.76966E+18,9.218291992,-2.382367138,-0.252760709,-1.321590402,-0.175696522,-0.562790632,0.085715897
1.76966E+18,9.228280029,-2.119325273,-0.30352702,-1.28105454,-0.104431391,-0.381411761,0.096440986
1.76966E+18,9.238267578,-1.736746782,-0.523766684,-1.340486242,-0.044813558,-0.187618434,0.041037396
1.76966E+18,9.248255615,-1.465604613,-0.729669781,-1.228477673,0.005785437,-0.006665432,-0.050238188
1.76966E+18,9.258243896,-1.193196224,-0.752607004,-1.056478892,0.034759287,0.096509166,-0.12996456
1.76966E+18,9.268231934,-1.02055783,-0.658824559,-0.881187207,0.054114074,0.12848787,-0.162015438
1.76966E+18,9.278219727,-0.883946443,-0.513986464,-0.641727732,0.068075351,0.101103596,-0.149171501
1.76966E+18,9.288206787,-0.718900257,-0.436528546,-0.495819962,0.067562424,0.042011514,-0.100422345
1.76966E+18,9.29819458,-0.596271072,-0.487561983,-0.331385187,0.056832664,-0.030427864,-0.034171809
1.76966E+18,9.308182617,-0.492923949,-0.622858927,-0.230654091,0.037682671,-0.107036091,0.024975937
1.76966E+18,9.318170898,-0.356036082,-0.740678082,-0.159965667,0.020283218,-0.179703489,0.054459818
1.76966E+18,9.328158936,-0.237477215,-0.867787043,-0.099083328,0.008613779,-0.265985668,0.051971626
1.76966E+18,9.338146729,-0.219461958,-0.920064342,-0.117313543,0.001660739,-0.354844838,0.021596773
1.76966E+18,9.348134766,-0.263303438,-0.904777341,-0.221845785,-0.010896331,-0.42685619,-0.021269999
1.76966E+18,9.358123047,-0.434846584,-0.782373782,-0.326842867,-0.012771002,-0.490466774,-0.047251008
1.76966E+18,9.36811084,-0.656677318,-0.568807019,-0.370714742,-0.006233207,-0.534848332,-0.050281152
1.76966E+18,9.378098877,-0.889065685,-0.365449515,-0.457975093,0.002236829,-0.54320842,-0.010753124
1.76966E+18,9.38808667,-1.202733283,-0.149490889,-0.588107347,0.015966756,-0.49981758,0.058830217
1.76966E+18,9.39807373,-1.439780582,0.007777064,-0.619202742,0.045227185,-0.447753608,0.134078488
1.76966E+18,9.408061768,-1.444093185,0.013128362,-0.607100947,0.080973998,-0.398728251,0.182479843
1.76966E+18,9.418050049,-1.383818457,-0.122579501,-0.517351411,0.11722488,-0.350431174,0.199469566
1.76966E+18,9.428037598,-1.420065244,-0.288344648,-0.400991076,0.15912573,-0.27019307,0.16898036
1.76966E+18,9.438025635,-1.501116218,-0.256448458,-0.176566381,0.196797207,-0.161631718,0.114426732
1.76966E+18,9.448013672,-1.55207279,-0.15344401,-0.008951076,0.214914694,-0.08753325,0.049349464
1.76966E+18,9.458001953,-1.568515537,-0.058036594,0.116534376,0.224041536,-0.042206813,-0.007363432
1.76966E+18,9.467989746,-1.486745455,-0.023240006,0.162459384,0.221130162,-0.035461824,-0.065332197
1.76966E+18,9.477977783,-1.358820794,-0.096455464,0.15338322,0.215462506,-0.046308309,-0.098768786
1.76966E+18,9.48796582,-1.280650051,-0.186570619,0.131765555,0.210106626,-0.083518267,-0.124941804
1.76966E+18,9.497953613,-1.019138465,-0.239747498,0.037292204,0.201409817,-0.121590264,-0.153923512
1.76966E+18,9.507940918,-0.794876266,-0.208932089,-0.075007895,0.194551378,-0.166480243,-0.177793413
1.76966E+18,9.517928955,-0.756433285,-0.227305365,-0.134494395,0.193863064,-0.212618664,-0.178775027
1.76966E+18,9.527916748,-0.868563288,-0.161432671,-0.170537184,0.1942399,-0.26128155,-0.153838247
1.76966E+18,9.537904785,-1.015438149,0.011609774,-0.208454827,0.18120876,-0.302615941,-0.114804134
1.76966E+18,9.547892822,-1.099110411,0.318232421,-0.259763574,0.15760836,-0.327163607,-0.073222868
1.76966E+18,9.557881104,-1.049105733,0.812397748,-0.209172327,0.141428754,-0.323841661,-0.050619207
1.76966E+18,9.567868896,-0.841718682,1.334652859,-0.099429219,0.139081448,-0.285736084,-0.065467663
1.76966E+18,9.577856689,-0.396473014,1.860067895,-0.05451485,0.134836257,-0.211845264,-0.149975091
1.76966E+18,9.587844727,0.10669015,2.359203997,-0.186895614,0.113371715,-0.114064373,-0.285145134
1.76966E+18,9.59783252,0.291544175,2.556428112,-0.485794973,0.081145808,-0.021315962,-0.405354828
1.76966E+18,9.607820801,0.210398362,2.378055997,-0.817422591,0.058164861,0.143318787,-0.51818043
1.76966E+18,9.617807861,0.275928234,2.086955328,-0.78950904,0.079093203,0.27758348,-0.593423069
1.76966E+18,9.627795654,0.207783503,1.704184675,-0.658584613,0.125137657,0.407021075,-0.590026736
1.76966E+18,9.637783691,0.018835487,1.537119551,-0.531961389,0.209988922,0.560930252,-0.510408938
1.76966E+18,9.647771729,0.107669224,1.530101197,-0.216811152,0.336747408,0.664085686,-0.350980937
1.76966E+18,9.657759766,0.077906539,1.450913094,0.184463418,0.414173037,0.767289042,-0.11139822
1.76966E+18,9.667747803,-0.186416598,1.414208042,0.325669586,0.421358496,0.840783,0.16686298
1.76966E+18,9.67773584,-0.267971722,1.229490942,0.506806197,0.37446782,0.707039595,0.419443965
1.76966E+18,9.687723877,8.09563E-05,0.782055802,0.377234938,0.278664052,0.477876484,0.568084061
1.76966E+18,9.697711914,0.384860026,0.216580558,0.426943264,0.144757017,0.25418365,0.621198177
1.76966E+18,9.707699951,0.867574569,-0.377031816,0.598427373,0.009889758,-0.001500827,0.541515648
1.76966E+18,9.717687988,1.697580016,-1.066762386,0.652418783,-0.088861354,-0.253356397,0.338506162
1.76966E+18,9.727674805,2.672620542,-1.59487499,0.209120597,-0.179714829,-0.403850824,0.023558613
1.76966E+18,9.737662842,3.551424069,-1.557706997,-0.214921685,-0.233531654,-0.423704773,-0.336813658
1.76966E+18,9.747651123,3.85437212,-1.619929352,-0.306059461,-0.237043291,-0.450114548,-0.633118808
1.76966E+18,9.757638916,3.836357155,-1.663865524,-0.385318291,-0.222627133,-0.426282912,-0.837663174
1.76966E+18,9.767626709,3.770736974,-1.188141279,-0.433763173,-0.200599864,-0.318669349,-0.93766433
1.76966E+18,9.777614746,3.539621403,-0.492946014,-0.591704787,-0.181577176,-0.242847413,-0.905764937
1.76966E+18,9.787602539,3.205827547,0.146372464,-0.80648414,-0.138831839,-0.21952264,-0.781465352
1.76966E+18,9.79759082,2.633229612,0.820953395,-0.806155347,-0.092459179,-0.228337526,-0.566097558
1.76966E+18,9.807578857,1.684020424,1.264243106,-0.976674995,-0.070899293,-0.174390152,-0.320124775
1.76966E+18,9.817566895,0.781583508,1.4145646,-1.060000344,-0.081347033,-0.139766604,-0.088255696
1.76966E+18,9.827553711,0.183492235,1.424326116,-0.97268008,-0.108649492,-0.111386366,0.094975106
1.76966E+18,9.837541748,-0.187053727,1.258591948,-0.751293876,-0.115509562,-0.14011763,0.208863869
1.76966E+18,9.847529785,-0.455809293,0.982511154,-0.348925958,-0.083478123,-0.207528904,0.268333077
1.76966E+18,9.857517822,-0.580555616,0.586487637,-0.117965577,-0.044954684,-0.195230931,0.254077286
1.76966E+18,9.867505859,-0.479813853,0.103380295,0.043315702,-0.036303673,-0.422404975,0.198932022
1.76966E+18,9.877493896,-0.233893804,-0.396051574,0.368778952,-0.011262963,-0.40189153,0.192938045
1.76966E+18,9.887481689,-0.744933547,-0.571045738,0.574005464,0.026671901,-0.036119409,0.191660807
1.76966E+18,9.897469971,-0.651815557,-1.031460771,0.348326239,0.045144394,0.31403023,0.140209526
1.76966E+18,9.907458008,-0.132822078,-1.392595345,0.146046886,0.064141251,0.433193624,0.078823656
1.76966E+18,9.917445801,0.316590938,-1.444247791,0.477038836,0.098100863,0.408860981,0.03780327
1.76966E+18,9.927433594,0.671307024,-1.580759371,0.770263657,0.096767955,0.318524957,0.01753315
1.76966E+18,9.937420898,0.936463689,-1.904633598,0.529227872,0.021514371,0.194589138,0.054692853
1.76966E+18,9.947408936,1.136843491,-1.936802176,0.479408487,-0.06581068,0.056662958,0.133302435
1.76966E+18,9.957396729,1.503295462,-1.856871145,0.485706418,-0.129670531,-0.146720216,0.138061851
1.76966E+18,9.967384766,1.82027686,-1.876208298,0.242935773,-0.161903292,-0.350991309,0.060575049
1.76966E+18,9.977372559,1.475546308,-1.931843092,0.162480134,-0.185622916,-0.40272823,-0.026621297
1.76966E+18,9.987360596,0.888689545,-1.879276454,0.144804192,-0.19235006,-0.382746518,-0.099350892
1.76966E+18,9.997348877,0.396851785,-1.626473659,0.135480191,-0.189973295,-0.363020688,-0.145583898
1.76966E+18,10.00733691,0.040970308,-1.302313601,0.04713643,-0.178131819,-0.341144949,-0.170067132
1.76966E+18,10.01732471,-0.324535029,-1.040101173,0.009383914,-0.168357924,-0.279365718,-0.168832839
1.76966E+18,10.02731274,-0.72208181,-0.923785993,-0.039013329,-0.150012746,-0.175696298,-0.154909566
1.76966E+18,10.03730103,-0.85946199,-0.777090288,-0.018395196,-0.129967377,-0.054146275,-0.160962328
1.76966E+18,10.04728882,-0.784556679,-0.604667437,-0.04383505,-0.109183267,0.058476944,-0.165906221
1.76966E+18,10.05727588,-0.726335083,-0.458408954,-0.003651801,-0.083321735,0.137792453,-0.154615894
1.76966E+18,10.06726392,-0.571885695,-0.34556408,0.009328969,-0.063886255,0.166738078,-0.135173231
1.76966E+18,10.07725171,-0.48094125,-0.299129662,0.087262688,-0.055434905,0.175167412,-0.110703036
1.76966E+18,10.08723999,-0.431814085,-0.364082903,0.218950794,-0.049863573,0.170649901,-0.113951296
1.76966E+18,10.09722803,-0.481237749,-0.533667901,0.317854236,-0.051204983,0.234734371,-0.089170858
1.76966E+18,10.10721582,-0.728622902,-0.391428006,0.426374524,-0.03935951,0.275541991,0.04007981
1.76966E+18,10.11720361,-0.569082036,-0.317135274,0.418938237,-0.029284911,0.213247642,0.115873352
1.76966E+18,10.12719165,-0.108003571,-0.330441915,0.490337585,-0.018800579,0.175245672,0.150689662
1.76966E+18,10.13717993,-0.222427822,-0.350731254,0.654602557,-0.018388538,0.210233763,0.196004614
1.76966E+18,10.14716772,-0.314025033,-0.222955353,0.72108257,-0.012906954,0.209476888,0.223238364
1.76966E+18,10.15715576,-0.198910169,-0.085572836,0.709617465,-0.022274798,0.176387966,0.238033369
1.76966E+18,10.16714282,-0.267615164,-0.051774611,0.818533475,-0.028572641,0.187600404,0.247650042
1.76966E+18,10.17713062,-0.455363595,0.083617025,0.841933055,-0.026064051,0.224953711,0.270232201
1.76966E+18,10.1871189,-0.459581505,0.122967039,0.795998402,-0.036123876,0.202868119,0.272849023
1.76966E+18,10.19710693,-0.414100733,0.054015083,0.898124021,-0.047681961,0.180168837,0.258385569
1.76966E+18,10.20709473,-0.480699988,0.040140872,1.039289564,-0.054135334,0.17542547,0.243488908
1.76966E+18,10.21708276,-0.449703231,0.042279053,1.083121107,-0.04561707,0.142339751,0.198847964
1.76966E+18,10.2270708,-0.429824957,0.058715224,1.15925333,-0.039210036,0.140345573,0.172344193
1.76966E+18,10.23705908,-0.683311204,0.160736505,1.312779466,-0.026903952,0.141706154,0.188663989
1.76966E+18,10.24704688,-0.760148506,0.323844416,1.472073956,-0.008301239,0.129989564,0.210176483
1.76966E+18,10.25703491,-0.748177497,0.458722258,1.560562971,0.01593188,0.123176225,0.247054562
1.76966E+18,10.26702173,-0.760923289,0.538157029,1.68289142,0.034902908,0.11962463,0.267730832
1.76966E+18,10.27700977,-0.644028702,0.550625465,1.765639261,0.05188771,0.123994328,0.272449553
1.76966E+18,10.28699805,-0.513969221,0.730066087,1.862186203,0.051541235,0.14635849,0.267138422
1.76966E+18,10.29698584,-0.3565981,0.932590646,1.837683337,0.046355791,0.147721753,0.255208522
1.76966E+18,10.30697363,-0.168441381,1.206287761,1.762547432,0.039624654,0.112376288,0.247936502
1.76966E+18,10.31696167,-0.101414548,1.543641062,1.617819228,0.039821662,0.082035661,0.261108398
1.76966E+18,10.32694971,-0.113900666,1.981416978,1.495992591,0.043785248,0.054096438,0.27035144
1.76966E+18,10.33693774,-0.057748132,2.226542077,1.421640238,0.044272974,0.010411322,0.270989209
1.76966E+18,10.34692578,-0.126703303,2.166130571,1.280504213,0.031512704,-0.033110056,0.289081901
1.76966E+18,10.35691382,-0.281281286,1.918901193,1.173422141,0.03132236,-0.062222235,0.29976517
1.76966E+18,10.36690186,-0.096813484,1.717096179,1.123428568,0.014771877,-0.106885575,0.267331868
1.76966E+18,10.37688867,0.172826756,1.437863643,0.566379207,-0.11064478,-0.117747612,0.204536393
1.76966E+18,10.38687695,0.414207409,1.072490116,0.009642858,-0.148598805,-0.083831459,0.097255468
1.76966E+18,10.39686475,1.044097842,0.843177502,0.334107451,-0.096439309,-0.104908429,-0.027988192
1.76966E+18,10.40685278,1.622868766,0.475202852,-0.085921211,-0.046005428,-0.141532749,-0.148951903
1.76966E+18,10.41684082,2.075561242,0.176299985,-0.85613343,-0.016183257,-0.086819381,-0.260355026
1.76966E+18,10.4268291,2.285470944,-0.549184034,-1.388272513,0.014086498,0.066488944,-0.35094139
1.76966E+18,10.43681689,2.255991459,-1.233923371,-2.122475262,-0.024127161,0.123182066,-0.383998066
1.76966E+18,10.44680493,2.251423859,-1.466672973,-2.917660886,-0.099454403,0.15346913,-0.406009883
1.76966E+18,10.45679272,2.195752825,-1.398230136,-3.395714744,-0.173342928,0.192718431,-0.383070737
1.76966E+18,10.46678052,1.907075146,-1.278061203,-3.445292722,-0.174241483,0.273947775,-0.313804835
1.76966E+18,10.4767688,1.621253002,-0.745502725,-3.329865723,-0.126186103,0.345723957,-0.163989514
1.76966E+18,10.48675586,1.221103637,-0.253228911,-3.236513778,-0.013762893,0.364155412,0.001158964
1.76966E+18,10.49674365,0.927207492,0.373809347,-2.971583615,0.118233852,0.428919137,0.16303122
1.76966E+18,10.50673169,0.088772508,0.928068201,-2.305385897,0.26178515,0.606567204,0.343229741
1.76966E+18,10.51671973,-0.675521134,1.486768251,-1.703394402,0.399516791,0.852229118,0.510130823
1.76966E+18,10.52670776,-1.059541056,1.830163171,-1.083309616,0.521929562,1.071984887,0.625082433
1.76966E+18,10.5366958,-1.111583816,1.829697892,-0.495730969,0.60546577,1.142083049,0.669311345
1.76966E+18,10.54668384,-1.084505548,1.562937883,0.011726678,0.624388576,1.129729152,0.618944883
1.76966E+18,10.55667188,-0.942382557,1.014488008,0.426681398,0.563760817,1.19674921,0.501047492
1.76966E+18,10.56665967,-0.647979632,0.317275559,0.481848866,0.456376076,1.233578563,0.332113326
1.76966E+18,10.57664795,-0.012039982,-0.266866976,0.345801981,0.367617399,1.141210437,0.16476509
1.76966E+18,10.58663599,0.560504178,-0.551729627,0.065186466,0.307191342,0.993622363,0.018116256
1.76966E+18,10.5966228,0.835591431,-0.692078594,-0.289571852,0.247855589,0.809507728,-0.074248448
1.76966E+18,10.60661084,0.853712632,-0.877330532,-0.583932399,0.166117579,0.634423494,-0.144665897
1.76966E+18,10.61659888,0.944437444,-0.605755816,-1.045446918,0.07047715,0.568395853,-0.179987654
1.76966E+18,10.62658691,0.434165324,-0.58333531,-1.154883152,0.014865555,0.548544645,-0.157215223
1.76966E+18,10.63657495,-0.014409634,-0.730984955,-1.280044486,0.005243581,0.49418962,-0.099123709
1.76966E+18,10.64656274,-0.402154713,-0.832131207,-1.46988609,0.022547737,0.51473695,-0.018101027
1.76966E+18,10.65655054,-0.804202751,-0.880589826,-1.669381073,0.067655712,0.544660807,0.096925586
1.76966E+18,10.66653857,-1.181081423,-0.920087723,-1.786423398,0.123893693,0.608195305,0.193652391
1.76966E+18,10.67652686,-1.373997174,-0.960374725,-1.813309359,0.197240815,0.743632734,0.241528481
1.76966E+18,10.68651489,-1.523054786,-1.00053664,-1.894606417,0.246682137,0.878933072,0.240410745
1.76966E+18,10.69650269,-1.354459968,-0.983840357,-1.851568655,0.279668272,0.940711319,0.227035388
1.76966E+18,10.70648975,-1.084765367,-1.146882216,-1.584795203,0.317632437,0.89567858,0.219687462
1.76966E+18,10.71647778,-0.81761256,-1.346608085,-1.288855277,0.341973156,0.822322845,0.149314135
1.76966E+18,10.72646582,-0.504990672,-1.213327742,-1.01745095,0.346452057,0.84098947,0.074634045
1.76966E+18,10.7364541,-0.548154545,-0.687349227,-0.803291774,0.314896733,0.93174535,0.023849785
1.76966E+18,10.74644214,-0.295749371,-0.014173487,-0.796062992,0.243456915,1.029828191,-0.017463565
1.76966E+18,10.75643018,-0.351180751,-0.17815818,-0.694586777,0.219552279,0.939990461,5.80966E-05
1.76966E+18,10.76641821,-0.507163048,-0.470964484,-0.634998277,0.216848373,0.815476775,0.054786325
1.76966E+18,10.77640625,-0.637129006,-0.436048069,-0.523974482,0.217083991,0.791023195,0.123990685
1.76966E+18,10.78639404,-0.813275408,-0.416882181,-0.435697356,0.221435338,0.741016984,0.196027324
1.76966E+18,10.79638184,-0.861399095,-0.460373532,-0.342006973,0.237080127,0.676276207,0.245950311
1.76966E+18,10.80636987,-1.032053037,-0.618082214,-0.328773397,0.251818597,0.654239357,0.28355363
1.76966E+18,10.81635718,-1.262387395,-0.667061641,-0.332020708,0.271012664,0.642999351,0.315929025
1.76966E+18,10.82634497,-1.328838182,-0.732468472,-0.315727453,0.288711756,0.592127621,0.340069234
1.76966E+18,10.83633301,-1.395909584,-0.832703454,-0.302224997,0.310948312,0.550754607,0.357546002
1.76966E+18,10.84632104,-1.531077349,-0.830504483,-0.270358033,0.327474833,0.567032099,0.373775035
1.76966E+18,10.85630884,-1.553750807,-0.758095665,-0.259279005,0.333788872,0.579619348,0.377839029
1.76966E+18,10.86629712,-1.414378138,-0.677532766,-0.304165025,0.339125842,0.564604461,0.382297158
1.76966E+18,10.87628516,-1.261005439,-0.57324354,-0.278514159,0.344949186,0.548308015,0.377930343
1.76966E+18,10.88627319,-1.118875581,-0.391080216,-0.160073073,0.359207749,0.549217463,0.359265566
1.76966E+18,10.89626099,-1.03506201,-0.107826753,0.05461188,0.381551117,0.57945919,0.335232705
1.76966E+18,10.90624927,-1.072131219,0.285563493,0.346727864,0.40929991,0.61436367,0.316655308
1.76966E+18,10.9162373,-1.284755733,0.570507977,0.62826517,0.439981997,0.631872118,0.324100912
1.76966E+18,10.92622412,-1.512930867,0.755147336,0.845937907,0.455998242,0.626251221,0.336896062
1.76966E+18,10.93621216,-1.624927745,0.883013253,0.913385595,0.452915549,0.647573054,0.333914071
1.76966E+18,10.9462002,-1.683806635,0.947663128,0.949066857,0.447853953,0.680411935,0.315460742
1.76966E+18,10.95618799,-1.675900246,1.089112165,1.116098663,0.462058872,0.708765328,0.291237473
1.76966E+18,10.96617627,-1.549878203,1.364483934,1.290645375,0.483605683,0.721456349,0.265311331
1.76966E+18,10.97616406,-1.265080872,1.827533407,1.36221219,0.510073066,0.718005478,0.229912236
1.76966E+18,10.9861521,-0.927046164,2.473400285,1.476888955,0.508705795,0.705252647,0.187553868
1.76966E+18,10.99613989,-0.681735771,2.966280832,1.655182159,0.504881561,0.737730026,0.147217706
1.76966E+18,11.00612817,-0.545327067,3.340522141,2.017698544,0.464726359,0.795874298,0.107262567
1.76966E+18,11.01611621,-0.296308467,3.51546136,1.821681466,0.425915778,0.8757146,0.139656991
1.76966E+18,11.026104,0.064480071,3.217269856,1.389950091,0.335032731,0.839703619,0.197309911
1.76966E+18,11.03609106,1.306224053,3.416134724,0.236126385,0.186648831,0.851139069,0.156000897
1.76966E+18,11.0460791,2.367505669,3.186305393,-0.636501376,0.04906353,0.6633178,0.038492385
1.76966E+18,11.05606689,2.834396912,1.769136163,-1.482664323,-0.012529518,0.35458672,-0.092401266
1.76966E+18,11.06605518,3.040560413,0.711102443,-2.136523953,-0.05292834,0.157027036,-0.208498299
1.76966E+18,11.07604321,2.724240255,0.388557419,-2.20012198,0.000431119,0.190866396,-0.192811221
1.76966E+18,11.08603101,1.409993055,-0.065140288,-1.790185965,0.123464897,0.259933621,0.059840471
1.76966E+18,11.09601904,-0.02723609,-0.325476401,-1.519521059,0.21655333,0.253045648,0.433038801
1.76966E+18,11.10600732,-0.493421961,-0.055008771,-0.961270213,0.297562152,0.253129512,0.716720104
1.76966E+18,11.11599536,-0.295647372,-0.331036958,-0.481450807,0.280105293,0.378409237,0.817240298
1.76966E+18,11.12598315,0.20573417,-1.022278516,-0.409878147,0.202376693,0.557378709,0.756018221
1.76966E+18,11.13597095,0.785476716,-1.481069747,-0.231601601,0.112562358,0.625515401,0.582463205
1.76966E+18,11.14595801,1.52365129,-1.504628318,-0.068736852,0.018577801,0.636369348,0.327730775
1.76966E+18,11.15594629,2.363996638,-1.292330552,0.08948241,-0.058631472,0.556720138,0.042505149
1.76966E+18,11.16593408,3.132784815,-0.944277577,0.164580906,-0.099122174,0.404496759,-0.245126367
1.76966E+18,11.17592212,3.586291969,-0.500071921,0.12468641,-0.125689536,0.19589977,-0.462785184
1.76966E+18,11.18590991,3.356523136,-0.222030055,-0.205126559,-0.154963002,0.015762761,-0.529158056
1.76966E+18,11.19589795,2.650738965,0.209332486,-0.282408828,-0.166398048,-0.10327746,-0.453351289
1.76966E+18,11.20588623,2.004208509,0.585255465,-0.455131247,-0.17767334,-0.167876422,-0.284967333
1.76966E+18,11.21587402,1.423065594,0.711040484,-0.725860452,-0.164252549,-0.204425469,-0.073225103
1.76966E+18,11.22586206,0.865311739,0.774809484,-0.718028735,-0.10851977,-0.257096946,0.116734184
1.76966E+18,11.2358501,0.413040703,0.561651302,-0.576885403,-0.051304556,-0.231122002,0.232278258
1.76966E+18,11.24583838,0.014213527,0.143304894,-0.426913745,-0.024429534,-0.132468402,0.298931599
1.76966E+18,11.2558252,-0.323118148,-0.133628718,-0.299178469,-0.007610437,-0.042397279,0.339875579
1.76966E+18,11.26581323,-0.477411761,-0.371639602,-0.070761928,0.004510141,0.024313042,0.344912678
1.76966E+18,11.27580103,-0.402334892,-0.629724136,0.149490889,0.002351377,0.106265306,0.310034931
1.76966E+18,11.28578906,-0.350269774,-0.917476079,0.304041399,-0.009684246,0.217914343,0.250568122
1.76966E+18,11.2957771,-0.265897546,-1.220312194,0.427165967,-0.029155398,0.269313753,0.166097492
1.76966E+18,11.30576538,-0.119143974,-1.460285318,0.590696194,-0.049978655,0.309206307,0.07249777
1.76966E+18,11.31575317,0.008625497,-1.621696946,0.695231797,-0.060236584,0.346011609,-0.007089824
1.76966E+18,11.32574097,0.174906339,-1.79294374,0.644847179,-0.071084172,0.335811168,-0.073262192
1.76966E+18,11.335729,0.368170757,-1.892716366,0.581042815,-0.074164659,0.260449797,-0.122001335
1.76966E+18,11.34571704,0.409573173,-1.938805332,0.511009786,-0.072471157,0.181384563,-0.150425255
1.76966E+18,11.35570508,0.386962843,-1.909724784,0.379837814,-0.070347644,0.108070627,-0.149165913
1.76966E+18,11.36569214,0.286352598,-1.816914398,0.318581089,-0.07262864,0.042071629,-0.128145054
1.76966E+18,11.37567993,0.108067576,-1.66692082,0.30728871,-0.070242353,0.013520597,-0.080526672
1.76966E+18,11.38566797,-0.119719143,-1.460449569,0.382080917,-0.071619473,0.028338425,-0.024385111
1.76966E+18,11.39565625,-0.243485808,-1.310584586,0.480148784,-0.069169134,0.053147886,0.028232571
1.76966E+18,11.40564404,-0.190820386,-1.255206398,0.556393235,-0.075165235,0.050414681,0.051961865
1.76966E+18,11.41563208,-0.097687636,-1.294169458,0.611450521,-0.088880159,0.023641177,0.060693383
1.76966E+18,11.42562012,-0.002438041,-1.331870535,0.72855539,-0.10473156,0.010376768,0.04849717
1.76966E+18,11.43560815,0.046365445,-1.391436823,0.803035461,-0.116654731,-0.009812089,0.026888367
1.76966E+18,11.44559619,0.118587801,-1.368674371,0.842864198,-0.124188282,-0.050393339,0.010790357
1.76966E+18,11.45558423,0.114576666,-1.273669106,0.829540899,-0.13553828,-0.086522512,0.007389672
1.76966E+18,11.46557227,0.109535749,-1.098065286,0.874394478,-0.144169316,-0.111980729,0.019164305
1.76966E+18,11.47555908,0.12429025,-0.905713161,0.974864146,-0.146134317,-0.139388457,0.050183833
1.76966E+18,11.48554712,0.120264064,-0.755788557,1.072957149,-0.14530848,-0.175143525,0.084004112
1.76966E+18,11.4955354,0.185480194,-0.598292056,1.189203355,-0.141222194,-0.222304404,0.104747124
1.76966E+18,11.50552319,0.304070479,-0.453240611,1.301807697,-0.127437934,-0.270671666,0.101699404
1.76966E+18,11.51551099,0.292385156,-0.180191147,1.437853414,-0.103523925,-0.285713404,0.107016832
1.76966E+18,11.52549902,0.191985338,0.272111306,1.590132764,-0.081174679,-0.280935943,0.141142309
1.76966E+18,11.53548682,0.13103198,0.539440054,1.661246866,-0.070475549,-0.264639467,0.197253272
1.76966E+18,11.5454751,0.151823716,0.652908028,1.673349392,-0.064135358,-0.286961287,0.253515452
1.76966E+18,11.55546313,0.23730069,0.613505992,1.714190521,-0.060084324,-0.323655605,0.301098615
1.76966E+18,11.56545117,0.150147599,0.431335069,1.689111025,-0.062169045,-0.347260535,0.341334194
1.76966E+18,11.57543896,-0.008427344,0.151021167,1.731878738,-0.051778156,-0.348938435,0.367051721
1.76966E+18,11.58542603,-0.089208562,-0.162277305,1.887202278,-0.036152326,-0.350820214,0.374578893
1.76966E+18,11.59541431,-0.172303025,-0.330951033,2.035414525,-0.007691398,-0.343332887,0.376889765
1.76966E+18,11.6054021,-0.267099908,-0.412184963,2.260069084,0.014317231,-0.308032691,0.374804258
1.76966E+18,11.61539014,-0.316640038,-0.384679701,2.344469369,0.034978367,-0.271691412,0.393408656
1.76966E+18,11.62537817,-0.330809141,-0.231107096,2.440072892,0.062856071,-0.270703375,0.415900648
1.76966E+18,11.63536597,-0.125179016,0.068923899,2.449589785,0.070531048,-0.285929739,0.418960184
1.76966E+18,11.64535425,0.208924344,0.423162284,2.285707675,0.051495567,-0.312915832,0.392109394
1.76966E+18,11.65534229,0.605398673,0.693852617,2.137745604,0.014177248,-0.362988412,0.321487516
1.76966E+18,11.66533008,0.972132237,0.959096961,2.127572292,-0.023938179,-0.426459789,0.214354649
1.76966E+18,11.67531787,1.168341038,1.161094866,2.184442765,-0.065700591,-0.527871192,0.097596906
1.76966E+18,11.68530615,1.222107846,1.230713761,2.044303058,-0.118219994,-0.648034871,-0.012570078
1.76966E+18,11.69529321,1.2273966,1.116052778,1.584973482,-0.199497625,-0.77216357,-0.116095796
1.76966E+18,11.70528101,1.130861494,0.677648502,0.931388285,-0.262877136,-0.897685528,-0.202728152
1.76966E+18,11.71526904,1.063751221,-0.001209376,0.566729628,-0.211192697,-0.897611618,-0.275689512
1.76966E+18,11.72525708,1.17222577,-0.433161115,0.249607214,-0.174379289,-0.762763798,-0.376745284
1.76966E+18,11.73524536,1.757039921,-0.46786418,-0.648056204,-0.148826197,-0.654573858,-0.503206789
1.76966E+18,11.74523315,2.324635518,-0.781636699,-1.08288876,-0.124197811,-0.65724659,-0.624916136
1.76966E+18,11.75522119,2.867105588,-0.913559783,-1.620098571,-0.151185915,-0.795947313,-0.724906802
1.76966E+18,11.76520923,3.236284937,-0.995760512,-2.026436562,-0.233024582,-1.008149266,-0.78445828
1.76966E+18,11.77519702,3.44670931,-1.018926868,-2.463040803,-0.33191359,-1.223529696,-0.847382069
1.76966E+18,11.7851853,3.725970488,-0.567965307,-2.443460197,-0.373751849,-1.4029181,-0.943258822
1.76966E+18,11.79517334,3.582823416,-0.186541393,-2.775589334,-0.502957106,-1.633529902,-0.975452602
1.76966E+18,11.80516016,2.723568931,0.350196416,-3.333542658,-0.584108412,-1.676477671,-0.90212965
1.76966E+18,11.81514819,1.092525188,1.767868335,-2.108642551,-0.487183213,-1.464484215,-0.659755945
1.76966E+18,11.82513623,-1.227772009,3.129181238,-1.084316747,-0.326583952,-1.175726414,-0.259590179
1.76966E+18,11.83512451,-3.396740872,4.00046489,-0.222343944,-0.13009584,-0.958412528,0.266664594
1.76966E+18,11.8451123,-4.339744192,4.199409254,0.465080687,0.025223447,-0.836006999,0.632165313
1.76966E+18,11.8551001,-3.444136537,3.172294403,0.743571173,0.093006551,-0.816448748,0.648317754
1.76966E+18,11.86508813,-1.90118448,1.12941378,0.750057904,0.046185788,-0.652741253,0.354020357
1.76966E+18,11.87507593,-0.658872928,-0.476575894,0.992931426,-0.008922142,-0.370776951,-0.085369736
1.76966E+18,11.88506421,0.52280573,-0.977465561,0.686741032,-0.04792041,-0.212411538,-0.459957987
1.76966E+18,11.89505225,1.322608201,-1.04323421,0.442053447,-0.025317773,-0.2043695,-0.792213321
1.76966E+18,11.90504004,1.472969297,-1.02580143,0.482032991,-0.023667945,-0.326411247,-0.996032774
1.76966E+18,11.9150271,1.233557606,-1.054772088,0.447969977,-0.050009456,-0.478184372,-1.049878001
1.76966E+18,11.92501514,1.209477643,-0.868138925,0.336977746,-0.137066603,-0.657343209,-0.956482887
1.76966E+18,11.93500317,1.108757068,-0.876629105,-0.019952362,-0.245404407,-0.914327621,-0.734326005
1.76966E+18,11.94499121,1.438315186,-1.050009988,-0.116775491,-0.321817696,-1.17353642,-0.547773182
1.76966E+18,11.95497925,1.936788732,-1.07249713,-0.478332383,-0.372737527,-1.40052259,-0.478721589
1.76966E+18,11.96496729,2.000317932,-1.183227203,-0.762353322,-0.381267101,-1.557604909,-0.488174468
1.76966E+18,11.97495508,1.634363243,-1.218714111,-0.808924519,-0.384264767,-1.68231225,-0.519107282
1.76966E+18,11.98494336,1.125934413,-1.164853342,-0.978186569,-0.411684662,-1.818095565,-0.515688598
1.76966E+18,11.9949314,0.561682281,-1.104787288,-0.948004489,-0.438517451,-1.915989876,-0.511918128
1.76966E+18,12.00491895,0.112666886,-1.041338021,-1.020832701,-0.436484665,-1.934800863,-0.491002738
1.76966E+18,12.01490698,-0.325838366,-0.938480874,-1.046857369,-0.413252652,-1.841325045,-0.480642647
1.76966E+18,12.02489429,-0.509597582,-0.819873783,-1.171073239,-0.397021472,-1.705934763,-0.496483386
1.76966E+18,12.03488232,-0.5563266,-0.833114373,-1.25532827,-0.37066558,-1.51888895,-0.489331543
1.76966E+18,12.04487012,-0.705643009,-0.753754421,-1.071136071,-0.330883026,-1.308459282,-0.469513088
1.76966E+18,12.05485815,-0.643315439,-0.63986676,-1.144489768,-0.319402188,-1.244567752,-0.442026287
1.76966E+18,12.06484595,-0.247650234,-0.682983433,-0.844704565,-0.312971473,-1.237264872,-0.449680746
1.76966E+18,12.07483423,-0.093446345,-0.772172121,-0.595205781,-0.312831581,-1.238010526,-0.45096615
1.76966E+18,12.08482227,-0.027860797,-0.744534757,-0.390761943,-0.312060058,-1.238683224,-0.437205613
1.76966E+18,12.0948103,0.106834527,-0.758004479,-0.415724535,-0.318289995,-1.296012998,-0.433738112
1.76966E+18,12.1047981,0.230351017,-0.860683348,-0.27521161,-0.32135877,-1.352079988,-0.43937254
1.76966E+18,12.11478613,0.125499042,-0.923865488,-0.111957569,-0.321121067,-1.398594022,-0.434642553
1.76966E+18,12.12477441,-0.019067981,-0.948060018,-0.062203943,-0.321510673,-1.419567108,-0.431467265
1.76966E+18,12.13476123,-0.139771751,-0.917422303,-0.100872696,-0.315319061,-1.428260446,-0.43495518
1.76966E+18,12.14474927,-0.250292419,-0.888336494,-0.145173902,-0.309341878,-1.432194948,-0.450044125
1.76966E+18,12.1547373,-0.370466759,-0.84791739,-0.183473822,-0.305948555,-1.44415164,-0.464748114
1.76966E+18,12.1647251,-0.468880225,-0.796008339,-0.220722772,-0.304549605,-1.454977632,-0.482156932
1.76966E+18,12.17471338,-0.502637533,-0.665856942,-0.280270063,-0.309058994,-1.435395122,-0.512067795
1.76966E+18,12.18470142,-0.588622603,-0.574508445,-0.317316768,-0.310770601,-1.40386939,-0.530982614
1.76966E+18,12.19468896,-0.646087535,-0.580270662,-0.390854298,-0.307799697,-1.389863849,-0.548791885
1.76966E+18,12.204677,-0.520783431,-0.494268203,-0.472839923,-0.304638535,-1.385674715,-0.564726114
1.76966E+18,12.21466504,-0.451557481,-0.373492536,-0.530269198,-0.302044898,-1.373157978,-0.568111897
1.76966E+18,12.22465332,-0.441705656,-0.222740249,-0.569623888,-0.297306329,-1.362600923,-0.549330235
