time,seconds_elapsed,z,y,x
1769666835041102600,0.0611025390625,0.9380645751953125,0.324310302734375,0.0680084228515625
1769666835051091700,0.071091796875,0.938140869140625,0.321441650390625,0.071319580078125
1769666835061080600,0.08108056640625,0.9419097900390625,0.3229522705078125,0.07269287109375
1769666835071068400,0.091068359375,0.94390869140625,0.3214569091796875,0.073883056640625
1769666835081057500,0.1010576171875,0.9429931640625,0.322723388671875,0.076324462890625
1769666835091045600,0.111045654296875,0.947784423828125,0.323638916015625,0.077056884765625
1769666835101034800,0.12103466796875,0.943939208984375,0.324859619140625,0.066009521484375
1769666835111022600,0.131022705078125,0.9403839111328125,0.3238525390625,0.0628662109375
1769666835121011500,0.141011474609375,0.9436798095703125,0.3202972412109375,0.0654296875
1769666835130999600,0.15099951171875,0.9457855224609375,0.3217010498046875,0.0654144287109375
1769666835140988700,0.16098876953125,0.9499053955078125,0.3221435546875,0.0698089599609375
1769666835150976800,0.170976806640625,0.943359375,0.3201904296875,0.077301025390625
1769666835160965600,0.180965576171875,0.9389801025390625,0.3212127685546875,0.0795440673828125
1769666835170953500,0.190953369140625,0.9452362060546875,0.3217315673828125,0.0684967041015625
1769666835180942600,0.200942626953125,0.945037841796875,0.319122314453125,0.066680908203125
1769666835190930700,0.2109306640625,0.941986083984375,0.316864013671875,0.053131103515625
1769666835200919600,0.22091943359375,0.9453277587890625,0.3139495849609375,0.0476226806640625
1769666835210908700,0.23090869140625,0.951080322265625,0.3166046142578125,0.0805511474609375
1769666835220896500,0.240896484375,0.963623046875,0.31640625,0.080047607421875
1769666835230885600,0.2508857421875,0.949493408203125,0.3177642822265625,0.0576171875
1769666835240873500,0.26087353515625,0.942047119140625,0.30804443359375,0.0429229736328125
1769666835250862600,0.270862548828125,0.9412078857421875,0.293212890625,0.0401153564453125
1769666835260850700,0.2808505859375,0.9592132568359375,0.303863525390625,0.05487060546875
1769666835270839800,0.29083984375,0.9651947021484375,0.2956695556640625,0.064056396484375
1769666835280827600,0.30082763671875,0.945037841796875,0.302276611328125,0.0828857421875
1769666835290816500,0.31081640625,0.942596435546875,0.3209686279296875,0.0824127197265625
1769666835300804600,0.3208046875,0.951507568359375,0.303619384765625,0.0742034912109375
1769666835310793700,0.330793701171875,0.9717559814453125,0.2798919677734375,0.0331573486328125
1769666835320781600,0.340781494140625,0.9559783935546875,0.287109375,0.033599853515625
1769666835330770400,0.3507705078125,0.9528656005859375,0.29681396484375,0.03094482421875
1769666835340759600,0.360759521484375,0.9662017822265625,0.303192138671875,0.0106353759765625
1769666835350747600,0.37074755859375,0.952484130859375,0.2979278564453125,0.0192413330078125
1769666835360736500,0.380736572265625,0.9347686767578125,0.2805328369140625,-0.0507965087890625
1769666835370725400,0.390725341796875,0.946380615234375,0.28643798828125,-0.018218994140625
1769666835380714500,0.400714599609375,0.9651947021484375,0.2353668212890625,0.006500244140625
1769666835390702600,0.41070263671875,0.973724365234375,0.26715087890625,0.01226806640625
1769666835400691500,0.42069140625,0.9576568603515625,0.2559814453125,-0.0432891845703125
1769666835410679300,0.43067919921875,0.9382781982421875,0.2274932861328125,-0.038970947265625
1769666835420668400,0.44066845703125,0.975250244140625,0.2085113525390625,-0.04254150390625
1769666835430656500,0.450656494140625,0.985809326171875,0.2037353515625,-0.06884765625
1769666835440645400,0.460645263671875,0.966522216796875,0.224517822265625,-0.087127685546875
1769666835450633500,0.470633544921875,0.9627685546875,0.237640380859375,-0.072174072265625
1769666835460622600,0.48062255859375,0.971771240234375,0.230987548828125,-0.0610198974609375
1769666835470610400,0.4906103515625,0.9495849609375,0.2422943115234375,-0.0474090576171875
1769666835480599300,0.500599365234375,0.9676055908203125,0.251556396484375,-0.0297088623046875
1769666835490587400,0.51058740234375,0.9821624755859375,0.2652130126953125,-0.0216827392578125
1769666835500576500,0.520576416015625,0.9534912109375,0.2132568359375,-0.000640869140625
1769666835510565600,0.530565673828125,0.9782867431640625,0.162017822265625,-0.0422210693359375
1769666835520553500,0.540553466796875,0.971038818359375,0.1660614013671875,-0.199737548828125
1769666835530542300,0.550542236328125,0.9725799560546875,0.1972808837890625,-0.2401123046875
1769666835540530400,0.560530517578125,0.954498291015625,0.2300567626953125,-0.044891357421875
1769666835550519600,0.57051953125,0.966522216796875,0.2011260986328125,0.0088958740234375
1769666835560507600,0.580507568359375,0.97943115234375,0.1825103759765625,-0.0181884765625
1769666835570496500,0.59049658203125,0.99517822265625,0.181488037109375,-0.054473876953125
1769666835580484400,0.600484375,1.0054931640625,0.2050628662109375,-0.0838165283203125
1769666835590473500,0.610473388671875,0.9913787841796875,0.195587158203125,-0.1038970947265625
1769666835600461600,0.620461669921875,0.982177734375,0.1856689453125,-0.1072998046875
1769666835610450400,0.630450439453125,0.9696807861328125,0.19427490234375,-0.09503173828125
1769666835620438500,0.6404384765625,0.9719390869140625,0.201141357421875,-0.100494384765625
1769666835630427400,0.650427490234375,0.9654388427734375,0.1824493408203125,-0.112884521484375
1769666835640416300,0.660416259765625,0.9678955078125,0.181182861328125,-0.109832763671875
1769666835650404400,0.670404296875,0.97857666015625,0.1810455322265625,-0.1152801513671875
1769666835660393500,0.6803935546875,0.983428955078125,0.1871795654296875,-0.1134490966796875
1769666835670381600,0.690381591796875,0.9750213623046875,0.1962127685546875,-0.1270904541015625
1769666835680370700,0.70037060546875,0.9806365966796875,0.1768341064453125,-0.1226043701171875
1769666835690358500,0.710358642578125,0.990081787109375,0.1515655517578125,-0.1462554931640625
1769666835700347400,0.720347412109375,0.9779815673828125,0.1748199462890625,-0.164642333984375
1769666835710335500,0.73033544921875,0.996124267578125,0.1822662353515625,-0.107696533203125
1769666835720324600,0.74032470703125,0.98828125,0.157958984375,-0.15240478515625
1769666835730312400,0.7503125,0.9734649658203125,0.177337646484375,-0.147979736328125
1769666835740301300,0.76030126953125,0.9832305908203125,0.17144775390625,-0.1444244384765625
1769666835750289400,0.770289306640625,0.97503662109375,0.167327880859375,-0.1471710205078125
1769666835760278500,0.780278564453125,0.965667724609375,0.1634674072265625,-0.151885986328125
1769666835770266600,0.7902666015625,0.9632720947265625,0.173797607421875,-0.14093017578125
1769666835780255500,0.80025537109375,0.9654388427734375,0.169830322265625,-0.1593780517578125
1769666835790243300,0.810243408203125,0.9752044677734375,0.1360015869140625,-0.1719818115234375
1769666835800232400,0.820232421875,0.9654388427734375,0.1849212646484375,-0.1638946533203125
1769666835810221300,0.83022119140625,0.9779510498046875,0.1431427001953125,-0.1591949462890625
1769666835820209400,0.84020947265625,0.9615478515625,0.168487548828125,-0.177520751953125
1769666835830198500,0.850198486328125,0.9666748046875,0.1670989990234375,-0.1645660400390625
1769666835840186400,0.860186279296875,0.9697265625,0.1587677001953125,-0.161041259765625
1769666835850175500,0.870175537109375,0.9862518310546875,0.16607666015625,-0.1750030517578125
1769666835860163300,0.880163330078125,0.9884796142578125,0.16363525390625,-0.17474365234375
1769666835870152400,0.89015234375,0.9750823974609375,0.16094970703125,-0.175018310546875
1769666835880140500,0.900140625,0.9741973876953125,0.1585540771484375,-0.168670654296875
1769666835890129700,0.910129638671875,0.979156494140625,0.163726806640625,-0.1818389892578125
1769666835900117500,0.920117431640625,0.9771728515625,0.16094970703125,-0.181182861328125
1769666835910106400,0.9301064453125,0.974853515625,0.1608428955078125,-0.1839447021484375
1769666835920094500,0.940094482421875,0.978607177734375,0.1617889404296875,-0.1892547607421875
1769666835930083600,0.95008349609375,0.9753570556640625,0.160675048828125,-0.197113037109375
1769666835940071400,0.960071533203125,0.984466552734375,0.15838623046875,-0.1884307861328125
1769666835950060300,0.970060302734375,0.9776763916015625,0.15521240234375,-0.1887969970703125
1769666835960049400,0.98004931640625,0.977813720703125,0.1577911376953125,-0.187744140625
1769666835970037500,0.99003759765625,0.9711761474609375,0.15667724609375,-0.1848297119140625
1769666835980026400,1.0000263671875,0.9698028564453125,0.15374755859375,-0.1887664794921875
1769666835990014500,1.010014404296875,0.9672393798828125,0.1568603515625,-0.1903839111328125
1769666836000003600,1.020003662109375,0.9707183837890625,0.1567840576171875,-0.1928253173828125
1769666836009991400,1.029991455078125,0.981170654296875,0.15582275390625,-0.1932220458984375
1769666836019980500,1.03998046875,0.97613525390625,0.1581268310546875,-0.186614990234375
1769666836029968400,1.049968505859375,0.9840850830078125,0.150238037109375,-0.193603515625
1769666836039957500,1.05995751953125,0.9884796142578125,0.1539154052734375,-0.1881256103515625
1769666836049945300,1.0699453125,0.978363037109375,0.150726318359375,-0.187286376953125
1769666836059934500,1.0799345703125,0.9657440185546875,0.15118408203125,-0.1947784423828125
1769666836069922600,1.089922607421875,0.96905517578125,0.1536865234375,-0.2000579833984375
1769666836079911400,1.099911376953125,0.970458984375,0.146270751953125,-0.193634033203125
1769666836089899500,1.1098994140625,0.9678955078125,0.1440277099609375,-0.1952972412109375
1769666836099888600,1.119888671875,0.9719390869140625,0.143768310546875,-0.193267822265625
1769666836109877200,1.129877197265625,0.9803466796875,0.139495849609375,-0.189208984375
1769666836119865300,1.139865234375,0.971405029296875,0.140045166015625,-0.1924591064453125
1769666836129854500,1.1498544921875,0.9669036865234375,0.1385650634765625,-0.198883056640625
1769666836139842600,1.159842529296875,0.9715423583984375,0.139862060546875,-0.2082061767578125
1769666836149831400,1.16983154296875,0.9750213623046875,0.1393890380859375,-0.20379638671875
1769666836159819300,1.1798193359375,0.9793548583984375,0.1374664306640625,-0.197113037109375
1769666836169808400,1.189808349609375,0.969390869140625,0.1342926025390625,-0.2105712890625
1769666836179796500,1.19979638671875,0.9625091552734375,0.1361083984375,-0.2159423828125
1769666836189785600,1.20978564453125,0.971649169921875,0.1328887939453125,-0.211761474609375
1769666836199773400,1.2197734375,0.9727325439453125,0.1301727294921875,-0.2032623291015625
1769666836209762600,1.229762451171875,0.976531982421875,0.133270263671875,-0.2103424072265625
1769666836219750400,1.23975048828125,0.9924163818359375,0.1357879638671875,-0.2121734619140625
1769666836229739500,1.249739501953125,0.9858856201171875,0.1319122314453125,-0.2125091552734375
1769666836239727600,1.2597275390625,0.974517822265625,0.1295623779296875,-0.211395263671875
1769666836249716500,1.269716552734375,0.9787445068359375,0.1254730224609375,-0.2105255126953125
1769666836259704300,1.279704345703125,0.9753570556640625,0.12127685546875,-0.2169342041015625
1769666836269693400,1.289693359375,0.9622802734375,0.1169281005859375,-0.2178802490234375
1769666836279682300,1.299682373046875,0.9547882080078125,0.1208343505859375,-0.214935302734375
1769666836289670400,1.30967041015625,0.947021484375,0.1177825927734375,-0.21710205078125
1769666836299659500,1.319659423828125,0.9488525390625,0.120330810546875,-0.2193756103515625
1769666836309647600,1.329647705078125,0.9577484130859375,0.1214752197265625,-0.21917724609375
1769666836319636200,1.33963623046875,0.9772491455078125,0.1213226318359375,-0.226409912109375
1769666836329624300,1.349624267578125,0.984100341796875,0.1190185546875,-0.2314453125
1769666836339613400,1.359613525390625,0.9867401123046875,0.11785888671875,-0.2340545654296875
1769666836349601500,1.3696015625,0.9825286865234375,0.1183929443359375,-0.2347564697265625
1769666836359590700,1.379590576171875,0.9812164306640625,0.115234375,-0.2358245849609375
1769666836369578000,1.389577880859375,0.9892425537109375,0.113922119140625,-0.2418060302734375
1769666836379566800,1.39956689453125,0.9848175048828125,0.1126708984375,-0.24005126953125
1769666836389554700,1.4095546875,0.96453857421875,0.1076202392578125,-0.23773193359375
1769666836399543800,1.419543701171875,0.9690093994140625,0.1057891845703125,-0.2421875
1769666836409532000,1.429531982421875,0.974609375,0.10455322265625,-0.24560546875
1769666836419520800,1.439520751953125,0.9675750732421875,0.1019287109375,-0.2484893798828125
1769666836429510000,1.449510009765625,0.9781036376953125,0.1019134521484375,-0.2511749267578125
1769666836439498000,1.459498046875,0.9821319580078125,0.1082305908203125,-0.25018310546875
1769666836449486800,1.46948681640625,0.9791259765625,0.1030426025390625,-0.25103759765625
1769666836459474700,1.479474609375,0.9570159912109375,0.102203369140625,-0.2457275390625
1769666836469463800,1.4894638671875,0.9541168212890625,0.1010284423828125,-0.247833251953125
1769666836479452000,1.499451904296875,0.9663543701171875,0.1043243408203125,-0.2472076416015625
1769666836489441000,1.50944091796875,0.9655914306640625,0.1029052734375,-0.2460479736328125
1769666836499428900,1.519428955078125,0.9702606201171875,0.1032867431640625,-0.2481231689453125
1769666836509417700,1.529417724609375,0.9709014892578125,0.1029510498046875,-0.248779296875
1769666836519405800,1.53940576171875,0.9680023193359375,0.1048736572265625,-0.248016357421875
1769666836529395000,1.54939501953125,0.969970703125,0.10699462890625,-0.2473297119140625
1769666836539383000,1.559383056640625,0.971923828125,0.1070404052734375,-0.2488555908203125
1769666836549371600,1.56937158203125,0.967559814453125,0.107269287109375,-0.24835205078125
1769666836559359700,1.57935986328125,0.9603118896484375,0.1073455810546875,-0.246734619140625
1769666836569348900,1.589348876953125,0.960174560546875,0.107696533203125,-0.2459564208984375
1769666836579337700,1.599337646484375,0.962890625,0.1082916259765625,-0.2453155517578125
1769666836589325800,1.609325927734375,0.9638214111328125,0.107025146484375,-0.244232177734375
1769666836599315000,1.61931494140625,0.9643096923828125,0.1089324951171875,-0.2425384521484375
1769666836609302800,1.629302734375,0.9682769775390625,0.1084442138671875,-0.2461700439453125
1769666836619292000,1.6392919921875,0.9732513427734375,0.110321044921875,-0.2445831298828125
1769666836629279700,1.64927978515625,0.9770965576171875,0.107025146484375,-0.24609375
1769666836639268900,1.659268798828125,0.9705657958984375,0.107086181640625,-0.245574951171875
1769666836649257000,1.669257080078125,0.96832275390625,0.107635498046875,-0.2447052001953125
1769666836659245800,1.679245849609375,0.9652252197265625,0.1078338623046875,-0.243377685546875
1769666836669234000,1.68923388671875,0.954193115234375,0.1077880859375,-0.24102783203125
1769666836679222800,1.699222900390625,0.955474853515625,0.1076507568359375,-0.240264892578125
1769666836689211000,1.7092109375,0.9632110595703125,0.105621337890625,-0.24432373046875
1769666836699200000,1.719199951171875,0.9693450927734375,0.1046600341796875,-0.2436981201171875
1769666836709187800,1.729187744140625,0.968719482421875,0.10430908203125,-0.242584228515625
1769666836719176700,1.7391767578125,0.961822509765625,0.10272216796875,-0.2422027587890625
1769666836729164800,1.749164794921875,0.960052490234375,0.10284423828125,-0.2425384521484375
1769666836739154000,1.75915380859375,0.96307373046875,0.1021575927734375,-0.2433319091796875
1769666836749142800,1.769142822265625,0.964813232421875,0.1014556884765625,-0.2431182861328125
1769666836759130600,1.779130615234375,0.9712066650390625,0.10150146484375,-0.2445068359375
1769666836769119700,1.78911962890625,0.9673919677734375,0.10113525390625,-0.2444610595703125
1769666836779107800,1.79910791015625,0.96759033203125,0.1026153564453125,-0.2425384521484375
1769666836789097000,1.809096923828125,0.974517822265625,0.0999908447265625,-0.244293212890625
1769666836799084800,1.819084716796875,0.979461669921875,0.100006103515625,-0.24554443359375
1769666836809074000,1.829073974609375,0.9726715087890625,0.101837158203125,-0.2428741455078125
1769666836819061800,1.839061767578125,0.9663238525390625,0.1020965576171875,-0.2411346435546875
1769666836829051000,1.84905078125,0.9619140625,0.10223388671875,-0.23974609375
1769666836839039000,1.8590390625,0.962554931640625,0.10302734375,-0.2381134033203125
1769666836849027800,1.86902783203125,0.961090087890625,0.102325439453125,-0.2381591796875
1769666836859016000,1.879015869140625,0.9607391357421875,0.102569580078125,-0.2384185791015625
1769666836869004800,1.8890048828125,0.9652252197265625,0.1033172607421875,-0.23736572265625
1769666836878993000,1.898992919921875,0.9669952392578125,0.1014251708984375,-0.2382965087890625
1769666836888981800,1.908981689453125,0.96820068359375,0.1024322509765625,-0.2402191162109375
1769666836898969900,1.918969970703125,0.9670867919921875,0.102569580078125,-0.2405853271484375
1769666836908959000,1.928958984375,0.9694366455078125,0.1025543212890625,-0.2400054931640625
1769666836918947800,1.93894775390625,0.968597412109375,0.1014251708984375,-0.23779296875
1769666836928935700,1.948935791015625,0.96392822265625,0.1029510498046875,-0.2365875244140625
1769666836938924800,1.9589248046875,0.97540283203125,0.1009368896484375,-0.2413787841796875
1769666836948913000,1.968912841796875,0.9766998291015625,0.1005401611328125,-0.2430877685546875
1769666836958901800,1.97890185546875,0.972564697265625,0.1008453369140625,-0.2422332763671875
1769666836968889900,1.988889892578125,0.9673309326171875,0.1018829345703125,-0.241455078125
1769666836978878700,1.998878662109375,0.9652862548828125,0.1001129150390625,-0.239593505859375
1769666836988866800,2.00886669921875,0.96575927734375,0.10125732421875,-0.2393341064453125
1769666836998856000,2.01885595703125,0.970001220703125,0.1020660400390625,-0.2410736083984375
1769666837008843800,2.02884375,0.96917724609375,0.1006317138671875,-0.2405853271484375
1769666837018833000,2.0388330078125,0.96661376953125,0.099884033203125,-0.2397613525390625
1769666837028820700,2.04882080078125,0.9668426513671875,0.1009521484375,-0.23968505859375
1769666837038809900,2.058809814453125,0.9678802490234375,0.101409912109375,-0.24029541015625
1769666837048798000,2.0687978515625,0.9707489013671875,0.100799560546875,-0.2402801513671875
1769666837058786800,2.078786865234375,0.969757080078125,0.1007232666015625,-0.2403564453125
1769666837068776000,2.08877587890625,0.9727935791015625,0.099822998046875,-0.240264892578125
1769666837078763800,2.098763671875,0.9716644287109375,0.100555419921875,-0.2423095703125
1769666837088752600,2.108752685546875,0.96441650390625,0.099761962890625,-0.2398529052734375
1769666837098740700,2.11874072265625,0.9605255126953125,0.1016082763671875,-0.2379150390625
1769666837108729900,2.128729736328125,0.96368408203125,0.1011962890625,-0.238983154296875
1769666837118718000,2.138718017578125,0.9704132080078125,0.1007232666015625,-0.24212646484375
1769666837128706800,2.148706787109375,0.9713592529296875,0.10174560546875,-0.2421722412109375
1769666837138694700,2.158694580078125,0.9706573486328125,0.1016082763671875,-0.2417144775390625
1769666837148683800,2.168683837890625,0.9691009521484375,0.10198974609375,-0.2404327392578125
1769666837158672000,2.178671875,0.9685516357421875,0.1013641357421875,-0.24127197265625
1769666837168661000,2.188660888671875,0.9648895263671875,0.102081298828125,-0.237762451171875
1769666837178648800,2.19864892578125,0.9641571044921875,0.10174560546875,-0.2387847900390625
1769666837188637700,2.2086376953125,0.966766357421875,0.1020355224609375,-0.2400054931640625
1769666837198625800,2.218625732421875,0.96905517578125,0.1026611328125,-0.239837646484375
1769666837208615000,2.228614990234375,0.968658447265625,0.102783203125,-0.2407684326171875
1769666837218603800,2.238603759765625,0.9679107666015625,0.1019287109375,-0.240631103515625
1769666837228591900,2.248591796875,0.9686279296875,0.1033935546875,-0.240203857421875
1769666837238581000,2.2585810546875,0.9695892333984375,0.10284423828125,-0.2413787841796875
1769666837248568800,2.26856884765625,0.9670867919921875,0.10430908203125,-0.239898681640625
1769666837258557700,2.2785576171875,0.9666595458984375,0.10186767578125,-0.2389984130859375
1769666837268545800,2.2885458984375,0.9713592529296875,0.1018524169921875,-0.24072265625
1769666837278535000,2.298534912109375,0.9734649658203125,0.1020965576171875,-0.2408294677734375
1769666837288522800,2.308522705078125,0.969635009765625,0.1008758544921875,-0.239501953125
1769666837298511600,2.31851171875,0.969268798828125,0.1009674072265625,-0.2403717041015625
1769666837308499700,2.328499755859375,0.96905517578125,0.1015625,-0.238861083984375
1769666837318488800,2.33848876953125,0.970123291015625,0.101287841796875,-0.239105224609375
1769666837328477000,2.348476806640625,0.9702606201171875,0.10107421875,-0.240966796875
1769666837338466000,2.358466064453125,0.97119140625,0.1011199951171875,-0.2403106689453125
1769666837348454000,2.368453857421875,0.9692840576171875,0.1016082763671875,-0.2386016845703125
1769666837358442800,2.37844287109375,0.9678497314453125,0.1006317138671875,-0.23846435546875
1769666837368430300,2.388430419921875,0.9653472900390625,0.101806640625,-0.237548828125
1769666837378419500,2.39841943359375,0.9642486572265625,0.10333251953125,-0.23699951171875
1769666837388408300,2.408408203125,0.9655914306640625,0.1025238037109375,-0.2379302978515625
1769666837398396400,2.418396484375,0.969512939453125,0.10198974609375,-0.239654541015625
1769666837408385500,2.428385498046875,0.9702911376953125,0.1019134521484375,-0.239471435546875
1769666837418373400,2.438373291015625,0.9687347412109375,0.1023406982421875,-0.2394866943359375
1769666837428362500,2.448362548828125,0.969757080078125,0.10205078125,-0.2402801513671875
1769666837438350300,2.458350341796875,0.967987060546875,0.102325439453125,-0.2392120361328125
1769666837448339500,2.46833935546875,0.9670562744140625,0.1022796630859375,-0.23846435546875
1769666837458327600,2.47832763671875,0.9702606201171875,0.1030120849609375,-0.2396087646484375
1769666837468316400,2.48831640625,0.9712982177734375,0.1031951904296875,-0.240966796875
1769666837478304500,2.498304443359375,0.9703521728515625,0.10162353515625,-0.2388153076171875
1769666837488293400,2.50829345703125,0.9692230224609375,0.1026763916015625,-0.238800048828125
1769666837498281500,2.518281494140625,0.967132568359375,0.1029205322265625,-0.2396087646484375
1769666837508270600,2.5282705078125,0.96600341796875,0.10174560546875,-0.237457275390625
1769666837518258400,2.538258544921875,0.9633636474609375,0.1041412353515625,-0.23583984375
1769666837528247300,2.548247314453125,0.9705810546875,0.10333251953125,-0.23834228515625
1769666837538236400,2.558236328125,0.974761962890625,0.1019744873046875,-0.2406768798828125
1769666837548224500,2.568224609375,0.971038818359375,0.100555419921875,-0.2396240234375
1769666837558213400,2.57821337890625,0.9694366455078125,0.101226806640625,-0.2386016845703125
1769666837568201200,2.588201171875,0.97357177734375,0.1031036376953125,-0.2385406494140625
1769666837578190300,2.5981904296875,0.969757080078125,0.1029205322265625,-0.239959716796875
1769666837588178400,2.608178466796875,0.9747772216796875,0.1041259765625,-0.2385711669921875
1769666837598167300,2.618167236328125,0.9802398681640625,0.1024627685546875,-0.2398681640625
1769666837608155400,2.6281552734375,0.97119140625,0.0999908447265625,-0.24163818359375
1769666837618144500,2.63814453125,0.9655914306640625,0.10113525390625,-0.2401123046875
1769666837628132400,2.64813232421875,0.963653564453125,0.098907470703125,-0.241485595703125
1769666837638121500,2.65812158203125,0.960693359375,0.099853515625,-0.238067626953125
1769666837648109300,2.668109375,0.9714202880859375,0.099884033203125,-0.23834228515625
1769666837658098400,2.678098388671875,0.9798583984375,0.1002349853515625,-0.2397308349609375
1769666837668086500,2.68808642578125,0.9664459228515625,0.1010589599609375,-0.239471435546875
1769666837678075400,2.698075439453125,0.9581756591796875,0.100067138671875,-0.2355804443359375
1769666837688064300,2.708064208984375,0.9575653076171875,0.10052490234375,-0.238006591796875
1769666837698052400,2.71805224609375,0.9620819091796875,0.10113525390625,-0.239593505859375
1769666837708041500,2.72804150390625,0.96832275390625,0.103363037109375,-0.2397613525390625
1769666837718029600,2.738029541015625,0.9677734375,0.1022796630859375,-0.2406005859375
1769666837728018400,2.748018310546875,0.968841552734375,0.1015777587890625,-0.2415618896484375
1769666837738006300,2.75800634765625,0.9711761474609375,0.100555419921875,-0.24224853515625
1769666837747995400,2.767995361328125,0.9709930419921875,0.10064697265625,-0.2422027587890625
1769666837757983500,2.7779833984375,0.97021484375,0.1012420654296875,-0.24029541015625
1769666837767972400,2.787972412109375,0.966949462890625,0.101776123046875,-0.237213134765625
1769666837777960200,2.797960205078125,0.967376708984375,0.1027679443359375,-0.237457275390625
1769666837787949300,2.80794921875,0.967376708984375,0.1027374267578125,-0.2366485595703125
1769666837797937400,2.8179375,0.9685821533203125,0.103057861328125,-0.2410736083984375
1769666837807926500,2.827926513671875,0.965545654296875,0.102752685546875,-0.2406768798828125
1769666837817914400,2.837914306640625,0.9724578857421875,0.1003875732421875,-0.242767333984375
1769666837827903500,2.847903564453125,0.9702606201171875,0.1040802001953125,-0.2387237548828125
1769666837837891300,2.857891357421875,0.962860107421875,0.1041107177734375,-0.2369842529296875
1769666837847880400,2.86788037109375,0.96484375,0.104522705078125,-0.236724853515625
1769666837857869300,2.877869384765625,0.96417236328125,0.1025238037109375,-0.2385711669921875
1769666837867857400,2.887857421875,0.9610595703125,0.102630615234375,-0.2386932373046875
1769666837877846500,2.897846435546875,0.9622039794921875,0.1030426025390625,-0.2384185791015625
1769666837887834400,2.90783447265625,0.96978759765625,0.1028900146484375,-0.239166259765625
1769666837897823200,2.9178232421875,0.9691162109375,0.1048736572265625,-0.2391204833984375
1769666837907811300,2.927811279296875,0.9668121337890625,0.104644775390625,-0.2396240234375
1769666837917800400,2.937800537109375,0.9687347412109375,0.1025238037109375,-0.241058349609375
1769666837927788500,2.94778857421875,0.9727783203125,0.1028594970703125,-0.2412567138671875
1769666837937777400,2.95777734375,0.970489501953125,0.1031951904296875,-0.240692138671875
1769666837947765200,2.96776513671875,0.96563720703125,0.1034393310546875,-0.2395477294921875
1769666837957754400,2.97775439453125,0.9663543701171875,0.1048431396484375,-0.2385406494140625
1769666837967742500,2.987742431640625,0.9711761474609375,0.10552978515625,-0.2398529052734375
1769666837977731600,2.997731689453125,0.970733642578125,0.104583740234375,-0.2397308349609375
1769666837987719400,3.007719482421875,0.9679412841796875,0.1055145263671875,-0.2382659912109375
1769666837997708300,3.017708251953125,0.966949462890625,0.1058807373046875,-0.2395782470703125
1769666838007697400,3.027697509765625,0.966552734375,0.105133056640625,-0.2383270263671875
1769666838017685500,3.037685546875,0.9679107666015625,0.1048583984375,-0.23785400390625
1769666838027674400,3.04767431640625,0.9679107666015625,0.1055908203125,-0.237030029296875
1769666838037662500,3.057662353515625,0.96929931640625,0.106964111328125,-0.2370147705078125
1769666838047651600,3.067651611328125,0.964141845703125,0.107086181640625,-0.2382965087890625
1769666838057639400,3.077639404296875,0.964752197265625,0.1063690185546875,-0.236907958984375
1769666838067628300,3.087628173828125,0.964569091796875,0.1062469482421875,-0.2373199462890625
1769666838077616400,3.097616455078125,0.9647064208984375,0.1052398681640625,-0.2384033203125
1769666838087605500,3.10760546875,0.9688873291015625,0.10498046875,-0.23828125
1769666838097593300,3.11759326171875,0.9687957763671875,0.106719970703125,-0.2379150390625
1769666838107582200,3.127582275390625,0.9715728759765625,0.10662841796875,-0.237152099609375
1769666838117570300,3.1375703125,0.9721832275390625,0.1069793701171875,-0.2384185791015625
1769666838127559400,3.147559326171875,0.9698333740234375,0.105987548828125,-0.2385711669921875
1769666838137547500,3.157547607421875,0.971832275390625,0.10595703125,-0.2400970458984375
1769666838147536600,3.16753662109375,0.9729156494140625,0.1053466796875,-0.2389373779296875
1769666838157525200,3.177525146484375,0.9704437255859375,0.1054534912109375,-0.238739013671875
1769666838167513300,3.187513427734375,0.9678497314453125,0.105926513671875,-0.237548828125
1769666838177502500,3.19750244140625,0.96826171875,0.10699462890625,-0.2387237548828125
1769666838187490600,3.207490478515625,0.9691009521484375,0.1065216064453125,-0.237091064453125
1769666838197479400,3.2174794921875,0.9694061279296875,0.1060791015625,-0.2376556396484375
1769666838207467300,3.22746728515625,0.968994140625,0.1064453125,-0.23785400390625
1769666838217456400,3.237456298828125,0.9695587158203125,0.105865478515625,-0.238861083984375
1769666838227444500,3.247444580078125,0.96405029296875,0.10626220703125,-0.236602783203125
1769666838237433300,3.257433349609375,0.966156005859375,0.107421875,-0.236480712890625
1769666838247421400,3.26742138671875,0.967498779296875,0.1064605712890625,-0.2361907958984375
1769666838257410600,3.27741064453125,0.9672393798828125,0.1066436767578125,-0.238311767578125
1769666838267398400,3.2873984375,0.9687957763671875,0.1061248779296875,-0.237884521484375
1769666838277387300,3.29738720703125,0.97064208984375,0.10711669921875,-0.2380828857421875
1769666838287375400,3.307375244140625,0.9684295654296875,0.1064300537109375,-0.23785400390625
1769666838297364500,3.317364501953125,0.9661712646484375,0.10662841796875,-0.2373046875
1769666838307353600,3.327353515625,0.967315673828125,0.1076507568359375,-0.2381134033203125
1769666838317341400,3.337341552734375,0.9713134765625,0.1068267822265625,-0.2391815185546875
1769666838327330300,3.347330322265625,0.9727020263671875,0.106597900390625,-0.240936279296875
1769666838337318400,3.357318359375,0.9710540771484375,0.1048126220703125,-0.2416839599609375
1769666838347307500,3.3673076171875,0.975189208984375,0.1050872802734375,-0.2403106689453125
1769666838357295600,3.377295654296875,0.9674072265625,0.1072845458984375,-0.236602783203125
1769666838367284700,3.38728466796875,0.9659271240234375,0.1059112548828125,-0.2366180419921875
1769666838377272800,3.39727294921875,0.966278076171875,0.106292724609375,-0.2381744384765625
1769666838387262000,3.407261962890625,0.9641265869140625,0.1065521240234375,-0.2374267578125
1769666838397250000,3.41725,0.9674224853515625,0.1071014404296875,-0.2378387451171875
1769666838407238700,3.42723876953125,0.9676513671875,0.1054229736328125,-0.2388458251953125
1769666838417226800,3.437226806640625,0.9639129638671875,0.1060638427734375,-0.2361297607421875
1769666838427216000,3.4472158203125,0.9627685546875,0.1071319580078125,-0.235504150390625
1769666838437204000,3.457203857421875,0.966949462890625,0.1065521240234375,-0.2368927001953125
1769666838447192800,3.46719287109375,0.9695892333984375,0.10699462890625,-0.23876953125
1769666838457180700,3.4771806640625,0.9699859619140625,0.1067047119140625,-0.2382659912109375
1769666838467169800,3.487169677734375,0.970611572265625,0.10699462890625,-0.23822021484375
1769666838477159000,3.497158935546875,0.9715423583984375,0.1075439453125,-0.238983154296875
1769666838487146800,3.507146728515625,0.96966552734375,0.106414794921875,-0.2393341064453125
1769666838497135900,3.517135986328125,0.965972900390625,0.1053314208984375,-0.2411346435546875
1769666838507124000,3.5271240234375,0.9694366455078125,0.1061859130859375,-0.2389678955078125
1769666838517112800,3.53711279296875,0.965728759765625,0.1065216064453125,-0.238739013671875
1769666838527101000,3.547100830078125,0.967529296875,0.106048583984375,-0.2389068603515625
1769666838537089800,3.55708984375,0.9684295654296875,0.10662841796875,-0.2401885986328125
1769666838547078000,3.567077880859375,0.9666595458984375,0.106231689453125,-0.2393341064453125
1769666838557067000,3.57706689453125,0.9666748046875,0.1064910888671875,-0.2376708984375
1769666838567054800,3.587054931640625,0.9662933349609375,0.1053466796875,-0.2384185791015625
1769666838577043700,3.597043701171875,0.968109130859375,0.105987548828125,-0.238525390625
1769666838587031800,3.60703173828125,0.970245361328125,0.1059722900390625,-0.23883056640625
1769666838597021000,3.61702099609375,0.97039794921875,0.10589599609375,-0.240020751953125
1769666838607009000,3.627009033203125,0.972808837890625,0.1063079833984375,-0.23931884765625
1769666838616997600,3.63699755859375,0.969451904296875,0.1052703857421875,-0.238128662109375
1769666838626986800,3.64698681640625,0.9644775390625,0.10693359375,-0.2378387451171875
1769666838636974800,3.656974853515625,0.9667510986328125,0.106353759765625,-0.237884521484375
1769666838646963700,3.666963623046875,0.968536376953125,0.1065826416015625,-0.23883056640625
1769666838656951800,3.676951904296875,0.967315673828125,0.105499267578125,-0.238311767578125
1769666838666941000,3.68694091796875,0.968170166015625,0.10675048828125,-0.23773193359375
1769666838676928800,3.6969287109375,0.9704437255859375,0.1065826416015625,-0.2395477294921875
1769666838686918000,3.70691796875,0.96710205078125,0.1058502197265625,-0.2402801513671875
1769666838696905700,3.71690576171875,0.967529296875,0.1058349609375,-0.23785400390625
1769666838706894800,3.726894775390625,0.9650421142578125,0.1058197021484375,-0.23724365234375
1769666838716883000,3.736883056640625,0.96844482421875,0.1060333251953125,-0.2373046875
1769666838726871800,3.746871826171875,0.97265625,0.105682373046875,-0.2389678955078125
1769666838736860000,3.75685986328125,0.972198486328125,0.1052398681640625,-0.2408905029296875
1769666838746848800,3.766848876953125,0.9696807861328125,0.107452392578125,-0.2383575439453125
1769666838756836900,3.7768369140625,0.9698944091796875,0.105926513671875,-0.237579345703125
1769666838766826000,3.786825927734375,0.967926025390625,0.106048583984375,-0.239044189453125
1769666838776814800,3.79681494140625,0.9660186767578125,0.1055755615234375,-0.2384490966796875
1769666838786802700,3.806802734375,0.966064453125,0.106781005859375,-0.2380523681640625
1769666838796791800,3.816791748046875,0.9663848876953125,0.1064605712890625,-0.2375335693359375
1769666838806780000,3.82677978515625,0.9663543701171875,0.106597900390625,-0.23870849609375
1769666838816768800,3.836768798828125,0.97039794921875,0.1048736572265625,-0.2394256591796875
1769666838826756600,3.846756591796875,0.968170166015625,0.10516357421875,-0.2390899658203125
1769666838836745700,3.856745849609375,0.968475341796875,0.1061553955078125,-0.2388763427734375
1769666838846733800,3.86673388671875,0.96826171875,0.1052398681640625,-0.23870849609375
1769666838856723000,3.876722900390625,0.9666290283203125,0.1053009033203125,-0.23834228515625
1769666838866710800,3.886710693359375,0.9680633544921875,0.1056365966796875,-0.2393951416015625
1769666838876700000,3.896699951171875,0.967559814453125,0.1053466796875,-0.23876953125
1769666838886687700,3.906687744140625,0.966583251953125,0.1053314208984375,-0.238128662109375
1769666838896676900,3.9166767578125,0.9673309326171875,0.1047515869140625,-0.240264892578125
1769666838906665000,3.9266650390625,0.96844482421875,0.1051788330078125,-0.240386962890625
1769666838916653800,3.93665380859375,0.9686431884765625,0.105316162109375,-0.2393798828125
1769666838926643000,3.946642822265625,0.9687347412109375,0.10498046875,-0.239013671875
1769666838936630800,3.956630859375,0.967529296875,0.104949951171875,-0.2386627197265625
1769666838946619600,3.96661962890625,0.9686279296875,0.10369873046875,-0.237762451171875
1769666838956607700,3.976607666015625,0.968109130859375,0.10479736328125,-0.237091064453125
1769666838966596900,3.986596923828125,0.96685791015625,0.10546875,-0.2375030517578125
1769666838976585000,3.9965849609375,0.9655914306640625,0.105621337890625,-0.2376861572265625
1769666838986573800,4.00657373046875,0.9654388427734375,0.106048583984375,-0.2386474609375
1769666838996561700,4.016561767578125,0.968475341796875,0.10528564453125,-0.239013671875
1769666839006550800,4.02655078125,0.9712066650390625,0.1044769287109375,-0.2392730712890625
1769666839016539000,4.036538818359375,0.9688262939453125,0.106109619140625,-0.2390899658203125
1769666839026528000,4.046528076171875,0.9676361083984375,0.10589599609375,-0.2397308349609375
1769666839036515800,4.056515869140625,0.96966552734375,0.1046905517578125,-0.2401885986328125
1769666839046504700,4.066504638671875,0.968109130859375,0.1044464111328125,-0.2425537109375
1769666839056492800,4.076492919921875,0.975250244140625,0.103546142578125,-0.2411956787109375
1769666839066482000,4.08648193359375,0.974395751953125,0.105224609375,-0.2404022216796875
1769666839076470800,4.096470703125,0.9676361083984375,0.1055755615234375,-0.24029541015625
1769666839086459000,4.106458984375,0.966766357421875,0.1040496826171875,-0.23974609375
1769666839096448000,4.116447998046875,0.9670257568359375,0.103729248046875,-0.238677978515625
1769666839106435800,4.126435791015625,0.9671630859375,0.1046600341796875,-0.2395477294921875
1769666839116424700,4.1364248046875,0.9659881591796875,0.10430908203125,-0.2388916015625
1769666839126412800,4.146412841796875,0.96783447265625,0.1035003662109375,-0.239288330078125
1769666839136402000,4.15640185546875,0.968597412109375,0.1035614013671875,-0.2393798828125
1769666839146389800,4.1663896484375,0.9677276611328125,0.104736328125,-0.2401885986328125
1769666839156378600,4.176378662109375,0.9673309326171875,0.104278564453125,-0.23980712890625
1769666839166366700,4.18636669921875,0.968414306640625,0.1041412353515625,-0.2393646240234375
1769666839176355800,4.19635595703125,0.968170166015625,0.1050872802734375,-0.2398529052734375
1769666839186344000,4.206343994140625,0.966796875,0.1052703857421875,-0.23822021484375
1769666839196333000,4.2163330078125,0.967376708984375,0.105224609375,-0.23822021484375
1769666839206320600,4.226320556640625,0.97027587890625,0.1033782958984375,-0.23980712890625
1769666839216309800,4.236309814453125,0.9682464599609375,0.1031494140625,-0.2398834228515625
1769666839226299000,4.246298828125,0.9662017822265625,0.103179931640625,-0.23944091796875
1769666839236287000,4.256286865234375,0.965728759765625,0.103759765625,-0.2396240234375
1769666839246275800,4.26627587890625,0.9676513671875,0.10308837890625,-0.2386016845703125
1769666839256263700,4.276263671875,0.9674072265625,0.103271484375,-0.2388763427734375
1769666839266252800,4.286252685546875,0.9692840576171875,0.1035308837890625,-0.2396392822265625
1769666839276241000,4.296240966796875,0.9705963134765625,0.1029510498046875,-0.2406158447265625
1769666839286229800,4.306229736328125,0.9700927734375,0.103973388671875,-0.2399139404296875
1769666839296217900,4.3162177734375,0.9697265625,0.102569580078125,-0.23883056640625
1769666839306207000,4.32620703125,0.9679107666015625,0.104248046875,-0.239501953125
1769666839316194800,4.33619482421875,0.96844482421875,0.1031341552734375,-0.2405242919921875
1769666839326183700,4.34618359375,0.9673004150390625,0.1037445068359375,-0.240631103515625
1769666839336171800,4.356171875,0.968414306640625,0.1042633056640625,-0.2397613525390625
1769666839346161000,4.366160888671875,0.967437744140625,0.1046905517578125,-0.2391510009765625
1769666839356148700,4.376148681640625,0.9647674560546875,0.10418701171875,-0.23870849609375
1769666839366137900,4.386137939453125,0.9671173095703125,0.103912353515625,-0.2403411865234375
1769666839376126200,4.396126220703125,0.9683074951171875,0.1022186279296875,-0.2405242919921875
1769666839386114300,4.4061142578125,0.9685211181640625,0.1040496826171875,-0.2398681640625
1769666839396103400,4.416103515625,0.9676513671875,0.104095458984375,-0.240081787109375
1769666839406091500,4.426091552734375,0.96722412109375,0.104522705078125,-0.239593505859375
1769666839416080100,4.436080078125,0.967529296875,0.1044464111328125,-0.240570068359375
1769666839426068200,4.446068115234375,0.970306396484375,0.1042938232421875,-0.24005126953125
1769666839436057300,4.456057373046875,0.9699554443359375,0.1023101806640625,-0.2400054931640625
1769666839446045400,4.46604541015625,0.9688720703125,0.1025238037109375,-0.23931884765625
1769666839456034300,4.476034423828125,0.968658447265625,0.103790283203125,-0.2398681640625
1769666839466022100,4.486022216796875,0.96759033203125,0.103851318359375,-0.2398681640625
1769666839476011300,4.49601123046875,0.9668426513671875,0.104461669921875,-0.2394561767578125
1769666839485999400,4.505999267578125,0.96807861328125,0.1046142578125,-0.239471435546875
1769666839495988500,4.515988525390625,0.9689788818359375,0.1036529541015625,-0.2400665283203125
1769666839505977300,4.525977294921875,0.9684600830078125,0.1029815673828125,-0.23931884765625
1769666839515965200,4.535965087890625,0.9679718017578125,0.102996826171875,-0.24041748046875
1769666839525954300,4.545954345703125,0.9674835205078125,0.10418701171875,-0.239501953125
1769666839535942400,4.5559423828125,0.9683380126953125,0.103790283203125,-0.2380218505859375
1769666839545931300,4.56593115234375,0.968505859375,0.1041717529296875,-0.23870849609375
1769666839555919400,4.57591943359375,0.9657440185546875,0.1037445068359375,-0.24017333984375
1769666839565908500,4.585908447265625,0.9699859619140625,0.1053924560546875,-0.240325927734375
1769666839575896300,4.595896240234375,0.970367431640625,0.1042327880859375,-0.240203857421875
1769666839585885200,4.60588525390625,0.968414306640625,0.1036224365234375,-0.239532470703125
1769666839595873300,4.615873291015625,0.9677276611328125,0.1043243408203125,-0.2405548095703125
1769666839605862400,4.6258623046875,0.96722412109375,0.10321044921875,-0.2388763427734375
1769666839615850500,4.6358505859375,0.9691009521484375,0.1028900146484375,-0.2393035888671875
1769666839625839400,4.64583935546875,0.9697113037109375,0.1035614013671875,-0.2407989501953125
1769666839635827200,4.6558271484375,0.96917724609375,0.102783203125,-0.24139404296875
1769666839645816300,4.66581640625,0.9687347412109375,0.1040496826171875,-0.240081787109375
1769666839655804400,4.675804443359375,0.9674072265625,0.104705810546875,-0.2386932373046875
1769666839665793500,4.68579345703125,0.96856689453125,0.1044464111328125,-0.239959716796875
1769666839675782400,4.695782470703125,0.9680633544921875,0.103973388671875,-0.240753173828125
1769666839685770200,4.705770263671875,0.969696044921875,0.10418701171875,-0.23974609375
1769666839695759400,4.71575927734375,0.97021484375,0.1047515869140625,-0.239776611328125
1769666839705747500,4.72574755859375,0.968597412109375,0.1037139892578125,-0.2406463623046875
1769666839715736300,4.735736328125,0.967803955078125,0.1027984619140625,-0.2392578125
1769666839725724200,4.74572412109375,0.9678497314453125,0.103851318359375,-0.2393951416015625
1769666839735713300,4.75571337890625,0.966278076171875,0.1043853759765625,-0.2389678955078125
1769666839745701400,4.765701416015625,0.9664459228515625,0.104034423828125,-0.2394866943359375
1769666839755690200,4.775690185546875,0.96759033203125,0.10369873046875,-0.2405548095703125
1769666839765678300,4.78567822265625,0.970245361328125,0.1051025390625,-0.2417755126953125
1769666839775667500,4.79566748046875,0.9732513427734375,0.103607177734375,-0.240264892578125
1769666839785655300,4.8056552734375,0.9681549072265625,0.1047210693359375,-0.237823486328125
1769666839795644200,4.81564404296875,0.96533203125,0.1039276123046875,-0.23724365234375
1769666839805632300,4.82563232421875,0.9696502685546875,0.102294921875,-0.2407989501953125
1769666839815621400,4.835621337890625,0.9693756103515625,0.103179931640625,-0.2420654296875
1769666839825610500,4.845610595703125,0.969268798828125,0.1048431396484375,-0.239654541015625
1769666839835598300,4.855598388671875,0.9683074951171875,0.103729248046875,-0.240814208984375
1769666839845587200,4.865587158203125,0.9652252197265625,0.10589599609375,-0.2379302978515625
1769666839855575300,4.8755751953125,0.9651641845703125,0.1031951904296875,-0.23822021484375
1769666839865564400,4.885564453125,0.965789794921875,0.105255126953125,-0.2403717041015625
1769666839875552500,4.895552490234375,0.9678802490234375,0.105712890625,-0.2398681640625
1769666839885541400,4.905541259765625,0.9699249267578125,0.1050872802734375,-0.24066162109375
1769666839895529200,4.915529296875,0.9686126708984375,0.1054840087890625,-0.239532470703125
1769666839905518300,4.925518310546875,0.96533203125,0.1052398681640625,-0.2392120361328125
1769666839915506400,4.93550634765625,0.966766357421875,0.10430908203125,-0.2410430908203125
1769666839925495300,4.945495361328125,0.967315673828125,0.1045379638671875,-0.2415618896484375
1769666839935483100,4.955483154296875,0.9663848876953125,0.103851318359375,-0.2410125732421875
1769666839945472300,4.96547216796875,0.9662933349609375,0.10321044921875,-0.240692138671875
1769666839955460400,4.97546044921875,0.969940185546875,0.102935791015625,-0.24188232421875
1769666839965449200,4.98544921875,0.97216796875,0.1050262451171875,-0.2412109375
1769666839975438300,4.995438232421875,0.97076416015625,0.1056365966796875,-0.24188232421875
1769666839985426400,5.005426513671875,0.9691619873046875,0.1036529541015625,-0.2406463623046875
1769666839995415600,5.01541552734375,0.9682159423828125,0.10260009765625,-0.241668701171875
1769666840005403400,5.0254033203125,0.9683990478515625,0.104522705078125,-0.241546630859375
1769666840015392300,5.035392333984375,0.970733642578125,0.1043853759765625,-0.2414093017578125
1769666840025380400,5.04538037109375,0.9700775146484375,0.1046600341796875,-0.240875244140625
1769666840035369500,5.055369384765625,0.965087890625,0.105712890625,-0.2379608154296875
1769666840045357300,5.065357421875,0.962860107421875,0.1049652099609375,-0.2374267578125
1769666840055346200,5.07534619140625,0.9642791748046875,0.104827880859375,-0.237579345703125
1769666840065334300,5.085334228515625,0.9678497314453125,0.105712890625,-0.240753173828125
1769666840075323400,5.095323486328125,0.968109130859375,0.1060791015625,-0.2411346435546875
1769666840085311500,5.1053115234375,0.9700927734375,0.10723876953125,-0.2401123046875
1769666840095300400,5.11530029296875,0.9703216552734375,0.1058197021484375,-0.23980712890625
1769666840105288200,5.1252880859375,0.9677734375,0.1054534912109375,-0.23876953125
1769666840115277300,5.13527734375,0.967926025390625,0.105987548828125,-0.2379913330078125
1769666840125266400,5.145266357421875,0.968048095703125,0.10498046875,-0.2386322021484375
1769666840135254300,5.155254150390625,0.9683990478515625,0.10504150390625,-0.2387542724609375
1769666840145243400,5.165243408203125,0.9680023193359375,0.105010986328125,-0.2405242919921875
1769666840155231200,5.175231201171875,0.968536376953125,0.1047821044921875,-0.2404937744140625
1769666840165220400,5.185220458984375,0.9688720703125,0.106109619140625,-0.2402801513671875
1769666840175208400,5.19520849609375,0.9669342041015625,0.1059722900390625,-0.2397003173828125
1769666840185197300,5.205197265625,0.9658203125,0.1063385009765625,-0.2370758056640625
1769666840195185400,5.215185302734375,0.9643402099609375,0.10528564453125,-0.237152099609375
1769666840205174500,5.225174560546875,0.965118408203125,0.1060638427734375,-0.238311767578125
1769666840215162400,5.235162353515625,0.969146728515625,0.105316162109375,-0.2396392822265625
1769666840225151200,5.245151123046875,0.9715576171875,0.1048736572265625,-0.240234375
1769666840235139300,5.255139404296875,0.9730987548828125,0.1060333251953125,-0.2419586181640625
1769666840245128400,5.26512841796875,0.9761962890625,0.1055145263671875,-0.24365234375
1769666840255117300,5.275117431640625,0.9735260009765625,0.1068115234375,-0.2423553466796875
1769666840265105200,5.285105224609375,0.9690093994140625,0.1050567626953125,-0.2398529052734375
1769666840275094300,5.29509423828125,0.9647369384765625,0.106475830078125,-0.2375946044921875
1769666840285082400,5.305082275390625,0.962127685546875,0.105712890625,-0.2361907958984375
1769666840295071500,5.315071533203125,0.964813232421875,0.106781005859375,-0.2386322021484375
1769666840305059300,5.325059326171875,0.967254638671875,0.106048583984375,-0.2387542724609375
1769666840315048200,5.335048095703125,0.9716644287109375,0.10595703125,-0.2407073974609375
1769666840325036300,5.345036376953125,0.9729156494140625,0.1056671142578125,-0.241607666015625
1769666840335025400,5.355025390625,0.9723358154296875,0.1052093505859375,-0.2417144775390625
1769666840345013500,5.365013427734375,0.9664154052734375,0.1054229736328125,-0.2389373779296875
1769666840355002400,5.37500244140625,0.9613800048828125,0.1088714599609375,-0.236083984375
1769666840364990200,5.384990234375,0.96533203125,0.108184814453125,-0.238067626953125
1769666840374980600,5.394980712890625,0.970703125,0.107757568359375,-0.240875244140625
1769666840384968700,5.40496875,0.9711151123046875,0.106597900390625,-0.240570068359375
1769666840394957800,5.414957763671875,0.96942138671875,0.1057586669921875,-0.2405853271484375
1769666840404945700,5.424945556640625,0.965301513671875,0.10693359375,-0.2382659912109375
1769666840414934500,5.4349345703125,0.9623260498046875,0.1074371337890625,-0.235992431640625
1769666840424923600,5.444923583984375,0.962799072265625,0.1074981689453125,-0.2380828857421875
1769666840434911700,5.454911865234375,0.96826171875,0.10748291015625,-0.240142822265625
1769666840444900900,5.46490087890625,0.97186279296875,0.1057281494140625,-0.2410430908203125
1769666840454888700,5.474888671875,0.9717254638671875,0.10687255859375,-0.2409820556640625
1769666840464877600,5.484877685546875,0.97064208984375,0.106353759765625,-0.2409515380859375
1769666840474865700,5.49486572265625,0.9647369384765625,0.1075286865234375,-0.2377166748046875
1769666840484854800,5.504854736328125,0.9609375,0.107330322265625,-0.23779296875
1769666840494843000,5.5148427734375,0.9629364013671875,0.10772705078125,-0.238555908203125
1769666840504831700,5.524831787109375,0.9678192138671875,0.1075286865234375,-0.2412109375
1769666840514819600,5.534819580078125,0.9756622314453125,0.10699462890625,-0.242095947265625
1769666840524808700,5.54480859375,0.9726715087890625,0.1070556640625,-0.23822021484375
1769666840534796800,5.554796875,0.968780517578125,0.1083831787109375,-0.23870849609375
1769666840544785700,5.56478564453125,0.968902587890625,0.106597900390625,-0.2392730712890625
1769666840554773800,5.574773681640625,0.966064453125,0.107208251953125,-0.2379150390625
1769666840564762600,5.5847626953125,0.9650115966796875,0.1079254150390625,-0.2379150390625
1769666840574751500,5.59475146484375,0.9661865234375,0.1062164306640625,-0.2378387451171875
1769666840584739600,5.604739501953125,0.966339111328125,0.1063079833984375,-0.2374420166015625
1769666840594728700,5.614728759765625,0.9657745361328125,0.1060638427734375,-0.2378387451171875
1769666840604716800,5.624716796875,0.9662933349609375,0.1059722900390625,-0.23858642578125
1769666840614706000,5.634705810546875,0.9690399169921875,0.105621337890625,-0.239593505859375
1769666840624693800,5.64469384765625,0.9705352783203125,0.1072540283203125,-0.2390594482421875
1769666840634682600,5.6546826171875,0.96990966796875,0.10687255859375,-0.2401885986328125
1769666840644670700,5.664670654296875,0.9701385498046875,0.1078338623046875,-0.23974609375
1769666840654659800,5.674659912109375,0.9674835205078125,0.1071929931640625,-0.239227294921875
1769666840664648000,5.68464794921875,0.9669342041015625,0.105377197265625,-0.240478515625
1769666840674636500,5.694636474609375,0.96746826171875,0.1060333251953125,-0.2399749755859375
1769666840684624600,5.704624755859375,0.9678497314453125,0.1048126220703125,-0.2400665283203125
1769666840694613800,5.71461376953125,0.9684295654296875,0.106292724609375,-0.240478515625
1769666840704601900,5.724601806640625,0.9668731689453125,0.1077880859375,-0.2397613525390625
1769666840714590700,5.7345908203125,0.9673309326171875,0.10736083984375,-0.2381591796875
1769666840724579800,5.744579833984375,0.96734619140625,0.10614013671875,-0.239166259765625
1769666840734567700,5.754567626953125,0.9692230224609375,0.1064300537109375,-0.239166259765625
1769666840744556500,5.764556640625,0.970794677734375,0.106201171875,-0.24169921875
1769666840754544600,5.774544677734375,0.972198486328125,0.106719970703125,-0.2407989501953125
1769666840764533800,5.78453369140625,0.969879150390625,0.1068115234375,-0.239501953125
1769666840774521900,5.79452197265625,0.965301513671875,0.1068878173828125,-0.2377777099609375
1769666840784510700,5.8045107421875,0.966400146484375,0.107025146484375,-0.237335205078125
1769666840794498600,5.81449853515625,0.9650421142578125,0.10601806640625,-0.2383270263671875
1769666840804487700,5.82448779296875,0.9669189453125,0.1070709228515625,-0.239410400390625
1769666840814475800,5.834475830078125,0.9694366455078125,0.108734130859375,-0.2396087646484375
1769666840824465000,5.84446484375,0.9666900634765625,0.1079559326171875,-0.2377777099609375
1769666840834452700,5.85445263671875,0.9705352783203125,0.1074676513671875,-0.2407989501953125
1769666840844441600,5.864441650390625,0.9697723388671875,0.1064453125,-0.2393035888671875
1769666840854430700,5.8744306640625,0.9686737060546875,0.1073150634765625,-0.23797607421875
1769666840864418800,5.884418701171875,0.967803955078125,0.106475830078125,-0.2363739013671875
1769666840874407700,5.89440771484375,0.9661407470703125,0.1065521240234375,-0.2386322021484375
1769666840884395500,5.9043955078125,0.96685791015625,0.105926513671875,-0.239471435546875
1769666840894384600,5.914384521484375,0.9669952392578125,0.105621337890625,-0.2408294677734375
1769666840904372700,5.924372802734375,0.9669036865234375,0.1064910888671875,-0.241241455078125
1769666840914361600,5.934361572265625,0.9705657958984375,0.106048583984375,-0.240509033203125
1769666840924349700,5.944349609375,0.9687957763671875,0.1072235107421875,-0.23931884765625
1769666840934338800,5.9543388671875,0.96844482421875,0.1054229736328125,-0.2399444580078125
1769666840944326700,5.96432666015625,0.972259521484375,0.105499267578125,-0.2414703369140625
1769666840954315800,5.974315673828125,0.970428466796875,0.106231689453125,-0.2414398193359375
1769666840964303600,5.9843037109375,0.968170166015625,0.1060333251953125,-0.2390899658203125
1769666840974292700,5.994292724609375,0.96832275390625,0.1068115234375,-0.2397003173828125
1769666840984280800,6.00428076171875,0.9665069580078125,0.106597900390625,-0.239715576171875
1769666840994269700,6.014269775390625,0.9643096923828125,0.1074371337890625,-0.23809814453125
1769666841004258600,6.024258544921875,0.9666595458984375,0.1061859130859375,-0.23931884765625
1769666841014246700,6.03424658203125,0.967437744140625,0.1065216064453125,-0.241912841796875
1769666841024235800,6.04423583984375,0.968902587890625,0.1053619384765625,-0.2408447265625
1769666841034223900,6.054223876953125,0.968597412109375,0.106292724609375,-0.24151611328125
1769666841044212700,6.064212646484375,0.969757080078125,0.1058349609375,-0.240631103515625
1769666841054200600,6.07420068359375,0.9690093994140625,0.10626220703125,-0.2404632568359375
1769666841064189700,6.084189697265625,0.96734619140625,0.10650634765625,-0.239288330078125
1769666841074177800,6.094177734375,0.9673004150390625,0.105987548828125,-0.238616943359375
1769666841084166700,6.104166748046875,0.9678955078125,0.1051483154296875,-0.237884521484375
1769666841094154500,6.114154541015625,0.9688873291015625,0.1051177978515625,-0.23968505859375
1769666841104143600,6.1241435546875,0.96942138671875,0.105682373046875,-0.2399139404296875
1769666841114131700,6.134131591796875,0.968994140625,0.1061553955078125,-0.239898681640625
1769666841124120800,6.144120849609375,0.968170166015625,0.106903076171875,-0.240020751953125
1769666841134108700,6.154108642578125,0.967742919921875,0.1074371337890625,-0.240234375
1769666841144097800,6.164097900390625,0.966156005859375,0.10736083984375,-0.23968505859375
1769666841154085600,6.174085693359375,0.9669189453125,0.105316162109375,-0.239044189453125
1769666841164074800,6.18407470703125,0.966766357421875,0.1064910888671875,-0.2380523681640625
1769666841174063600,6.194063720703125,0.9677276611328125,0.1072998046875,-0.23883056640625
1769666841184051700,6.2040517578125,0.9672088623046875,0.1078338623046875,-0.2403106689453125
1769666841194040800,6.214040771484375,0.968536376953125,0.105712890625,-0.2410888671875
1769666841204028700,6.224028564453125,0.970001220703125,0.1068572998046875,-0.2406158447265625
1769666841214017500,6.234017578125,0.9688720703125,0.10516357421875,-0.2398681640625
1769666841224005600,6.244005615234375,0.96807861328125,0.1066131591796875,-0.2388916015625
1769666841233994800,6.253994873046875,0.96337890625,0.1057281494140625,-0.2393341064453125
1769666841243982800,6.26398291015625,0.96368408203125,0.10626220703125,-0.24017333984375
1769666841253971700,6.2739716796875,0.9678955078125,0.1054534912109375,-0.2415924072265625
1769666841263959600,6.28395947265625,0.970733642578125,0.105133056640625,-0.2440643310546875
1769666841273948700,6.29394873046875,0.973846435546875,0.1054840087890625,-0.241302490234375
1769666841283936800,6.303936767578125,0.9687652587890625,0.108184814453125,-0.2391815185546875
1769666841293926000,6.31392578125,0.9702301025390625,0.1060028076171875,-0.241729736328125
1769666841303913500,6.32391357421875,0.9678802490234375,0.10406494140625,-0.241119384765625
1769666841313902600,6.333902587890625,0.9668426513671875,0.10723876953125,-0.2406463623046875
1769666841323891700,6.3438916015625,0.96685791015625,0.1059417724609375,-0.2407684326171875
1769666841333879800,6.3538798828125,0.9650421142578125,0.105865478515625,-0.240203857421875
1769666841343868700,6.36386865234375,0.96282958984375,0.107879638671875,-0.2396087646484375
1769666841353856800,6.373856689453125,0.965179443359375,0.1068572998046875,-0.238677978515625
1769666841363846000,6.383845947265625,0.9688873291015625,0.1063995361328125,-0.240447998046875
1769666841373832700,6.393832763671875,0.970855712890625,0.1060028076171875,-0.2418975830078125
1769666841383821800,6.40382177734375,0.9701690673828125,0.1055755615234375,-0.241790771484375
1769666841393810000,6.413809814453125,0.9698028564453125,0.105865478515625,-0.240264892578125
1769666841403798800,6.423798828125,0.969146728515625,0.106658935546875,-0.238861083984375
1769666841413786600,6.43378662109375,0.9658050537109375,0.1053466796875,-0.2383880615234375
1769666841423775700,6.443775634765625,0.9643707275390625,0.1058502197265625,-0.239898681640625
1769666841433763800,6.453763916015625,0.9671478271484375,0.1063079833984375,-0.24237060546875
1769666841443752700,6.463752685546875,0.968109130859375,0.1063690185546875,-0.2420196533203125
1769666841453740500,6.473740478515625,0.96929931640625,0.1056365966796875,-0.24200439453125
1769666841463729700,6.483729736328125,0.9705657958984375,0.1044769287109375,-0.24169921875
1769666841473718500,6.493718505859375,0.9668426513671875,0.1065216064453125,-0.2402191162109375
1769666841483706600,6.50370654296875,0.96551513671875,0.10601806640625,-0.2385711669921875
1769666841493695700,6.51369580078125,0.967864990234375,0.10601806640625,-0.238922119140625
1769666841503683800,6.523683837890625,0.9698486328125,0.107391357421875,-0.2409515380859375
1769666841513672700,6.533672607421875,0.9682159423828125,0.10601806640625,-0.2404022216796875
1769666841523660500,6.54366064453125,0.9665679931640625,0.1058807373046875,-0.2402191162109375
1769666841533649700,6.553649658203125,0.967041015625,0.1061553955078125,-0.239990234375
1769666841543637800,6.5636376953125,0.96826171875,0.1056976318359375,-0.24041748046875
1769666841553627000,6.573626953125,0.9709320068359375,0.1058349609375,-0.24078369140625
1769666841563614700,6.58361474609375,0.9703521728515625,0.1071319580078125,-0.2401123046875
1769666841573603600,6.593603515625,0.968048095703125,0.1064605712890625,-0.2373504638671875
1769666841583591700,6.603591796875,0.9633331298828125,0.105682373046875,-0.2370758056640625
1769666841593580800,6.613580810546875,0.9679412841796875,0.10491943359375,-0.2393035888671875
1769666841603569000,6.62356884765625,0.9674835205078125,0.1063995361328125,-0.241668701171875
1769666841613557800,6.633557861328125,0.9675445556640625,0.107330322265625,-0.2412872314453125
1769666841623546600,6.643546630859375,0.9672088623046875,0.105865478515625,-0.241180419921875
1769666841633534700,6.65353466796875,0.97100830078125,0.1067047119140625,-0.2403717041015625
1769666841643523600,6.663523681640625,0.9734344482421875,0.1066131591796875,-0.2398529052734375
1769666841653511700,6.67351171875,0.9702606201171875,0.1063079833984375,-0.2384185791015625
1769666841663500800,6.683500732421875,0.9665679931640625,0.1061248779296875,-0.2378082275390625
1769666841673488600,6.693488525390625,0.9655303955078125,0.1054229736328125,-0.2377471923828125
1769666841683477800,6.703477783203125,0.9634246826171875,0.106292724609375,-0.2386474609375
1769666841693465600,6.713465576171875,0.9664764404296875,0.1076812744140625,-0.239044189453125
1769666841703454700,6.723454833984375,0.970916748046875,0.105560302734375,-0.2405242919921875
1769666841713442800,6.73344287109375,0.9694671630859375,0.105865478515625,-0.2408599853515625
1769666841723432000,6.743431884765625,0.9696502685546875,0.105926513671875,-0.239898681640625
1769666841733419800,6.753419677734375,0.9683380126953125,0.10662841796875,-0.238250732421875
1769666841743408600,6.76340869140625,0.9669952392578125,0.1054229736328125,-0.238128662109375
1769666841753396700,6.773396728515625,0.9686279296875,0.1057281494140625,-0.2392120361328125
1769666841763385900,6.7833857421875,0.964508056640625,0.1059417724609375,-0.2408599853515625
1769666841773374700,6.793374755859375,0.962738037109375,0.1071929931640625,-0.240631103515625
1769666841783362600,6.803362548828125,0.964019775390625,0.1085052490234375,-0.2385406494140625
1769666841793351700,6.8133515625,0.9636993408203125,0.1079559326171875,-0.2396087646484375
1769666841803339800,6.82333984375,0.9636383056640625,0.1066741943359375,-0.2384490966796875
1769666841813328600,6.83332861328125,0.9677581787109375,0.10528564453125,-0.2395477294921875
1769666841823316700,6.843316650390625,0.9689483642578125,0.10626220703125,-0.2390289306640625
1769666841833305600,6.8533056640625,0.9690704345703125,0.10601806640625,-0.239044189453125
1769666841843293700,6.863293701171875,0.97125244140625,0.107208251953125,-0.2403411865234375
1769666841853282800,6.87328271484375,0.9708709716796875,0.1064910888671875,-0.240509033203125
1769666841863270700,6.883270751953125,0.96966552734375,0.106536865234375,-0.2378082275390625
1769666841873259800,6.893259765625,0.9686431884765625,0.106109619140625,-0.237335205078125
1769666841883247600,6.90324755859375,0.969970703125,0.1052398681640625,-0.2377471923828125
1769666841893236700,6.91323681640625,0.967315673828125,0.10693359375,-0.2383270263671875
1769666841903224800,6.923224853515625,0.9687042236328125,0.1065673828125,-0.2393035888671875
1769666841913213700,6.933213623046875,0.967864990234375,0.1063690185546875,-0.2384033203125
1769666841923202800,6.943202880859375,0.96917724609375,0.1062164306640625,-0.2390899658203125
1769666841933191000,6.95319091796875,0.970458984375,0.106689453125,-0.238189697265625
1769666841943179500,6.963179443359375,0.9682769775390625,0.106658935546875,-0.2379608154296875
1769666841953167600,6.973167724609375,0.967498779296875,0.106201171875,-0.236907958984375
1769666841963156700,6.98315673828125,0.9680633544921875,0.106201171875,-0.2379913330078125
1769666841973144800,6.993144775390625,0.9668121337890625,0.1048431396484375,-0.2373046875
1769666841983133700,7.0031337890625,0.9668731689453125,0.1055755615234375,-0.23785400390625
1769666841993121500,7.01312158203125,0.968231201171875,0.105316162109375,-0.23907470703125
1769666842003110700,7.023110595703125,0.9676513671875,0.1058349609375,-0.238800048828125
1769666842013098800,7.0330986328125,0.9664154052734375,0.1055755615234375,-0.237213134765625
1769666842023087600,7.043087646484375,0.964813232421875,0.1062469482421875,-0.238250732421875
1769666842033075700,7.05307568359375,0.9670562744140625,0.1073455810546875,-0.24005126953125
1769666842043064600,7.063064697265625,0.9722747802734375,0.10693359375,-0.2403564453125
1769666842053052700,7.073052734375,0.972686767578125,0.104217529296875,-0.2391815185546875
1769666842063041800,7.083041748046875,0.966827392578125,0.106353759765625,-0.2369842529296875
1769666842073030700,7.09303076171875,0.976531982421875,0.1064300537109375,-0.2409820556640625
1769666842083018800,7.103018798828125,0.97332763671875,0.10552978515625,-0.2405548095703125
1769666842093008000,7.1130078125,0.968414306640625,0.10498046875,-0.2387542724609375
1769666842102995700,7.12299560546875,0.9670562744140625,0.1053466796875,-0.237884521484375
1769666842112984600,7.132984619140625,0.9656982421875,0.1039276123046875,-0.2381439208984375
1769666842122972700,7.14297265625,0.9633636474609375,0.1058502197265625,-0.2384490966796875
1769666842132961800,7.1529619140625,0.9634552001953125,0.106781005859375,-0.2396087646484375
1769666842142950000,7.162949951171875,0.965240478515625,0.1054229736328125,-0.2387847900390625
1769666842152938500,7.1729384765625,0.9673614501953125,0.1050567626953125,-0.2381744384765625
1769666842162926600,7.182926513671875,0.967987060546875,0.1060333251953125,-0.23809814453125
1769666842172915700,7.192915771484375,0.9678955078125,0.1063385009765625,-0.2371978759765625
1769666842182903800,7.20290380859375,0.9687957763671875,0.1065216064453125,-0.2387237548828125
1769666842192892700,7.212892578125,0.968505859375,0.104888916015625,-0.239044189453125
1769666842202880500,7.222880615234375,0.9696807861328125,0.1054840087890625,-0.239105224609375
1769666842212869600,7.23286962890625,0.969085693359375,0.1066741943359375,-0.2391815185546875
1769666842222858800,7.242858642578125,0.9681396484375,0.1060638427734375,-0.2371063232421875
1769666842232846800,7.252846923828125,0.969879150390625,0.1056365966796875,-0.236907958984375
1769666842242835700,7.262835693359375,0.96673583984375,0.1066436767578125,-0.2375640869140625
1769666842252823600,7.272823486328125,0.9635467529296875,0.105712890625,-0.236053466796875
1769666842262812700,7.282812744140625,0.9644012451171875,0.105926513671875,-0.2372283935546875
1769666842272800800,7.29280078125,0.9676361083984375,0.1071624755859375,-0.2375030517578125
1769666842282789600,7.30278955078125,0.970184326171875,0.1067657470703125,-0.2394256591796875
1769666842292777700,7.31277783203125,0.9650726318359375,0.1044921875,-0.23822021484375
1769666842302766800,7.322766845703125,0.968292236328125,0.1067047119140625,-0.239593505859375
1769666842312754700,7.332754638671875,0.966949462890625,0.105316162109375,-0.2399139404296875
1769666842322743600,7.34274365234375,0.96551513671875,0.1043243408203125,-0.237518310546875
1769666842332731600,7.352731689453125,0.9645843505859375,0.105133056640625,-0.2364501953125
1769666842342720800,7.362720703125,0.9658966064453125,0.1053619384765625,-0.2373809814453125
1769666842352708900,7.372708984375,0.970855712890625,0.1042633056640625,-0.2360992431640625
1769666842362697700,7.38269775390625,0.9693756103515625,0.1049652099609375,-0.23748779296875
1769666842372686800,7.392686767578125,0.970672607421875,0.1041412353515625,-0.2398529052734375
1769666842382675000,7.402675048828125,0.9700469970703125,0.103302001953125,-0.2410125732421875
1769666842392663800,7.412663818359375,0.9709014892578125,0.1046295166015625,-0.2396697998046875
1769666842402652000,7.42265185546875,0.971160888671875,0.104736328125,-0.238983154296875
1769666842412640800,7.432640869140625,0.9667816162109375,0.10369873046875,-0.2384796142578125
1769666842422628900,7.44262890625,0.968994140625,0.102630615234375,-0.238555908203125
1769666842432618000,7.452617919921875,0.9700469970703125,0.10198974609375,-0.2390899658203125
1769666842442605800,7.462605712890625,0.965789794921875,0.102294921875,-0.239349365234375
1769666842452594700,7.4725947265625,0.965057373046875,0.104156494140625,-0.238189697265625
1769666842462582800,7.482582763671875,0.966217041015625,0.1049346923828125,-0.2374114990234375
1769666842472572000,7.492572021484375,0.9732208251953125,0.1047821044921875,-0.239013671875
1769666842482560000,7.50256005859375,0.9787445068359375,0.1033782958984375,-0.240447998046875
1769666842492548900,7.512548828125,0.9762420654296875,0.1036376953125,-0.241943359375
1769666842502536700,7.52253662109375,0.97052001953125,0.104400634765625,-0.2400054931640625
1769666842512525800,7.53252587890625,0.9692535400390625,0.102874755859375,-0.2387847900390625
1769666842522514000,7.542513916015625,0.9708099365234375,0.103057861328125,-0.238128662109375
1769666842532502800,7.552502685546875,0.9711456298828125,0.1035614013671875,-0.2374114990234375
1769666842542492000,7.562491943359375,0.9651947021484375,0.1046600341796875,-0.2372589111328125
1769666842552479700,7.572479736328125,0.963104248046875,0.1047515869140625,-0.23712158203125
1769666842562468900,7.58246875,0.975799560546875,0.1056060791015625,-0.239105224609375
1769666842572457000,7.59245703125,0.97308349609375,0.104522705078125,-0.24151611328125
1769666842582445800,7.60244580078125,0.968994140625,0.105804443359375,-0.23760986328125
1769666842592434000,7.612433837890625,0.969085693359375,0.106048583984375,-0.23651123046875
1769666842602423000,7.622423095703125,0.9662933349609375,0.107696533203125,-0.2347412109375
1769666842612411000,7.632410888671875,0.967254638671875,0.10723876953125,-0.23492431640625
1769666842622399700,7.642399658203125,0.966400146484375,0.1063232421875,-0.2346649169921875
1769666842632387800,7.652387939453125,0.9608001708984375,0.105560302734375,-0.2363739013671875
1769666842642377000,7.662376953125,0.9639739990234375,0.1046905517578125,-0.237640380859375
1769666842652364800,7.67236474609375,0.9688873291015625,0.103790283203125,-0.23858642578125
1769666842662353700,7.682353759765625,0.9728546142578125,0.105743408203125,-0.2387542724609375
1769666842672341800,7.692341796875,0.9681396484375,0.106292724609375,-0.238006591796875
1769666842682331000,7.702330810546875,0.9629058837890625,0.106781005859375,-0.235687255859375
1769666842692319700,7.71231982421875,0.9678497314453125,0.1072235107421875,-0.235198974609375
1769666842702307800,7.722307861328125,0.96942138671875,0.10693359375,-0.236480712890625
1769666842712296700,7.732296630859375,0.9694976806640625,0.10614013671875,-0.236358642578125
1769666842722284800,7.742284912109375,0.969390869140625,0.1053924560546875,-0.2390289306640625
1769666842732274000,7.75227392578125,0.9716339111328125,0.105010986328125,-0.2382049560546875
1769666842742261800,7.76226171875,0.967742919921875,0.106475830078125,-0.236419677734375
1769666842752251000,7.7722509765625,0.9631805419921875,0.1072845458984375,-0.2342071533203125
1769666842762238700,7.78223876953125,0.9620513916015625,0.1078033447265625,-0.2331085205078125
1769666842772227800,7.792227783203125,0.9623260498046875,0.1070404052734375,-0.2362060546875
1769666842782216000,7.8022158203125,0.967559814453125,0.104827880859375,-0.238525390625
1769666842792204800,7.812204833984375,0.973541259765625,0.103851318359375,-0.2405853271484375
1769666842802193000,7.82219287109375,0.977935791015625,0.1030426025390625,-0.2382354736328125
1769666842812182000,7.83218212890625,0.9698028564453125,0.104736328125,-0.23516845703125
1769666842822169900,7.842169921875,0.9659881591796875,0.1060638427734375,-0.2364044189453125
1769666842832158700,7.85215869140625,0.9674224853515625,0.1060028076171875,-0.2344970703125
1769666842842147800,7.86214794921875,0.9676055908203125,0.105743408203125,-0.235626220703125
1769666842852136000,7.872135986328125,0.9724884033203125,0.1029815673828125,-0.2381744384765625
1769666842862124800,7.882124755859375,0.959381103515625,0.1042633056640625,-0.240234375
1769666842872112600,7.892112548828125,0.9610748291015625,0.1048583984375,-0.238189697265625
1769666842882101800,7.902101806640625,0.9739990234375,0.1021270751953125,-0.2405853271484375
1769666842892089900,7.91208984375,0.975921630859375,0.101531982421875,-0.23785400390625
1769666842902079000,7.922078857421875,0.9718475341796875,0.1031951904296875,-0.236419677734375
1769666842912066800,7.93206689453125,0.965484619140625,0.1053466796875,-0.235687255859375
1769666842922055700,7.9420556640625,0.9657135009765625,0.106903076171875,-0.234771728515625
1769666842932043800,7.952043701171875,0.970428466796875,0.10443115234375,-0.235382080078125
1769666842942033000,7.962032958984375,0.975494384765625,0.1038055419921875,-0.2386474609375
1769666842952021000,7.97202099609375,0.9773712158203125,0.104095458984375,-0.2393951416015625
1769666842962009900,7.982009765625,0.9773101806640625,0.102142333984375,-0.2386627197265625
1769666842971997700,7.991997802734375,0.9751739501953125,0.103729248046875,-0.2372589111328125
1769666842981986800,8.00198681640625,0.974853515625,0.103057861328125,-0.2371368408203125
1769666842991975700,8.0119755859375,0.970062255859375,0.10406494140625,-0.238006591796875
1769666843001963800,8.0219638671875,0.965423583984375,0.1053314208984375,-0.2363739013671875
1769666843011953000,8.031952880859375,0.9615478515625,0.1050567626953125,-0.2344207763671875
1769666843021941000,8.04194091796875,0.9613800048828125,0.10491943359375,-0.2359466552734375
1769666843031929900,8.051929931640625,0.9659576416015625,0.1040496826171875,-0.2370758056640625
1769666843041917700,8.061917724609375,0.9696807861328125,0.1048736572265625,-0.236907958984375
1769666843051906800,8.07190673828125,0.972015380859375,0.104766845703125,-0.23773193359375
1769666843061895000,8.08189501953125,0.9754791259765625,0.1049346923828125,-0.2392730712890625
1769666843071884000,8.091884033203126,0.9734039306640625,0.105621337890625,-0.2386474609375
1769666843081872000,8.101871826171875,0.96990966796875,0.10577392578125,-0.2354583740234375
1769666843091860700,8.11186083984375,0.968597412109375,0.1087493896484375,-0.2369232177734375
1769666843101848800,8.121848876953125,0.965606689453125,0.105865478515625,-0.234527587890625
1769666843111838000,8.131837890625,0.96331787109375,0.10736083984375,-0.23443603515625
1769666843121826000,8.141825927734375,0.9660797119140625,0.1077880859375,-0.2341156005859375
1769666843131814700,8.151814697265625,0.965972900390625,0.1062774658203125,-0.235626220703125
1769666843141802800,8.161802734375,0.9680633544921875,0.106292724609375,-0.23651123046875
1769666843151791900,8.1717919921875,0.9665985107421875,0.106353759765625,-0.2346649169921875
1769666843161780700,8.18178076171875,0.964447021484375,0.106689453125,-0.2347259521484375
1769666843171768800,8.191768798828125,0.9631195068359375,0.1074981689453125,-0.2358856201171875
1769666843181758000,8.201758056640625,0.967132568359375,0.1077117919921875,-0.2360687255859375
1769666843191745800,8.211745849609375,0.969635009765625,0.10736083984375,-0.23626708984375
1769666843201734700,8.221734619140625,0.969970703125,0.108062744140625,-0.236785888671875
1769666843211722800,8.23172265625,0.9709014892578125,0.105926513671875,-0.2378387451171875
1769666843221712000,8.2417119140625,0.9709930419921875,0.1071014404296875,-0.2382659912109375
1769666843231700000,8.251699951171876,0.970306396484375,0.10601806640625,-0.237152099609375
1769666843241688800,8.261688720703125,0.97100830078125,0.1070098876953125,-0.2357025146484375
1769666843251676700,8.2716767578125,0.9716796875,0.107208251953125,-0.2366180419921875
1769666843261665800,8.281665771484375,0.967529296875,0.10772705078125,-0.2375335693359375
1769666843271654000,8.29165380859375,0.9644927978515625,0.10711669921875,-0.2348480224609375
1769666843281643000,8.30164306640625,0.9626617431640625,0.1074066162109375,-0.2352294921875
1769666843291630800,8.311630859375,0.9634552001953125,0.10650634765625,-0.236419677734375
1769666843301619700,8.32161962890625,0.9654083251953125,0.1061248779296875,-0.236602783203125
1769666843311608800,8.33160888671875,0.9658966064453125,0.10693359375,-0.236663818359375
1769666843321597000,8.341596923828124,0.9681396484375,0.1075286865234375,-0.2381134033203125
1769666843331585800,8.351585693359375,0.967681884765625,0.1066436767578125,-0.236785888671875
1769666843341573600,8.36157373046875,0.968719482421875,0.1074981689453125,-0.2375946044921875
1769666843351562800,8.371562744140626,0.9720458984375,0.1055908203125,-0.2389373779296875
1769666843361550800,8.38155078125,0.9704742431640625,0.106048583984375,-0.23870849609375
1769666843371539700,8.391539794921876,0.9691925048828125,0.1060638427734375,-0.2374420166015625
1769666843381527600,8.401527587890625,0.9659576416015625,0.107208251953125,-0.2379150390625
1769666843391516700,8.4115166015625,0.96478271484375,0.1063385009765625,-0.2375335693359375
1769666843401504800,8.4215048828125,0.9678192138671875,0.107666015625,-0.237152099609375
1769666843411494000,8.431493896484374,0.9699249267578125,0.1054840087890625,-0.2382965087890625
1769666843421481700,8.441481689453125,0.9682159423828125,0.105194091796875,-0.238922119140625
1769666843431470600,8.451470703125,0.96923828125,0.1049652099609375,-0.23870849609375
1769666843441458700,8.461458740234375,0.9709930419921875,0.106414794921875,-0.239288330078125
1769666843451447800,8.47144775390625,0.969268798828125,0.1072235107421875,-0.238311767578125
1769666843461436700,8.481436767578124,0.969268798828125,0.1061248779296875,-0.23687744140625
1769666843471424800,8.4914248046875,0.965087890625,0.10693359375,-0.235748291015625
1769666843481413600,8.50141357421875,0.9651336669921875,0.10479736328125,-0.2348175048828125
1769666843491401700,8.511401611328125,0.969940185546875,0.106536865234375,-0.23773193359375
1769666843501390600,8.521390625,0.971893310546875,0.104949951171875,-0.2388458251953125
1769666843511378700,8.531378662109375,0.9707489013671875,0.105804443359375,-0.2368621826171875
1769666843521367800,8.541367919921875,0.96820068359375,0.1052093505859375,-0.2373504638671875
1769666843531355600,8.551355712890626,0.9659423828125,0.105072021484375,-0.2366180419921875
1769666843541344800,8.5613447265625,0.963958740234375,0.1070709228515625,-0.2369384765625
1769666843551332600,8.57133251953125,0.9677734375,0.1063232421875,-0.238616943359375
1769666843561321700,8.58132177734375,0.9686431884765625,0.10504150390625,-0.2348480224609375
1769666843571309800,8.591309814453124,0.9643402099609375,0.106964111328125,-0.237274169921875
1769666843581298700,8.601298583984375,0.9713287353515625,0.10467529296875,-0.2395477294921875
1769666843591286800,8.611286865234375,0.975006103515625,0.1042327880859375,-0.2387542724609375
1769666843601275600,8.621275634765626,0.973297119140625,0.104736328125,-0.237823486328125
1769666843611264800,8.6312646484375,0.9696502685546875,0.106170654296875,-0.23834228515625
1769666843621252900,8.6412529296875,0.967498779296875,0.1051025390625,-0.2353363037109375
1769666843631241700,8.65124169921875,0.9661712646484375,0.1060791015625,-0.235504150390625
1769666843641229600,8.6612294921875,0.96649169921875,0.1056976318359375,-0.2364654541015625
1769666843651218700,8.67121875,0.96533203125,0.1062774658203125,-0.2359619140625
1769666843661206800,8.681206787109375,0.9658966064453125,0.1061248779296875,-0.23675537109375
1769666843671195600,8.691195556640626,0.968902587890625,0.10565185546875,-0.236114501953125
1769666843681183700,8.701183837890625,0.968658447265625,0.1055908203125,-0.23529052734375
1769666843691172600,8.711172607421876,0.9669036865234375,0.106353759765625,-0.2370758056640625
1769666843701160700,8.72116064453125,0.9700164794921875,0.1053619384765625,-0.2386932373046875
1769666843711149600,8.731149658203124,0.9739227294921875,0.1041717529296875,-0.240234375
1769666843721137700,8.7411376953125,0.9745330810546875,0.1056060791015625,-0.2383880615234375
1769666843731126800,8.751126708984375,0.9730224609375,0.1058349609375,-0.2370147705078125
1769666843741114600,8.761114501953125,0.9695587158203125,0.106048583984375,-0.2365264892578125
1769666843751103700,8.771103759765625,0.9660491943359375,0.1054840087890625,-0.2378082275390625
1769666843761091600,8.781091552734376,0.96533203125,0.10546875,-0.2364654541015625
1769666843771080700,8.791080810546875,0.9657135009765625,0.107147216796875,-0.23590087890625
1769666843781069800,8.80106982421875,0.9673309326171875,0.1070556640625,-0.23455810546875
1769666843791058000,8.811057861328125,0.9722442626953125,0.1070098876953125,-0.237823486328125
1769666843801046500,8.821046630859374,0.9730377197265625,0.10601806640625,-0.23779296875
1769666843811034600,8.83103466796875,0.968658447265625,0.1065216064453125,-0.2368621826171875
1769666843821023700,8.841023681640625,0.9653778076171875,0.1076507568359375,-0.2366180419921875
1769666843831011800,8.85101171875,0.966339111328125,0.104095458984375,-0.2353363037109375
1769666843841000700,8.861000732421875,0.96820068359375,0.105926513671875,-0.2370147705078125
1769666843850988500,8.870988525390626,0.96856689453125,0.1067657470703125,-0.2372283935546875
1769666843860977700,8.880977783203125,0.967498779296875,0.1060791015625,-0.2362518310546875
1769666843870965800,8.8909658203125,0.9632415771484375,0.1064300537109375,-0.233978271484375
1769666843880954600,8.90095458984375,0.9643402099609375,0.107086181640625,-0.234375
1769666843890942700,8.910942626953124,0.969268798828125,0.1064453125,-0.235870361328125
1769666843900931600,8.920931640625,0.969390869140625,0.1061859130859375,-0.237548828125
1769666843910919700,8.930919677734375,0.966827392578125,0.1067962646484375,-0.2371826171875
1769666843920908800,8.94090869140625,0.9697723388671875,0.1078643798828125,-0.2354583740234375
1769666843930897700,8.950897705078125,0.972686767578125,0.1083221435546875,-0.2377777099609375
1769666843940885800,8.9608857421875,0.97442626953125,0.1057586669921875,-0.237701416015625
1769666843950875000,8.970875,0.969573974609375,0.1070556640625,-0.236236572265625
1769666843960862700,8.98086279296875,0.967376708984375,0.1066131591796875,-0.235504150390625
1769666843970851600,8.9908515625,0.965667724609375,0.1045989990234375,-0.2337188720703125
1769666843980839700,9.000839599609375,0.9654693603515625,0.1068878173828125,-0.23492431640625
1769666843990828800,9.010828857421876,0.9696197509765625,0.1052703857421875,-0.2356414794921875
1769666844000817000,9.02081689453125,0.9689788818359375,0.1063690185546875,-0.236663818359375
1769666844010805500,9.030805419921874,0.9704132080078125,0.1077728271484375,-0.235931396484375
1769666844020793600,9.040793701171875,0.9705963134765625,0.1074066162109375,-0.235626220703125
1769666844030782700,9.05078271484375,0.9669342041015625,0.1059112548828125,-0.235198974609375
1769666844040770800,9.060770751953125,0.9660491943359375,0.1067352294921875,-0.2331695556640625
1769666844050759700,9.070759765625,0.966461181640625,0.1070098876953125,-0.234893798828125
1769666844060747500,9.08074755859375,0.9721527099609375,0.108123779296875,-0.237213134765625
1769666844070736600,9.090736572265625,0.975799560546875,0.1053924560546875,-0.237701416015625
1769666844080724700,9.100724853515626,0.9755401611328125,0.1068572998046875,-0.2379302978515625
1769666844090713900,9.1107138671875,0.9704742431640625,0.1078948974609375,-0.2373809814453125
1769666844100702700,9.12070263671875,0.965728759765625,0.1066131591796875,-0.234283447265625
1769666844110690600,9.130690673828125,0.963958740234375,0.1051025390625,-0.2332305908203125
1769666844120679700,9.1406796875,0.9639739990234375,0.1062164306640625,-0.2348480224609375
1769666844130667800,9.150667724609375,0.964813232421875,0.107940673828125,-0.2359771728515625
1769666844140656600,9.16065673828125,0.971405029296875,0.107513427734375,-0.237274169921875
1769666844150644700,9.170644775390626,0.9750213623046875,0.1075286865234375,-0.23773193359375
1769666844160633900,9.1806337890625,0.97509765625,0.105987548828125,-0.2377166748046875
1769666844170621700,9.19062158203125,0.9698333740234375,0.1064453125,-0.23583984375
1769666844180610600,9.200610595703125,0.9690704345703125,0.106048583984375,-0.2335205078125
1769666844190598700,9.2105986328125,0.966552734375,0.10662841796875,-0.236236572265625
1769666844200587800,9.220587890625,0.9640045166015625,0.1075592041015625,-0.235565185546875
1769666844210576000,9.230575927734375,0.965301513671875,0.106903076171875,-0.2351531982421875
1769666844220564500,9.240564453125,0.973358154296875,0.1078338623046875,-0.237701416015625
1769666844230552600,9.250552490234375,0.974609375,0.1071319580078125,-0.237518310546875
1769666844240541700,9.260541748046874,0.97418212890625,0.106597900390625,-0.2388458251953125
1769666844250530800,9.27053076171875,0.9695587158203125,0.1068572998046875,-0.234649658203125
1769666844260519000,9.280518798828124,0.96270751953125,0.10723876953125,-0.2321929931640625
1769666844270507800,9.2905078125,0.9635009765625,0.1061248779296875,-0.2315673828125
1769666844280495600,9.30049560546875,0.9661712646484375,0.1079254150390625,-0.23382568359375
1769666844290484700,9.310484619140626,0.9683074951171875,0.109100341796875,-0.2354278564453125
1769666844300472800,9.320472900390625,0.966217041015625,0.107147216796875,-0.236328125
1769666844310461700,9.330461669921876,0.965362548828125,0.10870361328125,-0.23553466796875
1769666844320449500,9.340449462890625,0.9652557373046875,0.1095428466796875,-0.2359466552734375
1769666844330438700,9.350438720703124,0.971435546875,0.10675048828125,-0.2386627197265625
1769666844340426800,9.3604267578125,0.9741363525390625,0.1069488525390625,-0.2399749755859375
1769666844350415600,9.37041552734375,0.9778900146484375,0.10626220703125,-0.2357025146484375
1769666844360403700,9.38040380859375,0.97015380859375,0.1067047119140625,-0.2343902587890625
1769666844370392800,9.390392822265625,0.96759033203125,0.105682373046875,-0.2354278564453125
1769666844380380700,9.400380615234376,0.9760284423828125,0.1060638427734375,-0.238861083984375
1769666844390369500,9.41036962890625,0.9697113037109375,0.1065673828125,-0.2367706298828125
1769666844400358700,9.420358642578124,0.9627838134765625,0.107330322265625,-0.235626220703125
1769666844410346500,9.430346435546875,0.9616851806640625,0.1062164306640625,-0.2356109619140625
1769666844420335600,9.440335693359375,0.961456298828125,0.1080169677734375,-0.233306884765625
1769666844430323700,9.45032373046875,0.9641876220703125,0.108062744140625,-0.2324676513671875
1769666844440312600,9.4603125,0.9716339111328125,0.1054840087890625,-0.234588623046875
1769666844450300700,9.47030078125,0.9708404541015625,0.1054840087890625,-0.23699951171875
1769666844460289500,9.48028955078125,0.9663238525390625,0.1062774658203125,-0.2353973388671875
1769666844470277600,9.490277587890626,0.9654693603515625,0.1065216064453125,-0.2353057861328125
1769666844480266500,9.5002666015625,0.97088623046875,0.1062164306640625,-0.2345123291015625
1769666844490254600,9.510254638671874,0.97662353515625,0.107269287109375,-0.2353973388671875
1769666844500243700,9.52024365234375,0.977264404296875,0.1067047119140625,-0.2368316650390625
1769666844510231600,9.5302314453125,0.9737548828125,0.1065673828125,-0.2358245849609375
1769666844520220400,9.540220458984376,0.9660491943359375,0.105072021484375,-0.2340240478515625
1769666844530208500,9.55020849609375,0.964813232421875,0.106353759765625,-0.23529052734375
1769666844540197600,9.56019775390625,0.9648284912109375,0.105499267578125,-0.2329864501953125
1769666844550185700,9.570185791015625,0.96484375,0.1059112548828125,-0.2340850830078125
1769666844560174600,9.580174560546874,0.9665374755859375,0.1057891845703125,-0.2337188720703125
1769666844570163500,9.59016357421875,0.96978759765625,0.1049652099609375,-0.2332916259765625
1769666844580151600,9.600151611328124,0.9691162109375,0.1053314208984375,-0.2339324951171875
1769666844590140700,9.610140625,0.97418212890625,0.1052093505859375,-0.2346343994140625
1769666844600128800,9.620128662109375,0.9741058349609375,0.1061859130859375,-0.235321044921875
1769666844610117600,9.63011767578125,0.9705963134765625,0.104644775390625,-0.234832763671875
1769666844620105500,9.64010546875,0.9745635986328125,0.1035003662109375,-0.2362213134765625
1769666844630094600,9.650094482421874,0.9729156494140625,0.1061859130859375,-0.235870361328125
1769666844640082700,9.660082763671875,0.966461181640625,0.1056976318359375,-0.2335052490234375
1769666844650071600,9.670071533203124,0.96685791015625,0.104400634765625,-0.2333221435546875
1769666844660059600,9.6800595703125,0.9654083251953125,0.103912353515625,-0.2335052490234375
1769666844670048500,9.690048583984375,0.9659576416015625,0.1054840087890625,-0.2318115234375
1769666844680036600,9.70003662109375,0.971435546875,0.100982666015625,-0.2352447509765625
1769666844690025500,9.710025390625,0.970794677734375,0.1031646728515625,-0.23516845703125
1769666844700013600,9.720013671875,0.970428466796875,0.105194091796875,-0.2342681884765625
1769666844710002700,9.730002685546875,0.9666595458984375,0.103973388671875,-0.2342529296875
1769666844719990500,9.739990478515624,0.9646148681640625,0.1035003662109375,-0.23431396484375
1769666844729979400,9.7499794921875,0.9674224853515625,0.1044769287109375,-0.234130859375
1769666844739968500,9.759968505859375,0.9694366455078125,0.1055145263671875,-0.2363433837890625
1769666844749956600,9.76995654296875,0.970672607421875,0.104461669921875,-0.235504150390625
1769666844759945700,9.77994580078125,0.973663330078125,0.1030426025390625,-0.2374114990234375
1769666844769933800,9.789933837890626,0.971405029296875,0.1038055419921875,-0.23553466796875
1769666844779922400,9.79992236328125,0.969635009765625,0.1026611328125,-0.23431396484375
1769666844789910500,9.80991064453125,0.9675445556640625,0.103485107421875,-0.2341766357421875
1769666844799899600,9.819899658203125,0.9687347412109375,0.1031646728515625,-0.2340087890625
1769666844809887700,9.8298876953125,0.9698944091796875,0.1027984619140625,-0.2364349365234375
1769666844819876600,9.839876708984375,0.9686431884765625,0.1032867431640625,-0.2354736328125
1769666844829864400,9.849864501953125,0.9680328369140625,0.1033477783203125,-0.235015869140625
1769666844839853600,9.859853515625,0.9693450927734375,0.10284423828125,-0.2357025146484375
1769666844849841700,9.869841552734375,0.9694976806640625,0.1035614013671875,-0.2361907958984375
1769666844859830500,9.87983056640625,0.9708404541015625,0.1018829345703125,-0.2343902587890625
1769666844869818600,9.889818603515625,0.9713592529296875,0.1026458740234375,-0.236480712890625
1769666844879807500,9.899807373046874,0.9692230224609375,0.1035919189453125,-0.23529052734375
1769666844889796600,9.909796630859375,0.9644317626953125,0.10467529296875,-0.233001708984375
1769666844899784400,9.919784423828125,0.9646759033203125,0.1041412353515625,-0.2317657470703125
1769666844909773600,9.929773681640626,0.9654388427734375,0.1034088134765625,-0.2329559326171875
1769666844919761700,9.93976171875,0.97222900390625,0.10369873046875,-0.2352294921875
1769666844929750800,9.949750732421874,0.973388671875,0.1018524169921875,-0.2354736328125
1769666844939738600,9.959738525390625,0.970977783203125,0.10205078125,-0.23455810546875
1769666844949727500,9.9697275390625,0.9757843017578125,0.1021728515625,-0.2341766357421875
1769666844959715600,9.979715576171875,0.9728851318359375,0.1008758544921875,-0.2347869873046875
1769666844969704700,9.98970458984375,0.9699554443359375,0.1023712158203125,-0.2346038818359375
1769666844979692800,9.99969287109375,0.9696502685546875,0.102569580078125,-0.2364654541015625
1769666844989681400,10.009681396484375,0.9674224853515625,0.1024322509765625,-0.2363739013671875
1769666844999669500,10.01966943359375,0.96893310546875,0.10235595703125,-0.23590087890625
1769666845009658600,10.02965869140625,0.9707794189453125,0.10247802734375,-0.2348480224609375
1769666845019646700,10.039646728515624,0.9678955078125,0.10308837890625,-0.233978271484375
1769666845029635600,10.049635498046875,0.9687347412109375,0.100372314453125,-0.2335662841796875
1769666845039624700,10.059624755859375,0.9695587158203125,0.1013336181640625,-0.234100341796875
1769666845049612500,10.069612548828125,0.9710235595703125,0.100677490234375,-0.2364959716796875
1769666845059601700,10.0796015625,0.9710693359375,0.0994720458984375,-0.235687255859375
1769666845069589500,10.089589599609376,0.975311279296875,0.1016998291015625,-0.235870361328125
1769666845079578600,10.09957861328125,0.969146728515625,0.101531982421875,-0.2355499267578125
1769666845089566500,10.10956640625,0.9694976806640625,0.1025543212890625,-0.232421875
1769666845099555600,10.1195556640625,0.9723052978515625,0.103118896484375,-0.2334747314453125
1769666845109543700,10.129543701171874,0.9710693359375,0.1023406982421875,-0.2314910888671875
1769666845119532500,10.139532470703125,0.9656982421875,0.1015625,-0.2317657470703125
1769666845129520600,10.149520751953125,0.9660186767578125,0.099945068359375,-0.232208251953125
1769666845139509800,10.159509765625,0.959136962890625,0.1009063720703125,-0.2313690185546875
1769666845149497600,10.16949755859375,0.95867919921875,0.101654052734375,-0.233612060546875
1769666845159486500,10.179486572265626,0.971649169921875,0.10028076171875,-0.2342681884765625
1769666845169474600,10.189474609375,0.9813079833984375,0.100494384765625,-0.2329864501953125
1769666845179463700,10.199463623046874,0.9801177978515625,0.1016082763671875,-0.233673095703125
1769666845189451800,10.20945166015625,0.9796600341796875,0.100860595703125,-0.2352294921875
1769666845199440400,10.2194404296875,0.976654052734375,0.101806640625,-0.2330780029296875
1769666845209429500,10.229429443359376,0.96807861328125,0.1007080078125,-0.2330169677734375
1769666845219417600,10.23941748046875,0.9650726318359375,0.1016387939453125,-0.2333831787109375
1769666845229406700,10.24940673828125,0.9643707275390625,0.101165771484375,-0.2339935302734375
1769666845239394600,10.25939453125,0.9620819091796875,0.10076904296875,-0.232879638671875
1769666845249383700,10.2693837890625,0.9707794189453125,0.101531982421875,-0.235137939453125
1769666845259371500,10.27937158203125,0.9772186279296875,0.1015167236328125,-0.2349090576171875
1769666845269360600,10.289360595703124,0.97650146484375,0.102630615234375,-0.233428955078125
1769666845279348700,10.2993486328125,0.977447509765625,0.1016845703125,-0.2354583740234375
1769666845289337600,10.309337646484375,0.971221923828125,0.102691650390625,-0.2355804443359375
1769666845299325400,10.319325439453126,0.9727630615234375,0.101715087890625,-0.2353363037109375
1769666845309314600,10.329314453125,0.9725799560546875,0.100677490234375,-0.2364044189453125
1769666845319302700,10.339302734375,0.96905517578125,0.101593017578125,-0.235382080078125
1769666845329291500,10.34929150390625,0.967010498046875,0.1011962890625,-0.232025146484375
1769666845339279600,10.359279541015624,0.9671630859375,0.1011962890625,-0.2316741943359375
1769666845349268700,10.369268798828125,0.9688568115234375,0.1011505126953125,-0.2330322265625
1769666845359257600,10.379257568359375,0.968902587890625,0.1021881103515625,-0.235015869140625
1769666845369245400,10.389245361328125,0.963165283203125,0.1009063720703125,-0.2334747314453125
1769666845379235300,10.3992353515625,0.9586639404296875,0.1029510498046875,-0.2322998046875
1769666845389223200,10.40922314453125,0.957855224609375,0.1036834716796875,-0.233917236328125
1769666845399212000,10.4192119140625,0.9652557373046875,0.10186767578125,-0.233551025390625
1769666845409200000,10.4292001953125,0.9727935791015625,0.1025238037109375,-0.2340240478515625
1769666845419189200,10.439189208984375,0.977264404296875,0.102325439453125,-0.236053466796875
1769666845429177300,10.44917724609375,0.9781341552734375,0.1003265380859375,-0.236663818359375
1769666845439166200,10.459166259765626,0.9727783203125,0.100067138671875,-0.2364501953125
1769666845449154000,10.469154052734375,0.96942138671875,0.1013336181640625,-0.234588623046875
1769666845459143200,10.47914306640625,0.973907470703125,0.1024627685546875,-0.235198974609375
1769666845469131300,10.48913134765625,0.97418212890625,0.1036834716796875,-0.2324371337890625
1769666845479120100,10.4991201171875,0.9686279296875,0.1038360595703125,-0.2325439453125
1769666845489108200,10.509108154296875,0.962921142578125,0.1028594970703125,-0.2348480224609375
1769666845499097000,10.51909716796875,0.9592132568359375,0.1020355224609375,-0.2337799072265625
1769666845509086200,10.529086181640626,0.9583740234375,0.101165771484375,-0.23480224609375
1769666845519074300,10.53907421875,0.9673004150390625,0.101837158203125,-0.2351226806640625
1769666845529063200,10.549063232421876,0.96990966796875,0.102294921875,-0.2352447509765625
1769666845539051300,10.55905126953125,0.9731597900390625,0.1024322509765625,-0.234100341796875
1769666845549040400,10.569040283203124,0.977996826171875,0.1034698486328125,-0.23272705078125
1769666845559028200,10.5790283203125,0.9733123779296875,0.10345458984375,-0.234466552734375
1769666845569017000,10.58901708984375,0.9681396484375,0.1018829345703125,-0.235809326171875
1769666845579005200,10.599005126953125,0.9611358642578125,0.1028594970703125,-0.23602294921875
1769666845588994300,10.608994384765625,0.9641876220703125,0.1014251708984375,-0.2338104248046875
1769666845598982100,10.618982177734376,0.9678192138671875,0.1007537841796875,-0.2334747314453125
1769666845608971000,10.628970947265625,0.9679412841796875,0.102081298828125,-0.2325286865234375
1769666845618959000,10.638958984375,0.968414306640625,0.1018524169921875,-0.2326202392578125
1769666845628948200,10.6489482421875,0.9717254638671875,0.099945068359375,-0.232696533203125
1769666845638936300,10.658936279296874,0.978302001953125,0.100433349609375,-0.2348175048828125
1769666845648925200,10.66892529296875,0.9782867431640625,0.102813720703125,-0.2357940673828125
1769666845658913000,10.6789130859375,0.9701080322265625,0.1025390625,-0.2349700927734375
1769666845668902100,10.688902099609376,0.9683837890625,0.1027679443359375,-0.2352752685546875
1769666845678891300,10.698891357421875,0.97308349609375,0.102294921875,-0.23291015625
1769666845688879400,10.70887939453125,0.968994140625,0.1021881103515625,-0.2342681884765625
1769666845698868200,10.7188681640625,0.96282958984375,0.1020965576171875,-0.2353515625
1769666845708856000,10.72885595703125,0.9652099609375,0.1031036376953125,-0.2336883544921875
1769666845718845200,10.73884521484375,0.9742279052734375,0.10272216796875,-0.235382080078125
1769666845728833300,10.748833251953124,0.981842041015625,0.10260009765625,-0.2386627197265625
1769666845738822100,10.758822265625,0.9769134521484375,0.10235595703125,-0.2368316650390625
1769666845748810200,10.768810302734375,0.969512939453125,0.1041259765625,-0.2354888916015625
1769666845758799400,10.77879931640625,0.9638824462890625,0.1032257080078125,-0.2329254150390625
1769666845768787200,10.788787109375,0.9583892822265625,0.10467529296875,-0.232269287109375
1769666845778776000,10.798776123046874,0.9591217041015625,0.1042327880859375,-0.2339935302734375
1769666845788764200,10.80876416015625,0.964324951171875,0.1027679443359375,-0.2342376708984375
1769666845798753300,10.818753173828124,0.96685791015625,0.10302734375,-0.2371673583984375
1769666845808741000,10.8287412109375,0.97088623046875,0.1040802001953125,-0.237548828125
1769666845818730200,10.838730224609375,0.978515625,0.1038055419921875,-0.2394561767578125
1769666845828718000,10.848718017578125,0.978118896484375,0.1036834716796875,-0.24072265625
1769666845838707200,10.858707275390625,0.971466064453125,0.104339599609375,-0.239593505859375
1769666845848696300,10.8686962890625,0.97198486328125,0.1050262451171875,-0.2370452880859375
1769666845858684400,10.878684326171875,0.9681549072265625,0.1045684814453125,-0.235992431640625
1769666845868673300,10.88867333984375,0.9599761962890625,0.104888916015625,-0.234954833984375
1769666845878661000,10.8986611328125,0.962249755859375,0.10601806640625,-0.23321533203125
1769666845888650200,10.908650146484375,0.9656982421875,0.1062164306640625,-0.236053466796875
1769666845898638300,10.918638427734376,0.9656982421875,0.1031494140625,-0.237945556640625
1769666845908627200,10.928627197265625,0.9680023193359375,0.1024017333984375,-0.236480712890625
1769666845918615000,10.938614990234376,0.9646759033203125,0.1026153564453125,-0.2345428466796875
1769666845928604200,10.948604248046875,0.963348388671875,0.1036529541015625,-0.2344970703125
1769666845938592300,10.95859228515625,0.964019775390625,0.1043701171875,-0.2347259521484375
1769666845948581000,10.9685810546875,0.9689483642578125,0.1047821044921875,-0.236114501953125
1769666845958569200,10.9785693359375,0.9763641357421875,0.102874755859375,-0.2389984130859375
1769666845968558300,10.988558349609375,0.9815826416015625,0.1019744873046875,-0.2386016845703125
1769666845978546200,10.998546142578125,0.972503662109375,0.103546142578125,-0.237518310546875
1769666845988535000,11.00853515625,0.97235107421875,0.102935791015625,-0.2396697998046875
1769666845998524200,11.018524169921875,0.9691314697265625,0.1023712158203125,-0.239105224609375
1769666846008512300,11.02851220703125,0.9660797119140625,0.1019439697265625,-0.23602294921875
1769666846018501400,11.03850146484375,0.964569091796875,0.1020355224609375,-0.2379302978515625
1769666846028489200,11.0484892578125,0.9668121337890625,0.10260009765625,-0.23724365234375
1769666846038478000,11.05847802734375,0.9680633544921875,0.103485107421875,-0.236480712890625
1769666846048466200,11.068466064453125,0.970672607421875,0.1043853759765625,-0.236602783203125
1769666846058455300,11.078455322265626,0.9676971435546875,0.10247802734375,-0.2367095947265625
1769666846068443400,11.088443359375,0.9684600830078125,0.102996826171875,-0.235504150390625
1769666846078432300,11.098432373046874,0.9715576171875,0.103485107421875,-0.2364349365234375
1769666846088420000,11.108420166015625,0.969024658203125,0.10223388671875,-0.2373199462890625
1769666846098409200,11.1184091796875,0.967926025390625,0.1015167236328125,-0.236175537109375
1769666846108397300,11.128397216796875,0.96966552734375,0.103424072265625,-0.235748291015625
1769666846118386200,11.13838623046875,0.9676361083984375,0.1024627685546875,-0.2385101318359375
1769666846128374000,11.1483740234375,0.9673919677734375,0.100128173828125,-0.2382049560546875
1769666846138363100,11.158363037109375,0.968994140625,0.102447509765625,-0.238800048828125
1769666846148351200,11.168351318359376,0.9707794189453125,0.101318359375,-0.23944091796875
1769666846158340000,11.178340087890625,0.9700469970703125,0.099700927734375,-0.2385406494140625
1769666846168329200,11.1883291015625,0.96661376953125,0.1002197265625,-0.2375640869140625
1769666846178317300,11.1983173828125,0.9688873291015625,0.1010284423828125,-0.2382049560546875
1769666846188306200,11.20830615234375,0.9749298095703125,0.1017303466796875,-0.2403106689453125
1769666846198294300,11.218294189453125,0.9707183837890625,0.1011962890625,-0.2412567138671875
1769666846208283100,11.228283203125,0.968719482421875,0.1021575927734375,-0.2376556396484375
1769666846218271200,11.238271240234376,0.96978759765625,0.1022796630859375,-0.2374267578125
1769666846228260400,11.24826025390625,0.9669036865234375,0.101226806640625,-0.237213134765625
1769666846238248200,11.258248291015626,0.96331787109375,0.101409912109375,-0.2376251220703125
1769666846248237000,11.268237060546875,0.9665374755859375,0.1033172607421875,-0.2375946044921875
1769666846258225200,11.27822509765625,0.9696044921875,0.103179931640625,-0.2379150390625
1769666846268214300,11.28821435546875,0.9696044921875,0.100830078125,-0.2396392822265625
1769666846278202400,11.298202392578125,0.964935302734375,0.101226806640625,-0.237518310546875
1769666846288191200,11.308191162109376,0.96844482421875,0.102081298828125,-0.23675537109375
1769666846298179000,11.318178955078125,0.9694976806640625,0.1013031005859375,-0.23785400390625
1769666846308168200,11.328168212890626,0.9652862548828125,0.1030426025390625,-0.2363128662109375
1769666846318156300,11.33815625,0.9668426513671875,0.102935791015625,-0.23553466796875
1769666846328145200,11.348145263671874,0.9741058349609375,0.102752685546875,-0.237335205078125
1769666846338134300,11.35813427734375,0.975738525390625,0.10162353515625,-0.2391815185546875
1769666846348122000,11.3681220703125,0.972625732421875,0.1016387939453125,-0.238128662109375
1769666846358111200,11.378111328125,0.968353271484375,0.1022491455078125,-0.2376708984375
1769666846368099300,11.388099365234375,0.96783447265625,0.10211181640625,-0.2391204833984375
1769666846378088200,11.398088134765626,0.96868896484375,0.102142333984375,-0.23907470703125
1769666846388076300,11.408076171875,0.9698638916015625,0.101654052734375,-0.2388458251953125
1769666846398065400,11.4180654296875,0.967193603515625,0.101654052734375,-0.2380523681640625
1769666846408053500,11.428053466796875,0.972503662109375,0.1020050048828125,-0.2385101318359375
1769666846418042000,11.4380419921875,0.973968505859375,0.101318359375,-0.240203857421875
1769666846428030200,11.4480302734375,0.9681549072265625,0.101348876953125,-0.2381591796875
1769666846438019300,11.458019287109375,0.9660797119140625,0.1018829345703125,-0.23809814453125
1769666846448007400,11.46800732421875,0.9652252197265625,0.101898193359375,-0.2369384765625
1769666846457996300,11.477996337890625,0.9658660888671875,0.10076904296875,-0.2370452880859375
1769666846467984100,11.487984130859376,0.97003173828125,0.1029510498046875,-0.2373809814453125
1769666846477973200,11.49797314453125,0.97064208984375,0.1027069091796875,-0.237640380859375
1769666846487961300,11.50796142578125,0.96795654296875,0.102508544921875,-0.23699951171875
1769666846497950200,11.5179501953125,0.9682159423828125,0.1016693115234375,-0.2382659912109375
1769666846507939300,11.527939208984375,0.9678497314453125,0.1008148193359375,-0.2399444580078125
1769666846517927400,11.537927490234376,0.967559814453125,0.1024017333984375,-0.2410125732421875
1769666846527916300,11.547916259765625,0.965972900390625,0.10174560546875,-0.23876953125
1769666846537904400,11.557904296875,0.9666595458984375,0.102294921875,-0.239044189453125
1769666846547893200,11.567893310546875,0.968902587890625,0.102203369140625,-0.239013671875
1769666846557881300,11.57788134765625,0.9700775146484375,0.1018218994140625,-0.23980712890625
1769666846567870500,11.587870361328125,0.968231201171875,0.1015167236328125,-0.2392730712890625
1769666846577858300,11.5978583984375,0.966217041015625,0.1014556884765625,-0.239166259765625
1769666846587847200,11.60784716796875,0.96624755859375,0.101226806640625,-0.2393646240234375
1769666846597835300,11.617835205078125,0.9629058837890625,0.100860595703125,-0.23822021484375
1769666846607824400,11.627824462890626,0.9627532958984375,0.10107421875,-0.2371826171875
1769666846617812500,11.6378125,0.960418701171875,0.10028076171875,-0.2374114990234375
1769666846627801000,11.647801025390624,0.9648895263671875,0.10052490234375,-0.239990234375
1769666846637789200,11.6577890625,0.9674072265625,0.1007232666015625,-0.2404022216796875
1769666846647778300,11.6677783203125,0.9645538330078125,0.1008453369140625,-0.239715576171875
1769666846657767200,11.67776708984375,0.9712371826171875,0.1010894775390625,-0.239959716796875
1769666846667755300,11.68775537109375,0.97662353515625,0.10064697265625,-0.243316650390625
1769666846677744400,11.697744384765626,0.9701690673828125,0.0988922119140625,-0.24493408203125
1769666846687732200,11.707732177734375,0.9637908935546875,0.100128173828125,-0.2423553466796875
1769666846697721300,11.717721435546874,0.9685821533203125,0.10113525390625,-0.240753173828125
1769666846707709400,11.72770947265625,0.970947265625,0.10107421875,-0.240478515625
1769666846717698300,11.7376982421875,0.9708709716796875,0.09893798828125,-0.2392425537109375
1769666846727686400,11.747686279296875,0.972076416015625,0.099578857421875,-0.2394561767578125
1769666846737675300,11.75767529296875,0.9638671875,0.0987548828125,-0.2381134033203125
1769666846747663400,11.767663330078125,0.965362548828125,0.099365234375,-0.239715576171875
1769666846757652200,11.77765234375,0.97393798828125,0.0989990234375,-0.239410400390625
1769666846767640300,11.787640380859376,0.975311279296875,0.097900390625,-0.2428436279296875
1769666846777629400,11.79762939453125,0.9731292724609375,0.0985565185546875,-0.2429046630859375
1769666846787617300,11.8076171875,0.968963623046875,0.097198486328125,-0.243072509765625
1769666846797606100,11.817606201171875,0.964447021484375,0.097991943359375,-0.242401123046875
1769666846807594200,11.82759423828125,0.9638671875,0.0986785888671875,-0.2437591552734375
1769666846817583400,11.837583251953125,0.9727325439453125,0.099090576171875,-0.244476318359375
1769666846827572200,11.847572265625,0.97601318359375,0.0970916748046875,-0.246917724609375
1769666846837560000,11.85756005859375,0.973663330078125,0.0958709716796875,-0.243560791015625
1769666846847549200,11.867549072265625,0.9687957763671875,0.0986480712890625,-0.242279052734375
1769666846857537300,11.877537353515624,0.974029541015625,0.0978851318359375,-0.2462310791015625
1769666846867526400,11.8875263671875,0.969451904296875,0.09576416015625,-0.2425384521484375
1769666846877514200,11.89751416015625,0.9668731689453125,0.0968475341796875,-0.2409820556640625
1769666846887503400,11.90750341796875,0.9677581787109375,0.0989990234375,-0.243011474609375
1769666846897491200,11.9174912109375,0.97235107421875,0.0978546142578125,-0.244720458984375
1769666846907480300,11.927480224609376,0.9698028564453125,0.10015869140625,-0.243865966796875
1769666846917468400,11.937468505859375,0.966217041015625,0.09857177734375,-0.2423248291015625
1769666846927457300,11.947457275390626,0.9690704345703125,0.0979156494140625,-0.243865966796875
1769666846937445400,11.9574453125,0.9674530029296875,0.0980072021484375,-0.2432403564453125
1769666846947434200,11.967434326171874,0.963409423828125,0.0986785888671875,-0.2429962158203125
1769666846957422300,11.97742236328125,0.9613037109375,0.0994873046875,-0.2414703369140625
1769666846967411200,11.9874111328125,0.96875,0.0983734130859375,-0.2434844970703125
1769666846977399300,11.9973994140625,0.969970703125,0.0992584228515625,-0.2462005615234375
1769666846987388400,12.007388427734375,0.967529296875,0.1000213623046875,-0.2446441650390625
1769666846997377300,12.017377197265626,0.9682464599609375,0.0994110107421875,-0.243988037109375
1769666847007365000,12.027365234375,0.96685791015625,0.0997314453125,-0.243438720703125
1769666847017354200,12.037354248046874,0.9680023193359375,0.100738525390625,-0.2427978515625
1769666847027342300,12.04734228515625,0.967803955078125,0.0991363525390625,-0.2406463623046875
1769666847037331500,12.05733154296875,0.9681396484375,0.099273681640625,-0.2403106689453125
1769666847047319300,12.0673193359375,0.9644317626953125,0.09991455078125,-0.2389678955078125
1769666847057308200,12.07730810546875,0.9667510986328125,0.1002044677734375,-0.2414093017578125
1769666847067296300,12.087296142578126,0.969390869140625,0.1004486083984375,-0.24359130859375
1769666847077285400,12.097285400390625,0.9687652587890625,0.100189208984375,-0.242767333984375
1769666847087273500,12.1072734375,0.96710205078125,0.100982666015625,-0.2421112060546875
1769666847097262300,12.117262451171875,0.96820068359375,0.1001129150390625,-0.2421112060546875
1769666847107250200,12.127250244140624,0.96783447265625,0.100341796875,-0.2413330078125
1769666847117239300,12.1372392578125,0.96661376953125,0.10040283203125,-0.241973876953125
1769666847127227400,12.147227294921874,0.967041015625,0.10028076171875,-0.2406768798828125
1769666847137216300,12.15721630859375,0.961517333984375,0.1017608642578125,-0.24188232421875
1769666847147204400,12.167204345703125,0.9598541259765625,0.101165771484375,-0.242431640625
1769666847157193200,12.177193115234376,0.9618377685546875,0.1002960205078125,-0.242431640625
1769666847167182000,12.18718212890625,0.9673004150390625,0.1003875732421875,-0.241973876953125
1769666847177170200,12.197170166015624,0.9691314697265625,0.0998687744140625,-0.244232177734375
1769666847187159300,12.2071591796875,0.966156005859375,0.1012420654296875,-0.243621826171875
1769666847197147400,12.2171474609375,0.9657135009765625,0.10101318359375,-0.243316650390625
1769666847207136500,12.227136474609376,0.9706878662109375,0.1005401611328125,-0.2435150146484375
1769666847217124000,12.2371240234375,0.96942138671875,0.1006011962890625,-0.2425537109375
1769666847227113200,12.24711328125,0.968597412109375,0.1005859375,-0.2437286376953125
1769666847237101300,12.257101318359375,0.96759033203125,0.0981903076171875,-0.244293212890625
1769666847247090400,12.26709033203125,0.9701385498046875,0.098388671875,-0.24420166015625
1769666847257078500,12.27707861328125,0.9709014892578125,0.0982818603515625,-0.2451324462890625
1769666847267067100,12.287067138671874,0.9715423583984375,0.097900390625,-0.244476318359375
1769666847277055200,12.29705517578125,0.9691162109375,0.098114013671875,-0.2449798583984375
1769666847287044400,12.30704443359375,0.9693450927734375,0.0982666015625,-0.2433319091796875
1769666847297032400,12.317032470703126,0.97064208984375,0.097320556640625,-0.2441253662109375
1769666847307021300,12.327021240234375,0.96807861328125,0.0958251953125,-0.2452239990234375
1769666847317009200,12.337009033203126,0.968170166015625,0.0979766845703125,-0.2440643310546875
1769666847326998300,12.346998291015625,0.96624755859375,0.0981292724609375,-0.243316650390625
1769666847336987100,12.356987060546874,0.96282958984375,0.0990753173828125,-0.2420501708984375
1769666847346975200,12.366975341796875,0.9663543701171875,0.0983123779296875,-0.241790771484375
1769666847356964400,12.37696435546875,0.9732666015625,0.097076416015625,-0.2434539794921875
1769666847366952200,12.3869521484375,0.9722137451171875,0.09808349609375,-0.242462158203125
1769666847376941300,12.39694140625,0.9703216552734375,0.09814453125,-0.24444580078125
1769666847386929200,12.40692919921875,0.9699554443359375,0.096832275390625,-0.24554443359375
1769666847396918300,12.416918212890625,0.9699249267578125,0.09771728515625,-0.244415283203125
1769666847406906400,12.42690625,0.9666748046875,0.0981292724609375,-0.2436370849609375
1769666847416895500,12.4368955078125,0.96539306640625,0.0975341796875,-0.2425079345703125
1769666847426883300,12.44688330078125,0.9671630859375,0.097442626953125,-0.243408203125
1769666847436872200,12.4568720703125,0.9642333984375,0.096221923828125,-0.243408203125
1769666847446860300,12.4668603515625,0.9640045166015625,0.097625732421875,-0.2424163818359375
1769666847456849400,12.476849365234376,0.9646148681640625,0.097076416015625,-0.24420166015625
1769666847466837500,12.48683740234375,0.96636962890625,0.098663330078125,-0.242706298828125
1769666847476826000,12.496826171875,0.9667205810546875,0.0971527099609375,-0.24407958984375
1769666847486815200,12.506815185546875,0.9667510986328125,0.0980377197265625,-0.2457427978515625
1769666847496803300,12.51680322265625,0.9678955078125,0.098114013671875,-0.2453155517578125
1769666847506792200,12.526792236328125,0.9710540771484375,0.096221923828125,-0.2454376220703125
1769666847516780300,12.5367802734375,0.9703826904296875,0.09576416015625,-0.24664306640625
1769666847526769400,12.546769287109376,0.9683990478515625,0.0963897705078125,-0.2454071044921875
1769666847536757200,12.55675732421875,0.9665374755859375,0.0965423583984375,-0.2446746826171875
1769666847546746400,12.566746337890624,0.966278076171875,0.096954345703125,-0.2430572509765625
1769666847556734200,12.576734130859375,0.9662017822265625,0.096649169921875,-0.2421722412109375
1769666847566723300,12.586723388671874,0.9672393798828125,0.096893310546875,-0.2433013916015625
1769666847576711200,12.596711181640625,0.9695587158203125,0.0961151123046875,-0.242828369140625
1769666847586700300,12.6067001953125,0.971466064453125,0.09722900390625,-0.2442779541015625
1769666847596688400,12.6166884765625,0.9711456298828125,0.098052978515625,-0.245452880859375
1769666847606677200,12.62667724609375,0.967864990234375,0.096710205078125,-0.2447967529296875
1769666847616665300,12.636665283203126,0.96771240234375,0.0960845947265625,-0.2449798583984375
1769666847626654500,12.646654541015625,0.966400146484375,0.09686279296875,-0.244842529296875
1769666847636642300,12.656642333984376,0.9661712646484375,0.096832275390625,-0.244354248046875
1769666847646631200,12.666631103515625,0.9662017822265625,0.0968780517578125,-0.24395751953125
1769666847656620300,12.676620361328125,0.9646453857421875,0.0965576171875,-0.244903564453125
1769666847666608400,12.6866083984375,0.9645538330078125,0.0965576171875,-0.2442626953125
1769666847676597200,12.69659716796875,0.9684906005859375,0.09637451171875,-0.2446746826171875
1769666847686585000,12.706585205078126,0.966552734375,0.0969085693359375,-0.243377685546875
1769666847696574200,12.71657421875,0.9686431884765625,0.0968170166015625,-0.2458038330078125
1769666847706562300,12.726562255859376,0.9716339111328125,0.0951690673828125,-0.24700927734375
1769666847716551400,12.736551513671875,0.971588134765625,0.0949859619140625,-0.2474212646484375
1769666847726539300,12.746539306640624,0.965423583984375,0.0944671630859375,-0.246551513671875
1769666847736528400,12.7565283203125,0.965087890625,0.0941009521484375,-0.24676513671875
1769666847746516200,12.76651611328125,0.96807861328125,0.0940704345703125,-0.2478485107421875
1769666847756505300,12.77650537109375,0.9696807861328125,0.09552001953125,-0.24700927734375
1769666847766493400,12.786493408203125,0.9717254638671875,0.0953826904296875,-0.24774169921875
1769666847776482300,12.796482421875,0.971405029296875,0.094085693359375,-0.248748779296875
1769666847786470100,12.80647021484375,0.967803955078125,0.095001220703125,-0.24700927734375
1769666847796459300,12.816459228515624,0.96630859375,0.0944671630859375,-0.2471160888671875
1769666847806447400,12.826447265625,0.9659576416015625,0.09454345703125,-0.2460174560546875
1769666847816436200,12.836436279296874,0.966339111328125,0.094482421875,-0.24658203125
1769666847826425300,12.84642529296875,0.965789794921875,0.094146728515625,-0.2472381591796875
1769666847836413400,12.856413330078125,0.9685211181640625,0.0931396484375,-0.2477264404296875
1769666847846402300,12.86640234375,0.967041015625,0.09283447265625,-0.2474212646484375
1769666847856390100,12.87639013671875,0.96441650390625,0.0940399169921875,-0.24951171875
1769666847866379300,12.886379150390624,0.966064453125,0.09368896484375,-0.24798583984375
1769666847876367400,12.896367431640625,0.9666595458984375,0.094573974609375,-0.24761962890625
1769666847886356500,12.9063564453125,0.967041015625,0.0952301025390625,-0.24615478515625
1769666847896344000,12.916343994140625,0.966339111328125,0.0937652587890625,-0.2454376220703125
1769666847906333200,12.926333251953125,0.965606689453125,0.0931396484375,-0.2462615966796875
1769666847916321300,12.9363212890625,0.96826171875,0.0936737060546875,-0.2477874755859375
1769666847926310400,12.946310302734375,0.9688262939453125,0.093780517578125,-0.24755859375
1769666847936298500,12.956298583984376,0.9673614501953125,0.093902587890625,-0.2465972900390625
1769666847946287400,12.966287353515625,0.9660186767578125,0.095184326171875,-0.2476043701171875
1769666847956275200,12.976275146484374,0.9670867919921875,0.0958404541015625,-0.2480316162109375
1769666847966264300,12.986264404296875,0.96978759765625,0.0930023193359375,-0.2454681396484375
1769666847976253200,12.996253173828125,0.9644622802734375,0.094879150390625,-0.2445831298828125
1769666847986241300,13.0062412109375,0.9662017822265625,0.0941619873046875,-0.2451934814453125
1769666847996230400,13.01623046875,0.968414306640625,0.0928955078125,-0.2458343505859375
1769666848006218200,13.02621826171875,0.9686126708984375,0.0927276611328125,-0.2463836669921875
1769666848016207000,13.03620703125,0.967132568359375,0.09442138671875,-0.2457275390625
1769666848026195200,13.0461953125,0.9655914306640625,0.0950775146484375,-0.24462890625
