time,seconds_elapsed,z,y,x
1769666835051091700,0.071091796875,-0.05210837289988994,-0.06448533165305853,-0.029055633288249373
1769666835061080600,0.08108056640625,-0.010845803663134574,-0.05832359415292739,0.008677811974287032
1769666835071068400,0.091068359375,0.0013134206861257552,-0.05543342566937208,0.022462737829238175
1769666835081057500,0.1010576171875,0.012505845829844474,-0.060355684502422804,0.03644450143054127
1769666835091045600,0.111045654296875,0.03825695767998695,-0.028826866033673286,0.07823357875943183
1769666835101034800,0.12103466796875,0.04627309087514877,-0.03602671440988779,0.0008795593135058879
1769666835111022600,0.131022705078125,-0.014159458255767822,-0.012107494162023067,-0.06591616817377507
1769666835121011500,0.141011474609375,-0.0063315411090850825,-0.04241963031738996,-0.04257423635721207
1769666835130999600,0.15099951171875,0.006204699859023094,-0.039997079345583914,-0.029292949175462126
1769666835140988700,0.16098876953125,0.05745031844973564,-0.0292030058696866,-0.006712649381160736
1769666835150976800,0.170976806640625,0.02870587000250816,-0.04399140967875719,0.06944492682181298
1769666835160965600,0.180965576171875,-0.058929743352532385,-0.01858838061392307,0.13405943781249224
1769666835170953500,0.190953369140625,-0.010109306082129477,-0.009827858792245387,0.10449885067678988
1769666835180942600,0.200942626953125,-0.0050064299851655955,0.02135433819591999,0.047942193131148815
1769666835190930700,0.2109306640625,-0.012615735945105552,-0.022078560817241667,-0.05216317182704806
1769666835200919600,0.22091943359375,-0.050559389892220495,-0.030350130078196525,-0.1287718893310055
1769666835210908700,0.23090869140625,0.03631517596244812,0.012125029818713664,0.07411105546932667
1769666835220896500,0.240896484375,0.11678981164693832,-0.000860123960673809,0.27289460212681443
1769666835230885600,0.2508857421875,0.10317746587991714,0.03944382937699556,0.08188848453778773
1769666835240873500,0.26087353515625,-0.05958674595654011,0.021849720497429368,-0.08029935218282043
1769666835250862600,0.270862548828125,-0.06902618995308876,-0.16297347067296505,-0.12431249876935034
1769666835260850700,0.2808505859375,0.0014274024546146393,-0.07448445535898209,-0.02562076346874237
1769666835270839800,0.29083984375,0.181314014005661,-0.07491583251357078,0.1687180787395686
1769666835280827600,0.30082763671875,0.020680968979001044,-0.09971972664147614,0.24387221352104096
1769666835290816500,0.31081640625,-0.12397826184630394,0.12649959701746702,0.5212621908383444
1769666835300804600,0.3208046875,-0.05742109235525131,0.1819315613821149,0.4278186949221417
1769666835310793700,0.330793701171875,0.0938812297463417,-0.1061813238710165,0.24469109215587376
1769666835320781600,0.340781494140625,0.09605798926353454,-0.0767906864747405,0.06435586005449295
1769666835330770400,0.3507705078125,-0.10307985072433948,0.07116963172256946,0.24651900170277802
1769666835340759600,0.360759521484375,0.07688567128181457,0.21428660154193638,0.06918294685080181
1769666835350747600,0.37074755859375,-0.05079612125754356,0.22808599431365728,0.2287872927171178
1769666835360736500,0.380736572265625,-0.16970190214514733,0.14301234040111302,-0.283390386775881
1769666835370725400,0.390725341796875,-0.2871376104801893,0.20795593721568584,-0.2533308006094768
1769666835380714500,0.400714599609375,-0.047288405397534365,-0.15931933207958937,0.006246502307290211
1769666835390702600,0.41070263671875,0.06588613836169242,-0.0016124036327004431,0.46103111909627914
1769666835400691500,0.42069140625,0.013592472022771834,0.15027707070708274,-0.1316085375290364
1769666835410679300,0.43067919921875,-0.31075521743297574,-0.10604819901064037,-0.15729588169427589
1769666835420668400,0.44066845703125,-0.07184241641759873,-0.23064356984198092,-0.08301717804046348
1769666835430656500,0.450656494140625,0.13846388331651688,-0.3721192021951079,-0.21390903693381697
1769666835440645400,0.460645263671875,0.05123100554347038,-0.17294249150156973,-0.47378111241292203
1769666835450633500,0.470633544921875,-0.12897475495934485,0.02808072384148836,-0.3826282116519287
1769666835460622600,0.48062255859375,0.008660276317596435,0.01830883302018046,-0.22594931107852606
1769666835470610400,0.4906103515625,-0.14832359855175017,0.08580416014418006,-0.10324888714831322
1769666835480599300,0.500599365234375,-0.18110650873482226,0.21773615747392178,0.11092278277706354
1769666835490587400,0.51058740234375,0.09647241528332233,0.4282189828187227,0.22839549865424633
1769666835500576500,0.520576416015625,-0.10539514192938804,0.22883637428954243,0.43167712391596286
1769666835510565600,0.530565673828125,-0.10485796631276607,-0.3925304143220186,0.49952784034889186
1769666835520553500,0.540553466796875,0.06292962664365769,-0.4409187437854707,-0.647436903283
1769666835530542300,0.550542236328125,-0.08467968615889548,-0.332718919698894,-1.9645865468040107
1769666835540530400,0.560530517578125,-0.1138929211616516,0.24900530209317803,-0.31372298119738695
1769666835550519600,0.57051953125,-0.17259879263043404,0.029419132838398216,0.8635342075087129
1769666835560507600,0.580507568359375,-0.0031646015107631683,-0.09356690310016273,0.7953510442510247
1769666835570496500,0.59049658203125,0.13844751670360564,-0.18444544389918446,0.4617316685810685
1769666835580484400,0.600484375,0.27287936802506446,-0.04285246877670288,0.24111754451803863
1769666835590473500,0.610473388671875,0.21386837612986564,0.1232651451408863,-0.04957184015959501
1769666835600461600,0.620461669921875,0.10966098268032073,-0.12487564907744526,-0.05764869056604802
1769666835610450400,0.630450439453125,-0.027870003700256347,-0.0331745398491621,0.06294365516901015
1769666835620438500,0.6404384765625,-0.06755436383485794,0.09717238024622202,0.10326339059770107
1769666835630427400,0.650427490234375,-0.03755670045614242,-0.01626563675478101,0.02732172216773033
1769666835640416300,0.660416259765625,-0.11701368353068828,-0.07590981198698282,0.032455724055320025
1769666835650404400,0.670404296875,0.010599719947576523,-0.06950476725026965,0.07402582487128674
1769666835660393500,0.6803935546875,0.07373451377451419,-0.018220862475782633,0.0752568279709667
1769666835670381600,0.690381591796875,0.04644260222315788,0.09416969129890203,0.09026873833760618
1769666835680370700,0.70037060546875,0.01495557706952095,0.07457622529566288,-0.009737111768871546
1769666835690358500,0.710358642578125,0.1312123047530651,-0.2668812966540456,0.09450418395027518
1769666835700347400,0.720347412109375,0.08158639631867408,-0.13784531302675604,-0.3406739703565836
1769666835710335500,0.73033544921875,0.11474456955492496,0.07308277186751365,0.1464260943673551
1769666835720324600,0.74032470703125,0.2567132461220026,-0.11501052701473236,0.15858356515094638
1769666835730312400,0.7503125,-0.039918168890476224,-0.0661911126576364,-0.143419898288697
1769666835740301300,0.76030126953125,0.10443769507408142,0.011334756223857403,0.0562004645191133
1769666835750289400,0.770289306640625,0.03258943343758583,-0.0276171979829669,0.01799406798258424
1769666835760278500,0.780278564453125,-0.02753741074502468,-0.11510828830078243,-0.01895122257694602
1769666835770266600,0.7902666015625,-0.096834818854928,0.024792495951056478,0.14986147564351557
1769666835780255500,0.80025537109375,-0.08482523210942745,-0.011277911470085382,0.009130378047376871
1769666835790243300,0.810243408203125,0.008758475995063781,-0.1732864826336503,-0.027561083881556987
1769666835800232400,0.820232421875,-0.05007949742078781,-0.056334466162323946,-0.15235285406783222
1769666835810221300,0.83022119140625,0.027774142110347746,-0.05714958193749189,0.14932956072390077
1769666835820209400,0.84020947265625,-0.05653320360481739,-0.13912541596516967,-0.11317249793261289
1769666835830198500,0.850198486328125,-0.06223346107304096,0.04986263979971409,-0.0012931085504591464
1769666835840186400,0.860186279296875,-0.039815877559781075,-0.0527757507674396,0.11197466645017265
1769666835850175500,0.870175537109375,0.08972761719822883,-0.02247735087648034,0.016059738919138908
1769666835860163300,0.880163330078125,0.19061843344569204,0.00206219322681427,-0.006296469795703887
1769666835870152400,0.89015234375,0.07827683337926865,-0.016130466067790984,0.004586597137898206
1769666835880140500,0.900140625,0.04326046505570411,-0.05825841996222734,0.10671221587732434
1769666835890129700,0.910129638671875,0.07708090159296989,-0.01607785909771919,0.02316737896725535
1769666835900117500,0.920117431640625,0.083071081918478,0.006194324595481157,-0.013709376400709152
1769666835910106400,0.9301064453125,0.04740823238492012,-0.023527298320829868,-0.001641775857657194
1769666835920094500,0.940094482421875,0.07854688249230385,-0.005360942511260509,-0.03657660337761044
1769666835930083600,0.95008349609375,0.0553518848657608,-0.0041638416811823845,-0.1109372862264514
1769666835940071400,0.960071533203125,0.11405074207186698,-0.009634382046759128,-0.07951105134934186
1769666835950060300,0.970060302734375,0.10107084898948669,-0.03106251613125205,-0.0054896834574639794
1769666835960049400,0.98004931640625,0.09005845658779144,-0.030047493869811294,-0.042954321715980764
1769666835970037500,0.99003759765625,0.05381108516454696,-0.011508359225094317,0.027593963237851855
1769666835980026400,1.0000263671875,0.00047989247143268585,-0.04663315635919571,0.00624342443421483
1769666835990014500,1.010014404296875,-0.00925999577641487,-0.03379880922734737,-0.016851619949191807
1769666836000003600,1.020003662109375,-0.01541734936237335,-0.005598696789890527,-0.02065481162443757
1769666836009991400,1.029991455078125,0.10408464385271071,-0.03281023658141494,-0.053271717590838666
1769666836019980500,1.03998046875,0.060602060478925704,0.01868687255233526,0.03907864932641387
1769666836029968400,1.049968505859375,0.13984686210751532,-0.047160102842748165,-0.007893091337382793
1769666836039957500,1.05995751953125,0.1644558181852102,-0.03383621862828731,0.0022378420546650887
1769666836049945300,1.0699453125,0.1679594423919916,-0.03737286832183599,0.056434273274987935
1769666836059934500,1.0799345703125,-0.027823826470971105,-0.03340264951661229,0.01571560165658593
1769666836069922600,1.089922607421875,0.0003869534909725189,-0.00961143956258893,-0.05717442411780357
1769666836079911400,1.099911376953125,0.0170142631649971,-0.02171148107051849,-0.018427052572369575
1769666836089899500,1.1098994140625,0.011028759014606475,-0.07849018386900425,0.01935804981216788
1769666836099888600,1.119888671875,-0.010763386076688766,-0.05373655862361192,0.017681056510657073
1769666836109877200,1.129877197265625,0.0949140799254179,-0.07333703888952732,0.0598668780721724
1769666836119865300,1.139865234375,0.08103811478614807,-0.08329290797561406,0.09669541038423776
1769666836129854500,1.1498544921875,-0.028677812951803206,-0.07097644723802804,0.041800183244794606
1769666836139842600,1.159842529296875,0.025614333727955817,-0.058018327596038574,-0.03220072638094425
1769666836149831400,1.16983154296875,0.033249943172931666,-0.0389485932059586,-0.03558773847073316
1769666836159819300,1.1798193359375,0.10499708252251147,-0.04055559001117944,0.07422887316271662
1769666836169808400,1.189808349609375,0.06130933196544647,-0.049250791511684655,0.006316343539953232
1769666836179796500,1.19979638671875,-0.054928106495738024,-0.04370587073564529,-0.06902896643206477
1769666836189785600,1.20978564453125,0.00005611410140991211,-0.03397226609811187,-0.043788580583035946
1769666836199773400,1.2197734375,0.051446109598875044,-0.06319719153866171,0.05681581993848085
1769666836209762600,1.229762451171875,0.052314709126949306,-0.0224561619579792,0.059654258234798904
1769666836219750400,1.23975048828125,0.20045359876155852,0.014495850603282451,0.02274900742471218
1769666836229739500,1.249739501953125,0.21928923213481902,0.02153451706841588,0.038445319858938454
1769666836239727600,1.2597275390625,0.1031400564789772,0.0028774551324546337,0.05046382056325674
1769666836249716500,1.269716552734375,0.07355857268571853,-0.01645940576121211,0.07165551554337143
1769666836259704300,1.279704345703125,0.12392039417922496,-0.02327829199582338,0.05482888390496373
1769666836269693400,1.289693359375,-0.018081600135564802,-0.08066738177761434,0.017017331904917953
1769666836279682300,1.299682373046875,-0.09135492613911628,-0.05080627732537687,0.058521747073531145
1769666836289670400,1.30967041015625,-0.16773966216146946,-0.025112302489951253,0.07906359984278678
1769666836299659500,1.319659423828125,-0.1998790137439966,-0.0310351897329092,0.06662862729206681
1769666836309647600,1.329647705078125,-0.12697861270606517,0.023826281267404555,0.08141337783932685
1769666836319636200,1.33963623046875,0.038593642288446424,0.00738061177060008,0.04826777182370424
1769666836329624300,1.349624267578125,0.17714169675707817,0.029934681145101782,0.012104571552574633
1769666836339613400,1.359613525390625,0.19799393064975737,0.003515606905519962,-0.012838146524131297
1769666836349601500,1.3696015625,0.1935141548871994,0.026720906730368733,-0.00020589783564209938
1769666836359590700,1.379590576171875,0.1411725577533245,0.015152414815872907,0.00999663948789239
1769666836369578000,1.389577880859375,0.20638357333242893,0.005200418187305331,-0.027101503545790908
1769666836379566800,1.39956689453125,0.244507844543457,0.007966010443121195,-0.030406098049134016
1769666836389554700,1.4095546875,0.0678214903384447,-0.03436930259168148,0.007551730553805828
1769666836399543800,1.419543701171875,0.00258241770863533,-0.04529029038287699,0.008806845181435347
1769666836409532000,1.429531982421875,0.11930910099148749,-0.06610891426689923,-0.03196867119073868
1769666836419520800,1.439520751953125,0.03866904561221599,-0.06493892063945532,-0.04339110569804907
1769666836429510000,1.449510009765625,0.09268646700382233,-0.10488288155831396,-0.07662906617224216
1769666836439498000,1.459498046875,0.18465747921466827,-0.018503624939918518,-0.07624912694394588
1769666836449486800,1.46948681640625,0.17747838136553765,-0.06399959396272897,-0.08079320011436938
1769666836459474700,1.479474609375,0.029627076500654218,-0.07528824602253735,-0.03835910288020968
1769666836469463800,1.4894638671875,-0.12141104170680045,-0.10158698181807994,-0.028902269357442854
1769666836479452000,1.499451904296875,-0.0036608605951070784,-0.07275112876035272,-0.045428749005496497
1769666836489441000,1.50944091796875,0.023148820397257804,-0.08553235746547579,-0.019732728343456983
1769666836499428900,1.519428955078125,0.04476736248731613,-0.07737089751549064,-0.03798091721758246
1769666836509417700,1.529417724609375,0.08719020767509937,-0.08732216349169611,-0.034424686040729284
1769666836519405800,1.53940576171875,0.0519230794608593,-0.06427066598907112,-0.04527940366268158
1769666836529395000,1.54939501953125,0.05802198085784912,-0.05631517693996429,-0.02944339049682021
1769666836539383000,1.559383056640625,0.08403788112401962,-0.05367927547842264,-0.04979600430428981
1769666836549371600,1.56937158203125,0.0686240388929844,-0.05300305671729147,-0.05571852622106671
1769666836559359700,1.57935986328125,-0.005725976431369781,-0.0446362103883177,-0.03879676364511251
1769666836569348900,1.589348876953125,-0.03603928163051605,-0.05257723252065479,-0.025689444790780544
1769666836579337700,1.599337646484375,-0.01434299812912941,-0.04959127551242709,-0.028046529310941693
1769666836589325800,1.609325927734375,0.004899462479352951,-0.0498310025524348,-0.021640607791393995
1769666836599315000,1.61931494140625,0.003775426885485649,-0.04568389281034469,-0.008333820842206477
1769666836609302800,1.629302734375,0.02622866623401642,-0.03706445995979011,-0.02367138296663761
1769666836619292000,1.6392919921875,0.06827858645617961,-0.03806508836969733,-0.03509937043190002
1769666836629279700,1.64927978515625,0.12369301516413687,-0.026398762103915212,-0.03202317785695195
1769666836639268900,1.659268798828125,0.09045008625388144,-0.04749123449325561,-0.050432694772630925
1769666836649257000,1.669257080078125,0.04521978242993355,-0.05046506267227232,-0.036695553582161665
1769666836659245800,1.679245849609375,0.03523731759786606,-0.03761281455755233,-0.02636369079053402
1769666836669234000,1.68923388671875,-0.06693009445667267,-0.03943761883191764,-0.0111997316673398
1769666836679222800,1.699222900390625,-0.10484569135308265,-0.021688465521112085,0.016012392646074295
1769666836689211000,1.7092109375,-0.034109774872660634,-0.034886458333581685,-0.008265285650640726
1769666836699200000,1.719199951171875,0.028662030860781666,-0.04066635690927505,-0.0276617677770555
1769666836709187800,1.729187744140625,0.0602057546377182,-0.044024142904579636,-0.015908055488765237
1769666836719176700,1.7391767578125,0.0004582651615142822,-0.04866334701254964,-0.005946779575198889
1769666836729164800,1.749164794921875,-0.049720600980520245,-0.05852196626923978,-0.012459960861504077
1769666836739154000,1.75915380859375,-0.02609773333072662,-0.05435081806443631,-0.010860708971321582
1769666836749142800,1.769142822265625,-0.0117640875518322,-0.05622559896036982,-0.023455402128398417
1769666836759130600,1.779130615234375,0.04516834450364113,-0.05098587167598307,-0.013995207604765891
1769666836769119700,1.78911962890625,0.060036243289709086,-0.06094524789340794,-0.04440758926421404
1769666836779107800,1.79910791015625,0.008292027527093886,-0.04640336619131267,-0.02567322430834174
1769666836789097000,1.809096923828125,0.06615618747472762,-0.050075698028504846,-0.030951018580794333
1769666836799084800,1.819084716796875,0.14051789323687552,-0.06530731556043029,-0.044014936684817076
1769666836809074000,1.829073974609375,0.107418756711483,-0.06604220570623874,-0.04296206663101911
1769666836819061800,1.839061767578125,0.029388007047772405,-0.04444477946944535,-0.022971564134210348
1769666836829051000,1.84905078125,-0.014206220006942749,-0.04600494145825505,-0.014142214860022068
1769666836839039000,1.8590390625,-0.030495676028728484,-0.045416985502466554,-0.0018149404674768447
1769666836849027800,1.86902783203125,-0.02166588836312294,-0.036223479091003534,0.012170038004219532
1769666836859016000,1.879015869140625,-0.053744449669122694,-0.052654535540565844,0.0008260755605995655
1769666836869004800,1.8890048828125,-0.013451017725467682,-0.034790742874145505,0.0077587974332273
1769666836878993000,1.898992919921875,0.019152444237470624,-0.04489500745497644,0.010511018750816583
1769666836888981800,1.908981689453125,0.019555179819464683,-0.047645036815479394,-0.010788812778890133
1769666836898969900,1.918969970703125,0.027907413101196286,-0.04214066724553704,-0.02587926827445626
1769666836908959000,1.928958984375,0.019455226576328276,-0.0423962494418025,-0.014581190799176693
1769666836918947800,1.93894775390625,0.05094926599264145,-0.05138802273608744,-0.008672989668697118
1769666836928935700,1.948935791015625,-0.012765373548865318,-0.02687609729208052,0.024161796832084654
1769666836938924800,1.9589248046875,0.04983516727089882,-0.03854410405829549,-0.005811608888208866
1769666836948913000,1.968912841796875,0.1273825173318386,-0.052375937794893974,-0.04452960820868611
1769666836958901800,1.97890185546875,0.08179214802384376,-0.04948438107185065,-0.035368981153517956
1769666836968889900,1.988889892578125,0.03648760991990566,-0.040863925307989116,-0.03437704750671983
1769666836978878700,1.998878662109375,0.0031821371674537655,-0.049284182324633,-0.01537204891592264
1769666836988866800,2.00886669921875,-0.006712649381160736,-0.05618745890706777,-0.00864025644287467
1769666836998856000,2.01885595703125,0.028452187502384183,-0.03475428332127631,-0.01615589276999235
1769666837008843800,2.02884375,0.05311433507204055,-0.045131227363646026,-0.023758038336783645
1769666837018833000,2.0388330078125,0.010925883162021637,-0.05248458580113947,-0.014069734145700931
1769666837028820700,2.04882080078125,0.014146598774194717,-0.047319969579577445,-0.007714666030555963
1769666837038809900,2.058809814453125,0.019297990188002587,-0.04983107561767101,-0.019031740467250344
1769666837048798000,2.0687978515625,0.039143092864751816,-0.04849127838127315,-0.01355477036088705
1769666837058786800,2.078786865234375,0.04323708418011665,-0.0436924267321825,-0.018466800060868264
1769666837068776000,2.08877587890625,0.05370353313684463,-0.0517597055926919,-0.01570244991406798
1769666837078763800,2.098763671875,0.07236848611831664,-0.05472768855281174,-0.03304346081539988
1769666837088752600,2.108752685546875,0.018207856863737104,-0.05322232549116015,-0.014150252036005258
1769666837098740700,2.11874072265625,-0.031529110729694367,-0.05287241607494652,0.010635668043792247
1769666837108729900,2.128729736328125,-0.04352349990606308,-0.03883899535164237,0.003067570877075195
1769666837118718000,2.138718017578125,0.03315174349546432,-0.0503488158814609,-0.022684710016846656
1769666837128706800,2.148706787109375,0.06233458335995674,-0.04192454027682543,-0.0356231020450592
1769666837138694700,2.158694580078125,0.06185761349797248,-0.048573915163427586,-0.0400530473165214
1769666837148683800,2.168683837890625,0.03331891675591469,-0.047754926930740474,-0.020956424919515847
1769666837158672000,2.178671875,0.04021276792287826,-0.05240545615032315,-0.02358618890121579
1769666837168661000,2.188660888671875,0.020911855125427245,-0.0472069376591593,-0.00741436790972948
1769666837178648800,2.19864892578125,-0.01512158128619194,-0.04949497553110122,0.009144406572729349
1769666837188637700,2.2086376953125,0.0016553659915924071,-0.037036841300502416,-0.007376812378317117
1769666837198625800,2.218625732421875,0.02963350624144077,-0.03989887966811657,-0.017595862445235252
1769666837208615000,2.228614990234375,0.041706221351027487,-0.03301525763422251,-0.015711510003358124
1769666837218603800,2.238603759765625,0.023563246417045592,-0.04136895222067833,-0.024761224029958246
1769666837228591900,2.248591796875,0.03200374250411987,-0.03578253039047122,-0.0199400874838233
1769666837238581000,2.2585810546875,0.046231005299091334,-0.03308839593566954,-0.029429654232412575
1769666837248568800,2.26856884765625,0.033577275431156156,-0.01944857763983309,-0.019465601839870214
1769666837258557700,2.2785576171875,0.005981997019052505,-0.030962709018588063,0.0012852175049483776
1769666837268545800,2.2885458984375,0.0420890831887722,-0.04603460594415664,-0.020223142208904026
1769666837278535000,2.298534912109375,0.08534428754746913,-0.04456409500017762,-0.031107524316757916
1769666837288522800,2.308522705078125,0.05628828893303871,-0.050137511218339204,-0.016772124972194432
1769666837298511600,2.31851171875,0.03742226042151451,-0.056204702302813526,-0.02446326399669051
1769666837308499700,2.328499755859375,0.03294832987785339,-0.047748643320426346,-0.009812368962168694
1769666837318488800,2.33848876953125,0.037919104027748105,-0.04923983172625303,-0.014580460146814583
1769666837328477000,2.348476806640625,0.04750877014994621,-0.05323350447230041,-0.024792788212001322
1769666837338466000,2.358466064453125,0.05516834499239921,-0.05336772531121969,-0.03085311116427183
1769666837348454000,2.368453857421875,0.0360632470279932,-0.05471307550556957,-0.017614128754287958
1769666837358442800,2.37844287109375,0.025385785669088362,-0.05647058669738471,-0.004017565078288317
1769666837368430300,2.388430419921875,0.011925415593385696,-0.055536155391484494,-0.003575958790630102
1769666837378419500,2.39841943359375,-0.01012275008559227,-0.037893019738420845,0.005363280598819255
1769666837388408300,2.408408203125,-0.012747253370285034,-0.03253536516278982,0.007872925332188606
1769666837398396400,2.418396484375,0.034115035569667815,-0.039164135652780534,-0.020174188500642776
1769666837408385500,2.428385498046875,0.050916532766819,-0.04830466976799071,-0.02217208431959152
1769666837418373400,2.438373291015625,0.037920273071527476,-0.04462883079946041,-0.014394436055421829
1769666837428362500,2.448362548828125,0.04506429960727691,-0.0473865320097655,-0.029775837321579453
1769666837438350300,2.458350341796875,0.03770224640667438,-0.046477089014649385,-0.022494009750336406
1769666837448339500,2.46833935546875,0.011944704815745354,-0.044111090535670514,-0.01197816869392991
1769666837458327600,2.47832763671875,0.03392915760874748,-0.04137611261382699,-0.020984481970220802
1769666837468316400,2.48831640625,0.057552025258541105,-0.035356340867653484,-0.03128083505704999
1769666837478304500,2.498304443359375,0.05135960035920143,-0.04514518282376229,-0.020218173772841692
1769666837488293400,2.50829345703125,0.04212649258971214,-0.051517348204180594,-0.020589783564209936
1769666837498281500,2.518281494140625,0.027651392513513562,-0.03998166258074343,-0.02356046993806958
1769666837508270600,2.5282705078125,0.018145897543430326,-0.05684848009906709,-0.012270868030190467
1769666837518258400,2.538258544921875,-0.017797522497177122,-0.03125760031193495,0.006134557232260703
1769666837528247300,2.548247314453125,0.016020575952529908,-0.03174289961084723,0.00527136453166604
1769666837538236400,2.558236328125,0.08830021474361419,-0.036652956549450756,-0.03167290311455726
1769666837548224500,2.568224609375,0.06288344941437245,-0.054288712613657114,-0.02952420064806938
1769666837558213400,2.57821337890625,0.02931727989912033,-0.06121317811459302,-0.011626432646811008
1769666837568201200,2.588201171875,0.0760743548989296,-0.03925795141607523,-0.0010544774889945983
1769666837578190300,2.5981904296875,0.052929626154899594,-0.03517813475653529,-0.010901479373127222
1769666837588178400,2.608178466796875,0.05994973405003547,-0.016399419202283026,-0.002364975565671921
1769666837598167300,2.618167236328125,0.1503741013407707,-0.028379487592354414,-0.009564677811414003
1769666837608155400,2.6281552734375,0.09787117616534233,-0.041122137852758166,-0.028182284519821403
1769666837618144500,2.63814453125,0.015450667110085487,-0.043564927894994616,-0.014604279413819312
1769666837628132400,2.64813232421875,-0.014203881919384001,-0.05353014933131635,-0.029455519326031205
1769666837638121500,2.65812158203125,-0.044941550010442734,-0.050936114250123496,-0.008360416588187217
1769666837648109300,2.668109375,-0.0019476269364356994,-0.04360620975345373,0.010878390758484601
1769666837658098400,2.678098388671875,0.14330489360690116,-0.04341477883458137,-0.0030690321817994116
1769666837668086500,2.68808642578125,0.07063947036862372,-0.03621778000257909,-0.010814677872508763
1769666837678075400,2.698075439453125,-0.05431845016479492,-0.04126446893289685,0.023144582613557577
1769666837688064300,2.708064208984375,-0.06754501148462295,-0.044258170856162904,0.023349749796837568
1769666837698052400,2.71805224609375,-0.05743804349005222,-0.03439494848959148,-0.007177198152989148
1769666837708041500,2.72804150390625,0.021054478466510772,-0.026494331432878968,0.0016221943743526934
1769666837718029600,2.738029541015625,0.03204758164584637,-0.022395079420506954,-0.0060192602895200245
1769666837728018400,2.748018310546875,0.030801380977034568,-0.031192572251707313,-0.01967120741456747
1769666837738006300,2.75800634765625,0.05323533110320568,-0.04801949615105986,-0.024926205333322286
1769666837747995400,2.767995361328125,0.06214870539903641,-0.04762793955020606,-0.03982435312718153
1769666837757983500,2.7779833984375,0.057876434907317156,-0.0531254409879446,-0.03036050534173846
1769666837767972400,2.787972412109375,0.02549216865301132,-0.043535190343856806,0.011952741991728544
1769666837777960200,2.797960205078125,0.01876665979027748,-0.039719358382746574,0.0005113105230033397
1769666837787949300,2.80794921875,0.018286182796955108,-0.03055135173872113,0.016334756468236445
1769666837797937400,2.8179375,0.019731120908260343,-0.045476387539505954,-0.017267653404176235
1769666837807926500,2.827926513671875,0.017547347128391264,-0.03572860824614763,-0.027568828796595335
1769666837817914400,2.837914306640625,0.039002807611227035,-0.06154796302691102,-0.039096769504994154
1769666837827903500,2.847903564453125,0.08095511267781257,-0.055213791569322344,-0.02549903678521514
1769666837837891300,2.857891357421875,-0.0037689971446990965,-0.03844502759799361,-0.00014700725525617598
1769666837847880400,2.86788037109375,-0.021093056911230087,-0.034939942086488006,0.00774549956023693
1769666837857869300,2.877869384765625,-0.0008913958817720412,-0.05150478098355234,-0.0026316636778414247
1769666837867857400,2.887857421875,-0.03361117770075798,-0.05287709225006401,-0.022002719102054834
1769666837877846500,2.897846435546875,-0.04522913478016853,-0.05128492768779397,0.0035018706411123275
1769666837887834400,2.90783447265625,0.023572598767280576,-0.05520736182853579,-0.014791618679463863
1769666837897823200,2.9178232421875,0.052125324034690855,-0.0429066101167351,-0.00864025644287467
1769666837907811300,2.927811279296875,0.02169628350138664,-0.03125891548618674,-0.019958499923348427
1769666837917800400,2.937800537109375,0.020079495954513547,-0.05114763810895383,-0.023808014958351848
1769666837927788500,2.94778857421875,0.06367547657489776,-0.06183065242581069,-0.03059475248903036
1769666837937777400,2.95777734375,0.06364391239285469,-0.06155366211533546,-0.02743365810960531
1769666837947765200,2.96776513671875,0.026213468664884564,-0.057426718378439545,-0.027788170635700223
1769666837957754400,2.97775439453125,-0.006783376529812812,-0.05096439049653709,-0.010750818856060504
1769666837967742500,2.987742431640625,0.048026656544208526,-0.033288594682887196,-0.02377089781835675
1769666837977731600,2.997731689453125,0.060923547518253324,-0.05880940490849316,-0.032937077831476924
1769666837987719400,3.007719482421875,0.036298809349536894,-0.0400678795594722,-0.012411445544660091
1769666837997708300,3.017708251953125,0.015718962657451627,-0.045655616563931106,-0.019584405913949013
1769666838007697400,3.027697509765625,0.008560907596349716,-0.04465593800209462,-0.020446575701236723
1769666838017685500,3.037685546875,0.028960137024521826,-0.05454889791980386,-0.008852291758358478
1769666838027674400,3.04767431640625,0.01509936945438385,-0.05554302352368831,-0.0162136143065989
1769666838037662500,3.057662353515625,0.042108372411131856,-0.03481602344587445,0.0029060967050492763
1769666838047651600,3.067651611328125,0.0019499650239944457,-0.03555697800628841,-0.012660598000138997
1769666838057639400,3.077639404296875,-0.017663082462549207,-0.02483231650479138,-0.013262801676988602
1769666838067628300,3.087628173828125,0.000007598784565925598,-0.045137730169668794,-0.005796119058132172
1769666838077616400,3.097616455078125,-0.013917466193437575,-0.04062514811605215,-0.013994038560986518
1769666838087605500,3.10760546875,0.019459318229556082,-0.0556792901892215,-0.011249854419380426
1769666838097593300,3.11759326171875,0.04503215090334415,-0.03192468591853976,-0.016726093873381614
1769666838107582200,3.127582275390625,0.04248597355186939,-0.035330548839271066,-0.004747194527089596
1769666838117570300,3.1375703125,0.08265081067979335,-0.029963322717696427,-0.00831540840268135
1769666838127559400,3.147559326171875,0.04273673344254494,-0.0412142000503838,-0.01475318636521697
1769666838137547500,3.157547607421875,0.05230886390805244,-0.03833104582950472,-0.02857946714386344
1769666838147536600,3.16753662109375,0.07515081031322479,-0.047557212401553986,-0.03061345718950033
1769666838157525200,3.177525146484375,0.0643272184818983,-0.04584069080725312,-0.024618016166985033
1769666838167513300,3.187513427734375,0.027478374034166333,-0.04606383203864097,-0.00989464041814208
1769666838177502500,3.19750244140625,0.025825346130132674,-0.036618469757959245,-0.016172259382903575
1769666838187490600,3.207490478515625,0.03212415401339531,-0.03878375803306699,-0.01664513759166002
1769666838197479400,3.2174794921875,0.0432218866109848,-0.04971811676248908,-0.010993979962170124
1769666838207467300,3.22746728515625,0.026686346873641013,-0.04652852694094181,-0.009453618652373551
1769666838217456400,3.237456298828125,0.043567339047789574,-0.054140390184149144,-0.020392215165495872
1769666838227444500,3.247444580078125,0.004169979161024093,-0.044578123525530096,-0.009876374109089373
1769666838237433300,3.257433349609375,-0.015150222858786581,-0.03135740742459893,0.006014145722985267
1769666838247421400,3.26742138671875,0.02976853079795837,-0.03952084013596177,0.00413330041244626
1769666838257410600,3.27741064453125,0.02203179906606674,-0.035857641453295945,-0.00560337296500802
1769666838267398400,3.2873984375,0.02648994751870632,-0.04386062290593982,-0.011458382603526114
1769666838277387300,3.29738720703125,0.04425064513683319,-0.04300166798904538,-0.017729279566556216
1769666838287375400,3.307375244140625,0.047990416187047955,-0.028738018706440924,-0.019205781859904528
1769666838297364500,3.317364501953125,0.020222119295597075,-0.03632204409465194,-0.004105097231268883
1769666838307353600,3.327353515625,0.009987141007184982,-0.02811784098148346,-0.013249211543053387
1769666838317341400,3.337341552734375,0.041730186748504636,-0.03807400232851505,-0.0161764971666038
1769666838327330300,3.347330322265625,0.08238426869809627,-0.03499620231837034,-0.032978140494227405
1769666838337318400,3.357318359375,0.052070378977060315,-0.042949572475627064,-0.05330357403382659
1769666838347307500,3.3673076171875,0.08383855915963649,-0.06186740423962474,-0.038060266064107416
1769666838357295600,3.377295654296875,0.0628629911482334,-0.036112273801490666,-0.009806962134689092
1769666838367284700,3.38728466796875,-0.00685059654712677,-0.038703824664652345,0.011855857488512991
1769666838377272800,3.39727294921875,0.013846154522895813,-0.041862215630337596,-0.013409516671299934
1769666838387262000,3.407261962890625,-0.00509469279050827,-0.03545592878460884,-0.006821662713587284
1769666838397250000,3.41725,0.003925649011135101,-0.027571459145098922,-0.008261632388830185
1769666838407238700,3.42723876953125,0.03163783180117607,-0.038051498235762114,-0.0160252521276474
1769666838417226800,3.437226806640625,0.00434007503092289,-0.04158675968982279,-0.004386398390680551
1769666838427216000,3.4472158203125,-0.032894553864002224,-0.030022505559027194,0.014790157374739646
1769666838437204000,3.457203857421875,-0.001550152051448822,-0.03802497555501759,0.004317424807697534
1769666838447192800,3.46719287109375,0.030709611040353774,-0.029175679471343755,-0.006861848593503236
1769666838457180700,3.4771806640625,0.05090542685091495,-0.02826616341099143,-0.012192249836027621
1769666838467169800,3.487169677734375,0.04939969846308231,-0.025241408762335774,-0.011846505138278007
1769666838477159000,3.497158935546875,0.060196402287483214,-0.0282956817664206,-0.018368600383400917
1769666838487146800,3.507146728515625,0.05841010339260101,-0.02820939172245562,-0.024195552971214056
1769666838497135900,3.517135986328125,0.016625556108355522,-0.042917131510749454,-0.026536417008936403
1769666838507124000,3.5271240234375,0.03193593796491623,-0.043675840923562644,-0.021200316677987573
1769666838517112800,3.53711279296875,0.019857377636432645,-0.02740969271212816,-0.012829963217675685
1769666838527101000,3.547100830078125,0.007308861708641052,-0.04457527398131787,-0.0032993338063359258
1769666838537089800,3.55708984375,0.038564416193962094,-0.03419759928658604,-0.02744520241692662
1769666838547078000,3.567077880859375,0.014320786297321319,-0.03701360655538737,-0.018461831624805927
1769666838557067000,3.57706689453125,0.019720599514245984,-0.03424019631929696,-0.009923574251681565
1769666838567054800,3.587054931640625,0.014704232656955718,-0.04098923218809068,-0.006809387753903866
1769666838577043700,3.597043701171875,0.01235094752907753,-0.04203859511055052,-0.001933306150138378
1769666838587031800,3.60703173828125,0.0433177482008934,-0.03763984869495034,-0.018772066617757082
1769666838597021000,3.61702099609375,0.05178747038245201,-0.04110131426043808,-0.02170066741555929
1769666838607009000,3.627009033203125,0.06807692640423774,-0.03203749864324927,-0.02713335998877883
1769666838616997600,3.63699755859375,0.062297173959016794,-0.05241005926020443,-0.013379413793981075
1769666838626986800,3.64698681640625,0.008442834174633025,-0.035275603781640526,-0.0023567922592163085
1769666838636974800,3.656974853515625,0.006233341431617736,-0.040341508869081735,-0.007754559649527072
1769666838646963700,3.666963623046875,0.03441840243041515,-0.025911563108861446,-0.013883856184780597
1769666838656951800,3.676951904296875,0.026398177582025527,-0.03785948279500007,-0.0036925709076225757
1769666838666941000,3.68694091796875,0.02424947511553764,-0.0334681890334934,-0.006654197192192077
1769666838676928800,3.6969287109375,0.04826514147520065,-0.025699966184794903,-0.005323825371265411
1769666838686918000,3.70691796875,0.029143676897883414,-0.039536110770329834,-0.030536592561006545
1769666838696905700,3.71690576171875,0.02856441570520401,-0.028726328268647194,-0.014164572822302579
1769666838706894800,3.726894775390625,0.007107786178588866,-0.030813071414828298,0.004430383662879467
1769666838716883000,3.736883056640625,0.009428922602534294,-0.03584507423266768,-0.0025220658235251903
1769666838726871800,3.746871826171875,0.06501403170228004,-0.0364702934589237,-0.0019628245055675507
1769666838736860000,3.75685986328125,0.07625438764095306,-0.046090573915094135,-0.029077041402459144
1769666838746848800,3.766848876953125,0.05020400058329105,-0.02567592772208154,-0.019975304927676914
1769666838756836900,3.7768369140625,0.043291444715857504,-0.031696722381561994,0.0052476913951337335
1769666838766826000,3.786825927734375,0.036704467540979384,-0.037132629825174804,-0.003327829248458147
1769666838776814800,3.79681494140625,0.016956980019807815,-0.039557738080248234,-0.004683043249696493
1769666838786802700,3.806802734375,0.0031926585614681243,-0.0314328107483685,-0.008103957609087229
1769666838796791800,3.816791748046875,0.010570493853092193,-0.02426620705462992,-0.0014376315876841544
1769666838806780000,3.82677978515625,0.0055050271570682525,-0.03415105673111975,-0.0058536944642662994
1769666838816768800,3.836768798828125,0.039623569858074185,-0.03222454564794898,-0.008632657658308744
1769666838826756600,3.846756591796875,0.04382160606980324,-0.04461852860115468,-0.010381839413195848
1769666838836745700,3.856745849609375,0.0264472774207592,-0.027599881521984934,-0.018247750482708214
1769666838846733800,3.86673388671875,0.03631985213756561,-0.04229878041669726,-0.005558510909974575
1769666838856723000,3.876722900390625,0.01927636287808418,-0.037338819921761746,-0.0037703123189508914
1769666838866710800,3.886710693359375,0.02542027246057987,-0.041555268573015926,-0.0052563130930066105
1769666838876700000,3.896699951171875,0.028744448447227476,-0.03742072605155408,-0.013326368432492018
1769666838886687700,3.906687744140625,0.016235095486044883,-0.029383623133599757,0.003864128082245588
1769666838896676900,3.9166767578125,0.01910334439873695,-0.03539652674756944,-0.011770225031673907
1769666838906665000,3.9266650390625,0.041670565515756604,-0.03151698190048337,-0.031055794129520652
1769666838916653800,3.93665380859375,0.02951251021027565,-0.0418035442456603,-0.010773322948813438
1769666838926643000,3.946642822265625,0.042027708390355106,-0.029967560501396654,-0.009202858761698006
1769666838936630800,3.956630859375,0.031793314623832704,-0.03834149415828288,-0.009751432555168867
1769666838946619600,3.96661962890625,0.025924714851379392,-0.052783057291060684,-0.005753887351602316
1769666838956607700,3.976607666015625,0.032086744612455365,-0.04198365005291998,0.009821429051458835
1769666838966596900,3.986596923828125,0.017199556604027746,-0.029419863490760326,0.007465659705549478
1769666838976585000,3.9965849609375,0.010310966134071349,-0.027705606918781996,0.006163198804855346
1769666838986573800,4.00657373046875,0.0014975450813770293,-0.022161928251758216,0.008807868094742297
1769666838996561700,4.016561767578125,0.015803718331456183,-0.028988413270935414,-0.004755231703072786
1769666839006550800,4.02655078125,0.05238076010048389,-0.03566686812154948,-0.007266483871638775
1769666839016539000,4.036538818359375,0.04464928906559944,-0.02571501762345433,-0.016050386568903924
1769666839026528000,4.046528076171875,0.03019698534309864,-0.021468393029645084,-0.0014491758950054645
1769666839036515800,4.056515869140625,0.040599721413850785,-0.028180092562735078,-0.010594605381041764
1769666839046504700,4.066504638671875,0.035282325783371926,-0.030024186059460042,-0.022506284710019826
1769666839056492800,4.076492919921875,0.06312836408615112,-0.041927828212454915,-0.039433892504870886
1769666839066482000,4.08648193359375,0.10385317318439483,-0.029851167580112813,-0.006755757870525121
1769666839076470800,4.096470703125,0.03999415673613548,-0.009597118776291609,-0.018045944300293923
1769666839086459000,4.106458984375,0.016997896552085875,-0.039927886566892265,-0.01133987079039216
1769666839096448000,4.116447998046875,0.02304302193522453,-0.041646527053043246,-0.00031038112342357635
1769666839106435800,4.126435791015625,0.02685293561220169,-0.025769451224431392,-0.003186521081626415
1769666839116424700,4.1364248046875,0.008834463840723037,-0.03221007873117924,-0.008175415410101413
1769666839126412800,4.146412841796875,0.017353285861015318,-0.039497751521319145,-0.0059016252592206
1769666839136402000,4.15640185546875,0.03874211084842682,-0.03728139064610004,-0.010987257960438727
1769666839146389800,4.1663896484375,0.02870236287117004,-0.03608443594649434,-0.009112257868796587
1769666839156378600,4.176378662109375,0.02496317634284496,-0.03504084517769515,-0.014576806885004043
1769666839166366700,4.18636669921875,0.024645780956745147,-0.028121932634711265,-0.004175824379920959
1769666839176355800,4.19635595703125,0.030621932756900786,-0.029793592173978686,-0.0071620005838572975
1769666839186344000,4.206343994140625,0.016281272715330124,-0.01480119022540748,-0.0036240357160568235
1769666839196333000,4.2163330078125,0.018382044386863708,-0.026336145196482537,0.004078939876705408
1769666839206320600,4.226320556640625,0.03939560632109642,-0.029065862421318887,-0.005593874484300613
1769666839216309800,4.236309814453125,0.041869302958250046,-0.04389934748113155,-0.017719050433486698
1769666839226299000,4.246298828125,0.018481413108110425,-0.04075827297642827,-0.007808335663378238
1769666839236287000,4.256286865234375,0.008553893333673476,-0.04119359565377235,-0.010717208847403526
1769666839246275800,4.26627587890625,0.017680618119239808,-0.03930084070973098,-0.00013897007927298545
1769666839256263700,4.276263671875,0.02276245142817497,-0.03599383505359292,-0.0021159692406654356
1769666839266252800,4.286252685546875,0.02185410441160202,-0.036017435124889016,-0.007572042689472437
1769666839276241000,4.296240966796875,0.05550736768841743,-0.041107378675043584,-0.013170593348890543
1769666839286229800,4.306229736328125,0.03860591724812984,-0.029606252908334133,-0.013815320993214844
1769666839296217900,4.3162177734375,0.05059738381505012,-0.04437032599374652,-0.008689502412080764
1769666839306207000,4.32620703125,0.03194295222759247,-0.02934928247258067,-0.008012187672406435
1769666839316194800,4.33619482421875,0.0301987389087677,-0.03133841046318411,-0.01619914738982916
1769666839326183700,4.34618359375,0.02576923202872276,-0.041835108427703376,-0.016503829424828288
1769666839336171800,4.356171875,0.0157855981528759,-0.03401354795657098,-0.010260989512503146
1769666839346161000,4.366160888671875,0.028068741142749785,-0.020971257162466644,-0.00983253496736288
1769666839356148700,4.376148681640625,0.0010474632263183592,-0.033022491092607374,0.0030241701267659663
1769666839366137900,4.386137939453125,0.009047229808568953,-0.03393142263107002,-0.006427841090410947
1769666839376126200,4.396126220703125,0.029121465066075325,-0.039365868769958616,-0.017212562216073275
1769666839386114300,4.4061142578125,0.03306523425579071,-0.039163478065654636,-0.010389584328234195
1769666839396103400,4.416103515625,0.024753332984447478,-0.028693668108060955,-0.012448124293237923
1769666839406091500,4.426091552734375,0.024940379989147186,-0.028773090019822117,-0.0060639762140810485
1769666839416080100,4.436080078125,0.028688334345817565,-0.02998926087655127,-0.010313158091157675
1769666839426068200,4.446068115234375,0.04317980103492736,-0.020186682656034825,-0.011787760688364506
1769666839436057300,4.456057373046875,0.05748012906610966,-0.0430058327075094,-0.015226795226335525
1769666839446045400,4.46604541015625,0.036510406273603434,-0.04403283766768872,-0.015964315720647573
1769666839456034300,4.476034423828125,0.04355272600054741,-0.037156522157415744,-0.005456511840224266
1769666839466022100,4.486022216796875,0.02545943542718887,-0.032051892494782803,-0.006442454137653112
1769666839476011300,4.49601123046875,0.016503391033411027,-0.03093830522969365,-0.006093640699982643
1769666839485999400,4.505999267578125,0.021298808616399763,-0.013676204783469438,-0.004012596642225981
1769666839495988500,4.515988525390625,0.03911912746727467,-0.029592881970107555,-0.007192395722121
1769666839505977300,4.525977294921875,0.036133974176645274,-0.034282574156299234,-0.0035087387733161446
1769666839515965200,4.535965087890625,0.028546880048513412,-0.03982815251946449,-0.013127046468108892
1769666839525954300,4.545954345703125,0.028567922836542126,-0.03326346024163067,-0.011108400122076272
1769666839535942400,4.5559423828125,0.034270518392324444,-0.029288565261289475,0.01159209198579192
1769666839545931300,4.56593115234375,0.03191138804554939,-0.03138802175857126,0.00020940496698021888
1769666839555919400,4.57591943359375,0.018923311656713484,-0.03403568672314286,-0.01027194929793477
1769666839565908500,4.585908447265625,0.027968203377723693,-0.026954569355770945,-0.015270634368062018
1769666839575896300,4.595896240234375,0.05465864190459251,-0.016858707277104257,-0.01821019495129585
1769666839585885200,4.60588525390625,0.038083939200639724,-0.037744770374149084,-0.008600070562958717
1769666839595873300,4.615873291015625,0.02495090138316154,-0.035737083813548086,-0.011487462567538022
1769666839605862400,4.6258623046875,0.01960486418008804,-0.034837139299139376,-0.005036532862484455
1769666839615850500,4.6358505859375,0.030267712491750715,-0.04459967777021229,-0.00624430121704936
1769666839625839400,4.64583935546875,0.042701077607274054,-0.03226794639825821,-0.013195581659674644
1769666839635827200,4.6558271484375,0.041809681725502014,-0.0366289911519736,-0.016322189247608185
1769666839645816300,4.66581640625,0.03899462430477142,-0.03764627843573689,-0.01267068100273609
1769666839655804400,4.675804443359375,0.028744448447227476,-0.029836992924287913,-0.004343289901316166
1769666839665793500,4.68579345703125,0.029548750567436218,-0.024381138671189545,-0.00116027595102787
1769666839675782400,4.695782470703125,0.03167874833345413,-0.03264905467033386,-0.017113193494826553
1769666839685770200,4.705770263671875,0.037841947138309476,-0.04170994767807424,-0.01321209440305829
1769666839695759400,4.71575927734375,0.048519993019104,-0.02903137562982738,-0.0015441607020795344
1769666839705747500,4.72574755859375,0.04344283588528633,-0.03047572921924293,-0.01006239820048213
1769666839715736300,4.735736328125,0.03101823859810829,-0.04454107945077121,-0.006923515652865171
1769666839725724200,4.74572412109375,0.02625029354393482,-0.035725612571462985,-0.0061652446314692496
1769666839735713300,4.75571337890625,0.01687222434580326,-0.0333068609919399,-0.002430149756371975
1769666839745701400,4.765701416015625,0.010787351474165915,-0.031649668369442226,0.0006200315944850445
1769666839755690200,4.775690185546875,0.012799860340356826,-0.034005729976296424,-0.010382570065557956
1769666839765678300,4.78567822265625,0.03476853104233742,-0.02614829447418451,-0.02571136436164379
1769666839775667500,4.79566748046875,0.07190788286924361,-0.04212393530644476,-0.01277984046563506
1769666839785655300,4.8056552734375,0.059978960144519804,-0.03569185643233359,-0.006607143180072307
1769666839795644200,4.81564404296875,-0.0041582887232303615,-0.028388328485935924,0.027593817107379435
1769666839805632300,4.82563232421875,0.043728082567453384,-0.04244030777923762,-0.010003653750568628
1769666839815621400,4.835621337890625,0.04800678279995918,-0.05143675724864006,-0.03634922436252236
1769666839825610500,4.845610595703125,0.047182606935501095,-0.0333095644056797,-0.01776347409710288
1769666839835598300,4.855598388671875,0.03467734562754631,-0.041753859885036944,-0.012133651516586541
1769666839845587200,4.865587158203125,0.0063911623418331145,-0.03562522093690931,-0.005940934356302023
1769666839855575300,4.8755751953125,0.00006429740786552428,-0.033438451482355594,0.015567133096605538
1769666839865564400,4.885564453125,0.002909749966859817,-0.03929514162130654,-0.012175737092643975
1769666839875552500,4.895552490234375,0.01806289543509483,-0.024796733734756708,-0.01350157886892557
1769666839885541400,4.905541259765625,0.03760813838243484,-0.023748028399422763,-0.005924421612918377
1769666839895529200,4.915529296875,0.04666004436612129,-0.02886829402260482,-0.017758505661040543
1769666839905518300,4.925518310546875,0.009008651363849639,-0.015516206626966594,0.01002528106048703
1769666839915506400,4.93550634765625,0.020125088661909103,-0.0378502035100013,-0.014202420614659785
1769666839925495300,4.945495361328125,0.022557868766784665,-0.04102269606627524,-0.018612492141872643
1769666839935483100,4.955483154296875,0.023615853387117386,-0.03308401202149689,-0.014287760810554027
1769666839945472300,4.96547216796875,0.006857610809803009,-0.05020619254037738,-0.007041881335526704
1769666839955460400,4.97546044921875,0.03352583750486374,-0.04596132151223719,-0.02228387413099408
1769666839965449200,4.98544921875,0.06790156983733177,-0.03586757832542062,-0.019111673835664988
1769666839975438300,4.995438232421875,0.06573533171415329,-0.030110622233897447,-0.017326982375979422
1769666839985426400,5.005426513671875,0.04856850833594799,-0.031473361954465505,-0.01923632312864065
1769666839995415600,5.01541552734375,0.035110476347804065,-0.057644525847584005,-0.022079875991493463
1769666840005403400,5.0254033203125,0.032093758875131606,-0.04336809014864266,-0.028394612096250056
1769666840015392300,5.035392333984375,0.04774257890582084,-0.038136546170711515,-0.01567833838611841
1769666840025380400,5.04538037109375,0.056981531894206995,-0.04578852222859859,-0.022935177646577355
1769666840035369500,5.055369384765625,0.021095394998788833,-0.029679025883600114,0.007302139706909656
1769666840045357300,5.065357421875,-0.009465747481584548,-0.022546032198518515,0.012227321149408816
1769666840055346200,5.07534619140625,-0.013523498439788818,-0.04083155740834772,0.015202975959330796
1769666840065334300,5.085334228515625,0.01680383528470993,-0.03359532254450023,-0.00816620919033885
1769666840075323400,5.095323486328125,0.03718202192485332,-0.0272985604878515,-0.02389525485038757
1769666840085311500,5.1053115234375,0.031063831305503845,-0.009776786192134021,-0.010477408742159605
1769666840095300400,5.11530029296875,0.06011456922292709,-0.024326047483086585,-0.010163082095980644
1769666840105288200,5.1252880859375,0.03739712598025799,-0.02447020519413054,-0.007940145349502563
1769666840115277300,5.13527734375,0.024589666855335233,-0.031309988086298104,0.002815495812147856
1769666840125266400,5.145266357421875,0.026940613895654678,-0.029771526472643015,0.007769318827241659
1769666840135254300,5.155254150390625,0.03575871112346649,-0.040662703647464514,-0.0008376198679208755
1769666840145243400,5.165243408203125,0.028957214415073394,-0.0303648161906749,-0.009473492396622896
1769666840155231200,5.175231201171875,0.03809212250709534,-0.04022204720787704,-0.01629077119603753
1769666840165220400,5.185220458984375,0.040409167277812956,-0.03282039264924824,-0.013104396244883536
1769666840175208400,5.19520849609375,0.027234628406167027,-0.02910787493214011,-0.01905059129819274
1769666840185197300,5.205197265625,0.013693009787797927,-0.02659823019877076,0.010708879410475491
1769666840195185400,5.215185302734375,-0.004648702588677406,-0.032314854279905554,0.012382219450175761
1769666840205174500,5.225174560546875,-0.007659574842453002,-0.03142499276809394,0.014498627082258462
1769666840215162400,5.235162353515625,0.03110240975022316,-0.03205108877718448,-0.004460340409725904
1769666840225151200,5.245151123046875,0.06548457182347774,-0.038690453726425766,-0.01819572803452611
1769666840235139300,5.255139404296875,0.07222936990857123,-0.028089199408888814,-0.019594196655601262
1769666840245128400,5.26512841796875,0.10186229162812233,-0.037773704207688566,-0.04911386725902557
1769666840255117300,5.275117431640625,0.10043079752027988,-0.028548779744654893,-0.03745879303961992
1769666840265105200,5.285105224609375,0.05996142448782921,-0.04799523849263787,-0.028707185176759957
1769666840275094300,5.29509423828125,0.00826397047638893,-0.03455357311740517,-0.001075228016078472
1769666840285082400,5.305082275390625,-0.030273557710647582,-0.03799852593950927,0.013589549413323401
1769666840295071500,5.315071533203125,-0.01100070196390152,-0.03430515131428838,0.006511281590163708
1769666840305059300,5.325059326171875,0.007077391040325165,-0.035502544405311344,0.003134352502971887
1769666840315048200,5.335048095703125,0.0456008907020092,-0.04244439943246543,-0.02150602162629366
1769666840325036300,5.345036376953125,0.07712883238792419,-0.03593932838737964,-0.030304245109856128
1769666840335025400,5.355025390625,0.07599193731248378,-0.04468260681331158,-0.035760756950080394
1769666840345013500,5.365013427734375,0.0376402870863676,-0.05035027718618512,-0.019542174207419157
1769666840355002400,5.37500244140625,-0.02096212400794029,-0.02460179568454623,0.019365064074844122
1769666840364990200,5.384990234375,-0.012024784314632416,-0.01917947837486863,0.010993395440280437
1769666840374980600,5.394980712890625,0.04401332924962043,-0.023442396516352892,-0.012456015338748693
1769666840384968700,5.40496875,0.06268646553754806,-0.02826616341099143,-0.023363924452662468
1769666840394957800,5.414957763671875,0.06247954478859901,-0.043185353992879386,-0.018178484638780353
1769666840404945700,5.424945556640625,0.014006313520669937,-0.036535102323442696,-0.013317600604146718
1769666840414934500,5.4349345703125,-0.01626607514619827,-0.029780221235752104,0.017181290294975043
1769666840424923600,5.444923583984375,-0.02961655510663986,-0.03680851243734359,0.007539601724594831
1769666840434911700,5.454911865234375,0.01130348430275917,-0.019437983180582524,-0.008567629598081111
1769666840444900900,5.46490087890625,0.058010290420055385,-0.03861475814171135,-0.020091770914196967
1769666840454888700,5.474888671875,0.07169862403273582,-0.03352013841643929,-0.03416092053800821
1769666840464877600,5.484877685546875,0.06426701272726058,-0.03114076899923384,-0.02536167414113879
1769666840474865700,5.49486572265625,0.027134090641140935,-0.031216464583948254,-0.010685060143470763
1769666840484854800,5.504854736328125,-0.03982522991001606,-0.023619506648927927,0.009425707732141018
1769666840494843000,5.5148427734375,-0.03313654592633247,-0.02675429754331708,-0.0058019642770290375
1769666840504831700,5.524831787109375,0.016080197185277936,-0.021139891727641223,-0.017734540263563393
1769666840514819600,5.534819580078125,0.07440028420686721,-0.0266727567397058,-0.04028714833334088
1769666840524808700,5.54480859375,0.10073241081535815,-0.029864684648811816,-0.01452507669776678
1769666840534796800,5.554796875,0.04904197106659412,-0.014855989152565597,0.008116963221132754
1769666840544785700,5.56478564453125,0.03999298769235611,-0.032869638618454336,-0.024318010307103392
1769666840554773800,5.574773681640625,0.01575111136138439,-0.025167685938999054,-0.0027586510583758354
1769666840564762600,5.5847626953125,0.0062730889201164245,-0.020080372737348078,0.002113338892161846
1769666840574751500,5.59475146484375,0.008638064485788344,-0.034406054405495524,0.0009409341119229793
1769666840584739600,5.604739501953125,0.018409516915678978,-0.03161620449125767,0.006760434045642614
1769666840594728700,5.614728759765625,0.00951835445165634,-0.04128741141706705,0.00809445912837982
1769666840604716800,5.624716796875,0.003736848440766334,-0.03415829018950462,0.00505567595437169
1769666840614706000,5.634705810546875,0.03278349470496177,-0.04345262662693858,-0.0167408530510962
1769666840624693800,5.64469384765625,0.04476560892164707,-0.025328575589135288,-0.0044297991409897805
1769666840634682600,5.6546826171875,0.05076572611927986,-0.021991101729497312,-0.01670256686732173
1769666840644670700,5.664670654296875,0.05213116925358772,-0.024468305497989055,-0.010841127488017082
1769666840654659800,5.674659912109375,0.032227029865980146,-0.02038943868651986,-0.0021676994279026984
1769666840664648000,5.68464794921875,0.01847206075787544,-0.03228365542404353,-0.012857289616018532
1769666840674636500,5.694636474609375,0.030001170510053632,-0.04001468806751072,-0.013553162925690412
1769666840684624600,5.704624755859375,0.02672784792780876,-0.03520378065444529,-0.016827508421242237
1769666840694613800,5.71461376953125,0.03060556614398956,-0.03777180451154709,-0.025719839929044246
1769666840704601900,5.724601806640625,0.02251929032206535,-0.02051445330567658,-0.02287687158808112
1769666840714590700,5.7345908203125,0.021360183414816856,-0.023031842954084277,-0.005122457580268382
1769666840724579800,5.744579833984375,0.020823007798194883,-0.03228336316309869,-0.008440349956601858
1769666840734567700,5.754567626953125,0.033843817412853236,-0.03307349062748253,-0.00581555441096425
1769666840744556500,5.764556640625,0.052642041385173796,-0.031459698755294085,-0.03461597082912922
1769666840754544600,5.774544677734375,0.0657610506772995,-0.03346161316223442,-0.029728783309459685
1769666840764533800,5.78453369140625,0.06936755073666573,-0.02449263622164726,-0.02194748178347945
1769666840774521900,5.79452197265625,0.012711013013124465,-0.02417282968275249,0.004556640391051769
1769666840784510700,5.8045107421875,0.0035194062978029248,-0.03512494326457381,0.002197510044276714
1769666840794498600,5.81449853515625,0.012892214798927307,-0.03808941909335553,0.006853519156575202
1769666840804487700,5.82448779296875,0.00812894591987133,-0.035860344867035744,-0.0003128653414547443
1769666840814475800,5.834475830078125,0.03823649941384792,-0.011407967590540647,-0.015425678799301385
1769666840824465000,5.84446484375,0.01567395447194576,-0.027247049496322867,-0.00465703202560544
1769666840834452700,5.85445263671875,0.048133039528131485,-0.017026538124680517,-0.015091040017455815
1769666840844441600,5.864441650390625,0.05712298619151115,-0.03402158513255417,-0.012783932118862867
1769666840854430700,5.8744306640625,0.03237432938218117,-0.03154745010398328,0.0008482873924076557
1769666840864418800,5.884418701171875,0.034922260299324985,-0.0277292800553143,0.01719444203749299
1769666840874407700,5.89440771484375,0.02223696624934673,-0.03314940540790558,0.0039684652395546435
1769666840884395500,5.9043955078125,0.011184241837263107,-0.029257585601136088,-0.006603197657316923
1769666840894384600,5.914384521484375,0.018069909697771072,-0.03890380421616137,-0.009200228413194417
1769666840904372700,5.924372802734375,0.009741641813516616,-0.027924802627414463,-0.024189123230427503
1769666840914361600,5.934361572265625,0.049426001948118206,-0.032511911221966144,-0.02669146144017577
1769666840924349700,5.944349609375,0.052200142836570734,-0.018935148224979638,-0.008685410758852959
1769666840934338800,5.9543388671875,0.035977322310209274,-0.029830636248737573,0.005133709626644849
1769666840944326700,5.96432666015625,0.06878536693453788,-0.03735518653467297,-0.021518150455504655
1769666840954315800,5.974315673828125,0.0653378568291664,-0.027293080595135688,-0.025250614982098338
1769666840964303600,5.9843037109375,0.036006548404693604,-0.029111601259186864,-0.011494622960686682
1769666840974292700,5.994292724609375,0.031515082204341884,-0.02528729373067617,0.0005216857865452766
1769666840984280800,6.00428076171875,0.02902268086671829,-0.03197480867058038,-0.0045588323481380935
1769666840994269700,6.014269775390625,-0.0026139818906784056,-0.02267265425287187,0.0057474576108157635
1769666841004258600,6.024258544921875,0.00977495956122875,-0.025071020631492136,0.002783200977742672
1769666841014246700,6.03424658203125,0.030510873597860335,-0.029847002861648795,-0.0204248022608459
1769666841024235800,6.04423583984375,0.033517654198408124,-0.034446824807301164,-0.01952230046316981
1769666841034223900,6.054223876953125,0.03659516194760799,-0.023000644098222254,-0.025955109989643094
1769666841044212700,6.064212646484375,0.045296939319372176,-0.03398286055736244,-0.01916077367439866
1769666841054200600,6.07420068359375,0.05143091202974319,-0.03336728594228625,-0.020292115791887045
1769666841064189700,6.084189697265625,0.02602642166018486,-0.026689269483089445,-0.009573591770231723
1769666841074177800,6.094177734375,0.02388707154393196,-0.03285005713514984,0.001224719489365816
1769666841084166700,6.104166748046875,0.027664251995086667,-0.030229353242740033,-0.0020351590894162656
1769666841094154500,6.114154541015625,0.0342985754430294,-0.045802843014895914,0.0007080021388828754
1769666841104143600,6.1241435546875,0.046752983346581456,-0.0377664707493037,-0.010396014069020748
1769666841114131700,6.134131591796875,0.03556464985609054,-0.033030455203354354,-0.0054924599364399905
1769666841124120800,6.144120849609375,0.041437925803661346,-0.028523206911981104,-0.002639554723352194
1769666841134108700,6.154108642578125,0.03159516170322895,-0.012976166755333541,-0.014197744439542293
1769666841144097800,6.164097900390625,0.0129448217689991,-0.010034487280249594,-0.00009805354699492454
1769666841154085600,6.174085693359375,0.026021160963177678,-0.03304039207547903,-0.002553922266513109
1769666841164074800,6.18407470703125,0.015598551148176192,-0.03530029983147979,0.010058452677726745
1769666841174063600,6.194063720703125,0.024350012880563734,-0.01561966700144112,0.011281564731895923
1769666841184051700,6.2040517578125,0.022775310909748075,-0.010077303508669137,-0.006001578502357005
1769666841194040800,6.214040771484375,0.025049101060628888,-0.02309161031730473,-0.011639730519801378
1769666841204028700,6.224028564453125,0.04985854814648628,-0.026756854826584457,-0.012923486720025539
1769666841214017500,6.234017578125,0.04318213912248611,-0.02701623641513288,-0.0081138944812119
1769666841224005600,6.244005615234375,0.03630465456843376,-0.03163710114881396,0.0024620061993598937
1769666841233994800,6.253994873046875,0.0012128829210996627,-0.02163739292100072,0.008571282859891652
1769666841243982800,6.26398291015625,-0.02055997294783592,-0.026945655396953223,0.000001461304724216461
1769666841253971700,6.2739716796875,0.02225041025280952,-0.030231618265062567,-0.01767491903081536
1769666841263959600,6.28395947265625,0.042677112209796905,-0.03566284953355789,-0.04156462092325091
1769666841273948700,6.29394873046875,0.08901800762414931,-0.031140184477344155,-0.03141337539553642
1769666841283936800,6.303936767578125,0.04919803841114044,-0.02236285765133798,0.009495704228430987
1769666841293926000,6.31392578125,0.044589667832851405,-0.011576456025242805,-0.0214367557823658
1769666841303913500,6.32391357421875,0.035004093363881106,-0.04720058098360896,-0.018649755412340163
1769666841313902600,6.333902587890625,0.0140688573628664,-0.023713176281750202,-0.012248802328854799
1769666841323891700,6.3438916015625,0.021137480574846268,-0.01942198189385235,-0.007505114933103322
1769666841333879800,6.3538798828125,0.006710311293601989,-0.030475802284479138,-0.012859335442632435
1769666841343868700,6.36386865234375,-0.01584755747318268,-0.01501154504045844,-0.009039923284947871
1769666841353856800,6.373856689453125,-0.007402385210990905,-0.013965104727447032,0.0035480478703975677
1769666841363846000,6.383845947265625,0.021077859342098236,-0.023807795762643216,0.0047239597819745535
1769666841373832700,6.393832763671875,0.05862520744800567,-0.021000410191714763,-0.013595394632220268
1769666841383821800,6.40382177734375,0.05527238988876342,-0.02672149125225842,-0.02268339484259486
1769666841393810000,6.413809814453125,0.056664136508107185,-0.029586159968376158,-0.021917963428050278
1769666841403798800,6.423798828125,0.04477554579377174,-0.0240149357073009,0.00012172668352723121
1769666841413786600,6.43378662109375,0.03083002254962921,-0.032094343397021295,0.00418210799023509
1769666841423775700,6.443775634765625,-0.01203062953352928,-0.03213482153788209,0.012868103270977736
1769666841433763800,6.453763916015625,0.014348843348026274,-0.023868220712989566,-0.018286328927427528
1769666841443752700,6.463752685546875,0.032609307181835176,-0.027017040132731197,-0.0291159121081233
1769666841453740500,6.473740478515625,0.035113983479142186,-0.02131415231600404,-0.022157325141876936
1769666841463729700,6.483729736328125,0.05830021327733993,-0.03618110125400126,-0.030599428664147853
1769666841473718500,6.493718505859375,0.02733575069308281,-0.031520635162293906,-0.01192585398480296
1769666841483706600,6.50370654296875,0.011980360651016235,-0.017309446719288826,-0.001692190870642662
1769666841493695700,6.51369580078125,0.010409165811538695,-0.032471725342050194,-0.0015808394506573677
1769666841503683800,6.523683837890625,0.045211014601588245,-0.011724559259042143,-0.006731061820685863
1769666841513672700,6.533672607421875,0.035890813070535654,-0.02108889219276607,-0.019296236622333526
1769666841523660500,6.54366064453125,0.02345920152068138,-0.02598725869357586,-0.005328647676855325
1769666841533649700,6.553649658203125,0.015174188256263732,-0.01765621433034539,-0.011554536454379557
1769666841543637800,6.5636376953125,0.02178396178483963,-0.031831673872843386,-0.012403700629621744
1769666841553627000,6.573626953125,0.04643558796048164,-0.025575024630874393,-0.02566547939330339
1769666841563614700,6.58361474609375,0.062384852242469785,-0.016538754607737065,-0.025894904235005376
1769666841573603600,6.593603515625,0.03733341309428215,-0.01861468409895897,0.004237491439282894
1769666841583591700,6.603591796875,-0.008853753063082694,-0.027651538643985986,0.01968114428669214
1769666841593580800,6.613580810546875,0.013362170398235321,-0.03351100526191294,-0.004125263236463069
1769666841603569000,6.62356884765625,0.036281858214735986,-0.028452772024273872,-0.024595073682814834
1769666841613557800,6.633557861328125,0.022310031485557553,-0.0205173028498888,-0.029508126296103
1769666841623546600,6.643546630859375,0.018607085314393042,-0.020151172951236366,-0.024598580814152955
1769666841633534700,6.65353466796875,0.044126141974329944,-0.02143953226134181,-0.021402999643236397
1769666841643523600,6.663523681640625,0.06933072585761546,-0.022090981907397507,-0.016074498096853494
1769666841653511700,6.67351171875,0.06966565690040588,-0.0195458274692297,-0.008593494691699743
1769666841663500800,6.683500732421875,0.01627308940887451,-0.028999153860658405,0.0011662673003971576
1769666841673488600,6.693488525390625,0.007260930913686752,-0.037435046837851406,0.011336509789526461
1769666841683477800,6.703477783203125,-0.008576105165481566,-0.036572657854855056,0.0029815000288188455
1769666841693465600,6.713465576171875,-0.007379004335403442,-0.01451090204194188,-0.0015299860462546348
1769666841703454700,6.723454833984375,0.044160628765821455,-0.03696136491149664,-0.013064064234495161
1769666841713442800,6.73344287109375,0.05772738182544708,-0.03544971823953092,-0.0298490486882627
1769666841723432000,6.743431884765625,0.037300679868459696,-0.0294007934641093,-0.023064795375615357
1769666841733419800,6.753419677734375,0.04283025694489479,-0.029581776054203507,-0.0004908522568643093
1769666841743408600,6.76340869140625,0.02358078207373619,-0.03716543611623346,0.00037117139995098113
1769666841753396700,6.773396728515625,0.03337853798866272,-0.04159004762545228,-0.00033098552003502844
1769666841763385900,6.7833857421875,0.01071311719417572,-0.04313851917646825,-0.022998013749718663
1769666841773374700,6.793374755859375,-0.020957447832822797,-0.02273570955172181,-0.02245966908931732
1769666841783362600,6.803362548828125,-0.0251227508187294,-0.017808263086900113,-0.001957125417143106
1769666841793351700,6.8133515625,-0.008327098840475082,-0.0036835838835686443,0.0002989829465746879
1769666841803339800,6.82333984375,-0.018247604352235793,-0.013814590340852737,-0.006309475407749414
1769666841813328600,6.83332861328125,0.013311316993832588,-0.03539214283339679,-0.003939093014597893
1769666841823316700,6.843316650390625,0.046042789250612254,-0.030086729901656506,-0.001092617542296648
1769666841833305600,6.8533056640625,0.03188859169185161,-0.029526027278974652,-0.0074056000813841815
1769666841843293700,6.863293701171875,0.05362462268173694,-0.0185338739477098,-0.01846738458275795
1769666841853282800,6.87328271484375,0.06786416043639183,-0.0230252670828253,-0.023335136749595402
1769666841863270700,6.883270751953125,0.04805354455113411,-0.030739860048145055,-0.008071078252792357
1769666841873259800,6.893259765625,0.0366992068439722,-0.0308610022097826,0.0024814415521919727
1769666841883247600,6.90324755859375,0.04408990161716938,-0.037207594757527114,-0.003751899879425764
1769666841893236700,6.91323681640625,0.02873158896565437,-0.028346608236059546,0.0014136661902070045
1769666841903224800,6.923224853515625,0.03671498893499374,-0.015091113082692027,-0.010911562375724314
1769666841913213700,6.933213623046875,0.030192893689870832,-0.01967215726263821,-0.014016542653739451
1769666841923202800,6.943202880859375,0.03262041309773922,-0.024783070535585282,-0.009573445639759301
1769666841933191000,6.95319091796875,0.05167348861396313,-0.016732596679404375,-0.0073122227095067495
1769666841943179500,6.963179443359375,0.0393657957047224,-0.0181187172755599,0.0011149755045771598
1769666841953167600,6.973167724609375,0.020669863063097,-0.027639190619066355,0.004617430667579174
1769666841963156700,6.98315673828125,0.029391514179110526,-0.028051059355586765,0.001964724201709032
1769666841973144800,6.993144775390625,0.024384499672055242,-0.03983604356497526,-0.006451514226943254
1769666841983133700,7.0031337890625,0.011125789648294448,-0.03233655465506017,0.010842881053686141
1769666841993121500,7.01312158203125,0.03274199365079403,-0.035652328139543533,-0.012178075180202723
1769666842003110700,7.023110595703125,0.02844400419592857,-0.03102247638180852,-0.010993249309808014
1769666842013098800,7.0330986328125,0.017591770792007445,-0.02721256270483136,0.004944324534386396
1769666842023087600,7.043087646484375,0.001204115092754364,-0.022317045748233795,-0.00371785147935152
1769666842033075700,7.05307568359375,0.006623802053928375,-0.018808818431571124,-0.011740998937189578
1769666842043064600,7.063064697265625,0.03551905714869499,-0.015539587502554058,-0.023559300894290206
1769666842053052700,7.073052734375,0.09085048374831677,-0.030296719390526413,-0.019360972421616315
1769666842063041800,7.083041748046875,0.025197569620609282,-0.026776801636070012,0.014632190334051847
1769666842073030700,7.09303076171875,0.07986322578787804,-0.017795841996744274,-0.020274434004724024
1769666842083018800,7.103018798828125,0.10666823060512542,-0.0236098620377481,-0.031414836700260636
1769666842093008000,7.1130078125,0.051662967219948765,-0.03880852714814245,-0.007571165906637907
1769666842102995700,7.12299560546875,0.025358897662162778,-0.02593603996299207,-0.0018295535147190092
1769666842112984600,7.132984619140625,0.01196048690676689,-0.03476012854017317,-0.0028220716834068296
1769666842122972700,7.14297265625,-0.009006313276290893,-0.03433050495125353,-0.011347761835902928
1769666842132961800,7.1529619140625,-0.01950783354640007,-0.010930559337139129,-0.012615005292743444
1769666842142950000,7.162949951171875,-0.0018926818788051604,-0.019409487738460303,-0.011090133813023567
1769666842152938500,7.1729384765625,0.00857376707792282,-0.03621230010986328,-0.007976385706663132
1769666842162926600,7.182926513671875,0.0208528184145689,-0.02669759892001748,-0.0026367782443761823
1769666842172915700,7.192915771484375,0.021136311531066893,-0.023367358518764376,0.010946049167215824
1769666842182903800,7.20290380859375,0.03291208952069282,-0.011062222892791032,-0.0009629998132586479
1769666842192892700,7.212892578125,0.03520575341582298,-0.02652363059259951,-0.01485796191394329
1769666842202880500,7.222880615234375,0.038384383451938626,-0.035244331860542294,-0.010917992116510868
1769666842212869600,7.23286962890625,0.04055179061889648,-0.023024828691408036,-0.021187018804997206
1769666842222858800,7.242858642578125,0.025912439891695976,-0.02283873153477907,-0.0022796353697776793
1769666842232846800,7.252846923828125,0.04055412870645523,-0.03524849657900631,-0.0016970131762325763
1769666842242835700,7.262835693359375,0.029642858591675758,-0.027095146870240568,-0.0019219079732894896
1769666842252823600,7.272823486328125,-0.013737433451414108,-0.027513664543256162,0.008672551277279854
1769666842262812700,7.282812744140625,-0.01878185735940933,-0.03172843269407749,0.0026654198169708252
1769666842272800800,7.29280078125,0.01077975268959999,-0.024470935846492646,0.000687543872743845
1769666842282789600,7.30278955078125,0.05595043528079986,-0.02084755771756172,-0.012789923468232154
1769666842292777700,7.31277783203125,0.014429507368803024,-0.029100203082337975,-0.013413462194055318
1769666842302766800,7.322766845703125,0.02070610342025757,-0.02390409574396908,-0.0095430505014956
1769666842312754700,7.332754638671875,0.02577098559439182,-0.020669424671679735,-0.028565146357566115
1769666842322743600,7.34274365234375,0.007187281155586242,-0.031844460289180275,-0.010548282021284102
1769666842332731600,7.352731689453125,-0.0026876316487789154,-0.02447824237011373,0.008767974475771188
1769666842342720800,7.362720703125,-0.004719429737329483,-0.02101436565183103,-0.0001876315265893936
1769666842352708900,7.372708984375,0.0478185667514801,-0.028639965159445998,0.010800649347156285
1769666842362697700,7.38269775390625,0.04477028509676456,-0.029988895550370216,0.00984583284035325
1769666842372686800,7.392686767578125,0.048184477454423905,-0.02624693254306912,-0.010086801989376544
1769666842382675000,7.402675048828125,0.04970774149894714,-0.040302565098181364,-0.027582126669585705
1769666842392663800,7.412663818359375,0.046828386670351024,-0.028297800658270714,-0.031466859148442744
1769666842402652000,7.42265185546875,0.0552384876191616,-0.017446370971947907,-0.01664879085347056
1769666842412640800,7.432640869140625,0.02655015327334404,-0.023940920623019335,-0.009557517418265342
1769666842422628900,7.44262890625,0.019631752187013626,-0.03247632845193148,-0.008117693873494864
1769666842432618000,7.452617919921875,0.04420037625432014,-0.04393310362026095,-0.01564823550879955
1769666842442605800,7.462605712890625,0.014220248532295227,-0.03888970262557268,-0.011283026036620139
1769666842452594700,7.4725947265625,-0.00184825821518898,-0.030559608110412955,-0.00791851803958416
1769666842462582800,7.482582763671875,-0.004055412870645523,-0.014096622152626513,0.007898498164862393
1769666842472572000,7.492572021484375,0.043811669197678565,-0.0054073389362543816,-0.003256809838861227
1769666842482560000,7.50256005859375,0.11688684228062629,-0.029075507032498716,-0.023313947831094264
1769666842492548900,7.512548828125,0.12038579031229019,-0.02991641483604908,-0.036936668861657376
1769666842502536700,7.52253662109375,0.0615127455830574,-0.018316212609037756,-0.030354075600951907
1769666842512525800,7.53252587890625,0.037870004189014435,-0.027553923488408325,-0.019535890597105025
1769666842522514000,7.542513916015625,0.052121816903352734,-0.03588350654691458,-0.008552139768004417
1769666842532502800,7.552502685546875,0.05469605130553245,-0.03257876591309905,0.001557166314125061
1769666842542492000,7.562491943359375,0.03531447448730469,-0.025777561465650797,0.007665858452767133
1769666842552479700,7.572479736328125,-0.038891748452186584,-0.03253507290184498,-0.0003495440900325775
1769666842562468900,7.58246875,0.06231938579082489,-0.019895371559262274,-0.005147007499635219
1769666842572457000,7.59245703125,0.10565116251707077,-0.030983971002325413,-0.041891514790058135
1769666842582445800,7.60244580078125,0.0441629668533802,-0.023857187862321733,-0.025103461596369742
1769666842592434000,7.612433837890625,0.03493804239034653,-0.023094679057225585,-0.0008073708601295948
1769666842602423000,7.622423095703125,0.013425298762321472,-0.015537614741176367,0.004516600641608238
1769666842612411000,7.632410888671875,0.01281271982192993,-0.017485095547139645,0.013798223727941513
1769666842622399700,7.642399658203125,0.01841594665646553,-0.02645977157615125,0.022416560599952933
1769666842632387800,7.652387939453125,-0.03044657618999481,-0.02870221674069762,0.013364508485794067
1769666842642377000,7.662376953125,-0.03925006037056446,-0.039878567532449956,-0.008875818764418363
1769666842652364800,7.67236474609375,0.014302081596851347,-0.04776172199770808,-0.026722002708911893
1769666842662353700,7.682353759765625,0.06497779134511947,-0.04060227869711816,-0.028127193331718443
1769666842672341800,7.692341796875,0.04678337848484516,-0.030152853940427302,-0.031643530889600514
1769666842682331000,7.702330810546875,-0.011792144602537155,-0.016848697339743375,0.0035277357347309585
1769666842692319700,7.71231982421875,-0.0015115736067295073,-0.01682714309506118,0.018989216499775648
1769666842702307800,7.722307861328125,0.04681260457932949,-0.019697364769130945,0.005771276877820491
1769666842712296700,7.732296630859375,0.03185527394413948,-0.02362418282404542,-0.0019170856676995753
1769666842722284800,7.742284912109375,0.04006137675344944,-0.030237536549195646,-0.011677578312158585
1769666842732274000,7.75227392578125,0.055637131547927855,-0.036289895390719175,-0.028656477902829644
1769666842742261800,7.76226171875,0.04188099339604377,-0.026420024087652563,-0.008519260411709547
1769666842752251000,7.7722509765625,-0.009095160603523254,-0.017988076633214948,0.011930384029448031
1769666842762238700,7.78223876953125,-0.04095511072278023,-0.009573664835467934,0.04015519251674413
1769666842772227800,7.792227783203125,-0.03537877189517021,-0.004022387383878231,0.01131225213110447
1769666842782216000,7.8022158203125,-0.0004091653227806091,-0.032151991868391634,-0.017365999212116002
1769666842792204800,7.812204833984375,0.04735094923973083,-0.037123423605412244,-0.030692952166497707
1769666842802193000,7.82219287109375,0.11725392202734947,-0.04442782833464443,-0.037124008127301926
1769666842812182000,7.83218212890625,0.08145780150294303,-0.04064589864313602,0.008974895224720239
1769666842822169900,7.842169921875,-0.0025029227316379545,-0.015140578247606753,0.0038248189851641653
1769666842832158700,7.85215869140625,0.021082535517215728,-0.01800334726758301,0.014774813675135372
1769666842842147800,7.86214794921875,-0.005910685348510742,-0.014405395840853452,0.011532032361626624
1769666842852136000,7.872135986328125,0.06320669001936913,-0.02613127027414739,0.0021650690793991088
1769666842862124800,7.882124755859375,-0.0032207156121730803,-0.0398511680688709,-0.038731589454412456
1769666842872112600,7.892112548828125,-0.07954407683610916,-0.004416939659416676,-0.012817834388464688
1769666842882101800,7.902101806640625,0.040619595158100125,-0.03496902205049991,-0.029616993498057125
1769666842892089900,7.91208984375,0.106059158796072,-0.04333316496573388,-0.025906302411854265
1769666842902079000,7.922078857421875,0.0823041891992092,-0.04245587067455053,-0.005904255607724189
1769666842912066800,7.93206689453125,0.017382511955499648,-0.017071254049241542,0.0015421148754656314
1769666842922055700,7.9420556640625,-0.013369769182801246,0.010162132247909903,0.00870689193829894
1769666842932043800,7.952043701171875,0.0378583137512207,-0.0038270840074867006,0.013142682428658008
1769666842942033000,7.962032958984375,0.07307517308294773,-0.019058409278467296,0.00045022798553109167
1769666842952021000,7.97202099609375,0.11489011550545691,-0.020105068787187336,-0.040547406704723836
1769666842962009900,7.982009765625,0.12182897485792636,-0.03204750858061015,-0.0237982242166996
1769666842971997700,7.991997802734375,0.09003741379976272,-0.0280587312053889,-0.022460692002624273
1769666842981986800,8.00198681640625,0.09277765241861342,-0.03486570780649781,-0.0000011690437793731689
1769666842991975700,8.0119755859375,0.06314005452394485,-0.040852965522557495,-0.017051964826881885
1769666843001963800,8.0219638671875,0.0055944590061902996,-0.026479133863747117,-0.009775544083118438
1769666843011953000,8.031952880859375,-0.03563479248285294,-0.026034751097112892,0.007979308316111565
1769666843021941000,8.04194091796875,-0.05227846876978874,-0.02508388011306524,0.005822422543168068
1769666843031929900,8.051929931640625,-0.013272154027223586,-0.03033025633394718,-0.0053352235481143
1769666843041917700,8.061917724609375,0.03688333123922348,-0.03492123738601804,-0.005181202030181884
1769666843051906800,8.07190673828125,0.052532735791802405,-0.02575673787333071,-0.012581979805976152
1769666843061895000,8.08189501953125,0.08498656015098094,-0.03573737607449293,-0.027141397164762018
1769666843071884000,8.091884033203126,0.09315057738423346,-0.024303835651278496,-0.030601182229816913
1769666843081872000,8.101871826171875,0.05855038864612579,-0.036427769491449,-0.00509381600767374
1769666843091860700,8.11186083984375,0.0360720148563385,-0.007297025140374899,-0.008877426199615
1769666843101848800,8.121848876953125,0.007426935130357742,-0.017237769722566007,0.0008348433889448642
1769666843111838000,8.131837890625,-0.024402035328745842,-0.019812077189981937,0.013709668661653995
1769666843121826000,8.141825927734375,0.0012274959683418274,-0.01815145050138235,0.01267769526541233
1769666843131814700,8.151814697265625,0.00421674091219902,-0.02004245187975466,0.009838526316732167
1769666843141802800,8.161802734375,0.018981763845682145,-0.029952655193209648,-0.0073098846219480035
1769666843151791900,8.1717919921875,0.013687164568901062,-0.02902187714911997,0.005601327138394117
1769666843161780700,8.18178076171875,0.0036123452782630917,-0.020484277363121507,0.01843991205394268
1769666843171768800,8.191768798828125,-0.02174479881823063,-0.02355871637240052,0.016099048016220332
1769666843181758000,8.201758056640625,-0.0024970775127410886,-0.01616100733652711,-0.005196107338368892
1769666843191745800,8.211745849609375,0.02873860322833061,-0.019140096212550996,0.0002741407662630081
1769666843201734700,8.221734619140625,0.03636778293251991,-0.012481807367131113,-0.007389233468472957
1769666843211722800,8.23172265625,0.04595861809849739,-0.028367943285033104,-0.01353358144238591
1769666843221712000,8.2417119140625,0.049561611026525496,-0.02904920354746282,-0.016791706455498934
1769666843231700000,8.251699951171876,0.04578443057537079,-0.026673122065886852,-0.01932166332453489
1769666843241688800,8.261688720703125,0.053795887595415114,-0.032322745325416326,-0.001223112054169178
1769666843251676700,8.2716767578125,0.06594985124766826,-0.0196910080935806,-0.002314414422214031
1769666843261665800,8.281665771484375,0.042050504744052884,-0.013396437994018197,-0.015373948612064122
1769666843271654000,8.29165380859375,-0.008197919502854346,-0.010229425330460071,0.012962503556162118
1769666843281643000,8.30164306640625,-0.018922142612934113,-0.022923706404492258,0.007926701346039771
1769666843291630800,8.311630859375,-0.02605564775466919,-0.02600881293825805,0.0007322597973048687
1769666843301619700,8.32161962890625,-0.012072130587697029,-0.031002675702795385,-0.005407265871018171
1769666843311608800,8.33160888671875,-0.0018014964640140532,-0.023945231471955774,-0.004279138623923063
1769666843321597000,8.341596923828124,0.028414778101444244,-0.015523513150587677,-0.008356471065431833
1769666843331585800,8.351585693359375,0.022862404671311377,-0.021747502231970427,-0.009979542222619056
1769666843341573600,8.36157373046875,0.023715222108364103,-0.010733356264606118,-0.006622925271093845
1769666843351562800,8.371562744140626,0.0562625699698925,-0.03159881496503949,-0.013778349983692168
1769666843361550800,8.38155078125,0.06525251663327217,-0.027897330098599193,-0.026042934403568505
1769666843371539700,8.391539794921876,0.036490532529354094,-0.031177520813047883,-0.011673778919875621
1769666843381527600,8.401527587890625,0.02672784792780876,-0.005016805248707533,-0.013815320993214844
1769666843391516700,8.4115166015625,-0.003793547064065933,-0.01850567076653242,-0.007177344283461571
1769666843401504800,8.4215048828125,0.01593055958151817,-0.015450520979613065,-0.0014525368958711623
1769666843411494000,8.431493896484374,0.02994505640864372,-0.025541268491744994,-0.006355798767507076
1769666843421481700,8.441481689453125,0.03557750933766365,-0.03863653158210218,-0.012459084078669547
1769666843431470600,8.451470703125,0.027549101182818413,-0.034237346775084734,-0.014393559272587298
1769666843441458700,8.461458740234375,0.0470341383755207,-0.020780337700247762,-0.020482962188869712
1769666843451447800,8.47144775390625,0.04118190521597862,-0.01065912198461592,-0.026123890685290096
1769666843461436700,8.481436767578124,0.04058452384471893,-0.021182123434171078,-0.0024422785855829714
1769666843471424800,8.4914248046875,0.005768062007427215,-0.0171047179274261,0.010388853675872087
1769666843481413600,8.50141357421875,-0.010910685592889786,-0.03081935502514243,0.010637567739933728
1769666843491401700,8.511401611328125,0.030960955452919006,-0.024938699488714335,0.0008919804036617279
1769666843501390600,8.521390625,0.060842883497476574,-0.028502748645842072,-0.02434066053032875
1769666843511378700,8.531378662109375,0.06282675079107285,-0.0321592253267765,-0.0067991586208343505
1769666843521367800,8.541367919921875,0.034893618726730344,-0.027839827757701278,-0.002591039406508207
1769666843531355600,8.551355712890626,0.0071522098422050475,-0.026026933116838333,-0.0015011983431875704
1769666843541344800,8.5613447265625,-0.009238952988386154,-0.019841303284466264,0.002876432219147682
1769666843551332600,8.57133251953125,-0.010903671330213546,-0.005534910838678479,-0.01448518307879567
1769666843561321700,8.58132177734375,0.04593348365724086,-0.035644583224505186,0.001450198808312416
1769666843571309800,8.591309814453124,-0.008161094623804092,-0.024043796475604177,0.005342822332680225
1769666843581298700,8.601298583984375,0.02465045713186264,-0.026974296969547867,-0.022209055329114196
1769666843591286800,8.611286865234375,0.08648352071046829,-0.0362941331744194,-0.03165390615314245
1769666843601275600,8.621275634765626,0.08614215992689132,-0.02313698382899165,-0.010007160881906747
1769666843611264800,8.6312646484375,0.04946341134905815,-0.02668605461269617,-0.025348668529093264
1769666843621252900,8.6412529296875,0.021675240713357923,-0.02805778135731816,-0.004934679923206568
1769666843631241700,8.65124169921875,-0.0021370120286941527,-0.02202354269437492,0.007931377521157265
1769666843641229600,8.6612294921875,0.015238485664129256,-0.016158961509913205,0.0018514730855822563
1769666843651218700,8.67121875,-0.0063636898130178445,-0.01112863919250667,-0.0011028466753661632
1769666843661206800,8.681206787109375,0.0004658639460802078,-0.006203092423826456,0.013171762392669916
1769666843671195600,8.691195556640626,0.012011924833059311,-0.020193623853474854,-0.008258417518436909
1769666843681183700,8.701183837890625,0.03658873220682144,-0.018889628582820294,0.01880655340924859
1769666843691172600,8.711172607421876,0.021490531796216964,-0.015096154583990573,0.005520955378562212
1769666843701160700,8.72116064453125,0.020257190608978272,-0.023928499532863495,-0.017037790171056985
1769666843711149600,8.731149658203124,0.06875497179627418,-0.032228491170704365,-0.03469108189195394
1769666843721137700,8.7411376953125,0.08449380819797515,-0.031098537292703985,-0.03276522839590907
1769666843731126800,8.751126708984375,0.07930442286133765,-0.015028861501440406,-0.014684066651761531
1769666843741114600,8.761114501953125,0.04822071781158447,-0.01666099274791777,-0.006775485484302043
1769666843751103700,8.771103759765625,0.012914426630735396,-0.02701455591470003,-0.007410422386974096
1769666843761091600,8.781091552734376,-0.006188917768001556,-0.034783290220052,-0.005234831913560629
1769666843771080700,8.791080810546875,-0.0012415244936943054,-0.025387393104285002,-0.001583615929633379
1769666843781069800,8.80106982421875,0.010749357551336288,-0.006529840160161256,0.013881371966749429
1769666843791058000,8.811057861328125,0.042295419415831564,-0.0162419636182487,-0.008106587957590818
1769666843801046500,8.821046630859374,0.07632569931149483,-0.01611212669350207,-0.01787891717031598
1769666843811034600,8.83103466796875,0.042538580521941184,-0.03467814934514463,-0.017909020047634838
1769666843821023700,8.841023681640625,0.005799626189470291,-0.0029649142201989887,-0.010749503681808709
1769666843831011800,8.85101171875,-0.0027449147939682004,-0.04155936022624373,0.0007144318796694279
1769666843841000700,8.861000732421875,0.011177227574586867,-0.04334032535888254,-0.003960866454988718
1769666843850988500,8.870988525390626,0.030904256829619406,-0.022819588442891836,-0.015944149715453385
1769666843860977700,8.880977783203125,0.022032968109846115,-0.02584280872158706,-0.014042846138775348
1769666843870965800,8.8909658203125,-0.006385901644825935,-0.02553030870631337,0.015566110183298587
1769666843880954600,8.90095458984375,-0.031360768425464626,-0.011741291198134421,0.014059212751686572
1769666843890942700,8.910942626953124,0.022104279780387877,-0.022251579296588896,-0.005526362206041813
1769666843900931600,8.920931640625,0.03412555696368217,-0.027338892498239873,-0.010710340715199709
1769666843910919700,8.930919677734375,0.014875497570633887,-0.021988544446229934,-0.017401655047386885
1769666843920908800,8.94090869140625,0.02027940244078636,-0.009894128961488604,-0.00037760114073753353
1769666843930897700,8.950897705078125,0.05462590867877006,-0.003379778631404042,-0.014558248315006494
1769666843940885800,8.9608857421875,0.08637187702953815,-0.01920337070710957,-0.019559855994582175
1769666843950875000,8.970875,0.059042556077241896,-0.021740122643113136,-0.020177403371036053
1769666843960862700,8.98086279296875,0.025022213053703307,-0.008866831740364432,-0.004160919071733951
1769666843970851600,8.9908515625,-0.0008814590096473693,-0.035745705511420964,0.0055916825272142884
1769666843980839700,9.000839599609375,-0.008165770798921584,-0.01868687255233526,0.011024959622323513
1769666843990828800,9.010828857421876,0.020749358040094375,-0.027506065758690235,0.002428542321175337
1769666844000817000,9.02081689453125,0.03631809857189655,-0.029530922649800777,-0.013963497292250394
1769666844010805500,9.030805419921874,0.03210837192237377,-0.009879150588065386,-0.007195464462041855
1769666844020793600,9.040793701171875,0.04898527244329452,-0.006742167736589908,-0.006867693812400102
1769666844030782700,9.05078271484375,0.02151858884692192,-0.01721037025898695,0.00015066051706671713
1769666844040770800,9.060770751953125,0.006823708540201187,-0.032602877441048624,0.011584493201225995
1769666844050759700,9.070759765625,-0.002650222247838974,-0.018664222329109907,0.01869301003217697
1769666844060747500,9.08074755859375,0.03942366337180137,-0.011089768486842512,-0.013528320745378733
1769666844070736600,9.090736572265625,0.09259235897958278,-0.02170417454689741,-0.024543635756522415
1769666844080724700,9.100724853515626,0.10166004705429077,-0.030806495543569325,-0.032335166415572165
1769666844090713900,9.1107138671875,0.06496259377598762,-0.017117577408999204,-0.021163930190354584
1769666844100702700,9.12070263671875,0.013467384338378905,-0.012598565614596009,-0.004172901770472527
1769666844110690600,9.130690673828125,-0.021145663881301877,-0.02660992063656449,0.025764994245022533
1769666844120679700,9.1406796875,-0.01842296091914177,-0.033613296592608095,0.0024320494525134563
1769666844130667800,9.150667724609375,-0.024091654205322263,-0.019436741071566937,-0.0026551906839013097
1769666844140656600,9.16065673828125,0.032307693886756896,-0.00533171641677618,-0.00902472571581602
1769666844150644700,9.170644775390626,0.07555413041710853,-0.010538052888214588,-0.02768850965350866
1769666844160633900,9.1806337890625,0.09208674754500389,-0.03223462865054607,-0.023493396051228046
1769666844170621700,9.19062158203125,0.05874912608861923,-0.026270824875310062,-0.01469999487325549
1769666844180610600,9.200610595703125,0.03478606669902801,-0.02926153112389147,0.014851970564574003
1769666844190598700,9.2105986328125,0.016318682116270064,-0.026552418295666572,0.006483516800403595
1769666844200587800,9.220587890625,-0.004337152421474456,-0.028398338423296806,-0.01583455186113715
1769666844210576000,9.230575927734375,-0.01768354072868824,-0.01654196947813034,0.007134820315986871
1769666844220564500,9.240564453125,0.0498445196211338,-0.02469831486158073,-0.01066518639922142
1769666844230552600,9.250552490234375,0.08793021238744259,-0.014413140755891798,-0.016853227384388447
1769666844240541700,9.260541748046874,0.09259411254525184,-0.029518939951062202,-0.027574527885019778
1769666844250530800,9.27053076171875,0.06026946752369403,-0.023906214635819194,-0.017822510807961225
1769666844260519000,9.280518798828124,-0.012962357425689696,-0.030323607397451994,0.03200111215561628
1769666844270507800,9.2905078125,-0.031131635844707486,-0.028660788751766083,0.02608151284828782
1769666844280495600,9.30049560546875,-0.005671031373739242,-0.02114391031563282,0.02440934185236692
1769666844290484700,9.310484619140626,0.021145663881301877,-0.01289864453971386,0.0024831951178610322
1769666844300472800,9.320472900390625,0.013017302483320236,-0.02378755669221282,-0.004803162498027086
1769666844310461700,9.330461669921876,0.0008025485545396804,-0.014759031584113836,-0.00585018733292818
1769666844320449500,9.340449462890625,-0.01563011533021927,-0.00449994176775217,0.004387567434459925
1769666844330438700,9.350438720703124,0.02945756515264511,-0.016272431821748614,-0.0200447169020772
1769666844340426800,9.3604267578125,0.06859072114527225,-0.02123546105660498,-0.05227700746506452
1769666844350415600,9.37041552734375,0.1206815583884716,-0.03184643305055797,-0.020899287904798985
1769666844360403700,9.38040380859375,0.08693009543418884,-0.035568449248373504,-0.00020911270603537558
1769666844370392800,9.390392822265625,-0.005581599524617195,-0.03142097418010235,0.006250146435946226
1769666844380380700,9.400380615234376,0.09084054687619209,-0.030398280068859456,-0.03570449671819806
1769666844390369500,9.41036962890625,0.06955342869758606,-0.026446692898869514,-0.03002835077792406
1769666844400358700,9.420358642578124,-0.008511807757616043,-0.023222762416303156,-0.009872720847278834
1769666844410346500,9.430346435546875,-0.03969488152861595,-0.029230186137557027,-0.007585048301517963
1769666844420335600,9.440335693359375,-0.04089782757759094,-0.02149016647003591,-0.0022607845388352868
1769666844430323700,9.45032373046875,-0.033336452412605286,-0.0005592413179576396,0.03125789257287979
1769666844440312600,9.4603125,0.03556815698742866,-0.014090703868493436,0.007339987499266862
1769666844450300700,9.47030078125,0.053170449173450464,-0.036722149328142405,-0.020648674144595862
1769666844460289500,9.48028955078125,0.019703063857555388,-0.01806464900076389,-0.012009148354083298
1769666844470277600,9.490277587890626,-0.014898293924331665,-0.0207826027225703,-0.011686492270976304
1769666844480266500,9.5002666015625,0.023556232154369354,-0.014949585720151662,0.000761047500371933
1769666844490254600,9.510254638671874,0.08422726621627807,-0.012730521431192755,-0.008377075462043285
1769666844500243700,9.52024365234375,0.11460954499840735,-0.01882978815436363,-0.023949469255656
1769666844510231600,9.5302314453125,0.09202186561524868,-0.016427330122515557,-0.019689765984565018
1769666844520220400,9.540220458984376,0.02575403445959091,-0.029286007978022097,-0.005948387010395527
1769666844530208500,9.55020849609375,-0.010410334855318068,-0.0224649297863245,-0.007106324873864651
1769666844540197600,9.56019775390625,-0.01801145750880241,-0.030409020658582447,-0.0031574411176145075
1769666844550185700,9.570185791015625,-0.017802198672294614,-0.02083784004114568,0.003077215488255024
1769666844560174600,9.580174560546874,-0.0023076924204826353,-0.015994783924147486,0.0015717793613672256
1769666844570163500,9.59016357421875,0.017471943804621696,-0.026415859369188544,0.0012764496766030787
1769666844580151600,9.600151611328124,0.030046763217449188,-0.022723726852983236,0.0048706747762858865
1769666844590140700,9.610140625,0.05135258609652519,-0.022351021083071826,-0.004725128825753927
1769666844600128800,9.620128662109375,0.08976970277428627,-0.010947948863357305,-0.015915654273331165
1769666844610117600,9.63011767578125,0.04487725260257721,-0.01690766098536551,-0.011159984178841113
1769666844620105500,9.64010546875,0.07137421438395977,-0.033997765865549444,-0.02184358301758766
1769666844630094600,9.650094482421874,0.08051087604165076,-0.020446721831709144,-0.026487901692092416
1769666844640082700,9.660082763671875,0.016428572231531144,-0.011079247092828154,-0.00813961344435811
1769666844650071600,9.670071533203124,-0.006374211207032203,-0.020219415881857276,0.01066255605071783
1769666844660059600,9.6800595703125,0.012176760005950927,-0.02824680112339556,0.004359218122810125
1769666844670048500,9.690048583984375,-0.01850479398369789,-0.010943418818712233,0.01699117455035448
1769666844680036600,9.70003662109375,0.034579145950078966,-0.04601239411234855,0.0013604746982455252
1769666844690025500,9.710025390625,0.05075169759392738,-0.04833126551397145,-0.01691854770556092
1769666844700013600,9.720013671875,0.04434299959540367,-0.017697350058332086,-0.008791501481831073
1769666844710002700,9.730002685546875,0.024310265392065048,-0.02507489308901131,-0.0018250234700739382
1769666844719990500,9.739990478515624,-0.0168225399851799,-0.03008884879350662,-0.002370966915041208
1769666844729979400,9.7499794921875,-0.0010907178461551665,-0.022519509517773983,0.006143325060606003
1769666844739968500,9.759968505859375,0.02913432454764843,-0.012349486224353314,-0.015617255848646164
1769666844749956600,9.76995654296875,0.038788872599601745,-0.013791428660973905,-0.01945639562010765
1769666844759945700,9.77994580078125,0.06005260990262031,-0.02863799239806831,-0.02478825816735625
1769666844769933800,9.789933837890626,0.06576221972107887,-0.017206716997176408,-0.010132394696772098
1769666844779922400,9.79992236328125,0.04288052582740783,-0.030400983482599255,-0.005878682775050401
1769666844789910500,9.80991064453125,0.01601297716796398,-0.027353286349773406,0.002539455349743366
1769666844799899600,9.819899658203125,0.008443418696522712,-0.025362258663028478,0.008085691300034522
1769666844809887700,9.8298876953125,0.02867547486424446,-0.030395284394174812,-0.011178981140255928
1769666844819876600,9.839876708984375,0.023780688560009002,-0.02463182549662888,-0.011451660601794719
1769666844829864400,9.849864501953125,0.005844049853086471,-0.02248429207392037,-0.0031457506798207757
1769666844839853600,9.859853515625,0.01919452981352806,-0.031198198274895547,-0.006650251669436693
1769666844849841700,9.869841552734375,0.03900514569878578,-0.026143472168594598,-0.020742636038362978
1769666844859830500,9.87983056640625,0.0371089566886425,-0.03377250574231148,-0.016597791318595408
1769666844869818600,9.889818603515625,0.04222293870151043,-0.027859116980060935,-0.005933335571736097
1769666844879807500,9.899807373046874,0.04300970516502857,-0.026691096113994717,-0.026037527576088904
1769666844889796600,9.909796630859375,-0.0178115510225296,-0.0067402680404484265,0.007926262954622506
1769666844899784400,9.919784423828125,-0.01621814435124397,-0.009327727250382304,0.023027093713730573
1769666844909773600,9.929773681640626,-0.020047931772470474,-0.007744403581693768,0.016339140382409096
1769666844919761700,9.93976171875,0.032031799554824825,-0.011725947498530148,-0.007715981204807758
1769666844929750800,9.949750732421874,0.07885200291872024,-0.02647927999421954,-0.013609715418517588
1769666844939738600,9.959738525390625,0.04471709360480308,-0.030996976614370942,-0.005476239454001188
1769666844949727500,9.9697275390625,0.06363689813017845,-0.02555515088662505,0.0032644086234271522
1769666844959715600,9.979715576171875,0.0893845028489828,-0.02806399190239608,-0.0030310382589697838
1769666844969704700,9.98970458984375,0.035271219867467875,-0.021033070352301002,-0.005927636483311653
1769666844979692800,9.99969287109375,0.0307084419965744,-0.009941402169317007,-0.015531623391807078
1769666844989681400,10.009681396484375,0.022205986589193344,-0.018301234235614538,-0.012317483650892972
1769666844999669500,10.01966943359375,0.007426935130357742,-0.018734364955872298,-0.015077449883520602
1769666845009658600,10.02965869140625,0.03610708616971969,-0.019852847591787577,-0.00566109450161457
1769666845019646700,10.039646728515624,0.019992986714839935,-0.01184146363697946,0.005036825123429298
1769666845029635600,10.049635498046875,0.016935937231779098,-0.021912629665806888,0.0020731530122458934
1769666845039624700,10.059624755859375,0.016775193712115288,-0.027628011637926102,0.0024925474680960176
1769666845049612500,10.069612548828125,0.04476151726841926,-0.02314063709080219,-0.012775018160045146
1769666845059601700,10.0796015625,0.03572597789764404,-0.042379006046056746,-0.024872283188998697
1769666845069589500,10.089589599609376,0.08040800018906592,-0.02782156144864857,-0.01362842011898756
1769666845079578600,10.09957861328125,0.054611880153417586,-0.022898425832763313,-0.025985943519324064
1769666845089566500,10.10956640625,0.015190554869174956,-0.012969079427421093,0.00967354501336813
1769666845099555600,10.1195556640625,0.04846154083013534,-0.010447963451966642,-0.0022043781764805315
1769666845109543700,10.129543701171874,0.05316928012967109,-0.0213341721907258,0.012355039182305336
1769666845119532500,10.139532470703125,0.002567220139503479,-0.019658420998230574,0.01753346473351121
1769666845129520600,10.149520751953125,-0.013651508733630179,-0.03088153354115784,0.011573533415794372
1769666845139509800,10.159509765625,-0.0493739794999361,-0.03377477076463401,0.02118219649940729
1769666845149497600,10.16949755859375,-0.09330255307555198,-0.02518237205147743,0.0076790101952850815
1769666845159486500,10.179486572265626,-0.006287117445468902,-0.028511589539423583,-0.008306202182918786
1769666845169474600,10.189474609375,0.12502338698506354,-0.035886063830181954,-0.0013533143050968646
1769666845179463700,10.199463623046874,0.1447965934693813,-0.030541999388486146,-0.0015520517475903033
1769666845189451800,10.20945166015625,0.12128361593484878,-0.023804361696541307,-0.018143851716816425
1769666845199440400,10.2194404296875,0.1137315931200981,-0.026803835773468017,-0.0004417524181306362
1769666845209429500,10.229429443359376,0.042599955320358276,-0.026154943410679695,0.0034852117672562596
1769666845219417600,10.23941748046875,-0.016624971586465833,-0.021077859342098236,0.006488777497410773
1769666845229406700,10.24940673828125,-0.01492459740936756,-0.019382526666298507,-0.0045553252167999745
1769666845239394600,10.25939453125,-0.050740591678023333,-0.02986958001963794,0.00639700756072998
1769666845249383700,10.2693837890625,-0.0021978023052215577,-0.018683146225288508,0.0027747254103422164
1769666845259371500,10.27937158203125,0.09260112680792808,-0.025052388996258376,-0.02173164707571268
1769666845269360600,10.289360595703124,0.092011928743124,-0.011161518548801541,0.009072510380297898
1769666845279348700,10.2993486328125,0.10151625466942786,-0.0137562842823565,-0.008449263915419577
1769666845289337600,10.309337646484375,0.07156359947621822,-0.009316036812588573,-0.015302198550105095
1769666845299325400,10.319325439453126,0.044267011749744414,-0.020942104133218526,-0.01870893825367093
1769666845309314600,10.329314453125,0.07552899597585201,-0.03309913652539253,-0.030350130078196525
1769666845319302700,10.339302734375,0.03261164526939392,-0.02857683679535985,-0.023053981720656154
1769666845329291500,10.34929150390625,0.007988076144456863,-0.03084975016340613,0.00664820584282279
1769666845339279600,10.359279541015624,-0.004608370578289032,-0.03398782899342477,0.02640636088848114
1769666845349268700,10.369268798828125,0.012329904741048812,-0.027515929565578696,0.007724310641735792
1769666845359257600,10.379257568359375,0.027055180186033246,-0.023075609030574557,-0.0074463704831898205
1769666845369245400,10.389245361328125,-0.010303367349505424,-0.03237199129462242,-0.007458791573345661
1769666845379235300,10.3992353515625,-0.06875730988383293,-0.026547376794368027,0.007792115180939436
1769666845389223200,10.40922314453125,-0.09127192403078078,-0.011465542996674776,0.0033076632432639595
1769666845399212000,10.4192119140625,-0.060473465663194656,-0.018778788619488476,0.002477203768491745
1769666845409200000,10.4292001953125,0.04555471347272396,-0.022283654935285446,0.0011531155578792095
1769666845419189200,10.439189208984375,0.09405424822568893,-0.021048267921432853,-0.014672668474912642
1769666845429177300,10.44917724609375,0.11563713448047637,-0.03266834389269352,-0.02837356930822134
1769666845439166200,10.459166259765626,0.08335048338174819,-0.04636361870281398,-0.02605389418900013
1769666845449154000,10.469154052734375,0.020669863063097,-0.03307078721374273,-0.012494301522523165
1769666845459143200,10.47914306640625,0.044618893927335736,-0.020381912967190146,-0.007808920185267925
1769666845469131300,10.48913134765625,0.08515607149899006,-0.016846870708838103,-0.0023889409631490705
1769666845479120100,10.4991201171875,0.03638648763298988,-0.004750044071301818,0.01586217052042484
1769666845489108200,10.509108154296875,-0.007106617134809493,-0.008111483328416944,-0.0017110417015850543
1769666845499097000,10.51909716796875,-0.06258183611929416,-0.025000804939493537,0.0030703473560512065
1769666845509086200,10.529086181640626,-0.08772738329172133,-0.028272666217014193,-0.007751052518188953
1769666845519074300,10.53907421875,-0.033169863674044606,-0.03523139931373298,-0.014117957201600074
1769666845529063200,10.549063232421876,0.03589022854864597,-0.022099092148616908,-0.018340835593640803
1769666845539051300,10.55905126953125,0.044333062723279,-0.02240260513983667,-0.013328560389578342
1769666845549040400,10.569040283203124,0.11289689586162567,-0.018824016000702975,0.013338351131230592
1769666845559028200,10.5790283203125,0.0854635300129652,-0.010882628542184828,0.007255670216679572
1769666845569017000,10.58901708984375,0.03767360483407974,-0.01717412990182638,-0.01531958807632327
1769666845579005200,10.599005126953125,-0.03593114508092403,-0.022311054398864508,-0.017597031489014623
1769666845588994300,10.608994384765625,-0.03216039437055587,-0.023761691598594186,0.000054214405268430705
1769666845598982100,10.618982177734376,0.0031797990798950195,-0.034838673669099804,0.0005427285745739937
1769666845608971000,10.628970947265625,0.015032733958959578,-0.02234510279893875,0.007968786922097206
1769666845618959000,10.638958984375,0.015628946286439894,-0.025042671319842336,0.018619068013131616
1769666845628948200,10.6489482421875,0.030035072779655454,-0.0373735989741981,0.014603987152874469
1769666845638936300,10.658936279296874,0.08626666308939457,-0.04586202585622668,0.0038857553921639917
1769666845648925200,10.66892529296875,0.1335480542242527,-0.02252791201993823,-0.01922843208312988
1769666845658913000,10.6789130859375,0.07019289564490318,-0.021653905664384365,-0.009099690648168325
1769666845668902100,10.688902099609376,0.013256371936202048,-0.023218013175949452,-0.009914806423336267
1769666845678891300,10.698891357421875,0.04703998359441757,-0.022323402423784135,0.013057049971818923
1769666845688879400,10.70887939453125,0.057608139359951016,-0.024362580101191997,0.005419979222118854
1769666845698868200,10.7188681640625,-0.03215396462976932,-0.028056612313538787,-0.010587006596475839
1769666845708856000,10.72885595703125,-0.022864158236980438,-0.02980623245984316,0.007205839725583791
1769666845718845200,10.73884521484375,0.034440029740333555,-0.025060133911296724,-0.004122779018431902
1769666845728833300,10.748833251953124,0.1352864223241806,-0.02835596058629453,-0.030260113707184788
1769666845738822100,10.758822265625,0.1367103176474571,-0.029563436679914592,-0.03400280736684799
1769666845748810200,10.768810302734375,0.0556394696354866,-0.03188866475708783,-0.010985212133824824
1769666845758799400,10.77879931640625,0.006361936247348785,-0.012864230813458562,-0.00016556582525372503
1769666845768787200,10.788787109375,-0.07708908489942551,-0.02616670691370964,0.028292174635082483
1769666845778776000,10.798776123046874,-0.06732581577599048,-0.011279738100990653,0.018597148442268372
1769666845788764200,10.80876416015625,-0.04092646915018558,-0.03453063063323498,0.010065466940402983
1769666845798753300,10.818753173828124,0.00410392818748951,-0.03164806093424558,-0.00021013561934232712
1769666845808741000,10.8287412109375,0.028977088159322737,-0.01949088241159916,-0.018089637311547994
1769666845818730200,10.838730224609375,0.0992097312927246,-0.027613471655920145,-0.03255363147184252
1769666845828718000,10.848718017578125,0.1330728379279375,-0.03054587184600532,-0.04013225003257394
1769666845838707200,10.858707275390625,0.0652209524512291,-0.027407500755041836,-0.05301394343748688
1769666845848696300,10.8686962890625,0.05602759217023849,-0.013563026732578873,-0.024283377385139464
1769666845858684400,10.878684326171875,0.047798693007230754,-0.017672361747547983,-0.003841039467602968
1769666845868673300,10.88867333984375,-0.03666822718381881,-0.020573343886062502,0.0015675415776669978
1769666845878661000,10.8986611328125,-0.056580549877882,-0.01180149695277214,0.020108137527108192
1769666845888650200,10.908650146484375,-0.011257891595363617,0.0013658084604889153,0.017191519428044557
1769666845898638300,10.918638427734376,-0.002998597294092178,-0.01749795502871275,-0.017438187665492294
1769666845908627200,10.928627197265625,0.01332476099729538,-0.031056159455701705,-0.016366759041696786
1769666845918615000,10.938614990234376,0.005467617756128311,-0.03655928691662848,0.009146452399343252
1769666845928604200,10.948604248046875,-0.030195816299319264,-0.021554390812665223,0.025409312675148246
1769666845938592300,10.95859228515625,-0.026470073774456978,-0.013470672274008392,0.012302139951288699
1769666845948581000,10.9685810546875,0.011608604729175567,-0.006086553372070193,0.012340280004590748
1769666845958569200,10.9785693359375,0.06567687952518463,-0.013090367719531058,-0.019446458747982977
1769666845968558300,10.988558349609375,0.14942834492325782,-0.017837635311856864,-0.020298253271728753
1769666845978546200,10.998546142578125,0.09844576118290424,-0.019508929524943232,-0.01143500172793865
1769666845988535000,11.00853515625,0.05778583401441574,-0.015758417885005472,-0.01940495769381523
1769666845998524200,11.018524169921875,0.04958265381455421,-0.024692323512211442,-0.02913169419914484
1769666846008512300,11.02851220703125,0.017525135296583175,-0.028134426790103313,-0.0043215164609253405
1769666846018501400,11.03850146484375,-0.01586743121743202,-0.027763255390152335,-0.0027514906652271747
1769666846028489200,11.0484892578125,0.0015057283878326415,-0.02310322768986225,-0.012557429886609316
1769666846038478000,11.05847802734375,0.007547346639633178,-0.02019406224489212,0.0036244741074740886
1769666846048466200,11.068466064453125,0.047376668202877045,-0.006328837695345283,0.006468757622689008
1769666846058455300,11.078455322265626,0.029706571477651593,-0.01453844763599336,0.0024510464139282703
1769666846068443400,11.088443359375,0.015502689558267592,-0.018986513086035845,0.002216945397108793
1769666846078432300,11.098432373046874,0.0473000958353281,-0.014170418041199445,0.01749547081068158
1769666846088420000,11.108420166015625,0.042916181662678715,-0.011600932879373431,-0.004740910916775465
1769666846098409200,11.1184091796875,0.014060089534521102,-0.028678397473692892,0.00041281858459115024
1769666846108397300,11.128397216796875,0.03661035951673984,-0.01992949302457273,0.014826982253789901
1769666846118386200,11.13838623046875,0.024941549032926558,-0.014730316946282983,-0.002717880656570196
1769666846128374000,11.1483740234375,0.01669043803811073,-0.04030176138058304,-0.00655059068724513
1769666846138363100,11.158363037109375,0.019323709151148796,-0.02401771218627691,-0.007120937921106815
1769666846148351200,11.168351318359376,0.046857028242945666,-0.02112637465894222,-0.018499094895273446
1769666846158340000,11.178340087890625,0.05324526797533035,-0.039278482747450466,-0.016594138056784866
1769666846168329200,11.1883291015625,0.016090718579292295,-0.0368969944383949,-0.0007660159364342689
1769666846178317300,11.1983173828125,0.01542962432205677,-0.03064721332862973,-0.0039461072772741315
1769666846188306200,11.20830615234375,0.08185060021281242,-0.020458850660920142,-0.013158610650151966
1769666846198294300,11.218294189453125,0.06466331856846809,-0.02530387953929603,-0.030399668308347463
1769666846208283100,11.228283203125,0.03234159615635872,-0.015690978671982884,-0.013702362138032912
1769666846218271200,11.238271240234376,0.026226912668347358,-0.017769246250763534,0.0013834171824157237
1769666846228260400,11.24826025390625,0.03525251516699791,-0.03012063217125833,-0.006580839695036411
1769666846238248200,11.258248291015626,-0.018989947152137754,-0.019020196159929035,-0.0006299684666097164
1769666846248237000,11.268237060546875,-0.0022626842349767686,-0.013693155918270349,0.0035711364850401876
1769666846258225200,11.27822509765625,0.03479366548359394,0.00081759999319911,0.007195610592514276
1769666846268214300,11.28821435546875,0.045213352689146995,-0.029109336236864326,-0.014406564884632826
1769666846278202400,11.298202392578125,0.0007359130591154098,-0.03415865551568568,-0.015413988361507654
1769666846288191200,11.308191162109376,0.007473696881532668,-0.022215338939428328,0.005642243670672178
1769666846298179000,11.318178955078125,0.03308218539059162,-0.022824264618009328,-0.0016593115143477915
1769666846308168200,11.328168212890626,0.012535071924328803,-0.016505363794788716,0.004481090936809778
1769666846318156300,11.33815625,-0.00792377873659134,-0.01119081770852208,0.019009674765914676
1769666846328145200,11.348145263671874,0.060787938439846034,-0.010799772564321755,0.0030495968289673326
1769666846338134300,11.35813427734375,0.0953542249083519,-0.027541502398252486,-0.011127250953018664
1769666846348122000,11.3681220703125,0.0847878227084875,-0.025371611013263462,-0.008009557323902844
1769666846358111200,11.378111328125,0.03309913652539253,-0.031064635023102163,0.003187397864460945
1769666846368099300,11.388099365234375,0.023917466682195663,-0.018214286604523656,-0.0021940029129385945
1769666846378088200,11.398088134765626,0.02843231375813484,-0.023657354441285132,-0.009752893859893082
1769666846388076300,11.408076171875,0.04288052582740783,-0.025190628423169253,-0.013575082496553658
1769666846398065400,11.4180654296875,0.023624036693572995,-0.029247794859483835,-0.005781359880417585
1769666846408053500,11.428053466796875,0.038697687184810634,-0.0198300512380898,0.0005519347943365574
1769666846418042000,11.4380419921875,0.08708674730062484,-0.022230317312851546,-0.013145458907634019
1769666846428030200,11.4480302734375,0.043154082071781154,-0.021976342551782727,-0.021541092939674853
1769666846438019300,11.458019287109375,0.006163198804855346,-0.015559680442512035,0.009282353738695383
1769666846448007400,11.46800732421875,-0.002297171026468277,-0.017397636459395287,0.0041398762837052345
1769666846457996300,11.477996337890625,-0.009817629659175871,-0.03421243152953684,0.0076056526981294155
1769666846467984100,11.487984130859376,0.022620997130870818,-0.022246756990998984,0.0102194884583354
1769666846477973200,11.49797314453125,0.05341594836711883,-0.015885551396012304,0.004714607431739569
1769666846487961300,11.50796142578125,0.03646948974132538,-0.007745718755945563,0.012620558250695467
1769666846497950200,11.5179501953125,0.023099136036634445,-0.021175474497675893,0.004956161102652549
1769666846507939300,11.527939208984375,0.019707155510783194,-0.031263591661304234,-0.011174158834666013
1769666846517927400,11.537927490234376,0.026318682605028152,-0.013998422475159167,-0.027535511048883198
1769666846527916300,11.547916259765625,0.016759411621093748,-0.017719196563959122,-0.011103870077431202
1769666846537904400,11.557904296875,0.006868132203817367,-0.011258329986780882,0.00005231470912694931
1769666846547893200,11.567893310546875,0.021963994526863095,-0.008202376482263208,-0.008756430168449878
1769666846557881300,11.57788134765625,0.03748071261048317,-0.014922040126100182,-0.007457038007676601
1769666846567870500,11.587870361328125,0.03385375428497791,-0.018541764993220567,-0.012376081970334052
1769666846577858300,11.5978583984375,0.016338555860519407,-0.012677987526357173,-0.006490677193552255
1769666846587847200,11.60784716796875,0.005346037203073501,-0.026739538365602493,-0.003934709100425243
1769666846597835300,11.617835205078125,-0.01227729777097702,-0.014535671157017349,0.001402706404775381
1769666846607824400,11.627824462890626,-0.02198386827111244,-0.027034283528476952,0.009822305834293365
1769666846617812500,11.6378125,-0.045780923444032666,-0.019442586290463804,0.03118599638044834
1769666846627801000,11.647801025390624,-0.029596681362390517,-0.02850873999521136,0.01007043537646532
1769666846637789200,11.6577890625,0.0214192201256752,-0.00852386352159083,-0.009159311880916357
1769666846647778300,11.6677783203125,-0.0007207154899835586,-0.026889906621724365,-0.0009843348622322083
1769666846657767200,11.67776708984375,0.02233107427358627,-0.014362871873378752,0.004764876314252615
1769666846667755300,11.68775537109375,0.10345452925562858,-0.007411956756934523,-0.005005699332803488
1769666846677744400,11.697744384765626,0.0907224734544754,-0.021927388843521474,-0.0480035679295659
1769666846687732200,11.707732177734375,-0.014379238486289978,-0.01920804688222706,-0.019341537068784234
1769666846697721300,11.717721435546874,0.008279168045520782,-0.011667641440033912,-0.014646949511766432
1769666846707709400,11.72770947265625,0.05399111790657043,0.001663330102339387,-0.006851911721378564
1769666846717698300,11.7376982421875,0.05019406371116638,-0.016746990530937908,0.017069500483572482
1769666846727686400,11.747686279296875,0.07268295889496802,-0.023911621463298796,0.006488923627883196
1769666846737675300,11.75767529296875,0.016369535520672798,-0.020985943274945018,0.02163490870296955
1769666846747663400,11.767663330078125,-0.026103578549623488,-0.022642332179844377,0.014264233804494141
1769666846757652200,11.77765234375,0.059651627886295314,-0.016434271319955587,0.01761792814657092
1769666846767640300,11.787640380859376,0.10142390021085738,-0.023388035980612037,-0.0014751871190965176
1769666846777629400,11.79762939453125,0.08698620953559875,-0.02074650849588215,-0.021364128937572238
1769666846787617300,11.8076171875,0.05033551800847053,-0.022976532570272684,-0.006223696820437908
1769666846797606100,11.817606201171875,0.009628244566917419,-0.03211640909835696,-0.007617343135923146
1769666846807594200,11.82759423828125,-0.021221651726961135,-0.011866963404417038,-0.011608166337758302
1769666846817583400,11.837583251953125,0.04134966299831867,-0.01276376611366868,-0.012977993386238812
1769666846827572200,11.847572265625,0.10943360366523265,-0.01925049778446555,-0.043467531935125585
1769666846837560000,11.85756005859375,0.10445756881833076,-0.040401787688955665,-0.02697086290344596
1769666846847549200,11.867549072265625,0.051046881148219106,-0.019329773565754292,0.012651391780376433
1769666846857537300,11.877537353515624,0.06825052940547466,-0.010925737031549214,-0.02195975674316287
1769666846867526400,11.8875263671875,0.06920271556377411,-0.03613455869853496,-0.019052783255279062
1769666846877514200,11.89751416015625,0.01941547908782959,-0.03763816819451749,0.01737286734431982
1769666846887503400,11.90750341796875,0.013963643422722816,-0.024611951752379534,0.01114361756592989
1769666846897491200,11.9174912109375,0.06103869833052158,-0.024470935846492646,-0.01450549521446228
1769666846907480300,11.927480224609376,0.06196516552567482,-0.007823387102037668,-0.01308072310835123
1769666846917468400,11.937468505859375,0.013809914165735244,-0.01534085006006062,0.003575520399212837
1769666846927457300,11.947457275390626,0.030028058516979216,-0.025047566690668464,-0.008184767760336399
1769666846937445400,11.9574453125,0.03872223710417747,-0.03043590866550803,-0.013775281243771314
