time,seconds_elapsed,acc_z,acc_y,acc_x,gyro_z,gyro_y,gyro_x
1.77E+18,0.071091797,-0.052108373,-0.064485332,-0.029055633,-0.002281658,0.01483059,-0.018610734
1.77E+18,0.081080566,-0.010845804,-0.058323594,0.008677812,-0.007696727,0.024797738,-0.021507256
1.77E+18,0.091068359,0.001313421,-0.055433426,0.022462738,-0.014853173,0.049187232,-0.026102807
1.77E+18,0.101057617,0.012505846,-0.060355685,0.036444501,-0.029029705,0.050419521,-0.030449655
1.77E+18,0.111045654,0.038256958,-0.028826866,0.078233579,-0.034505166,0.047979001,-0.040707622
1.77E+18,0.121034668,0.046273091,-0.036026714,0.000879559,-0.02596073,0.049227946,-0.053353347
1.77E+18,0.131022705,-0.014159458,-0.012107494,-0.065916168,-0.01992148,0.044054225,-0.058277268
1.77E+18,0.141011475,-0.006331541,-0.04241963,-0.042574236,-0.013584702,0.039094161,-0.051820725
1.77E+18,0.150999512,0.0062047,-0.039997079,-0.029292949,-0.017187428,0.031936653,-0.047858473
1.77E+18,0.16098877,0.057450318,-0.029203006,-0.006712649,-0.032573786,0.03771589,-0.061422609
1.77E+18,0.170976807,0.02870587,-0.04399141,0.069444927,-0.057028264,0.063233502,-0.09763281
1.77E+18,0.180965576,-0.058929743,-0.018588381,0.134059438,-0.082911953,0.095556378,-0.137437209
1.77E+18,0.190953369,-0.010109306,-0.009827859,0.104498851,-0.087032393,0.131635547,-0.154508337
1.77E+18,0.200942627,-0.00500643,0.021354338,0.047942193,-0.083138481,0.097543888,-0.141137555
1.77E+18,0.210930664,-0.012615736,-0.022078561,-0.052163172,-0.073347636,0.090072125,-0.121983834
1.77E+18,0.220919434,-0.05055939,-0.03035013,-0.128771889,-0.089354679,0.104845174,-0.136192143
1.77E+18,0.230908691,0.036315176,0.01212503,0.074111055,-0.12302769,0.121813774,-0.16208072
1.77E+18,0.240896484,0.116789812,-0.000860124,0.272894602,-0.151838332,0.159889847,-0.173988357
1.77E+18,0.250885742,0.103177466,0.039443829,0.081888485,-0.155178741,0.168814644,-0.150309667
1.77E+18,0.260873535,-0.059586746,0.02184972,-0.080299352,-0.130850613,0.141047969,-0.145115778
1.77E+18,0.270862549,-0.06902619,-0.162973471,-0.124312499,-0.1141169,0.160127386,-0.129201263
1.77E+18,0.280850586,0.001427402,-0.074484455,-0.025620763,-0.143567041,0.201692298,-0.166789412
1.77E+18,0.290839844,0.181314014,-0.074915833,0.168718079,-0.243293896,0.303811759,-0.257892936
1.77E+18,0.300827637,0.020680969,-0.099719727,0.243872214,-0.354064107,0.408678085,-0.33062768
1.77E+18,0.310816406,-0.123978262,0.126499597,0.521262191,-0.436565906,0.460921317,-0.387810022
1.77E+18,0.320804688,-0.057421092,0.181931561,0.427818695,-0.486000568,0.508706033,-0.391749293
1.77E+18,0.330793701,0.09388123,-0.106181324,0.244691092,-0.525528252,0.492841065,-0.424556494
1.77E+18,0.340781494,0.096057989,-0.076790686,0.06435586,-0.576820731,0.504944205,-0.449283004
1.77E+18,0.350770508,-0.103079851,0.071169632,0.246519002,-0.630751371,0.545020282,-0.507507205
1.77E+18,0.360759521,0.076885671,0.214286602,0.069182947,-0.574283361,0.442375064,-0.515653372
1.77E+18,0.370747559,-0.050796121,0.228085994,0.228787293,-0.483942837,0.237260282,-0.45953095
1.77E+18,0.380736572,-0.169701902,0.14301234,-0.283390387,-0.483552605,0.311053723,-0.506748378
1.77E+18,0.390725342,-0.28713761,0.207955937,-0.253330801,-0.567103922,0.371910691,-0.53843677
1.77E+18,0.4007146,-0.047288405,-0.159319332,0.006246502,-0.575953603,0.289918453,-0.540193498
1.77E+18,0.410702637,0.065886138,-0.001612404,0.461031119,-0.577284634,0.275470823,-0.558288336
1.77E+18,0.420691406,0.013592472,0.150277071,-0.131608538,-0.525084078,0.356769502,-0.547703683
1.77E+18,0.430679199,-0.310755217,-0.106048199,-0.157295882,-0.428310901,0.435962886,-0.516146839
1.77E+18,0.440668457,-0.071842416,-0.23064357,-0.083017178,-0.294965774,0.391242772,-0.435867906
1.77E+18,0.450656494,0.138463883,-0.372119202,-0.213909037,-0.178279638,0.269654304,-0.323540032
1.77E+18,0.460645264,0.051231006,-0.172942492,-0.473781112,-0.089605652,0.233226061,-0.222409427
1.77E+18,0.470633545,-0.128974755,0.028080724,-0.382628212,-0.018313095,0.188670039,-0.186847702
1.77E+18,0.480622559,0.008660276,0.018308833,-0.225949311,0.003469863,0.178073019,-0.210428461
1.77E+18,0.490610352,-0.148323599,0.08580416,-0.103248887,-0.025855269,0.23770678,-0.272411674
1.77E+18,0.500599365,-0.181106509,0.217736157,0.110922783,-0.11740841,0.292573035,-0.37649399
1.77E+18,0.510587402,0.096472415,0.428218983,0.228395499,-0.230754942,0.390462577,-0.462015539
1.77E+18,0.520576416,-0.105395142,0.228836374,0.431677124,-0.222534284,0.541868448,-0.437240541
1.77E+18,0.530565674,-0.104857966,-0.392530414,0.49952784,0.004403781,0.604187727,-0.289473981
1.77E+18,0.540553467,0.062929627,-0.440918744,-0.647436903,0.368923217,0.706887007,-0.146673113
1.77E+18,0.550542236,-0.084679686,-0.33271892,-1.964586547,0.498128325,0.61202842,-0.225246489
1.77E+18,0.560530518,-0.113892921,0.249005302,-0.313722981,0.436229587,0.660392761,-0.3172521
1.77E+18,0.570519531,-0.172598793,0.029419133,0.863534208,0.28291887,0.593773305,-0.35002923
1.77E+18,0.580507568,-0.003164602,-0.093566903,0.795351044,0.145969704,0.481498688,-0.301786721
1.77E+18,0.590496582,0.138447517,-0.184445444,0.461731669,0.062327527,0.3933281,-0.20718722
1.77E+18,0.600484375,0.272879368,-0.042852469,0.241117545,0.040571049,0.340088457,-0.127894968
1.77E+18,0.610473389,0.213868376,0.123265145,-0.04957184,0.061015606,0.315634251,-0.098013513
1.77E+18,0.62046167,0.109660983,-0.124875649,-0.057648691,0.069777779,0.349568248,-0.12681818
1.77E+18,0.630450439,-0.027870004,-0.03317454,0.062943655,0.073752016,0.396558136,-0.161184683
1.77E+18,0.640438477,-0.067554364,0.09717238,0.103263391,0.079295494,0.384519398,-0.185312599
1.77E+18,0.65042749,-0.0375567,-0.016265637,0.027321722,0.070841283,0.398009896,-0.178094104
1.77E+18,0.66041626,-0.117013684,-0.075909812,0.032455724,0.064298168,0.387585223,-0.165208936
1.77E+18,0.670404297,0.01059972,-0.069504767,0.074025825,0.066285945,0.407467037,-0.17100957
1.77E+18,0.680393555,0.073734514,-0.018220862,0.075256828,0.077350155,0.418815851,-0.186503991
1.77E+18,0.690381592,0.046442602,0.094169691,0.090268738,0.079196259,0.440960556,-0.210970983
1.77E+18,0.700370605,0.014955577,0.074576225,-0.009737112,0.093551554,0.410023868,-0.221215218
1.77E+18,0.710358643,0.131212305,-0.266881297,0.094504184,0.096842423,0.293530285,-0.155004233
1.77E+18,0.720347412,0.081586396,-0.137845313,-0.34067397,0.074963428,0.349188834,-0.122258961
1.77E+18,0.730335449,0.11474457,0.073082772,0.146426094,0.070236318,0.268784016,-0.126765817
1.77E+18,0.740324707,0.256713246,-0.115010527,0.158583565,0.058400061,0.233038679,-0.109015867
1.77E+18,0.7503125,-0.039918169,-0.066191113,-0.143419898,0.073854916,0.25648886,-0.14245078
1.77E+18,0.76030127,0.104437695,0.011334756,0.056200465,0.069630139,0.272218257,-0.144595847
1.77E+18,0.770289307,0.032589433,-0.027617198,0.017994068,0.06995371,0.231777623,-0.111676261
1.77E+18,0.780278564,-0.027537411,-0.115108288,-0.018951223,0.055029463,0.283886373,-0.119499974
1.77E+18,0.790266602,-0.096834819,0.024792496,0.149861476,0.033615783,0.246598378,-0.098044217
1.77E+18,0.800255371,-0.084825232,-0.011277911,0.009130378,0.063444197,0.255413353,-0.11562638
1.77E+18,0.810243408,0.008758476,-0.173286483,-0.027561084,0.052183554,0.243228614,-0.084643967
1.77E+18,0.820232422,-0.050079497,-0.056334466,-0.152352854,0.051441491,0.225366756,-0.066396065
1.77E+18,0.830221191,0.027774142,-0.057149582,0.149329561,0.060296766,0.294551671,-0.063695617
1.77E+18,0.840209473,-0.056533204,-0.139125416,-0.113172498,0.059353843,0.232043713,-0.055664644
1.77E+18,0.850198486,-0.062233461,0.04986264,-0.001293109,0.058022529,0.254383922,-0.07888741
1.77E+18,0.860186279,-0.039815878,-0.052775751,0.111974666,0.060295321,0.251902878,-0.09128008
1.77E+18,0.870175537,0.089727617,-0.022477351,0.016059739,0.054011058,0.208566323,-0.088131428
1.77E+18,0.88016333,0.190618433,0.002062193,-0.00629647,0.0440224,0.187395051,-0.067446925
1.77E+18,0.890152344,0.078276833,-0.016130466,0.004586597,0.034938358,0.176584229,-0.043770093
1.77E+18,0.900140625,0.043260465,-0.05825842,0.106712216,0.014078461,0.13860783,-0.049060378
1.77E+18,0.910129639,0.077080902,-0.016077859,0.023167379,0.013277914,0.1401245,-0.054246351
1.77E+18,0.920117432,0.083071082,0.006194325,-0.013709376,0.014975945,0.139111236,-0.06250222
1.77E+18,0.930106445,0.047408232,-0.023527298,-0.001641776,0.017704086,0.126234055,-0.073171906
1.77E+18,0.940094482,0.078546882,-0.005360943,-0.036576603,0.026123084,0.100394025,-0.074763283
1.77E+18,0.950083496,0.055351885,-0.004163842,-0.110937286,0.032318663,0.11368639,-0.070892647
1.77E+18,0.960071533,0.114050742,-0.009634382,-0.079511051,0.034985658,0.086181521,-0.063085213
1.77E+18,0.970060303,0.101070849,-0.031062516,-0.005489683,0.032724101,0.090315819,-0.050953716
1.77E+18,0.980049316,0.090058457,-0.030047494,-0.042954322,0.030993996,0.076846205,-0.039793447
1.77E+18,0.990037598,0.053811085,-0.011508359,0.027593963,0.029289307,0.077911466,-0.040912505
1.77E+18,1.000026367,0.000479892,-0.046633156,0.006243424,0.033517823,0.079097293,-0.03195893
1.77E+18,1.010014404,-0.009259996,-0.033798809,-0.01685162,0.03286748,0.075967282,-0.032633245
1.77E+18,1.020003662,-0.015417349,-0.005598697,-0.020654812,0.036705688,0.061654184,-0.039093006
1.77E+18,1.029991455,0.104084644,-0.032810237,-0.053271718,0.033611625,0.074921787,-0.046976227
1.77E+18,1.039980469,0.06060206,0.018686873,0.039078649,0.036450766,0.078656584,-0.066793382
1.77E+18,1.049968506,0.139846862,-0.047160103,-0.007893091,0.03528031,0.083395146,-0.074379928
1.77E+18,1.05995752,0.164455818,-0.033836219,0.002237842,0.021143774,0.066947684,-0.069413826
1.77E+18,1.069945313,0.167959442,-0.037372868,0.056434273,0.021542715,0.085139215,-0.080941588
1.77E+18,1.07993457,-0.027823826,-0.03340265,0.015715602,0.031500645,0.089080267,-0.101053268
1.77E+18,1.089922607,0.000386953,-0.00961144,-0.057174424,0.030643372,0.087927118,-0.110797778
1.77E+18,1.099911377,0.017014263,-0.021711481,-0.018427053,0.034152351,0.089600019,-0.126925781
1.77E+18,1.109899414,0.011028759,-0.078490184,0.01935805,0.033038616,0.096206255,-0.13129124
1.77E+18,1.119888672,-0.010763386,-0.053736559,0.017681057,0.0312934,0.120732225,-0.138675272
1.77E+18,1.129877197,0.09491408,-0.073337039,0.059866878,0.029426523,0.148567855,-0.146334261
1.77E+18,1.139865234,0.081038115,-0.083292908,0.09669541,0.026705086,0.145382583,-0.142687172
1.77E+18,1.149854492,-0.028677813,-0.070976447,0.041800183,0.026122119,0.138083667,-0.151123524
1.77E+18,1.159842529,0.025614334,-0.058018328,-0.032200726,0.033393353,0.149577752,-0.154076308
1.77E+18,1.169831543,0.033249943,-0.038948593,-0.035587738,0.025506137,0.164090648,-0.14173308
1.77E+18,1.179819336,0.104997083,-0.04055559,0.074228873,0.021930471,0.156642646,-0.132713675
1.77E+18,1.18980835,0.061309332,-0.049250792,0.006316344,0.038056176,0.181365833,-0.154550001
1.77E+18,1.199796387,-0.054928106,-0.043705871,-0.069028966,0.052599538,0.186229825,-0.170936584
1.77E+18,1.209785645,5.61E-05,-0.033972266,-0.043788581,0.046377331,0.186902806,-0.167530403
1.77E+18,1.219773438,0.05144611,-0.063197192,0.05681582,0.043030422,0.178380817,-0.177474082
1.77E+18,1.229762451,0.052314709,-0.022456162,0.059654258,0.038242858,0.162496924,-0.174314499
1.77E+18,1.239750488,0.200453599,0.014495851,0.022749007,0.026522769,0.145749509,-0.171510905
1.77E+18,1.249739502,0.219289232,0.021534517,0.03844532,0.017105566,0.147847816,-0.180595219
1.77E+18,1.259727539,0.103140056,0.002877455,0.050463821,0.005488804,0.138953462,-0.190715358
1.77E+18,1.269716553,0.073558573,-0.016459406,0.071655516,-0.005882095,0.140873864,-0.170266539
1.77E+18,1.279704346,0.123920394,-0.023278292,0.054828884,-0.010381563,0.138947323,-0.153345406
1.77E+18,1.289693359,-0.0180816,-0.080667382,0.017017332,-0.016656235,0.149849504,-0.131444901
1.77E+18,1.299682373,-0.091354926,-0.050806277,0.058521747,-0.021634856,0.157376304,-0.128344446
1.77E+18,1.30967041,-0.167739662,-0.025112302,0.0790636,-0.020518193,0.173856467,-0.127602756
1.77E+18,1.319659424,-0.199879014,-0.03103519,0.066628627,-0.024137583,0.184876233,-0.12081705
1.77E+18,1.329647705,-0.126978613,0.023826281,0.081413378,-0.024242777,0.190715745,-0.110736184
1.77E+18,1.33963623,0.038593642,0.007380612,0.048267772,-0.027231647,0.176036209,-0.112323761
1.77E+18,1.349624268,0.177141697,0.029934681,0.012104572,-0.028682005,0.167229667,-0.107845396
1.77E+18,1.359613525,0.197993931,0.003515607,-0.012838147,-0.032487709,0.162979811,-0.103959382
1.77E+18,1.369601563,0.193514155,0.026720907,-0.000205898,-0.034317836,0.153342366,-0.10378015
1.77E+18,1.379590576,0.141172558,0.015152415,0.009996639,-0.035653625,0.15090698,-0.102183349
1.77E+18,1.389577881,0.206383573,0.005200418,-0.027101504,-0.038890962,0.138978958,-0.089833468
1.77E+18,1.399566895,0.244507845,0.00796601,-0.030406098,-0.040087953,0.131485939,-0.071572386
1.77E+18,1.409554688,0.06782149,-0.034369303,0.007551731,-0.041632853,0.13066195,-0.062968776
1.77E+18,1.419543701,0.002582418,-0.04529029,0.008806845,-0.043590005,0.103903621,-0.046472933
1.77E+18,1.429531982,0.119309101,-0.066108914,-0.031968671,-0.041136701,0.086491875,-0.03348523
1.77E+18,1.439520752,0.038669046,-0.064938921,-0.043391106,-0.036938764,0.065621376,-0.017088577
1.77E+18,1.44951001,0.092686467,-0.104882882,-0.076629066,-0.031917904,0.03424561,0.002627869
1.77E+18,1.459498047,0.184657479,-0.018503625,-0.076249127,-0.022632644,0.02164595,0.013467066
1.77E+18,1.469486816,0.177478381,-0.063999594,-0.0807932,-0.021412384,0.020567637,0.013916608
1.77E+18,1.479474609,0.029627077,-0.075288246,-0.038359103,-0.020148542,0.018732183,0.010414459
1.77E+18,1.489463867,-0.121411042,-0.101586982,-0.028902269,-0.017367668,0.00892962,0.008551044
1.77E+18,1.499451904,-0.003660861,-0.072751129,-0.045428749,-0.014507378,0.008880571,0.016857021
1.77E+18,1.509440918,0.02314882,-0.085532357,-0.019732728,-0.0131734,0.002972881,0.020159075
1.77E+18,1.519428955,0.044767362,-0.077370898,-0.037980917,-0.012539414,-0.002179078,0.02268317
1.77E+18,1.529417725,0.087190208,-0.087322163,-0.034424686,-0.009519123,-0.002882685,0.02974534
1.77E+18,1.539405762,0.051923079,-0.064270666,-0.045279404,-0.008848589,-0.007670224,0.0323794
1.77E+18,1.54939502,0.058021981,-0.056315177,-0.02944339,-0.009897076,-0.014218403,0.033856653
1.77E+18,1.559383057,0.084037881,-0.053679275,-0.049796004,-0.009686737,-0.018204866,0.03233698
1.77E+18,1.569371582,0.068624039,-0.053003057,-0.055718526,-0.009993001,-0.022508534,0.028419472
1.77E+18,1.579359863,-0.005725976,-0.04463621,-0.038796764,-0.008766778,-0.024424091,0.022429004
1.77E+18,1.589348877,-0.036039282,-0.052577233,-0.025689445,-0.008174491,-0.024566572,0.016054194
1.77E+18,1.599337646,-0.014342998,-0.049591276,-0.028046529,-0.007186462,-0.025458671,0.012421047
1.77E+18,1.609325928,0.004899462,-0.049831003,-0.021640608,-0.007228008,-0.026751902,0.006565023
1.77E+18,1.619314941,0.003775427,-0.045683893,-0.008333821,-0.008886937,-0.022374662,0.00154086
1.77E+18,1.629302734,0.026228666,-0.03706446,-0.023671383,-0.005569171,-0.026919346,-0.0022624
1.77E+18,1.639291992,0.068278586,-0.038065088,-0.03509937,-0.010865082,-0.032063637,-0.007817848
1.77E+18,1.649279785,0.123693015,-0.026398762,-0.032023178,-0.010766013,-0.028548796,-0.014015289
1.77E+18,1.659268799,0.090450086,-0.047491234,-0.050432695,-0.011625678,-0.020489866,-0.023169573
1.77E+18,1.66925708,0.045219782,-0.050465063,-0.036695554,-0.013289621,-0.01699207,-0.034518104
1.77E+18,1.67924585,0.035237318,-0.037612815,-0.026363691,-0.010321908,-0.002854018,-0.052440621
1.77E+18,1.689233887,-0.066930094,-0.039437619,-0.011199732,-0.011529651,0.008687856,-0.066640861
1.77E+18,1.6992229,-0.104845691,-0.021688466,0.016012393,-0.010375757,0.010982255,-0.07136678
1.77E+18,1.709210938,-0.034109775,-0.034886458,-0.008265286,-0.010892143,0.007444512,-0.066296391
1.77E+18,1.719199951,0.028662031,-0.040666357,-0.027661768,-0.008290983,0.001909474,-0.050767787
1.77E+18,1.729187744,0.060205755,-0.044024143,-0.015908055,-0.007787912,-0.002547059,-0.039880518
1.77E+18,1.739176758,0.000458265,-0.048663347,-0.00594678,-0.004917662,-0.004029365,-0.037521604
1.77E+18,1.749164795,-0.049720601,-0.058521966,-0.012459961,-0.001187638,-0.005244033,-0.037409484
1.77E+18,1.759153809,-0.026097733,-0.054350818,-0.010860709,-0.000789921,-0.003100893,-0.034221403
1.77E+18,1.769142822,-0.011764088,-0.056225599,-0.023455402,0.001742745,-0.009939358,-0.025659073
1.77E+18,1.779130615,0.045168345,-0.050985872,-0.013995208,0.003305492,-0.016611168,-0.01342365
1.77E+18,1.789119629,0.060036243,-0.060945248,-0.044407589,0.005971583,-0.019299896,-0.013855614
1.77E+18,1.79910791,0.008292028,-0.046403366,-0.025673224,0.00639705,-0.025861118,0.002121375
1.77E+18,1.809096924,0.066156187,-0.050075698,-0.030951019,0.006538197,-0.033705723,0.008339856
1.77E+18,1.819084717,0.140517893,-0.065307316,-0.044014937,0.007222412,-0.036901645,0.008815672
1.77E+18,1.829073975,0.107418757,-0.066042206,-0.042962067,0.008878099,-0.03675624,0.011037016
1.77E+18,1.839061768,0.029388007,-0.044444779,-0.022971564,0.007072155,-0.032001875,0.008331904
1.77E+18,1.849050781,-0.01420622,-0.046004941,-0.014142215,0.005459878,-0.02843271,0.003122228
1.77E+18,1.859039063,-0.030495676,-0.045416986,-0.00181494,0.005663719,-0.020231038,-0.002710184
1.77E+18,1.869027832,-0.021665888,-0.036223479,0.012170038,0.002886841,-0.014173413,-0.007239155
1.77E+18,1.879015869,-0.05374445,-0.052654536,0.000826076,0.002170769,-0.009467797,-0.010558012
1.77E+18,1.889004883,-0.013451018,-0.034790743,0.007758797,-0.001523568,-0.002487652,-0.010072784
1.77E+18,1.89899292,0.019152444,-0.044895007,0.010511019,-0.000372872,-0.00370154,-0.007645617
1.77E+18,1.908981689,0.01955518,-0.047645037,-0.010788813,-0.002209388,-0.003494079,-0.010053379
1.77E+18,1.918969971,0.027907413,-0.042140667,-0.025879268,-0.002085175,-0.002706917,-0.01413503
1.77E+18,1.928958984,0.019455227,-0.042396249,-0.014581191,-0.002745639,0.001880112,-0.020528216
1.77E+18,1.938947754,0.050949266,-0.051388023,-0.00867299,-0.001671008,0.011807179,-0.023106772
1.77E+18,1.948935791,-0.012765374,-0.026876097,0.024161797,-0.003887556,0.007181801,-0.021539502
1.77E+18,1.958924805,0.049835167,-0.038544104,-0.005811609,-0.00380195,0.000331637,-0.01253818
1.77E+18,1.968912842,0.127382517,-0.052375938,-0.044529608,-0.003321782,-0.001255075,-0.008843044
1.77E+18,1.978901855,0.081792148,-0.049484381,-0.035368981,-0.002593358,-0.003393823,-0.002824827
1.77E+18,1.988889893,0.03648761,-0.040863925,-0.034377048,-0.001581623,-0.003387698,-0.000671927
1.77E+18,1.998878662,0.003182137,-0.049284182,-0.015372049,-0.001683195,-0.003291016,0.000465928
1.77E+18,2.008866699,-0.006712649,-0.056187459,-0.008640256,2.32E-06,-0.00158899,0.004108333
1.77E+18,2.018855957,0.028452188,-0.034754283,-0.016155893,0.00049095,-0.003201493,0.005992419
1.77E+18,2.02884375,0.053114335,-0.045131227,-0.023758038,0.00125794,-0.001154587,0.003021397
1.77E+18,2.038833008,0.010925883,-0.052484586,-0.014069734,-0.001008781,0.002204201,0.002801304
1.77E+18,2.048820801,0.014146599,-0.04731997,-0.007714666,3.92E-05,0.001885687,0.002844714
1.77E+18,2.058809814,0.01929799,-0.049831076,-0.01903174,-0.000672538,0.001643301,0.002281117
1.77E+18,2.068797852,0.039143093,-0.048491278,-0.01355477,0.000105637,0.001808683,0.005365058
1.77E+18,2.078786865,0.043237084,-0.043692427,-0.0184668,-0.000263048,-0.001384438,0.004593159
1.77E+18,2.088775879,0.053703533,-0.051759706,-0.01570245,0.000330038,-0.004050262,0.005041635
1.77E+18,2.098763672,0.072368486,-0.054727689,-0.033043461,0.000288558,-0.002506956,0.002114085
1.77E+18,2.108752686,0.018207857,-0.053222325,-0.014150252,-0.001134369,0.002237199,0.001078115
1.77E+18,2.118740723,-0.031529111,-0.052872416,0.010635668,-0.000593907,0.005104883,0.000424689
1.77E+18,2.128729736,-0.0435235,-0.038838995,0.003067571,-0.000651165,0.002397247,0.00629909
1.77E+18,2.138718018,0.033151743,-0.050348816,-0.02268471,0.000374365,-0.003777104,0.008814738
1.77E+18,2.148706787,0.062334583,-0.04192454,-0.035623102,8.97E-05,-0.004211732,0.009937527
1.77E+18,2.15869458,0.061857613,-0.048573915,-0.040053047,9.08E-05,-0.00681254,0.011489892
1.77E+18,2.168683838,0.033318917,-0.047754927,-0.020956425,0.000968831,-0.010929521,0.009045644
1.77E+18,2.178671875,0.040212768,-0.052405456,-0.023586189,0.00113752,-0.004857479,0.006142608
1.77E+18,2.188660889,0.020911855,-0.047206938,-0.007414368,6.99E-05,-2.46E-05,0.003049347
1.77E+18,2.198648926,-0.015121581,-0.049494976,0.009144407,0.001294323,0.001093234,0.000596904
1.77E+18,2.208637695,0.001655366,-0.037036841,-0.007376812,0.000287381,0.002292455,-0.000549853
1.77E+18,2.218625732,0.029633506,-0.03989888,-0.017595862,-0.001228701,-0.000231405,-0.001436381
1.77E+18,2.22861499,0.041706221,-0.033015258,-0.01571151,-0.000270495,-0.000788538,-0.000865666
1.77E+18,2.23860376,0.023563246,-0.041368952,-0.024761224,-0.001637386,-0.002176011,-0.000531626
1.77E+18,2.248591797,0.032003743,-0.03578253,-0.019940087,-0.001786523,-0.00391692,-0.002694912
1.77E+18,2.258581055,0.046231005,-0.033088396,-0.029429654,-0.000681318,-0.002708523,-0.005029835
1.77E+18,2.268568848,0.033577275,-0.019448578,-0.019465602,-0.001000897,0.000126678,-0.005243954
1.77E+18,2.278557617,0.005981997,-0.030962709,0.001285218,0.000654797,-0.001720775,-0.001958647
1.77E+18,2.288545898,0.042089083,-0.046034606,-0.020223142,-1.55E-05,-0.006150677,0.003114675
1.77E+18,2.298534912,0.085344288,-0.044564095,-0.031107524,0.00123238,-0.008614589,0.004869591
1.77E+18,2.308522705,0.056288289,-0.050137511,-0.016772125,0.002210027,-0.010340318,0.006519686
1.77E+18,2.318511719,0.03742226,-0.056204702,-0.024463264,0.001167399,-0.010174669,0.008972989
1.77E+18,2.328499756,0.03294833,-0.047748643,-0.009812369,0.002155432,-0.009324322,0.010536798
1.77E+18,2.33848877,0.037919104,-0.049239832,-0.01458046,0.000478117,-0.010087868,0.009127415
1.77E+18,2.348476807,0.04750877,-0.053233504,-0.024792788,-0.000139203,-0.011102531,0.009351387
1.77E+18,2.358466064,0.055168345,-0.053367725,-0.030853111,-4.74E-05,-0.008578997,0.006826203
1.77E+18,2.368453857,0.036063247,-0.054713076,-0.017614129,-0.001210378,-0.006711056,0.007266157
1.77E+18,2.378442871,0.025385786,-0.056470587,-0.004017565,-0.000164181,-0.002681333,0.006758305
1.77E+18,2.38843042,0.011925416,-0.055536155,-0.003575959,0.001217733,4.20E-06,0.006355635
1.77E+18,2.398419434,-0.01012275,-0.03789302,0.005363281,-0.000868001,0.003722685,0.002289128
1.77E+18,2.408408203,-0.012747253,-0.032535365,0.007872925,-0.000693564,0.002421997,0.001472603
1.77E+18,2.418396484,0.034115036,-0.039164136,-0.020174189,-0.000153209,0.001035289,0.002234
1.77E+18,2.428385498,0.050916533,-0.04830467,-0.022172084,0.000986358,0.000135141,0.003346669
1.77E+18,2.438373291,0.037920273,-0.044628831,-0.014394436,0.000379423,-0.001508562,0.002667563
1.77E+18,2.448362549,0.0450643,-0.047386532,-0.029775837,0.000394337,-0.001808434,-0.000259517
1.77E+18,2.458350342,0.037702246,-0.046477089,-0.02249401,0.00068511,8.42E-05,-0.001742974
1.77E+18,2.468339355,0.011944705,-0.044111091,-0.011978169,0.000406277,-0.000506983,-0.000956276
1.77E+18,2.478327637,0.033929158,-0.041376113,-0.020984482,-0.000512396,-0.00101442,0.002709135
1.77E+18,2.488316406,0.057552025,-0.035356341,-0.031280835,0.000313983,-0.004261346,0.006224774
1.77E+18,2.498304443,0.0513596,-0.045145183,-0.020218174,0.002874313,-0.006237374,0.005934563
1.77E+18,2.508293457,0.042126493,-0.051517348,-0.020589784,0.001630351,-0.007433933,0.004660507
1.77E+18,2.518281494,0.027651393,-0.039981663,-0.02356047,0.002187573,-0.004102911,0.001857862
1.77E+18,2.528270508,0.018145898,-0.05684848,-0.012270868,0.001203269,-0.001423771,-0.006259187
1.77E+18,2.538258545,-0.017797522,-0.0312576,0.006134557,-0.000270858,0.00219873,-0.004710471
1.77E+18,2.548247314,0.016020576,-0.0317429,0.005271365,0.002550229,0.000971013,-0.001553294
1.77E+18,2.558236328,0.088300215,-0.036652957,-0.031672903,0.00066713,0.002219579,-0.004853775
1.77E+18,2.568224609,0.062883449,-0.054288713,-0.029524201,0.00117899,0.009798137,-0.014805209
1.77E+18,2.578213379,0.02931728,-0.061213178,-0.011626433,0.000533035,0.015544543,-0.017607488
1.77E+18,2.588201172,0.076074355,-0.039257951,-0.001054477,0.000619587,0.019944351,-0.02106427
1.77E+18,2.59819043,0.052929626,-0.035178135,-0.010901479,0.000101056,0.019245915,-0.024789982
1.77E+18,2.608178467,0.059949734,-0.016399419,-0.002364976,-0.001138379,0.016958261,-0.023284763
1.77E+18,2.618167236,0.150374101,-0.028379488,-0.009564678,-0.000725349,0.020621076,-0.024372144
1.77E+18,2.628155273,0.097871176,-0.041122138,-0.028182285,-0.000110425,0.016361885,-0.025253383
1.77E+18,2.638144531,0.015450667,-0.043564928,-0.014604279,-0.000825993,0.009965777,-0.022587141
1.77E+18,2.648132324,-0.014203882,-0.053530149,-0.029455519,0.002403089,0.006538556,-0.016116459
1.77E+18,2.658121582,-0.04494155,-0.050936114,-0.008360417,0.004144758,0.000145097,-0.009090926
1.77E+18,2.668109375,-0.001947627,-0.04360621,0.010878391,0.000795034,-0.004536473,-0.001945931
1.77E+18,2.678098389,0.143304894,-0.043414779,-0.003069032,0.002122099,0.003231811,-0.00730469
1.77E+18,2.688086426,0.07063947,-0.03621778,-0.010814678,-0.000472886,0.010448445,-0.011800372
1.77E+18,2.698075439,-0.05431845,-0.041264469,0.023144583,6.88E-05,0.012086893,-0.008273462
1.77E+18,2.708064209,-0.067545011,-0.044258171,0.02334975,-0.000730128,0.009384049,0.003428734
1.77E+18,2.718052246,-0.057438043,-0.034394948,-0.007177198,-0.001099566,0.003248854,0.0140751
1.77E+18,2.728041504,0.021054478,-0.026494331,0.001622194,-0.001741654,0.0019226,0.021540474
1.77E+18,2.738029541,0.032047582,-0.022395079,-0.00601926,-0.002644089,-0.002808129,0.025021881
1.77E+18,2.748018311,0.030801381,-0.031192572,-0.019671207,-0.002563129,-0.0090599,0.027433639
1.77E+18,2.758006348,0.053235331,-0.048019496,-0.024926205,-0.001146266,-0.012695987,0.024878021
1.77E+18,2.767995361,0.062148705,-0.04762794,-0.039824353,0.000403694,-0.014988435,0.023802903
1.77E+18,2.777983398,0.057876435,-0.053125441,-0.030360505,-0.003255357,-0.014617104,0.026854746
1.77E+18,2.787972412,0.025492169,-0.04353519,0.011952742,-0.003190642,-0.015431765,0.0319294
1.77E+18,2.797960205,0.01876666,-0.039719358,0.000511311,-0.008301881,-0.014051855,0.034098372
1.77E+18,2.807949219,0.018286183,-0.030551352,0.016334756,-0.007786027,-0.015551746,0.031440001
1.77E+18,2.8179375,0.019731121,-0.045476388,-0.017267653,-0.010047106,-0.011922244,0.0180417
1.77E+18,2.827926514,0.017547347,-0.035728608,-0.027568829,-0.00664625,-0.01379551,0.020719774
1.77E+18,2.837914307,0.039002808,-0.061547963,-0.03909677,-0.006273406,-0.017706526,0.027878784
1.77E+18,2.847903564,0.080955113,-0.055213792,-0.025499037,-0.005820668,-0.014866531,0.028875072
1.77E+18,2.857891357,-0.003768997,-0.038445028,-0.000147007,-0.005944772,-0.014548283,0.025469689
1.77E+18,2.867880371,-0.021093057,-0.034939942,0.0077455,-0.007383944,-0.00376621,0.021970294
1.77E+18,2.877869385,-0.000891396,-0.051504781,-0.002631664,-0.005074558,0.001703562,0.013143234
1.77E+18,2.887857422,-0.033611178,-0.052877092,-0.022002719,-0.007668211,0.007467708,0.006274409
1.77E+18,2.897846436,-0.045229135,-0.051284928,0.003501871,-0.007878173,0.000961881,0.005954183
1.77E+18,2.907834473,0.023572599,-0.055207362,-0.014791619,-0.006929555,-9.59E-05,0.008776335
1.77E+18,2.917823242,0.052125324,-0.04290661,-0.008640256,-0.010043754,-0.000256731,0.013996714
1.77E+18,2.927811279,0.021696284,-0.031258915,-0.0199585,-0.005143005,-0.00359021,0.016747758
1.77E+18,2.937800537,0.020079496,-0.051147638,-0.023808015,-0.001951048,-0.011520666,0.018246839
1.77E+18,2.947788574,0.063675477,-0.061830652,-0.030594752,0.000431682,-0.013964649,0.022405099
1.77E+18,2.957777344,0.063643912,-0.061553662,-0.027433658,0.000684156,-0.008629228,0.019969601
1.77E+18,2.967765137,0.026213469,-0.057426718,-0.027788171,0.000590945,-0.010071596,0.015739702
1.77E+18,2.977754395,-0.006783377,-0.05096439,-0.010750819,0.002170731,-0.009874359,0.014034847
1.77E+18,2.987742432,0.048026657,-0.033288595,-0.023770898,0.001285762,-0.012359887,0.013931783
1.77E+18,2.997731689,0.060923548,-0.058809405,-0.032937078,0.002224796,-0.010220896,0.01425196
1.77E+18,3.007719482,0.036298809,-0.04006788,-0.012411446,0.003059164,-0.009803312,0.016328162
1.77E+18,3.017708252,0.015718963,-0.045655617,-0.019584406,0.003394934,-0.011637448,0.015225839
1.77E+18,3.02769751,0.008560908,-0.044655938,-0.020446576,0.001266536,-0.011830528,0.015299609
1.77E+18,3.037685547,0.028960137,-0.054548898,-0.008852292,0.001476767,-0.009401262,0.012029159
1.77E+18,3.047674316,0.015099369,-0.055543024,-0.016213614,0.00164428,-0.007348497,0.007863177
1.77E+18,3.057662354,0.042108372,-0.034816023,0.002906097,0.000297145,-0.004102034,0.001232791
1.77E+18,3.067651611,0.001949965,-0.035556978,-0.012660598,0.002808772,-0.000339521,-0.002386977
1.77E+18,3.077639404,-0.017663082,-0.024832317,-0.013262802,0.001526782,0.002895743,-0.003835992
1.77E+18,3.087628174,7.60E-06,-0.04513773,-0.005796119,0.001515597,0.002757525,-0.0050203
1.77E+18,3.097616455,-0.013917466,-0.040625148,-0.013994039,0.001677196,0.001150088,-0.004748502
1.77E+18,3.107605469,0.019459318,-0.05567929,-0.011249854,-0.001849095,0.001169529,-0.001698649
1.77E+18,3.117593262,0.045032151,-0.031924686,-0.016726094,-0.001303256,-0.000380361,-0.001202149
1.77E+18,3.127582275,0.042485974,-0.035330549,-0.004747195,-0.002076371,-0.000268775,0.003615509
1.77E+18,3.137570313,0.082650811,-0.029963323,-0.008315408,-0.00014659,0.002908127,0.000342257
1.77E+18,3.147559326,0.042736733,-0.0412142,-0.014753186,0.000249422,0.000669208,0.002281837
1.77E+18,3.157547607,0.052308864,-0.038331046,-0.028579467,0.000328945,-0.005971376,0.007175016
1.77E+18,3.167536621,0.07515081,-0.047557212,-0.030613457,-0.000622869,-0.00517376,0.009431246
1.77E+18,3.177525146,0.064327218,-0.045840691,-0.024618016,-0.002661732,-0.006648807,0.009802464
1.77E+18,3.187513428,0.027478374,-0.046063832,-0.00989464,-0.000445982,-0.004746511,0.009912186
1.77E+18,3.197502441,0.025825346,-0.03661847,-0.016172259,-0.00124946,-0.004064845,0.010467023
1.77E+18,3.207490479,0.032124154,-0.038783758,-0.016645138,-0.00131018,-0.002529799,0.008681374
1.77E+18,3.217479492,0.043221887,-0.049718117,-0.01099398,-0.002451184,-0.000794208,0.006927302
1.77E+18,3.227467285,0.026686347,-0.046528527,-0.009453619,-0.001320938,0.002843404,0.005053502
1.77E+18,3.237456299,0.043567339,-0.05414039,-0.020392215,-0.000852335,0.006175944,-0.000674399
1.77E+18,3.24744458,0.004169979,-0.044578124,-0.009876374,-0.001040354,0.007750671,-0.004039037
1.77E+18,3.25743335,-0.015150223,-0.031357407,0.006014146,-0.002435526,0.008547878,-0.003419917
1.77E+18,3.267421387,0.029768531,-0.03952084,0.0041333,-0.002110887,0.010489056,-0.005604241
1.77E+18,3.277410645,0.022031799,-0.035857641,-0.005603373,-7.94E-05,0.009463016,-0.003126994
1.77E+18,3.287398438,0.026489948,-0.043860623,-0.011458383,-0.000941974,0.005791849,-0.005554998
1.77E+18,3.297387207,0.044250645,-0.043001668,-0.01772928,-0.000289921,0.007773275,-0.003361541
1.77E+18,3.307375244,0.047990416,-0.028738019,-0.019205782,-0.001154117,0.00908355,-0.002072039
1.77E+18,3.317364502,0.020222119,-0.036322044,-0.004105097,-4.12E-05,0.011674806,-0.002317315
1.77E+18,3.327353516,0.009987141,-0.028117841,-0.013249212,0.000293045,0.008779684,0.00202923
1.77E+18,3.337341553,0.041730187,-0.038074002,-0.016176497,-0.001277689,0.002701449,0.006781475
1.77E+18,3.347330322,0.082384269,-0.034996202,-0.03297814,-0.000820158,5.85E-05,0.008244082
1.77E+18,3.357318359,0.052070379,-0.042949572,-0.053303574,0.00105998,-0.012106706,0.001872064
1.77E+18,3.367307617,0.083838559,-0.061867404,-0.038060266,0.002392892,-0.009684561,0.000624906
1.77E+18,3.377295654,0.062862991,-0.036112274,-0.009806962,0.001987346,-0.007246524,0.002052233
1.77E+18,3.387284668,-0.006850597,-0.038703825,0.011855857,0.001311702,-0.004949014,0.001681788
1.77E+18,3.397272949,0.013846155,-0.041862216,-0.013409517,0.001720285,-0.003535228,-0.000256854
1.77E+18,3.407261963,-0.005094693,-0.035455929,-0.006821663,0.000665407,-0.003775445,-0.001390029
1.77E+18,3.41725,0.003925649,-0.027571459,-0.008261632,0.000207558,-0.004526431,-0.000440952
1.77E+18,3.42723877,0.031637832,-0.038051498,-0.016025252,-0.000116549,-0.001962606,-0.005929993
1.77E+18,3.437226807,0.004340075,-0.04158676,-0.004386398,-0.001058032,0.001781679,-0.007239142
1.77E+18,3.44721582,-0.032894554,-0.030022506,0.014790157,-0.001870829,0.006727169,-0.006071347
1.77E+18,3.457203857,-0.001550152,-0.038024976,0.004317425,-0.002501572,0.006580867,-0.005389058
1.77E+18,3.467192871,0.030709611,-0.029175679,-0.006861849,-0.00066985,0.007363304,-0.003993295
1.77E+18,3.477180664,0.050905427,-0.028266163,-0.01219225,-0.003007942,0.008573163,-0.00302398
1.77E+18,3.487169678,0.049399698,-0.025241409,-0.011846505,-0.004202636,0.008494334,-0.004020268
1.77E+18,3.497158936,0.060196402,-0.028295682,-0.0183686,-0.002521758,0.008095956,0.000675532
1.77E+18,3.507146729,0.058410103,-0.028209392,-0.024195553,-0.002557444,0.007631768,-0.001605998
1.77E+18,3.517135986,0.016625556,-0.042917132,-0.026536417,-0.002027794,0.005502922,-0.003756641
1.77E+18,3.527124023,0.031935938,-0.043675841,-0.021200317,-0.002554834,0.002458663,-0.003212824
1.77E+18,3.537112793,0.019857378,-0.027409693,-0.012829963,-0.001045159,0.001247765,-0.000893311
1.77E+18,3.54710083,0.007308862,-0.044575274,-0.003299334,-0.001428654,0.000466393,0.000521893
1.77E+18,3.557089844,0.038564416,-0.034197599,-0.027445202,-0.001569214,-0.001257567,-0.000297574
1.77E+18,3.567077881,0.014320786,-0.037013607,-0.018461832,0.000865448,-7.83E-05,-0.000416617
1.77E+18,3.577066895,0.0197206,-0.034240196,-0.009923574,0.001485973,0.002965119,-0.003812807
1.77E+18,3.587054932,0.014704233,-0.040989232,-0.006809388,-0.000247212,0.003866066,-0.002381624
1.77E+18,3.597043701,0.012350948,-0.042038595,-0.001933306,-0.001439227,0.000813069,0.001376944
1.77E+18,3.607031738,0.043317748,-0.037639849,-0.018772067,5.67E-05,-0.003088195,0.002061377
1.77E+18,3.617020996,0.05178747,-0.041101314,-0.021700667,-0.001426807,-0.006087052,0.003850313
1.77E+18,3.627009033,0.068076926,-0.032037499,-0.02713336,0.000509578,-0.00933025,0.002754955
1.77E+18,3.636997559,0.062297174,-0.052410059,-0.013379414,0.000996256,-0.001117155,0.001115499
1.77E+18,3.646986816,0.008442834,-0.035275604,-0.002356792,0.00063087,0.001843481,-0.001617969
1.77E+18,3.656974854,0.006233341,-0.040341509,-0.00775456,-0.001075818,0.003706801,-0.003701374
1.77E+18,3.666963623,0.034418402,-0.025911563,-0.013883856,0.000493051,0.004913213,-0.005567716
1.77E+18,3.676951904,0.026398178,-0.037859483,-0.003692571,-0.001747615,0.00633187,-0.002600575
1.77E+18,3.686940918,0.024249475,-0.033468189,-0.006654197,0.000156545,0.003934492,-0.00073077
1.77E+18,3.696928711,0.048265141,-0.025699966,-0.005323825,0.000562355,0.003811995,-0.003637458
1.77E+18,3.706917969,0.029143677,-0.039536111,-0.030536593,-0.001299461,0.003250335,-0.007153097
1.77E+18,3.716905762,0.028564416,-0.028726328,-0.014164573,-0.000320334,0.007988205,-0.009579247
1.77E+18,3.726894775,0.007107786,-0.030813071,0.004430384,-0.000985059,0.006387114,-0.008074561
1.77E+18,3.736883057,0.009428923,-0.035845074,-0.002522066,-7.90E-05,0.005433053,-0.005976665
1.77E+18,3.746871826,0.065014032,-0.036470293,-0.001962825,-0.000958384,0.00194085,-0.000844221
1.77E+18,3.756859863,0.076254388,-0.046090574,-0.029077041,0.000673203,-0.000520452,-0.001165284
1.77E+18,3.766848877,0.050204001,-0.025675928,-0.019975305,0.000747505,-0.000531105,-0.001377272
1.77E+18,3.776836914,0.043291445,-0.031696722,0.005247691,-0.00065929,-0.000835737,-0.000684239
1.77E+18,3.786825928,0.036704468,-0.03713263,-0.003327829,-4.76E-05,0.000704635,-0.003361515
1.77E+18,3.796814941,0.01695698,-0.039557738,-0.004683043,-0.001114234,0.000891023,-0.002471831
1.77E+18,3.806802734,0.003192659,-0.031432811,-0.008103958,-0.000995989,0.002508361,-0.004263872
1.77E+18,3.816791748,0.010570494,-0.024266207,-0.001437632,-0.001898567,0.00501356,-0.002756796
1.77E+18,3.826779785,0.005505027,-0.034151057,-0.005853694,-0.000142745,0.000489382,-0.001636937
1.77E+18,3.836768799,0.03962357,-0.032224546,-0.008632658,-0.001423204,0.001010152,-0.000182984
1.77E+18,3.846756592,0.043821606,-0.044618529,-0.010381839,-0.001552367,-4.47E-05,0.000707311
1.77E+18,3.85674585,0.026447277,-0.027599882,-0.01824775,-0.000852861,-0.001041804,0.001117058
1.77E+18,3.866733887,0.036319852,-0.04229878,-0.005558511,0.00018737,0.001305772,0.001443828
1.77E+18,3.8767229,0.019276363,-0.03733882,-0.003770312,-0.001313189,0.00148624,-0.001352771
1.77E+18,3.886710693,0.025420272,-0.041555269,-0.005256313,-0.001026899,0.003341398,-0.002621501
1.77E+18,3.896699951,0.028744448,-0.037420726,-0.013326368,4.22E-05,0.003337024,-0.004626112
1.77E+18,3.906687744,0.016235095,-0.029383623,0.003864128,-0.001058788,0.00332717,-0.002534732
1.77E+18,3.916676758,0.019103344,-0.035396527,-0.011770225,-0.001380632,0.001477531,-0.001825276
1.77E+18,3.926665039,0.041670566,-0.031516982,-0.031055794,-0.001779041,-0.000350729,-0.001167742
1.77E+18,3.936653809,0.02951251,-0.041803544,-0.010773323,-0.000819621,-0.001330311,-0.001858352
1.77E+18,3.946642822,0.042027708,-0.029967561,-0.009202859,-0.0007597,-0.000683429,-0.002007756
1.77E+18,3.956630859,0.031793315,-0.038341494,-0.009751433,-0.001614904,-0.000189199,-0.00344511
1.77E+18,3.966619629,0.025924715,-0.052783057,-0.005753887,-0.000283856,0.003365322,-0.005656865
1.77E+18,3.976607666,0.032086745,-0.04198365,0.009821429,-0.001495379,0.007132871,-0.008795595
1.77E+18,3.986596924,0.017199557,-0.029419863,0.00746566,-0.001040245,0.009634378,-0.010482174
1.77E+18,3.996584961,0.010310966,-0.027705607,0.006163199,-0.001818961,0.012756238,-0.010751787
1.77E+18,4.00657373,0.001497545,-0.022161928,0.008807868,-0.000707357,0.011435045,-0.009423136
1.77E+18,4.016561768,0.015803718,-0.028988413,-0.004755232,-0.001172244,0.00620238,-0.00870767
1.77E+18,4.026550781,0.05238076,-0.035666868,-0.007266484,-0.002629792,0.00685805,-0.007476491
1.77E+18,4.036538818,0.044649289,-0.025715018,-0.016050387,-0.002405368,0.006747889,-0.010172129
1.77E+18,4.046528076,0.030196985,-0.021468393,-0.001449176,-0.000784568,0.007413147,-0.008590477
1.77E+18,4.056515869,0.040599721,-0.028180093,-0.010594605,-0.00211022,0.005050244,-0.009116583
1.77E+18,4.066504639,0.035282326,-0.030024186,-0.022506285,0.000976383,-0.002466794,-0.008079281
1.77E+18,4.07649292,0.063128364,-0.041927828,-0.039433893,-3.68E-05,-0.00535799,-0.003154386
1.77E+18,4.086481934,0.103853173,-0.029851168,-0.006755758,0.001183183,-0.002023445,-0.000800152
1.77E+18,4.096470703,0.039994157,-0.009597119,-0.018045944,-0.000976206,-0.003456922,-0.001199194
1.77E+18,4.106458984,0.016997897,-0.039927887,-0.011339871,0.001481625,-0.004152007,-0.003067934
1.77E+18,4.116447998,0.023043022,-0.041646527,-0.000310381,-0.000138396,-0.002013378,-0.002459082
1.77E+18,4.126435791,0.026852936,-0.025769451,-0.003186521,-0.001578101,-0.002519912,-0.004174424
1.77E+18,4.136424805,0.008834464,-0.032210079,-0.008175415,0.001383102,0.001763637,-0.004771902
1.77E+18,4.146412842,0.017353286,-0.039497752,-0.005901625,0.001391624,0.002048063,-0.005380167
1.77E+18,4.156401855,0.038742111,-0.037281391,-0.010987258,0.000685184,0.001333612,-0.004089287
1.77E+18,4.166389648,0.028702363,-0.036084436,-0.009112258,0.000283313,0.001208443,-0.001908424
1.77E+18,4.176378662,0.024963176,-0.035040845,-0.014576807,0.000683621,3.18E-06,-0.002606733
1.77E+18,4.186366699,0.024645781,-0.028121933,-0.004175824,0.000246596,0.000823961,-0.004181727
1.77E+18,4.196355957,0.030621933,-0.029793592,-0.007162001,-0.000376241,0.001916502,-0.003463757
1.77E+18,4.206343994,0.016281273,-0.01480119,-0.003624036,-0.000462794,0.003726653,-0.003518884
1.77E+18,4.216333008,0.018382044,-0.026336145,0.00407894,0.000586636,0.001208051,-0.00535252
1.77E+18,4.226320557,0.039395606,-0.029065862,-0.005593874,-0.002219537,-0.002275897,-0.004351438
1.77E+18,4.236309814,0.041869303,-0.043899347,-0.01771905,0.001210471,-0.001180993,-0.000651535
1.77E+18,4.246298828,0.018481413,-0.040758273,-0.007808336,0.000507396,-0.000161801,-0.001874725
1.77E+18,4.256286865,0.008553893,-0.041193596,-0.010717209,-0.00026093,0.000153464,-0.001660652
1.77E+18,4.266275879,0.017680618,-0.039300841,-0.00013897,-0.002312363,0.000764659,-0.002458003
1.77E+18,4.276263672,0.022762451,-0.035993835,-0.002115969,-0.000697161,0.001800475,-0.002382121
1.77E+18,4.286252686,0.021854104,-0.036017435,-0.007572043,-0.000232439,0.000308039,-0.001873457
1.77E+18,4.296240967,0.055507368,-0.041107379,-0.013170593,0.000681745,-0.001978551,0.001351365
1.77E+18,4.306229736,0.038605917,-0.029606253,-0.013815321,0.001186946,0.000906718,0.001968952
1.77E+18,4.316217773,0.050597384,-0.044370326,-0.008689502,-0.000450918,0.001988322,0.000766281
1.77E+18,4.326207031,0.031942952,-0.029349282,-0.008012188,0.000626863,0.002634938,0.00033192
1.77E+18,4.336194824,0.030198739,-0.03133841,-0.016199147,0.001151195,0.00359371,0.000874749
1.77E+18,4.346183594,0.025769232,-0.041835108,-0.016503829,-0.000451229,0.003313812,-0.000407563
1.77E+18,4.356171875,0.015785598,-0.034013548,-0.01026099,0.000109445,0.000876307,-0.001472701
1.77E+18,4.366160889,0.028068741,-0.020971257,-0.009832535,0.000281218,0.003355177,-0.001051921
1.77E+18,4.376148682,0.001047463,-0.033022491,0.00302417,-0.000168966,0.00354969,0.001062529
1.77E+18,4.386137939,0.00904723,-0.033931423,-0.006427841,-0.000173493,0.00126816,-0.000200609
1.77E+18,4.396126221,0.029121465,-0.039365869,-0.017212562,0.000175365,0.003244115,0.000446753
1.77E+18,4.406114258,0.033065234,-0.039163478,-0.010389584,-0.00137566,0.003125338,0.000381506
1.77E+18,4.416103516,0.024753333,-0.028693668,-0.012448124,-0.001286095,0.003691637,-0.002442457
1.77E+18,4.426091553,0.02494038,-0.02877309,-0.006063976,4.50E-05,0.001882019,-0.00263607
1.77E+18,4.436080078,0.028688334,-0.029989261,-0.010313158,-0.001408437,-2.66E-05,-0.000531779
1.77E+18,4.446068115,0.043179801,-0.020186683,-0.011787761,0.001104789,-0.002796003,0.001106864
1.77E+18,4.456057373,0.057480129,-0.043005833,-0.015226795,0.000844204,-0.002080085,0.00147245
1.77E+18,4.46604541,0.036510406,-0.044032838,-0.015964316,0.000395461,-0.00061801,0.002476728
1.77E+18,4.476034424,0.043552726,-0.037156522,-0.005456512,6.17E-05,0.000987893,0.000447971
1.77E+18,4.486022217,0.025459435,-0.032051892,-0.006442454,-0.000626226,0.000369507,-0.000195715
1.77E+18,4.49601123,0.016503391,-0.030938305,-0.006093641,-0.001325057,7.55E-06,0.00025588
1.77E+18,4.505999268,0.021298809,-0.013676205,-0.004012597,-0.000805475,-0.001146399,0.002561645
1.77E+18,4.515988525,0.039119127,-0.029592882,-0.007192396,-0.000149132,-0.001632245,0.002843014
1.77E+18,4.525977295,0.036133974,-0.034282574,-0.003508739,0.001738783,0.001611219,0.002268304
1.77E+18,4.535965088,0.02854688,-0.039828153,-0.013127046,-0.000126517,0.001645203,0.003043652
1.77E+18,4.545954346,0.028567923,-0.03326346,-0.0111084,0.00017735,0.000988468,-0.000333503
1.77E+18,4.555942383,0.034270518,-0.029288565,0.011592092,-0.000430945,0.001749465,0.000869099
1.77E+18,4.565931152,0.031911388,-0.031388022,0.000209405,-0.000309505,0.001012302,-0.00050669
1.77E+18,4.575919434,0.018923312,-0.034035687,-0.010271949,-0.000413286,0.000935232,0.0011767
1.77E+18,4.585908447,0.027968203,-0.026954569,-0.015270634,-0.000188249,8.30E-05,0.005991961
1.77E+18,4.59589624,0.054658642,-0.016858707,-0.018210195,-7.98E-05,0.000702849,0.004994127
1.77E+18,4.605885254,0.038083939,-0.03774477,-0.008600071,0.000471992,0.000381672,0.002230298
1.77E+18,4.615873291,0.024950901,-0.035737084,-0.011487463,0.000872216,0.001608375,-0.000130544
1.77E+18,4.625862305,0.019604864,-0.034837139,-0.005036533,0.001010966,0.002082684,0.000324057
1.77E+18,4.635850586,0.030267712,-0.044599678,-0.006244301,-0.000872287,0.000747856,0.002115516
1.77E+18,4.645839355,0.042701078,-0.032267946,-0.013195582,0.000692853,0.000260764,-0.000597979
1.77E+18,4.655827148,0.041809682,-0.036628991,-0.016322189,-0.000254238,-0.000761791,0.00100858
1.77E+18,4.665816406,0.038994624,-0.037646278,-0.012670681,-0.001039338,0.001561551,0.00214575
1.77E+18,4.675804443,0.028744448,-0.029836993,-0.00434329,-0.000890333,0.002142275,0.002454004
1.77E+18,4.685793457,0.029548751,-0.024381139,-0.001160276,9.77E-05,0.001552918,0.002065449
1.77E+18,4.695782471,0.031678748,-0.032649055,-0.017113193,-0.001024719,-0.000400561,0.002223715
1.77E+18,4.705770264,0.037841947,-0.041709948,-0.013212094,-0.001941912,-0.00064211,0.00396489
1.77E+18,4.715759277,0.048519993,-0.029031376,-0.001544161,-0.000910553,-0.000541735,0.006400403
1.77E+18,4.725747559,0.043442836,-0.030475729,-0.010062398,0.001164848,-0.001528702,0.003806217
1.77E+18,4.735736328,0.031018239,-0.044541079,-0.006923516,0.000427712,-0.001298938,0.003408327
1.77E+18,4.745724121,0.026250294,-0.035725613,-0.006165245,-0.000248199,0.00127261,0.002551589
1.77E+18,4.755713379,0.016872224,-0.033306861,-0.00243015,-0.000452852,0.001986916,-0.000134362
1.77E+18,4.765701416,0.010787351,-0.031649668,0.000620032,0.001174339,0.003086269,0.001271787
1.77E+18,4.775690186,0.01279986,-0.03400573,-0.01038257,0.000813487,0.002052026,0.002167256
1.77E+18,4.785678223,0.034768531,-0.026148294,-0.025711364,0.002154921,-0.006220285,0.000747259
1.77E+18,4.79566748,0.071907883,-0.042123935,-0.01277984,0.003352704,-0.003623895,0.002173234
1.77E+18,4.805655273,0.05997896,-0.035691856,-0.006607143,0.000533482,0.003121625,0.004015876
1.77E+18,4.815644043,-0.004158289,-0.028388328,0.027593817,-0.000596805,1.39E-05,0.004750395
1.77E+18,4.825632324,0.043728083,-0.042440308,-0.010003654,-0.000485219,-0.004321487,0.006028446
1.77E+18,4.835621338,0.048006783,-0.051436757,-0.036349224,-0.000570152,-0.005736814,0.006295892
1.77E+18,4.845610596,0.047182607,-0.033309564,-0.017763474,-6.65E-05,-0.00718584,0.0059867
1.77E+18,4.855598389,0.034677346,-0.04175386,-0.012133652,0.000656334,-0.00399123,0.003257353
1.77E+18,4.865587158,0.006391162,-0.035625221,-0.005940934,0.000162584,0.002075184,0.001263178
1.77E+18,4.875575195,6.43E-05,-0.033438451,0.015567133,0.000435934,0.004449727,0.001577518
1.77E+18,4.885564453,0.00290975,-0.039295142,-0.012175737,-0.00076888,0.006973871,0.003581281
1.77E+18,4.89555249,0.018062895,-0.024796734,-0.013501579,-0.002514394,0.009038223,0.004912842
1.77E+18,4.90554126,0.037608138,-0.023748028,-0.005924422,-0.002503208,0.008557523,0.004140791
1.77E+18,4.915529297,0.046660044,-0.028868294,-0.017758506,-0.002380899,0.00871381,-0.000270436
1.77E+18,4.925518311,0.009008651,-0.015516207,0.010025281,-0.001283144,0.007875446,0.000462466
1.77E+18,4.935506348,0.020125089,-0.037850204,-0.014202421,-0.000608977,0.008828213,0.002910659
1.77E+18,4.945495361,0.022557869,-0.041022696,-0.018612492,0.001426211,0.006383697,0.00217536
1.77E+18,4.955483154,0.023615853,-0.033084012,-0.014287761,0.001907774,0.006215051,0.003073822
1.77E+18,4.965472168,0.006857611,-0.050206193,-0.007041881,0.002785552,0.002558264,0.00249272
1.77E+18,4.975460449,0.033525838,-0.045961322,-0.022283874,0.001772355,-0.00138543,0.002456641
1.77E+18,4.985449219,0.06790157,-0.035867578,-0.019111674,0.002665579,-0.002789715,0.002770095
1.77E+18,4.995438232,0.065735332,-0.030110622,-0.017326982,0.001878196,-0.00652473,0.005158506
1.77E+18,5.005426514,0.048568508,-0.031473362,-0.019236323,0.002316819,-0.00852077,0.008022203
1.77E+18,5.015415527,0.035110476,-0.057644526,-0.022079876,0.00468601,-0.01126282,0.009440933
1.77E+18,5.02540332,0.032093759,-0.04336809,-0.028394612,0.003019404,-0.013728907,0.008877675
1.77E+18,5.035392334,0.047742579,-0.038136546,-0.015678338,0.003881966,-0.011103797,0.006509673
1.77E+18,5.045380371,0.056981532,-0.045788522,-0.022935178,0.003589817,-0.008534646,0.003257154
1.77E+18,5.055369385,0.021095395,-0.029679026,0.00730214,0.002393981,-0.004197557,0.001757282
1.77E+18,5.065357422,-0.009465747,-0.022546032,0.012227321,0.002105294,0.000442469,-0.000349811
1.77E+18,5.075346191,-0.013523498,-0.040831557,0.015202976,0.000488773,-0.000787637,8.66E-05
1.77E+18,5.085334229,0.016803835,-0.033595323,-0.008166209,0.000381714,-0.002771159,0.003000597
1.77E+18,5.095323486,0.037182022,-0.02729856,-0.023895255,-0.000227907,-0.000871828,0.005625333
1.77E+18,5.105311523,0.031063831,-0.009776786,-0.010477409,-0.000539496,-0.002399949,0.007391541
1.77E+18,5.115300293,0.060114569,-0.024326047,-0.010163082,-0.000979228,-0.000398738,0.004213109
1.77E+18,5.125288086,0.037397126,-0.024470205,-0.007940145,-0.001451407,0.000135759,0.00594443
1.77E+18,5.135277344,0.024589667,-0.031309988,0.002815496,-0.003055546,0.002503719,0.002359684
1.77E+18,5.145266357,0.026940614,-0.029771526,0.007769319,-0.003493103,0.004166863,0.004662519
1.77E+18,5.15525415,0.035758711,-0.040662704,-0.00083762,-0.003203608,0.003365537,0.007512068
1.77E+18,5.165243408,0.028957214,-0.030364816,-0.009473492,-0.002345537,-0.002258527,0.007662004
1.77E+18,5.175231201,0.038092123,-0.040222047,-0.016290771,-0.001296401,-0.005042122,0.006558455
1.77E+18,5.185220459,0.040409167,-0.032820393,-0.013104396,-0.002583773,-0.008437386,0.0048527
1.77E+18,5.195208496,0.027234628,-0.029107875,-0.019050591,-0.003336274,-0.007856252,0.002308929
1.77E+18,5.205197266,0.01369301,-0.02659823,0.010708879,-0.003037467,-0.000525635,0.002015182
1.77E+18,5.215185303,-0.004648703,-0.032314854,0.012382219,-0.005158356,0.002950565,0.005043269
1.77E+18,5.225174561,-0.007659575,-0.031424993,0.014498627,-0.004688042,0.004092795,0.007297368
1.77E+18,5.235162354,0.03110241,-0.032051089,-0.00446034,-0.004649537,0.002045588,0.008980408
1.77E+18,5.245151123,0.065484572,-0.038690454,-0.018195728,-0.006005885,-0.003024538,0.014622848
1.77E+18,5.255139404,0.07222937,-0.028089199,-0.019594197,-0.005814404,-0.013561601,0.019528124
1.77E+18,5.265128418,0.101862292,-0.037773704,-0.049113867,-0.004879634,-0.017539032,0.01905062
1.77E+18,5.275117432,0.100430798,-0.02854878,-0.037458793,-0.00221221,-0.018169299,0.016321311
1.77E+18,5.285105225,0.059961424,-0.047995238,-0.028707185,0.000483708,-0.010976633,0.010594449
1.77E+18,5.295094238,0.00826397,-0.034553573,-0.001075228,-0.00318522,-0.002444364,0.008197151
1.77E+18,5.305082275,-0.030273558,-0.037998526,0.013589549,-0.002636076,0.00147714,0.006503913
1.77E+18,5.315071533,-0.011000702,-0.034305151,0.006511282,-0.002053391,0.0020948,0.005820991
1.77E+18,5.325059326,0.007077391,-0.035502544,0.003134353,-0.002360187,0.00104445,0.009626382
1.77E+18,5.335048096,0.045600891,-0.042444399,-0.021506022,-0.000942786,-0.003317803,0.008058906
1.77E+18,5.345036377,0.077128832,-0.035939328,-0.030304245,9.00E-05,-0.007861422,0.008928695
1.77E+18,5.355025391,0.075991937,-0.044682607,-0.035760757,0.000293241,-0.00610249,0.004996943
1.77E+18,5.365013428,0.037640287,-0.050350277,-0.019542174,0.002444276,0.001151694,-0.001242045
1.77E+18,5.375002441,-0.020962124,-0.024601796,0.019365064,-0.000254038,0.005349471,-0.002127112
1.77E+18,5.384990234,-0.012024784,-0.019179478,0.010993395,-0.000357635,0.004442398,0.001231401
1.77E+18,5.394980713,0.044013329,-0.023442397,-0.012456015,-0.000119335,-0.001551492,0.003828908
1.77E+18,5.40496875,0.062686466,-0.028266163,-0.023363924,0.00050491,-0.004094811,0.005369014
1.77E+18,5.414957764,0.062479545,-0.043185354,-0.018178485,0.000978096,-0.00226411,0.002427979
1.77E+18,5.424945557,0.014006314,-0.036535102,-0.013317601,-0.000205679,0.003304027,-0.00048179
1.77E+18,5.43493457,-0.016266075,-0.029780221,0.01718129,-0.002288856,0.007777261,-0.002815226
1.77E+18,5.444923584,-0.029616555,-0.036808512,0.007539602,0.001390035,0.005934354,-0.00346051
1.77E+18,5.454911865,0.011303484,-0.019437983,-0.00856763,0.000228683,0.002904286,0.000724622
1.77E+18,5.464900879,0.05801029,-0.038614758,-0.020091771,0.000945339,-0.003705946,0.00216699
1.77E+18,5.474888672,0.071698624,-0.033520138,-0.034160921,0.003058506,-0.006492488,0.003583018
1.77E+18,5.484877686,0.064267013,-0.031140769,-0.025361674,0.002922951,-0.002816794,-0.000733699
1.77E+18,5.494865723,0.027134091,-0.031216465,-0.01068506,0.0032755,0.004276089,-0.004222314
1.77E+18,5.504854736,-0.03982523,-0.023619507,0.009425708,0.001985464,0.006081979,-0.004880114
1.77E+18,5.514842773,-0.033136546,-0.026754298,-0.005801964,0.002191271,0.007572266,-0.005631165
1.77E+18,5.524831787,0.016080197,-0.021139892,-0.01773454,0.002655993,-0.005141133,-0.006072717
1.77E+18,5.53481958,0.074400284,-0.026672757,-0.040287148,0.000665868,-0.005042311,-0.002010292
1.77E+18,5.544808594,0.100732411,-0.029864685,-0.014525077,0.001431793,-0.008900965,0.001640103
1.77E+18,5.554796875,0.049041971,-0.014855989,0.008116963,0.001133893,-0.008771441,-0.002830533
1.77E+18,5.564785645,0.039992988,-0.032869639,-0.02431801,0.001672917,-0.006719742,-0.00451658
1.77E+18,5.574773682,0.015751111,-0.025167686,-0.002758651,-0.000444084,-0.002932908,-0.002703906
1.77E+18,5.584762695,0.006273089,-0.020080373,0.002113339,-0.001282181,0.001405648,-0.004420846
1.77E+18,5.594751465,0.008638064,-0.034406054,0.000940934,-0.002396445,0.002425046,-0.006570484
1.77E+18,5.604739502,0.018409517,-0.031616204,0.006760434,-0.002226003,0.005928434,-0.004285491
1.77E+18,5.61472876,0.009518354,-0.041287411,0.008094459,-0.00209269,0.004805242,-0.00369984
1.77E+18,5.624716797,0.003736848,-0.03415829,0.005055676,0.000195498,0.003174588,-0.002582111
1.77E+18,5.634705811,0.032783495,-0.043452627,-0.016740853,-0.000857191,0.002101557,-0.003303458
1.77E+18,5.644693848,0.044765609,-0.025328576,-0.004429799,-0.0010532,0.001818197,-0.002178538
1.77E+18,5.654682617,0.050765726,-0.021991102,-0.016702567,-0.000254198,0.001891881,-0.002399174
1.77E+18,5.664670654,0.052131169,-0.024468305,-0.010841127,0.001388972,0.00267485,-0.002088384
1.77E+18,5.674659912,0.03222703,-0.020389439,-0.002167699,-0.000102345,0.000717074,-0.004116773
1.77E+18,5.684647949,0.018472061,-0.032283655,-0.01285729,-6.67E-05,0.001534132,0.000577847
1.77E+18,5.694636475,0.030001171,-0.040014688,-0.013553163,-0.000512106,0.001371258,0.002569609
1.77E+18,5.704624756,0.026727848,-0.035203781,-0.016827508,-0.001277499,-0.000427974,0.003439131
1.77E+18,5.71461377,0.030605566,-0.037771805,-0.02571984,-0.001592972,-0.001254317,-0.000423175
1.77E+18,5.724601807,0.02251929,-0.020514453,-0.022876872,0.00107445,0.000755837,0.000128099
1.77E+18,5.73459082,0.021360183,-0.023031843,-0.005122458,-0.00091131,0.002078801,0.003092717
1.77E+18,5.744579834,0.020823008,-0.032283363,-0.00844035,-0.000334735,0.000432967,0.002831195
1.77E+18,5.754567627,0.033843817,-0.033073491,-0.005815554,0.000718866,-0.004545263,0.005869901
1.77E+18,5.764556641,0.052642041,-0.031459699,-0.034615971,0.001315947,-0.007078994,0.008709363
1.77E+18,5.774544678,0.065761051,-0.033461613,-0.029728783,0.00317968,-0.003240236,0.005712216
1.77E+18,5.784533691,0.069367551,-0.024492636,-0.021947482,0.002010552,9.86E-05,0.004275174
1.77E+18,5.794521973,0.012711013,-0.02417283,0.00455664,0.000364394,0.002571193,0.000632033
1.77E+18,5.804510742,0.003519406,-0.035124943,0.00219751,0.001209681,0.004562172,-0.001078782
1.77E+18,5.814498535,0.012892215,-0.038089419,0.006853519,-0.000303258,0.005451239,-0.002247212
1.77E+18,5.824487793,0.008128946,-0.035860345,-0.000312865,-0.000983696,-0.000458316,9.64E-05
1.77E+18,5.83447583,0.038236499,-0.011407968,-0.015425679,8.81E-05,0.002441573,0.000932481
1.77E+18,5.844464844,0.015673954,-0.027247049,-0.004657032,-0.001852307,-0.000670597,-0.000792715
1.77E+18,5.854452637,0.04813304,-0.017026538,-0.01509104,-0.002102808,0.000615394,-0.000924928
1.77E+18,5.86444165,0.057122986,-0.034021585,-0.012783932,-0.000687604,0.004301475,-0.004915142
1.77E+18,5.874430664,0.032374329,-0.03154745,0.000848287,-0.003711623,0.0072267,-0.004733095
1.77E+18,5.884418701,0.03492226,-0.02772928,0.017194442,-0.002011194,0.011992959,-0.00762875
1.77E+18,5.894407715,0.022236966,-0.033149405,0.003968465,-0.002946238,0.011597333,-0.008907925
1.77E+18,5.904395508,0.011184242,-0.029257586,-0.006603198,-0.002398958,0.010630339,-0.008090336
1.77E+18,5.914384521,0.01806991,-0.038903804,-0.009200228,-0.001289344,0.009421248,-0.007340164
1.77E+18,5.924372803,0.009741642,-0.027924803,-0.024189123,-0.000925024,0.003967893,-0.007681315
1.77E+18,5.934361572,0.049426002,-0.032511911,-0.026691461,0.000729888,0.005384256,-0.008192362
1.77E+18,5.944349609,0.052200143,-0.018935148,-0.008685411,-0.00034017,0.006813042,-0.00515556
1.77E+18,5.954338867,0.035977322,-0.029830636,0.00513371,0.001766941,0.003806098,-0.001568465
1.77E+18,5.96432666,0.068785367,-0.037355187,-0.02151815,0.002395714,-0.000244304,0.001121061
1.77E+18,5.974315674,0.065337857,-0.027293081,-0.025250615,0.00174976,-0.00231929,0.002787192
1.77E+18,5.984303711,0.036006548,-0.029111601,-0.011494623,0.000688756,-0.002796528,0.002880935
1.77E+18,5.994292725,0.031515082,-0.025287294,0.000521686,0.002493213,0.000607585,0.002859298
1.77E+18,6.004280762,0.029022681,-0.031974809,-0.004558832,0.001986413,0.002393235,-5.18E-05
1.77E+18,6.014269775,-0.002613982,-0.022672654,0.005747458,0.001567647,0.004735956,-0.001211278
1.77E+18,6.024258545,0.00977496,-0.025071021,0.002783201,0.001296537,0.004922378,0.001126977
1.77E+18,6.034246582,0.030510874,-0.029847003,-0.020424802,0.001772835,0.001529201,0.001683614
1.77E+18,6.04423584,0.033517654,-0.034446825,-0.0195223,-4.85E-05,-0.001338491,0.00189933
1.77E+18,6.054223877,0.036595162,-0.023000644,-0.02595511,0.001176291,-0.006235976,0.002495701
1.77E+18,6.064212646,0.045296939,-0.033982861,-0.019160774,-0.000368343,-0.006229851,-0.000700092
1.77E+18,6.074200684,0.051430912,-0.033367286,-0.020292116,0.002917441,-0.004110266,-0.003350862
1.77E+18,6.084189697,0.026026422,-0.026689269,-0.009573592,0.00200371,-0.001823942,-0.00288401
1.77E+18,6.094177734,0.023887072,-0.032850057,0.001224719,0.002820424,0.001997875,-0.001795169
1.77E+18,6.104166748,0.027664252,-0.030229353,-0.002035159,0.002529874,0.002883376,0.000288754
1.77E+18,6.114154541,0.034298575,-0.045802843,0.000708002,0.000628245,0.001866985,0.000190391
1.77E+18,6.124143555,0.046752983,-0.037766471,-0.010396014,0.000638898,0.001641682,0.00068787
1.77E+18,6.134131592,0.03556465,-0.033030455,-0.00549246,-0.001019119,0.000838538,9.39E-05
1.77E+18,6.14412085,0.041437926,-0.028523207,-0.002639555,0.001165205,0.002454278,-0.000589753
1.77E+18,6.154108643,0.031595162,-0.012976167,-0.014197744,-0.000866622,0.003613073,-0.002119163
1.77E+18,6.1640979,0.012944822,-0.010034487,-9.81E-05,-0.001258906,0.003102812,-0.002161241
1.77E+18,6.174085693,0.026021161,-0.033040392,-0.002553922,-0.000634199,0.004610608,-0.00328682
1.77E+18,6.184074707,0.015598551,-0.0353003,0.010058453,-0.002659799,0.003366379,-0.000834048
1.77E+18,6.194063721,0.024350013,-0.015619667,0.011281565,-0.001277316,0.003718112,0.001884954
1.77E+18,6.204051758,0.022775311,-0.010077304,-0.006001579,-0.000624042,0.00165576,0.004127602
1.77E+18,6.214040771,0.025049101,-0.02309161,-0.011639731,-0.002191888,-0.000884081,-3.49E-05
1.77E+18,6.224028564,0.049858548,-0.026756855,-0.012923487,3.89E-06,0.000485583,-0.000768844
1.77E+18,6.234017578,0.043182139,-0.027016236,-0.008113894,-0.002122163,0.005163463,-0.001237557
1.77E+18,6.244005615,0.036304655,-0.031637101,0.002462006,-0.001375679,0.009007203,-0.001916929
1.77E+18,6.253994873,0.001212883,-0.021637393,0.008571283,-0.001539669,0.012027459,-0.000669048
1.77E+18,6.26398291,-0.020559973,-0.026945655,1.46E-06,-0.004377267,0.009211699,-0.001962812
1.77E+18,6.27397168,0.02225041,-0.030231618,-0.017674919,-0.001249383,0.00262663,0.000540116
1.77E+18,6.283959473,0.042677112,-0.03566285,-0.041564621,-0.0004515,-0.004738075,0.000158752
1.77E+18,6.29394873,0.089018008,-0.031140184,-0.031413375,0.000284687,0.001101231,0.000959234
1.77E+18,6.303936768,0.049198038,-0.022362858,0.009495704,-0.001767012,-0.003949187,0.00107082
1.77E+18,6.313925781,0.044589668,-0.011576456,-0.021436756,-9.94E-05,-0.005540838,-0.003392167
1.77E+18,6.323913574,0.035004093,-0.047200581,-0.018649755,-0.002411327,-0.004714459,-0.001639275
1.77E+18,6.333902588,0.014068857,-0.023713176,-0.012248802,-0.001678658,-0.006051968,-0.000554122
1.77E+18,6.343891602,0.021137481,-0.019421982,-0.007505115,8.97E-05,-0.002120344,-0.005581106
1.77E+18,6.353879883,0.006710311,-0.030475802,-0.012859335,0.000709385,0.0035706,-0.005886295
1.77E+18,6.363868652,-0.015847557,-0.015011545,-0.009039923,0.001065183,0.005149322,-0.00457096
1.77E+18,6.373856689,-0.007402385,-0.013965105,0.003548048,0.000641238,0.004664928,-0.004440654
1.77E+18,6.383845947,0.021077859,-0.023807796,0.00472396,0.000827393,0.001256614,-0.00029065
1.77E+18,6.393832764,0.058625207,-0.02100041,-0.013595395,-0.000285245,-0.001676638,0.001035714
1.77E+18,6.403821777,0.05527239,-0.026721491,-0.022683395,-0.001316953,-0.00404765,0.001258354
1.77E+18,6.413809814,0.056664137,-0.02958616,-0.021917963,0.000152131,-0.004768796,0.000249286
1.77E+18,6.423798828,0.044775546,-0.024014936,0.000121727,0.000695682,-0.000107732,-0.002292169
1.77E+18,6.433786621,0.030830023,-0.032094343,0.004182108,-0.000902889,-6.63E-05,-0.003847506
1.77E+18,6.443775635,-0.01203063,-0.032134822,0.012868103,-3.31E-05,-0.003706839,-0.00015956
1.77E+18,6.453763916,0.014348843,-0.023868221,-0.018286329,0.000140222,-0.006330073,0.001907885
1.77E+18,6.463752686,0.032609307,-0.02701704,-0.029115912,0.000689365,-0.007048061,0.001977128
1.77E+18,6.473740479,0.035113983,-0.021314152,-0.022157325,-0.000113824,-0.009435145,0.00120526
1.77E+18,6.483729736,0.058300213,-0.036181101,-0.030599429,0.001097115,-0.006342417,8.65E-05
1.77E+18,6.493718506,0.027335751,-0.031520635,-0.011925854,0.000203472,-0.004507291,-0.003075976
1.77E+18,6.503706543,0.011980361,-0.017309447,-0.001692191,0.001267671,-0.000552763,-0.002075959
1.77E+18,6.513695801,0.010409166,-0.032471725,-0.001580839,0.000566166,-0.002586225,-0.002134722
1.77E+18,6.523683838,0.045211015,-0.011724559,-0.006731062,0.001714787,-0.002238416,-0.001555219
1.77E+18,6.533672607,0.035890813,-0.021088892,-0.019296237,0.001023857,-0.000513933,0.001543229
1.77E+18,6.543660645,0.023459202,-0.025987259,-0.005328648,0.00171841,-0.001667881,0.001944834
1.77E+18,6.553649658,0.015174188,-0.017656214,-0.011554536,0.000534836,-0.00481017,0.000973216
1.77E+18,6.563637695,0.021783962,-0.031831674,-0.012403701,0.002621156,-0.007830194,0.002274171
1.77E+18,6.573626953,0.046435588,-0.025575025,-0.025665479,0.002540305,-0.008956772,0.000584994
1.77E+18,6.583614746,0.062384852,-0.016538755,-0.025894904,0.002272923,-0.00595246,-0.000561231
1.77E+18,6.593603516,0.037333413,-0.018614684,0.004237491,0.000209109,0.001295471,-0.000202283
1.77E+18,6.603591797,-0.008853753,-0.027651539,0.019681144,0.001498079,0.001596142,0.000398792
1.77E+18,6.613580811,0.01336217,-0.033511005,-0.004125263,0.000622694,0.000596562,0.004448192
1.77E+18,6.623568848,0.036281858,-0.028452772,-0.024595074,0.001516184,-0.003592057,0.005732634
1.77E+18,6.633557861,0.022310031,-0.020517303,-0.029508126,0.003143527,-0.005725232,0.005056496
1.77E+18,6.643546631,0.018607085,-0.020151173,-0.024598581,-0.000116715,-0.0092438,0.004974204
1.77E+18,6.653534668,0.044126142,-0.021439532,-0.021403,0.000975116,-0.013219375,0.002385725
1.77E+18,6.663523682,0.069330726,-0.022090982,-0.016074498,0.000680038,-0.009435023,0.005230514
1.77E+18,6.673511719,0.069665657,-0.019545827,-0.008593495,0.000787678,-0.002194191,0.0026278
1.77E+18,6.683500732,0.016273089,-0.028999154,0.001166267,0.00055838,0.002798969,0.000719912
1.77E+18,6.693488525,0.007260931,-0.037435047,0.01133651,-0.000633539,0.007158316,0.001803787
1.77E+18,6.703477783,-0.008576105,-0.036572658,0.0029815,0.002427232,0.005226193,0.002988894
1.77E+18,6.713465576,-0.007379004,-0.014510902,-0.001529986,0.000837676,0.002849777,0.005979915
1.77E+18,6.723454834,0.044160629,-0.036961365,-0.013064064,0.00216979,-0.002330604,0.005821723
1.77E+18,6.733442871,0.057727382,-0.035449718,-0.029849049,0.002551966,-0.007007965,0.006038456
1.77E+18,6.743431885,0.03730068,-0.029400793,-0.023064795,0.003100311,-0.00453016,0.005325528
1.77E+18,6.753419678,0.042830257,-0.029581776,-0.000490852,0.001427446,-0.001571803,0.007009387
1.77E+18,6.763408691,0.023580782,-0.037165436,0.000371171,0.001833046,0.001144887,0.006106576
1.77E+18,6.773396729,0.033378538,-0.041590048,-0.000330986,0.001632317,0.001291871,0.003127901
1.77E+18,6.783385742,0.010713117,-0.043138519,-0.022998014,0.001784916,0.004026671,0.001289787
1.77E+18,6.793374756,-0.020957448,-0.02273571,-0.022459669,0.002696129,0.002114727,-0.003613361
1.77E+18,6.803362549,-0.025122751,-0.017808263,-0.001957125,0.000733113,0.004806117,-0.00480193
1.77E+18,6.813351563,-0.008327099,-0.003683584,0.000298983,0.002439571,0.002133437,-0.00284222
1.77E+18,6.823339844,-0.018247604,-0.01381459,-0.006309475,0.002506149,-0.003064254,-0.004609494
1.77E+18,6.833328613,0.013311317,-0.035392143,-0.003939093,0.000576617,-0.006061847,-0.004255893
1.77E+18,6.84331665,0.046042789,-0.03008673,-0.001092618,0.00371249,-0.006463451,-0.003763208
1.77E+18,6.853305664,0.031888592,-0.029526027,-0.0074056,0.001929531,-0.007518383,-0.006013359
1.77E+18,6.863293701,0.053624623,-0.018533874,-0.018467385,0.001663748,-0.011518983,-0.003135014
1.77E+18,6.873282715,0.06786416,-0.023025267,-0.023335137,0.002306585,-0.009710941,-0.003846413
1.77E+18,6.883270752,0.048053545,-0.03073986,-0.008071078,0.003213924,-0.00592366,-0.002287399
1.77E+18,6.893259766,0.036699207,-0.030861002,0.002481442,0.002534867,-0.005428852,-0.000396709
1.77E+18,6.903247559,0.044089902,-0.037207595,-0.0037519,0.002690129,-0.003932688,0.000262157
1.77E+18,6.913236816,0.028731589,-0.028346608,0.001413666,0.001895892,-0.004270932,-0.000693049
1.77E+18,6.923224854,0.036714989,-0.015091113,-0.010911562,-6.29E-05,-0.002441074,-0.001364166
1.77E+18,6.933213623,0.030192894,-0.019672157,-0.014016543,-0.000507103,-0.003875219,-0.003521406
1.77E+18,6.943202881,0.032620413,-0.024783071,-0.009573446,-0.000221612,-0.003360963,-0.001782895
1.77E+18,6.953190918,0.051673489,-0.016732597,-0.007312223,-0.001328987,-0.002367965,-0.002314208
1.77E+18,6.963179443,0.039365796,-0.018118717,0.001114976,0.000713391,0.000614776,-0.000506987
1.77E+18,6.973167725,0.020669863,-0.027639191,0.004617431,0.000958132,0.001195816,0.00036047
1.77E+18,6.983156738,0.029391514,-0.028051059,0.001964724,-0.001979601,0.003082932,0.001030788
1.77E+18,6.993144775,0.0243845,-0.039836044,-0.006451514,-0.002000719,0.004738259,-0.002531203
1.77E+18,7.003133789,0.01112579,-0.032336555,0.010842881,3.21E-05,0.004336921,-0.004851615
1.77E+18,7.013121582,0.032741994,-0.035652328,-0.012178075,0.000874165,0.003836676,-0.00519533
1.77E+18,7.023110596,0.028444004,-0.031022476,-0.010993249,0.001907738,0.00536107,-0.007056081
1.77E+18,7.033098633,0.017591771,-0.027212563,0.004944325,0.000360517,0.006605985,-0.00484917
1.77E+18,7.043087646,0.001204115,-0.022317046,-0.003717851,-0.00019129,0.006939679,-0.008659089
1.77E+18,7.053075684,0.006623802,-0.018808818,-0.011740999,0.000269292,0.001771739,-0.008468913
1.77E+18,7.063064697,0.035519057,-0.015539588,-0.023559301,-0.000942447,-0.00149596,-0.008751741
1.77E+18,7.073052734,0.090850484,-0.030296719,-0.019360972,-0.002079311,0.005045716,-0.005075564
1.77E+18,7.083041748,0.02519757,-0.026776802,0.01463219,-0.002003145,-0.0010199,-0.001677104
1.77E+18,7.093030762,0.079863226,-0.017795842,-0.020274434,-0.000575427,-0.004984589,-0.000411201
1.77E+18,7.103018799,0.106668231,-0.023609862,-0.031414837,0.000600092,-0.003890296,0.000767781
1.77E+18,7.113007813,0.051662967,-0.038808527,-0.007571166,-0.002164367,-0.006441785,0.001503739
1.77E+18,7.122995605,0.025358898,-0.02593604,-0.001829554,0.000692406,-0.004967459,0.002016397
1.77E+18,7.132984619,0.011960487,-0.034760129,-0.002822072,1.23E-06,-0.003444804,0.001999449
1.77E+18,7.142972656,-0.009006313,-0.034330505,-0.011347762,0.000986067,-0.000526246,0.001642851
1.77E+18,7.152961914,-0.019507834,-0.010930559,-0.012615005,0.001100217,-0.004704821,0.004224474
1.77E+18,7.162949951,-0.001892682,-0.019409488,-0.011090134,0.003044857,-0.004020655,0.00757473
1.77E+18,7.172938477,0.008573767,-0.0362123,-0.007976386,0.002100321,-0.002050327,0.007068933
1.77E+18,7.182926514,0.020852818,-0.026697599,-0.002636778,0.002175689,-0.001754716,0.002992699
1.77E+18,7.192915771,0.021136312,-0.023367359,0.010946049,0.002399445,-0.000815978,0.001323505
1.77E+18,7.202903809,0.03291209,-0.011062223,-0.000963,0.000848686,-0.00314438,0.001203663
1.77E+18,7.212892578,0.035205753,-0.026523631,-0.014857962,0.002447306,-0.005812841,0.000112224
1.77E+18,7.222880615,0.038384383,-0.035244332,-0.010917992,0.000936494,-0.005591266,0.00341987
1.77E+18,7.232869629,0.040551791,-0.023024829,-0.021187019,0.000559908,-0.007086201,0.007646407
1.77E+18,7.242858643,0.02591244,-0.022838732,-0.002279635,-0.001299778,-0.008586893,0.00327829
1.77E+18,7.252846924,0.040554129,-0.035248497,-0.001697013,-0.002292235,-0.007962493,0.000999373
1.77E+18,7.262835693,0.029642859,-0.027095147,-0.001921908,-0.002189703,-0.004393592,-0.002321057
1.77E+18,7.272823486,-0.013737433,-0.027513665,0.008672551,-0.001267724,-0.002878046,-0.00570081
1.77E+18,7.282812744,-0.018781857,-0.031728433,0.00266542,-0.002658427,-0.001637013,-0.00594449
1.77E+18,7.292800781,0.010779753,-0.024470936,0.000687544,-0.00117321,0.000899507,-0.004632057
1.77E+18,7.302789551,0.055950435,-0.020847558,-0.012789923,-0.001485599,0.000941585,-0.004204886
1.77E+18,7.312777832,0.014429507,-0.029100203,-0.013413462,-0.000676222,-0.002141235,-0.005949943
1.77E+18,7.322766846,0.020706103,-0.023904096,-0.009543051,-0.000511905,-0.003363892,-0.007982201
1.77E+18,7.332754639,0.025770986,-0.020669425,-0.028565146,-0.002070519,-0.003337299,-0.011440853
1.77E+18,7.342743652,0.007187281,-0.03184446,-0.010548282,-0.00164388,-0.000310084,-0.014571398
1.77E+18,7.352731689,-0.002687632,-0.024478242,0.008767974,-0.003110656,0.003195979,-0.017141802
1.77E+18,7.362720703,-0.00471943,-0.021014366,-0.000187632,-0.004750897,0.00545354,-0.018407336
1.77E+18,7.372708984,0.047818567,-0.028639965,0.010800649,-0.004201641,0.011048181,-0.01464085
1.77E+18,7.382697754,0.044770285,-0.029988896,0.009845833,-0.005462914,0.007939739,-0.012372369
1.77E+18,7.392686768,0.048184477,-0.026246933,-0.010086802,-0.004963207,0.00378878,-0.016582575
1.77E+18,7.402675049,0.049707741,-0.040302565,-0.027582127,-0.003110979,-0.000230995,-0.017872611
1.77E+18,7.412663818,0.046828387,-0.028297801,-0.031466859,-0.00104617,0.000874975,-0.016425613
1.77E+18,7.422651855,0.055238488,-0.017446371,-0.016648791,-0.000922599,0.00220336,-0.014490295
1.77E+18,7.432640869,0.026550153,-0.023940921,-0.009557517,-0.000901669,0.002723543,-0.014448394
1.77E+18,7.442628906,0.019631752,-0.032476328,-0.008117694,-0.000821508,0.00572466,-0.011423843
1.77E+18,7.45261792,0.044200376,-0.043933104,-0.015648236,0.001905572,0.007393869,-0.008626927
1.77E+18,7.462605713,0.014220249,-0.038889703,-0.011283026,0.000379048,0.009554225,-0.009352105
1.77E+18,7.472594727,-0.001848258,-0.030559608,-0.007918518,0.000559556,0.008861787,-0.010668544
1.77E+18,7.482582764,-0.004055413,-0.014096622,0.007898498,0.002992353,0.003602576,-0.008085279
1.77E+18,7.492572021,0.043811669,-0.005407339,-0.00325681,0.003187774,-0.003531252,-0.000614883
1.77E+18,7.502560059,0.116886842,-0.029075507,-0.023313948,0.005573433,-0.008078067,0.007436385
1.77E+18,7.512548828,0.12038579,-0.029916415,-0.036936669,0.006310549,-0.007604858,0.00943934
1.77E+18,7.522536621,0.061512746,-0.018316213,-0.030354076,0.006106284,-0.008920193,0.016934276
1.77E+18,7.532525879,0.037870004,-0.027553923,-0.019535891,0.008763585,-0.007902066,0.022166055
1.77E+18,7.542513916,0.052121817,-0.035883507,-0.00855214,0.00504022,-0.008467189,0.021593207
1.77E+18,7.552502686,0.054696051,-0.032578766,0.001557166,0.006385384,-0.006655441,0.021705061
1.77E+18,7.562491943,0.035314474,-0.025777561,0.007665858,0.006955034,-0.005822137,0.018625915
1.77E+18,7.572479736,-0.038891748,-0.032535073,-0.000349544,0.006646211,-0.010813278,0.022934321
1.77E+18,7.58246875,0.062319386,-0.019895372,-0.005147007,0.007317062,-0.019445915,0.027657438
1.77E+18,7.592457031,0.105651163,-0.030983971,-0.041891515,0.008530186,-0.02275537,0.024692819
1.77E+18,7.602445801,0.044162967,-0.023857188,-0.025103462,0.007591156,-0.021816608,0.020977709
1.77E+18,7.612433838,0.034938042,-0.023094679,-0.000807371,0.007652138,-0.014957448,0.017809942
1.77E+18,7.622423096,0.013425299,-0.015537615,0.004516601,0.002668298,-0.010123279,0.018306889
1.77E+18,7.632410889,0.01281272,-0.017485096,0.013798224,0.000369187,-0.004182507,0.013554416
1.77E+18,7.642399658,0.018415947,-0.026459772,0.022416561,0.001816615,5.14E-05,0.008620111
1.77E+18,7.652387939,-0.030446576,-0.028702217,0.013364508,0.000672364,0.001025503,0.000766093
1.77E+18,7.662376953,-0.03925006,-0.039878568,-0.008875819,0.001857205,-0.000500222,0.002894491
1.77E+18,7.672364746,0.014302082,-0.047761722,-0.026722003,0.002623987,-0.003809242,0.004740698
1.77E+18,7.68235376,0.064977791,-0.040602279,-0.028127193,0.00197098,-0.003612168,0.001683389
1.77E+18,7.692341797,0.046783378,-0.030152854,-0.031643531,0.002706439,-0.003176836,-0.002804051
1.77E+18,7.702330811,-0.011792145,-0.016848697,0.003527736,-0.000787895,-0.001406366,-0.001833861
1.77E+18,7.712319824,-0.001511574,-0.016827143,0.018989216,0.002164593,-0.000269799,-0.001253644
1.77E+18,7.722307861,0.046812605,-0.019697365,0.005771277,-0.00133773,-0.000624266,0.002904882
1.77E+18,7.732296631,0.031855274,-0.023624183,-0.001917086,-0.000297557,-0.000701986,0.002045107
1.77E+18,7.742284912,0.040061377,-0.030237537,-0.011677578,-0.001018741,-0.004819233,0.002097838
1.77E+18,7.752273926,0.055637132,-0.036289895,-0.028656478,-0.001218693,-0.005674564,-0.002023429
1.77E+18,7.762261719,0.041880993,-0.026420024,-0.00851926,-0.000933468,-0.00198795,-0.006848544
1.77E+18,7.772250977,-0.009095161,-0.017988077,0.011930384,-0.002007201,0.003603005,-0.01325384
1.77E+18,7.78223877,-0.040955111,-0.009573665,0.040155193,-0.004975027,0.008585513,-0.011702549
1.77E+18,7.792227783,-0.035378772,-0.004022387,0.011312252,-0.004435414,0.008021576,-0.014681622
1.77E+18,7.80221582,-0.000409165,-0.032151992,-0.017365999,-0.001176238,0.002318683,-0.015072841
1.77E+18,7.812204834,0.047350949,-0.037123424,-0.030692952,-0.002195428,-0.005177911,-0.01955514
1.77E+18,7.822192871,0.117253922,-0.044427828,-0.037124008,-0.000723765,-0.00107398,-0.018234212
1.77E+18,7.832182129,0.081457802,-0.040645899,0.008974895,-0.003369034,0.003495242,-0.021373007
1.77E+18,7.842169922,-0.002502923,-0.015140578,0.003824819,-0.00563565,0.006195954,-0.024220992
1.77E+18,7.852158691,0.021082536,-0.018003347,0.014774814,-0.007655235,0.007761161,-0.020781163
1.77E+18,7.862147949,-0.005910685,-0.014405396,0.011532032,-0.006752956,0.007870616,-0.0138652
1.77E+18,7.872135986,0.06320669,-0.02613127,0.002165069,-0.006083489,0.009003981,-0.016185587
1.77E+18,7.882124756,-0.003220716,-0.039851168,-0.038731589,-0.004164149,-0.000569284,-0.025327953
1.77E+18,7.892112549,-0.079544077,-0.00441694,-0.012817834,0.001329263,-0.004147309,-0.023617227
1.77E+18,7.902101807,0.040619595,-0.034969022,-0.029616993,0.004950097,-0.00358698,-0.016764913
1.77E+18,7.912089844,0.106059159,-0.043333165,-0.025906302,0.006288172,-0.003737295,-0.009251388
1.77E+18,7.922078857,0.082304189,-0.042455871,-0.005904256,0.005513725,4.47E-05,-0.00556797
1.77E+18,7.932066895,0.017382512,-0.017071254,0.001542115,0.002379189,0.005621363,-0.003961321
1.77E+18,7.942055664,-0.013369769,0.010162132,0.008706892,-0.000459208,0.004625341,-0.001679258
1.77E+18,7.952043701,0.037858314,-0.003827084,0.013142682,-0.001044896,0.0006879,0.001413634
1.77E+18,7.962032959,0.073075173,-0.019058409,0.000450228,-0.001318136,-0.004649874,0.007332775
1.77E+18,7.972020996,0.114890116,-0.020105069,-0.040547407,0.000583472,-0.010060316,0.01192787
1.77E+18,7.982009766,0.121828975,-0.032047509,-0.023798224,0.000381604,-0.010363651,0.013093802
1.77E+18,7.991997803,0.090037414,-0.028058731,-0.022460692,0.00227543,-0.007132627,0.017049637
1.77E+18,8.001986816,0.092777652,-0.034865708,-1.17E-06,0.003829651,-0.004316333,0.022393534
1.77E+18,8.011975586,0.063140055,-0.040852966,-0.017051965,0.003569195,-0.003034185,0.024482418
1.77E+18,8.021963867,0.005594459,-0.026479134,-0.009775544,0.004360154,-0.001130824,0.022507418
1.77E+18,8.031952881,-0.035634792,-0.026034751,0.007979308,0.005299717,0.001997325,0.021419782
1.77E+18,8.041940918,-0.052278469,-0.02508388,0.005822423,0.004075728,0.001234063,0.023066947
1.77E+18,8.051929932,-0.013272154,-0.030330256,-0.005335224,0.00479579,2.06E-05,0.02164861
1.77E+18,8.061917725,0.036883331,-0.034921237,-0.005181202,0.003749701,-0.002470781,0.019725809
1.77E+18,8.071906738,0.052532736,-0.025756738,-0.01258198,0.004286279,-0.007894712,0.020252407
1.77E+18,8.08189502,0.08498656,-0.035737376,-0.027141397,0.003701448,-0.011770942,0.020396218
1.77E+18,8.091884033,0.093150577,-0.024303836,-0.030601182,0.002554958,-0.009984761,0.016716527
1.77E+18,8.101871826,0.058550389,-0.036427769,-0.005093816,0.003198377,-0.006129302,0.015016099
1.77E+18,8.11186084,0.036072015,-0.007297025,-0.008877426,0.001774967,-0.006079896,0.009925376
1.77E+18,8.121848877,0.007426935,-0.01723777,0.000834843,0.00075684,0.001888814,0.014096951
1.77E+18,8.131837891,-0.024402035,-0.019812077,0.013709669,0.001947491,0.001836212,0.014497049
1.77E+18,8.141825928,0.001227496,-0.018151451,0.012677695,0.000339474,0.001488936,0.014227004
1.77E+18,8.151814697,0.004216741,-0.020042452,0.009838526,0.002349256,-0.001522824,0.012101955
1.77E+18,8.161802734,0.018981764,-0.029952655,-0.007309885,0.001107957,-0.000953707,0.010939484
1.77E+18,8.171791992,0.013687165,-0.029021877,0.005601327,0.002417538,0.003399119,0.004635729
1.77E+18,8.181780762,0.003612345,-0.020484277,0.018439912,-0.001670148,0.005516065,-0.002315121
1.77E+18,8.191768799,-0.021744799,-0.023558716,0.016099048,-0.000796204,0.005314576,-0.003614957
1.77E+18,8.201758057,-0.002497078,-0.016161007,-0.005196107,-0.000869441,0.004697788,-0.002332378
1.77E+18,8.21174585,0.028738603,-0.019140096,0.000274141,-0.002106485,0.006702735,-0.000304511
1.77E+18,8.221734619,0.036367783,-0.012481807,-0.007389233,-0.001799157,0.005973828,0.001730144
1.77E+18,8.231722656,0.045958618,-0.028367943,-0.013533581,-0.002127099,0.005198753,0.004040956
1.77E+18,8.241711914,0.049561611,-0.029049204,-0.016791706,-0.002118844,0.004048001,0.004599954
1.77E+18,8.251699951,0.045784431,-0.026673122,-0.019321663,-0.002489123,0.002593435,0.003805649
1.77E+18,8.261688721,0.053795888,-0.032322745,-0.001223112,-0.001535711,-0.000161871,0.00487544
1.77E+18,8.271676758,0.065949851,-0.019691008,-0.002314414,-0.002252952,-0.001519527,0.004464442
1.77E+18,8.281665771,0.042050505,-0.013396438,-0.015373949,-0.003407166,0.002073344,0.001016714
1.77E+18,8.291653809,-0.00819792,-0.010229425,0.012962504,-0.00389426,0.002760235,-0.002206311
1.77E+18,8.301643066,-0.018922143,-0.022923706,0.007926701,-0.003961105,0.003355185,-0.002745867
1.77E+18,8.311630859,-0.026055648,-0.026008813,0.00073226,-0.002242355,0.005142518,-0.005766831
1.77E+18,8.321619629,-0.012072131,-0.031002676,-0.005407266,-0.002630111,0.00650366,-0.006108515
1.77E+18,8.331608887,-0.001801496,-0.023945231,-0.004279139,-0.001247882,0.007641766,-0.006351484
1.77E+18,8.341596924,0.028414778,-0.015523513,-0.008356471,-0.000305123,0.0107297,-0.007467082
1.77E+18,8.351585693,0.022862405,-0.021747502,-0.009979542,-0.001009688,0.009160394,-0.008219679
1.77E+18,8.36157373,0.023715222,-0.010733356,-0.006622925,-0.001750846,0.007090319,-0.007436976
1.77E+18,8.371562744,0.05626257,-0.031598815,-0.01377835,-0.00018794,0.006285092,-0.006358611
1.77E+18,8.381550781,0.065252517,-0.02789733,-0.026042934,-0.000798337,6.16E-05,-0.004466702
1.77E+18,8.391539795,0.036490533,-0.031177521,-0.011673779,-0.000120028,0.00245477,-0.007861534
1.77E+18,8.401527588,0.026727848,-0.005016805,-0.013815321,3.15E-05,0.002503772,-0.008845305
1.77E+18,8.411516602,-0.003793547,-0.018505671,-0.007177344,-0.000581127,0.003493412,-0.007253114
1.77E+18,8.421504883,0.01593056,-0.015450521,-0.001452537,0.000760573,0.000666999,-0.006640587
1.77E+18,8.431493896,0.029945056,-0.025541268,-0.006355799,0.002508455,0.000604818,-0.004802298
1.77E+18,8.441481689,0.035577509,-0.038636532,-0.012459084,0.001948659,-0.002176587,-8.98E-05
1.77E+18,8.451470703,0.027549101,-0.034237347,-0.014393559,0.003089082,-0.005075215,0.001527607
1.77E+18,8.46145874,0.047034138,-0.020780338,-0.020482962,0.004202816,-0.006041143,0.000978464
1.77E+18,8.471447754,0.041181905,-0.010659122,-0.026123891,0.003219203,-0.006648008,0.000463228
1.77E+18,8.481436768,0.040584524,-0.021182123,-0.002442279,0.00086337,-0.005177144,-0.004281459
1.77E+18,8.491424805,0.005768062,-0.017104718,0.010388854,0.001270886,-0.000411607,-0.006402693
1.77E+18,8.501413574,-0.010910686,-0.030819355,0.010637568,0.002825107,-0.000762345,-0.005386698
1.77E+18,8.511401611,0.030960955,-0.024938699,0.00089198,0.003144676,-0.001563308,0.000770674
1.77E+18,8.521390625,0.060842883,-0.028502749,-0.024340661,0.003084755,-0.00368425,0.001075606
1.77E+18,8.531378662,0.062826751,-0.032159225,-0.006799159,0.00124617,-0.004425979,-0.001652971
1.77E+18,8.54136792,0.034893619,-0.027839828,-0.002591039,0.001213414,-0.000922058,-0.003842089
1.77E+18,8.551355713,0.00715221,-0.026026933,-0.001501198,-0.001301619,0.002005676,-0.007169504
1.77E+18,8.561344727,-0.009238953,-0.019841303,0.002876432,-0.000848882,-0.00294301,-0.008479247
1.77E+18,8.57133252,-0.010903671,-0.005534911,-0.014485183,-0.000439933,-0.001553245,-0.007790263
1.77E+18,8.581321777,0.045933484,-0.035644583,0.001450199,0.000227189,0.004009033,-0.006686383
1.77E+18,8.591309814,-0.008161095,-0.024043796,0.005342822,-0.001280371,-0.004176441,-0.008465603
1.77E+18,8.601298584,0.024650457,-0.026974297,-0.022209055,-0.00081991,-0.008809809,-0.009004627
1.77E+18,8.611286865,0.086483521,-0.036294133,-0.031653906,-0.001176774,-0.006735472,-0.004170191
1.77E+18,8.621275635,0.08614216,-0.023136984,-0.010007161,-0.002100358,-0.006809774,-0.001477469
1.77E+18,8.631264648,0.049463411,-0.026686055,-0.025348669,0.000182239,-0.003474328,-0.003873882
1.77E+18,8.64125293,0.021675241,-0.028057781,-0.00493468,-0.000562114,-0.001257246,-0.004917308
1.77E+18,8.651241699,-0.002137012,-0.022023543,0.007931378,0.000178245,0.001901263,-0.004731953
1.77E+18,8.661229492,0.015238486,-0.016158962,0.001851473,-0.001230301,0.005386009,-0.005995356
1.77E+18,8.67121875,-0.00636369,-0.011128639,-0.001102847,-0.001481549,0.008028096,-0.004254258
1.77E+18,8.681206787,0.000465864,-0.006203092,0.013171762,-0.003939647,0.003608047,-0.005158135
1.77E+18,8.691195557,0.012011925,-0.020193624,-0.008258418,-0.002904684,0.001910403,0.000284504
1.77E+18,8.701183838,0.036588732,-0.018889629,0.018806553,-0.001611187,-0.00010987,0.002797197
1.77E+18,8.711172607,0.021490532,-0.015096155,0.005520955,-0.002031593,-0.003088522,0.007365863
1.77E+18,8.721160645,0.020257191,-0.0239285,-0.01703779,-0.000569517,-0.009822591,0.012279128
1.77E+18,8.731149658,0.068754972,-0.032228491,-0.034691082,0.000205033,-0.014432635,0.017056255
1.77E+18,8.741137695,0.084493808,-0.031098537,-0.032765228,0.001150722,-0.012987604,0.016581148
1.77E+18,8.751126709,0.079304423,-0.015028862,-0.014684067,5.86E-05,-0.010211583,0.013263445
1.77E+18,8.761114502,0.048220718,-0.016660993,-0.006775485,0.000997061,-0.008143906,0.008857512
1.77E+18,8.77110376,0.012914427,-0.027014556,-0.007410422,0.001726127,-0.008488347,0.008627668
1.77E+18,8.781091553,-0.006188918,-0.03478329,-0.005234832,0.001202816,-0.005141819,0.009909181
1.77E+18,8.791080811,-0.001241524,-0.025387393,-0.001583616,0.002461001,-0.004178992,0.010012259
1.77E+18,8.801069824,0.010749358,-0.00652984,0.013881372,0.000602913,-0.005429079,0.011115606
1.77E+18,8.811057861,0.042295419,-0.016241964,-0.008106588,0.000872255,-0.00660023,0.010429299
1.77E+18,8.821046631,0.076325699,-0.016112127,-0.017878917,-0.000371175,-0.007413027,0.004723477
1.77E+18,8.831034668,0.042538581,-0.034678149,-0.01790902,-0.00209434,-0.00477122,0.002660539
1.77E+18,8.841023682,0.005799626,-0.002964914,-0.010749504,0.001638613,-0.001694736,-0.001726753
1.77E+18,8.851011719,-0.002744915,-0.04155936,0.000714432,0.001747007,0.000318555,0.001012905
1.77E+18,8.861000732,0.011177228,-0.043340325,-0.003960866,0.003452762,0.000405374,0.001192668
1.77E+18,8.870988525,0.030904257,-0.022819588,-0.01594415,0.000773235,-0.002570259,0.000131631
1.77E+18,8.880977783,0.022032968,-0.025842809,-0.014042846,0.00116978,0.000250295,-0.000469445
1.77E+18,8.89096582,-0.006385902,-0.025530309,0.01556611,0.000813675,0.001496196,-0.001620315
1.77E+18,8.90095459,-0.031360768,-0.011741291,0.014059213,-0.00112484,0.000809899,-0.00053055
1.77E+18,8.910942627,0.02210428,-0.022251579,-0.005526362,6.13E-05,0.003347712,0.002695464
1.77E+18,8.920931641,0.034125557,-0.027338892,-0.010710341,0.001350514,0.002093363,-0.002562415
1.77E+18,8.930919678,0.014875498,-0.021988544,-0.017401655,0.003420081,0.004300315,-0.003663252
1.77E+18,8.940908691,0.020279402,-0.009894129,-0.000377601,-0.001208227,0.000691466,-0.00464223
1.77E+18,8.950897705,0.054625909,-0.003379779,-0.014558248,0.000323692,-0.002798625,-0.002623592
1.77E+18,8.960885742,0.086371877,-0.019203371,-0.019559856,-0.000726659,-0.005010913,-0.002330377
1.77E+18,8.970875,0.059042556,-0.021740123,-0.020177403,-0.001917331,-0.00091363,-0.002164843
1.77E+18,8.980862793,0.025022213,-0.008866832,-0.004160919,0.000205474,-0.001451056,-0.001832214
1.77E+18,8.990851563,-0.000881459,-0.035745706,0.005591683,0.001302969,0.002194717,-0.001108114
1.77E+18,9.0008396,-0.008165771,-0.018686873,0.01102496,-0.00110586,0.0010421,0.003200082
1.77E+18,9.010828857,0.020749358,-0.027506066,0.002428542,-0.001250234,-0.000357829,0.001121498
1.77E+18,9.020816895,0.036318099,-0.029530923,-0.013963497,-0.001179128,-0.002826313,0.004477347
1.77E+18,9.03080542,0.032108372,-0.009879151,-0.007195464,-0.001457171,-0.003405782,0.003622017
1.77E+18,9.040793701,0.048985272,-0.006742168,-0.006867694,-0.000954899,-0.001405748,0.005038818
1.77E+18,9.050782715,0.021518589,-0.01721037,0.000150661,-0.001891834,0.002835577,0.00328893
1.77E+18,9.060770752,0.006823709,-0.032602877,0.011584493,-0.00265403,0.003800174,0.004229292
1.77E+18,9.070759766,-0.002650222,-0.018664222,0.01869301,-0.002825286,0.000175345,0.00741177
1.77E+18,9.080747559,0.039423663,-0.011089768,-0.013528321,-0.002544323,-0.005385069,0.00704159
1.77E+18,9.090736572,0.092592359,-0.021704175,-0.024543636,-0.003295033,-0.010203896,0.006567916
1.77E+18,9.100724854,0.101660047,-0.030806496,-0.032335166,-0.001819375,-0.01096769,0.002878106
1.77E+18,9.110713867,0.064962594,-0.017117577,-0.02116393,-0.000313058,-0.004479036,0.001236624
1.77E+18,9.120702637,0.013467384,-0.012598566,-0.004172902,-0.000702412,0.001757022,0.001399343
1.77E+18,9.130690674,-0.021145664,-0.026609921,0.025764994,-0.002956917,0.004570119,0.004127218
1.77E+18,9.140679688,-0.018422961,-0.033613297,0.002432049,-0.000877254,0.007988553,0.002327987
1.77E+18,9.150667725,-0.024091654,-0.019436741,-0.002655191,-0.002524595,0.005558135,0.003770849
1.77E+18,9.160656738,0.032307694,-0.005331716,-0.009024726,-0.001293948,0.001149538,0.006799662
1.77E+18,9.170644775,0.07555413,-0.010538053,-0.02768851,-0.002242824,-0.006266,0.00714755
1.77E+18,9.180633789,0.092086748,-0.032234629,-0.023493396,-0.00168569,-0.006817807,0.006011179
1.77E+18,9.190621582,0.058749126,-0.026270825,-0.014699995,-0.001171811,-0.005140799,0.002232658
1.77E+18,9.200610596,0.034786067,-0.029261531,0.014851971,-0.001427209,-0.000942858,0.005993841
1.77E+18,9.210598633,0.016318682,-0.026552418,0.006483517,-0.001266332,0.003175368,0.004173247
1.77E+18,9.220587891,-0.004337152,-0.028398338,-0.015834552,-0.000693486,0.005272341,0.004032898
1.77E+18,9.230575928,-0.017683541,-0.016541969,0.00713482,-0.002069052,0.002447992,0.003409293
1.77E+18,9.240564453,0.04984452,-0.024698315,-0.010665186,-0.001061312,-0.006461081,0.01045575
1.77E+18,9.25055249,0.087930212,-0.014413141,-0.016853227,-0.000573781,-0.008885726,0.011897688
1.77E+18,9.260541748,0.092594113,-0.02951894,-0.027574528,4.89E-05,-0.010491613,0.009781007
1.77E+18,9.270530762,0.060269468,-0.023906215,-0.017822511,8.50E-05,-0.006509712,0.00194605
1.77E+18,9.280518799,-0.012962357,-0.030323607,0.032001112,-0.002268464,0.000984422,0.000591034
1.77E+18,9.290507813,-0.031131636,-0.028660789,0.026081513,-0.001391622,0.006499193,0.000634545
1.77E+18,9.300495605,-0.005671031,-0.02114391,0.024409342,-0.004661184,0.009047039,0.000591934
1.77E+18,9.310484619,0.021145664,-0.012898645,0.002483195,-0.003999512,0.006420999,0.000355344
1.77E+18,9.3204729,0.013017302,-0.023787557,-0.004803162,-0.003321204,0.005826582,-0.00764639
1.77E+18,9.33046167,0.000802549,-0.014759032,-0.005850187,-0.001877987,0.006384744,-0.005375321
1.77E+18,9.340449463,-0.015630115,-0.004499942,0.004387567,-0.001844964,0.000180378,-0.004216846
1.77E+18,9.350438721,0.029457565,-0.016272432,-0.020044717,7.61E-05,-0.007599178,-0.004752785
1.77E+18,9.360426758,0.068590721,-0.021235461,-0.052277007,-0.000192858,-0.013862668,-0.007113944
1.77E+18,9.370415527,0.120681558,-0.031846433,-0.020899288,0.001970406,-0.006683121,-0.002827208
1.77E+18,9.380403809,0.086930095,-0.035568449,-0.000209113,0.001149354,-0.001774915,-0.002445844
1.77E+18,9.390392822,-0.0055816,-0.031420974,0.006250146,5.86E-05,-0.005469732,-0.004180779
1.77E+18,9.400380615,0.090840547,-0.03039828,-0.035704497,0.000606961,-0.008693488,-0.003899549
1.77E+18,9.410369629,0.069553429,-0.026446693,-0.030028351,-0.000858879,-0.00653662,-0.003311715
1.77E+18,9.420358643,-0.008511808,-0.023222762,-0.009872721,0.001067652,-0.009757446,-0.009309419
1.77E+18,9.430346436,-0.039694882,-0.029230186,-0.007585048,0.001004549,-0.008366384,-0.01799877
1.77E+18,9.440335693,-0.040897828,-0.021490166,-0.002260785,5.14E-05,-0.003415034,-0.016767589
1.77E+18,9.45032373,-0.033336452,-0.000559241,0.031257893,-0.001207414,-0.001460531,-0.015345575
1.77E+18,9.4603125,0.035568157,-0.014090704,0.007339987,0.00145335,-0.003617692,-0.014200948
1.77E+18,9.470300781,0.053170449,-0.036722149,-0.020648674,0.002142959,-0.00607921,-0.010956786
1.77E+18,9.480289551,0.019703064,-0.018064649,-0.012009148,0.003529401,-0.003766255,-0.012126447
1.77E+18,9.490277588,-0.014898294,-0.020782603,-0.011686492,0.001977165,-0.00470116,-0.003076138
1.77E+18,9.500266602,0.023556232,-0.014949586,0.000761048,0.001339604,-0.005335525,-0.005395486
1.77E+18,9.510254639,0.084227266,-0.012730521,-0.008377075,-0.000748199,-0.011193492,-0.001560508
1.77E+18,9.520243652,0.114609545,-0.018829788,-0.023949469,-0.000433147,-0.011390565,-0.003262001
1.77E+18,9.530231445,0.092021866,-0.01642733,-0.019689766,-0.000148578,-0.011687183,-0.001138461
1.77E+18,9.540220459,0.025754034,-0.029286008,-0.005948387,-0.001297998,-0.009567839,-0.001721959
1.77E+18,9.550208496,-0.010410335,-0.02246493,-0.007106325,5.09E-05,-0.009789707,-0.00412079
1.77E+18,9.560197754,-0.018011458,-0.030409021,-0.003157441,0.000847706,-0.007516966,-0.006881422
1.77E+18,9.570185791,-0.017802199,-0.02083784,0.003077215,-8.00E-05,-0.004992064,-0.009468384
1.77E+18,9.580174561,-0.002307692,-0.015994784,0.001571779,-9.36E-05,-0.002248209,-0.010827662
1.77E+18,9.590163574,0.017471944,-0.026415859,0.00127645,-0.00071705,-0.001298476,-0.011636945
1.77E+18,9.600151611,0.030046763,-0.022723727,0.004870675,-0.000703468,0.001944722,-0.013911551
1.77E+18,9.610140625,0.051352586,-0.022351021,-0.004725129,-0.001205536,0.002210464,-0.009380348
1.77E+18,9.620128662,0.089769703,-0.010947949,-0.015915654,-0.001703015,0.004812106,-0.010254663
1.77E+18,9.630117676,0.044877253,-0.016907661,-0.011159984,-0.003356438,0.003338743,-0.006761028
1.77E+18,9.640105469,0.071374214,-0.033997766,-0.021843583,-0.001873324,0.001149091,-0.001301814
1.77E+18,9.650094482,0.080510876,-0.020446722,-0.026487902,-0.003815591,0.000246108,-0.001476504
1.77E+18,9.660082764,0.016428572,-0.011079247,-0.008139613,-0.004609745,0.001510044,-0.005937033
1.77E+18,9.670071533,-0.006374211,-0.020219416,0.010662556,-0.002087691,0.002955084,-0.005558978
1.77E+18,9.68005957,0.01217676,-0.028246801,0.004359218,-0.001335614,0.002529777,-0.007915876
1.77E+18,9.690048584,-0.018504794,-0.010943419,0.016991175,-0.000135938,0.003343138,-0.0100392
1.77E+18,9.700036621,0.034579146,-0.046012394,0.001360475,-0.000812913,0.002355105,-0.007970723
1.77E+18,9.710025391,0.050751698,-0.048331266,-0.016918548,-0.000239171,0.006630896,-0.008209215
1.77E+18,9.720013672,0.044343,-0.01769735,-0.008791501,0.000166962,0.004021797,-0.00983108
1.77E+18,9.730002686,0.024310265,-0.025074893,-0.001825023,0.001087557,0.006968279,-0.011530876
1.77E+18,9.739990479,-0.01682254,-0.030088849,-0.002370967,0.000719242,0.007015151,-0.014923478
1.77E+18,9.749979492,-0.001090718,-0.02251951,0.006143325,4.01E-06,0.007966191,-0.013807154
1.77E+18,9.759968506,0.029134325,-0.012349486,-0.015617256,0.001677802,0.00416586,-0.012560261
1.77E+18,9.769956543,0.038788873,-0.013791429,-0.019456396,6.05E-05,0.000340109,-0.010357767
1.77E+18,9.779945801,0.06005261,-0.028637992,-0.024788258,-0.001371185,-0.00105592,-0.009181449
1.77E+18,9.789933838,0.06576222,-0.017206717,-0.010132395,-9.88E-05,-0.001216758,-0.006569647
1.77E+18,9.799922363,0.042880526,-0.030400983,-0.005878683,-0.00121175,-0.002862858,-0.00628682
1.77E+18,9.809910645,0.016012977,-0.027353286,0.002539455,-0.00095533,-0.000438324,-0.004271226
1.77E+18,9.819899658,0.008443419,-0.025362259,0.008085691,-0.000849603,-0.001384279,-0.005304533
1.77E+18,9.829887695,0.028675475,-0.030395284,-0.011178981,0.001577087,-0.002731093,-0.004421208
1.77E+18,9.839876709,0.023780689,-0.024631825,-0.011451661,0.001332609,-0.003626714,-0.004071003
1.77E+18,9.849864502,0.00584405,-0.022484292,-0.003145751,0.00249534,-0.004527472,-0.004766662
1.77E+18,9.859853516,0.01919453,-0.031198198,-0.006650252,0.001493991,-0.002796152,-0.002348511
1.77E+18,9.869841553,0.039005146,-0.026143472,-0.020742636,0.003125826,-0.002426591,-0.00152432
1.77E+18,9.879830566,0.037108957,-0.033772506,-0.016597791,0.005074727,-0.003754443,-0.003128342
1.77E+18,9.889818604,0.042222939,-0.027859117,-0.005933336,0.005632544,-0.003718937,-0.003904862
1.77E+18,9.899807373,0.043009705,-0.026691096,-0.026037528,0.004798974,-0.000471478,-0.008708939
1.77E+18,9.909796631,-0.017811551,-0.006740268,0.007926263,0.003004384,0.003790518,-0.01278946
1.77E+18,9.919784424,-0.016218144,-0.009327727,0.023027094,0.001200358,0.003990255,-0.016970091
1.77E+18,9.929773682,-0.020047932,-0.007744404,0.01633914,0.000310807,0.001702316,-0.016052937
1.77E+18,9.939761719,0.0320318,-0.011725947,-0.007715981,0.001232261,-0.000560039,-0.016031099
1.77E+18,9.949750732,0.078852003,-0.02647928,-0.013609715,0.001661404,-0.002264102,-0.013182303
1.77E+18,9.959738525,0.044717094,-0.030996977,-0.005476239,0.00383907,0.000460312,-0.015223349
1.77E+18,9.969727539,0.063636898,-0.025555151,0.003264409,0.002368205,0.003694618,-0.013353974
1.77E+18,9.979715576,0.089384503,-0.028063992,-0.003031038,0.004377293,0.007545282,-0.014381422
1.77E+18,9.98970459,0.03527122,-0.02103307,-0.005927636,0.00617642,0.00877434,-0.010660036
1.77E+18,9.999692871,0.030708442,-0.009941402,-0.015531623,0.006420366,0.008943452,-0.011460848
1.77E+18,10.0096814,0.022205987,-0.018301234,-0.012317484,0.004008715,0.002875103,-0.010790085
1.77E+18,10.01966943,0.007426935,-0.018734365,-0.01507745,0.00439514,-0.00218224,-0.011039091
1.77E+18,10.02965869,0.036107086,-0.019852848,-0.005661095,0.003167417,-0.006508323,-0.008975636
1.77E+18,10.03964673,0.019992987,-0.011841464,0.005036825,0.00373467,-0.007283036,-0.008085075
1.77E+18,10.0496355,0.016935937,-0.02191263,0.002073153,0.003112654,-0.004641932,-0.006774744
1.77E+18,10.05962476,0.016775194,-0.027628012,0.002492547,0.004047158,-0.00407601,-0.002547775
1.77E+18,10.06961255,0.044761517,-0.023140637,-0.012775018,0.004662725,-0.008237266,0.001560858
1.77E+18,10.07960156,0.035725978,-0.042379006,-0.024872283,0.006735996,-0.012459974,0.004061033
1.77E+18,10.0895896,0.080408,-0.027821561,-0.01362842,0.008373635,-0.012197958,0.005939727
1.77E+18,10.09957861,0.05461188,-0.022898426,-0.025985944,0.006633791,-0.011289021,0.004253946
1.77E+18,10.10956641,0.015190555,-0.012969079,0.009673545,0.005208362,-0.010124946,0.000801576
1.77E+18,10.11955566,0.048461541,-0.010447963,-0.002204378,0.003903946,-0.011859195,0.001716905
1.77E+18,10.1295437,0.05316928,-0.021334172,0.012355039,0.003798266,-0.00767337,-5.61E-05
1.77E+18,10.13953247,0.00256722,-0.019658421,0.017533465,0.000941493,-0.002016017,-0.00734379
1.77E+18,10.14952075,-0.013651509,-0.030881534,0.011573533,0.001545554,0.002118026,-0.006272629
1.77E+18,10.15950977,-0.049373979,-0.033774771,0.021182196,-0.001213481,0.006828892,-0.006353589
1.77E+18,10.16949756,-0.093302553,-0.025182372,0.00767901,0.000297863,0.00339155,-0.006103519
1.77E+18,10.17948657,-0.006287117,-0.02851159,-0.008306202,0.00181986,-0.004152919,-0.001262425
1.77E+18,10.18947461,0.125023387,-0.035886064,-0.001353314,0.003107178,-0.001413772,0.003882131
1.77E+18,10.19946362,0.144796593,-0.030541999,-0.001552052,0.002394516,-0.003682253,0.005382023
1.77E+18,10.20945166,0.121283616,-0.023804362,-0.018143852,0.001623585,-0.000835952,0.003613557
1.77E+18,10.21944043,0.113731593,-0.026803836,-0.000441752,0.001318387,0.004982256,0.001628969
1.77E+18,10.22942944,0.042599955,-0.026154943,0.003485212,-0.00108293,0.00406801,-0.004046189
1.77E+18,10.23941748,-0.016624972,-0.021077859,0.006488777,-0.001719958,0.006498411,-0.010737114
1.77E+18,10.24940674,-0.014924597,-0.019382527,-0.004555325,-0.002507882,0.008588186,-0.012364991
1.77E+18,10.25939453,-0.050740592,-0.02986958,0.006397008,-0.000947536,0.008499236,-0.009497833
1.77E+18,10.26938379,-0.002197802,-0.018683146,0.002774725,-0.00225392,0.004040519,-0.00547624
1.77E+18,10.27937158,0.092601127,-0.025052389,-0.021731647,0.000215629,0.006227241,-0.000582948
1.77E+18,10.2893606,0.092011929,-0.011161519,0.00907251,-0.002186008,0.006400448,0.006225591
1.77E+18,10.29934863,0.101516255,-0.013756284,-0.008449264,-2.70E-05,0.002375613,0.011441126
1.77E+18,10.30933765,0.071563599,-0.009316037,-0.015302199,9.34E-05,-0.001548167,0.01509991
1.77E+18,10.31932544,0.044267012,-0.020942104,-0.018708938,-0.000333252,-0.007610586,0.022490449
1.77E+18,10.32931445,0.075528996,-0.033099137,-0.03035013,-0.000535283,-0.01148187,0.016604546
1.77E+18,10.33930273,0.032611645,-0.028576837,-0.023053982,-0.003094315,-0.01092314,0.014075343
1.77E+18,10.3492915,0.007988076,-0.03084975,0.006648206,-0.003199663,-0.007301901,0.010322124
1.77E+18,10.35927954,-0.004608371,-0.033987829,0.026406361,-0.003970648,-0.003154826,0.008459509
1.77E+18,10.3692688,0.012329905,-0.02751593,0.007724311,-0.005509692,6.45E-05,0.005493749
1.77E+18,10.37925757,0.02705518,-0.023075609,-0.00744637,-0.004594364,0.000360074,0.004320893
1.77E+18,10.38924536,-0.010303367,-0.032371991,-0.007458792,-0.00361736,0.001252833,0.000695887
1.77E+18,10.39923535,-0.06875731,-0.026547377,0.007792115,-0.004957729,0.003923451,-0.000409058
1.77E+18,10.40922314,-0.091271924,-0.011465543,0.003307663,-0.004458485,0.006248812,7.27E-05
1.77E+18,10.41921191,-0.060473466,-0.018778789,0.002477204,-0.003232631,0.004992866,0.003162522
1.77E+18,10.4292002,0.045554713,-0.022283655,0.001153116,-0.002588199,0.001419193,0.001703838
1.77E+18,10.43918921,0.094054248,-0.021048268,-0.014672668,-0.001884592,-0.002312162,0.007019774
1.77E+18,10.44917725,0.115637134,-0.032668344,-0.028373569,-0.000180015,-0.002553786,0.011328722
1.77E+18,10.45916626,0.083350483,-0.046363619,-0.026053894,0.001410158,-0.001065878,0.00745329
1.77E+18,10.46915405,0.020669863,-0.033070787,-0.012494302,0.000621386,-0.00271622,0.006682609
1.77E+18,10.47914307,0.044618894,-0.020381913,-0.00780892,0.003522633,-0.002163881,0.006090056
1.77E+18,10.48913135,0.085156071,-0.016846871,-0.002388941,0.001613881,0.007340609,0.004482044
1.77E+18,10.49912012,0.036386488,-0.004750044,0.015862171,-0.00027643,0.005157882,-0.001191821
1.77E+18,10.50910815,-0.007106617,-0.008111483,-0.001711042,-0.000933261,0.004638193,-0.004475224
1.77E+18,10.51909717,-0.062581836,-0.025000805,0.003070347,-0.000818478,0.004603572,-0.004504252
1.77E+18,10.52908618,-0.087727383,-0.028272666,-0.007751053,0.000502924,0.00073228,-0.005890897
1.77E+18,10.53907422,-0.033169864,-0.035231399,-0.014117957,0.002243567,-0.001176408,-0.003532135
1.77E+18,10.54906323,0.035890229,-0.022099092,-0.018340836,0.003790812,-0.003364271,-0.004410154
1.77E+18,10.55905127,0.044333063,-0.022402605,-0.01332856,0.00104669,0.000525275,-0.002385353
1.77E+18,10.56904028,0.112896896,-0.018824016,0.013338351,0.000818781,0.003392023,0.000761642
1.77E+18,10.57902832,0.08546353,-0.010882629,0.00725567,0.000628898,0.004182715,0.002619197
1.77E+18,10.58901709,0.037673605,-0.01717413,-0.015319588,0.001520095,0.001543145,-3.40E-07
1.77E+18,10.59900513,-0.035931145,-0.022311054,-0.017597031,0.002223702,0.00068321,-0.00217055
1.77E+18,10.60899438,-0.032160394,-0.023761692,5.42E-05,0.000657764,0.00199535,0.000431358
1.77E+18,10.61898218,0.003179799,-0.034838674,0.000542729,0.002576571,-0.0006007,0.002695312
1.77E+18,10.62897095,0.015032734,-0.022345103,0.007968787,0.001892933,0.003681988,-0.000246478
1.77E+18,10.63895898,0.015628946,-0.025042671,0.018619068,0.000991986,0.006800815,0.004803142
1.77E+18,10.64894824,0.030035073,-0.037373599,0.014603987,-0.000430933,0.007436926,0.003312964
1.77E+18,10.65893628,0.086266663,-0.045862026,0.003885755,-0.002257063,0.004686946,-0.001038642
1.77E+18,10.66892529,0.133548054,-0.022527912,-0.019228432,-0.002456374,0.006926939,0.003767452
1.77E+18,10.67891309,0.070192896,-0.021653906,-0.009099691,-0.001921611,0.009102475,0.003036947
1.77E+18,10.6889021,0.013256372,-0.023218013,-0.009914806,-0.004210177,0.00927278,0.004417553
1.77E+18,10.69889136,0.047039984,-0.022323402,0.01305705,-0.002196028,0.00921925,0.012720224
1.77E+18,10.70887939,0.057608139,-0.02436258,0.005419979,-0.001297903,0.011957075,0.015635598
1.77E+18,10.71886816,-0.032153965,-0.028056612,-0.010587007,-0.002330677,0.014998139,0.014507484
1.77E+18,10.72885596,-0.022864158,-0.029806232,0.00720584,-0.003027626,0.010821503,0.021756874
1.77E+18,10.73884521,0.03444003,-0.025060134,-0.004122779,-0.00161402,0.003560661,0.026996378
1.77E+18,10.74883325,0.135286422,-0.028355961,-0.030260114,-0.003765956,-0.000736096,0.029384887
1.77E+18,10.75882227,0.136710318,-0.029563437,-0.034002807,-0.004134271,-0.002912165,0.024394125
1.77E+18,10.7688103,0.05563947,-0.031888665,-0.010985212,-0.004750581,0.00286348,0.015574956
1.77E+18,10.77879932,0.006361936,-0.012864231,-0.000165566,-0.00479106,0.009008991,0.008109849
1.77E+18,10.78878711,-0.077089085,-0.026166707,0.028292175,-0.004710742,0.01726912,0.005804438
1.77E+18,10.79877612,-0.067325816,-0.011279738,0.018597148,-0.004405011,0.01904678,0.005602571
1.77E+18,10.80876416,-0.040926469,-0.034530631,0.010065467,-0.003943589,0.019057646,0.0045061
1.77E+18,10.81875317,0.004103928,-0.031648061,-0.000210136,-0.000267894,0.013575262,0.008486461
1.77E+18,10.82874121,0.028977088,-0.019490882,-0.018089637,-0.001994854,0.006849028,0.012475594
1.77E+18,10.83873022,0.099209731,-0.027613472,-0.032553631,-0.000330379,-0.001808376,0.016041834
1.77E+18,10.84871802,0.133072838,-0.030545872,-0.04013225,0.002476698,-0.004846519,0.009892176
1.77E+18,10.85870728,0.065220952,-0.027407501,-0.053013943,0.002167505,-0.006081161,0.00450753
1.77E+18,10.86869629,0.056027592,-0.013563027,-0.024283377,-0.000199826,0.000246907,-0.001644816
1.77E+18,10.87868433,0.047798693,-0.017672362,-0.003841039,0.001923246,0.00596498,-0.009017777
1.77E+18,10.88867334,-0.036668227,-0.020573344,0.001567542,-0.002020097,0.009654524,-0.009194344
1.77E+18,10.89866113,-0.05658055,-0.011801497,0.020108138,0.000222818,0.008969825,-0.00467789
1.77E+18,10.90865015,-0.011257892,0.001365808,0.017191519,0.000666552,0.00495279,-0.003041404
1.77E+18,10.91863843,-0.002998597,-0.017497955,-0.017438188,0.000897981,0.003428929,-0.008568794
1.77E+18,10.9286272,0.013324761,-0.031056159,-0.016366759,0.001463906,0.009607669,-0.015879907
1.77E+18,10.93861499,0.005467618,-0.036559287,0.009146452,0.000924349,0.011631938,-0.020373991
1.77E+18,10.94860425,-0.030195816,-0.021554391,0.025409313,-0.001789522,0.015623715,-0.020704832
1.77E+18,10.95859229,-0.026470074,-0.013470672,0.01230214,-0.001784196,0.014957924,-0.024533924
1.77E+18,10.96858105,0.011608605,-0.006086553,0.01234028,-0.004029084,0.011068977,-0.02567926
1.77E+18,10.97856934,0.06567688,-0.013090368,-0.019446459,-0.002855696,0.002919705,-0.019460514
1.77E+18,10.98855835,0.149428345,-0.017837635,-0.020298253,-0.001760125,0.007694306,-0.011703929
1.77E+18,10.99854614,0.098445761,-0.01950893,-0.011435002,-0.002402746,0.000839596,-0.009234646
1.77E+18,11.00853516,0.057785834,-0.015758418,-0.019404958,-0.000988764,-0.000965296,-0.008200631
1.77E+18,11.01852417,0.049582654,-0.024692324,-0.029131694,0.000349741,0.000471213,-0.006944951
1.77E+18,11.02851221,0.017525135,-0.028134427,-0.004321516,0.000194638,0.002173145,-0.00554494
1.77E+18,11.03850146,-0.015867431,-0.027763255,-0.002751491,0.000624205,0.00071613,-0.002131833
1.77E+18,11.04848926,0.001505728,-0.023103228,-0.01255743,0.000993324,0.002063363,-0.000990871
1.77E+18,11.05847803,0.007547347,-0.020194062,0.003624474,-0.001379286,0.004106274,-0.001172764
1.77E+18,11.06846606,0.047376668,-0.006328838,0.006468758,-0.002701228,-0.000572023,-0.00039568
1.77E+18,11.07845532,0.029706571,-0.014538448,0.002451046,-0.002774731,-0.000499852,-0.000681171
1.77E+18,11.08844336,0.01550269,-0.018986513,0.002216945,-0.001959599,0.002130059,0.000493185
1.77E+18,11.09843237,0.047300096,-0.014170418,0.017495471,-0.00038354,0.003620364,-0.000310824
1.77E+18,11.10842017,0.042916182,-0.011600933,-0.004740911,-0.001196816,0.006982253,-0.003777854
1.77E+18,11.11840918,0.01406009,-0.028678397,0.000412819,-0.003119618,0.012433744,-0.007163531
1.77E+18,11.12839722,0.03661036,-0.019929493,0.014826982,-0.003686118,0.016781487,-0.008343224
1.77E+18,11.13838623,0.024941549,-0.014730317,-0.002717881,-0.003641111,0.015383593,-0.006073945
1.77E+18,11.14837402,0.016690438,-0.040301761,-0.006550591,-0.002410679,0.013941834,-0.006147208
1.77E+18,11.15836304,0.019323709,-0.024017712,-0.007120938,-0.002773135,0.011527944,-0.003841443
1.77E+18,11.16835132,0.046857028,-0.021126375,-0.018499095,-4.52E-05,0.008821022,-0.008571077
1.77E+18,11.17834009,0.053245268,-0.039278483,-0.016594138,0.000447213,0.010740895,-0.012651306
1.77E+18,11.1883291,0.016090719,-0.036896994,-0.000766016,-0.001575031,0.011611225,-0.015087147
1.77E+18,11.19831738,0.015429624,-0.030647213,-0.003946107,-0.00202617,0.004880352,-0.007995682
1.77E+18,11.20830615,0.0818506,-0.020458851,-0.013158611,-0.000927774,-0.002632494,0.000576146
1.77E+18,11.21829419,0.064663319,-0.02530388,-0.030399668,-0.000346938,-0.006516714,-0.000627602
1.77E+18,11.2282832,0.032341596,-0.015690979,-0.013702362,0.000254938,-0.00775914,0.004347516
1.77E+18,11.23827124,0.026226913,-0.017769246,0.001383417,0.000732709,-0.008414278,0.007431457
1.77E+18,11.24826025,0.035252515,-0.030120632,-0.00658084,0.002231749,-0.005832738,0.007199935
1.77E+18,11.25824829,-0.018989947,-0.019020196,-0.000629968,0.000533185,-0.004013265,0.003355928
1.77E+18,11.26823706,-0.002262684,-0.013693156,0.003571136,0.002421472,-0.003521389,0.003702519
1.77E+18,11.2782251,0.034793665,0.0008176,0.007195611,0.000843016,-0.004035112,0.005682579
1.77E+18,11.28821436,0.045213353,-0.029109336,-0.014406565,0.002391595,-0.001983285,0.002252786
1.77E+18,11.29820239,0.000735913,-0.034158656,-0.015413988,0.001046166,-0.00344829,0.004256282
1.77E+18,11.30819116,0.007473697,-0.022215339,0.005642244,0.000585704,-0.003479019,0.006335778
1.77E+18,11.31817896,0.033082185,-0.022824265,-0.001659312,2.64E-05,0.001050752,0.003415888
1.77E+18,11.32816821,0.012535072,-0.016505364,0.004481091,0.001591577,0.005920135,0.003923422
1.77E+18,11.33815625,-0.007923779,-0.011190818,0.019009675,-0.001921132,0.005228513,0.005636101
1.77E+18,11.34814526,0.060787938,-0.010799773,0.003049597,-0.002970573,0.004951415,0.00585153
1.77E+18,11.35813428,0.095354225,-0.027541502,-0.011127251,-0.002133275,0.00651975,0.001403252
1.77E+18,11.36812207,0.084787823,-0.025371611,-0.008009557,-0.001739129,0.009622127,0.001550723
1.77E+18,11.37811133,0.033099137,-0.031064635,0.003187398,-0.002748201,0.011847198,-0.000243715
1.77E+18,11.38809937,0.023917467,-0.018214287,-0.002194003,-0.002070153,0.010793007,-0.001278137
1.77E+18,11.39808813,0.028432314,-0.023657354,-0.009752894,-0.000507943,0.006913314,-0.003335429
1.77E+18,11.40807617,0.042880526,-0.025190628,-0.013575082,-0.000346063,0.004056409,-0.004637002
1.77E+18,11.41806543,0.023624037,-0.029247795,-0.00578136,-0.001264055,0.002171423,-0.003301426
1.77E+18,11.42805347,0.038697687,-0.019830051,0.000551935,-0.001319263,-0.001890753,0.000234513
1.77E+18,11.43804199,0.087086747,-0.022230317,-0.013145459,0.000844289,-0.004557643,-0.000237665
1.77E+18,11.44803027,0.043154082,-0.021976343,-0.021541093,-0.000291687,-0.001512232,-0.001423976
1.77E+18,11.45801929,0.006163199,-0.01555968,0.009282354,-0.001048025,0.001616183,-0.001778177
1.77E+18,11.46800732,-0.002297171,-0.017397636,0.004139876,-0.002494825,0.005112448,-0.002635891
1.77E+18,11.47799634,-0.00981763,-0.034212432,0.007605653,-0.002628515,0.008424621,-0.00417866
1.77E+18,11.48798413,0.022620997,-0.022246757,0.010219488,-0.003058854,0.007429787,-0.00358271
1.77E+18,11.49797314,0.053415948,-0.015885551,0.004714607,-0.003047402,0.009085208,-0.00747199
1.77E+18,11.50796143,0.03646949,-0.007745719,0.012620558,-0.003678835,0.008175069,-0.009547034
1.77E+18,11.5179502,0.023099136,-0.021175474,0.004956161,-0.004714272,0.007407279,-0.010471684
1.77E+18,11.52793921,0.019707156,-0.031263592,-0.011174159,-0.00221851,0.005134598,-0.008080497
1.77E+18,11.53792749,0.026318683,-0.013998422,-0.027535511,-0.001624891,0.00337052,-0.00523491
1.77E+18,11.54791626,0.016759412,-0.017719197,-0.01110387,-0.001290082,0.001661105,-0.003999114
1.77E+18,11.5579043,0.006868132,-0.01125833,5.23E-05,-0.00116012,0.000531392,-0.001889358
1.77E+18,11.56789331,0.021963995,-0.008202376,-0.00875643,-0.001635659,-0.000170505,-0.001533776
1.77E+18,11.57788135,0.037480713,-0.01492204,-0.007457038,-0.001369609,0.000444952,-0.004284821
1.77E+18,11.58787036,0.033853754,-0.018541765,-0.012376082,-0.002057341,0.002375193,-0.010023971
1.77E+18,11.5978584,0.016338556,-0.012677988,-0.006490677,-0.00389732,0.006958493,-0.013891414
1.77E+18,11.60784717,0.005346037,-0.026739538,-0.003934709,-0.003713686,0.011421066,-0.01239218
1.77E+18,11.61783521,-0.012277298,-0.014535671,0.001402706,-0.003389313,0.015238175,-0.01247101
1.77E+18,11.62782446,-0.021983868,-0.027034284,0.009822306,-0.002861366,0.023810666,-0.013464139
1.77E+18,11.6378125,-0.045780923,-0.019442586,0.031185996,-0.001620865,0.025862634,-0.010960767
1.77E+18,11.64780103,-0.029596681,-0.02850874,0.010070435,3.93E-05,0.024273507,-0.01264073
1.77E+18,11.65778906,0.02141922,-0.008523864,-0.009159312,0.000810583,0.024273507,-0.0144863
1.77E+18,11.66777832,-0.000720715,-0.026889907,-0.000984335,0.000797607,0.025855724,-0.01464501
1.77E+18,11.67776709,0.022331074,-0.014362872,0.004764876,-0.002828819,0.022553936,-0.01421997
1.77E+18,11.68775537,0.103454529,-0.007411957,-0.005005699,-0.000985561,0.015434526,-0.010044629
1.77E+18,11.69774438,0.090722473,-0.021927389,-0.048003568,-0.001024709,0.004425552,-0.01028165
1.77E+18,11.70773218,-0.014379238,-0.019208047,-0.019341537,-0.000278154,0.002083292,-0.012049874
1.77E+18,11.71772144,0.008279168,-0.011667641,-0.01464695,-0.00049387,-0.00181238,-0.008730777
1.77E+18,11.72770947,0.053991118,0.00166333,-0.006851912,-0.003643272,0.001034945,-0.007446094
1.77E+18,11.73769824,0.050194064,-0.016746991,0.0170695,-0.00526061,0.005729033,-0.014909869
1.77E+18,11.74768628,0.072682959,-0.023911621,0.006488924,-0.005798635,0.014168013,-0.021482248
1.77E+18,11.75767529,0.016369536,-0.020985943,0.021634909,-0.004281699,0.0235474,-0.025978994
1.77E+18,11.76766333,-0.026103579,-0.022642332,0.014264234,-0.00631944,0.027797177,-0.024402682
1.77E+18,11.77765234,0.059651628,-0.016434271,0.017617928,-0.007146617,0.02795963,-0.01736794
1.77E+18,11.78764038,0.1014239,-0.023388036,-0.001475187,-0.007974057,0.025096407,-0.014663971
1.77E+18,11.79762939,0.08698621,-0.020746508,-0.021364129,-0.004381719,0.019037982,-0.012536638
1.77E+18,11.80761719,0.050335518,-0.022976533,-0.006223697,-0.0042769,0.017384494,-0.009176439
1.77E+18,11.8176062,0.009628245,-0.032116409,-0.007617343,-0.003142393,0.018707551,-0.011920293
1.77E+18,11.82759424,-0.021221652,-0.011866963,-0.011608166,-0.001876586,0.013585107,-0.006521405
1.77E+18,11.83758325,0.041349663,-0.012763766,-0.012977993,-0.000914386,0.00530747,-0.002569806
1.77E+18,11.84757227,0.109433604,-0.019250498,-0.043467532,-0.000267827,-0.002073067,-0.00112791
1.77E+18,11.85756006,0.104457569,-0.040401788,-0.026970863,-0.001145604,0.002020744,0.001287844
1.77E+18,11.86754907,0.051046881,-0.019329774,0.012651392,-0.001364833,-0.002607538,0.004608199
1.77E+18,11.87753735,0.068250529,-0.010925737,-0.021959757,0.000269016,8.68E-05,0.004560528
1.77E+18,11.88752637,0.069202716,-0.036134559,-0.019052783,0.000627685,0.004633639,0.005280277
1.77E+18,11.89751416,0.019415479,-0.037638168,0.017372867,-0.001466359,0.006739134,0.009417498
1.77E+18,11.90750342,0.013963643,-0.024611952,0.011143618,0.000452289,0.004446438,0.012830909
1.77E+18,11.91749121,0.061038698,-0.024470936,-0.014505495,0.000208343,0.004072796,0.013823204
1.77E+18,11.92748022,0.061965166,-0.007823387,-0.013080723,-0.000455915,0.000561914,0.011465166
1.77E+18,11.93746851,0.013809914,-0.01534085,0.00357552,0.000428255,0.002878332,0.014147236
1.77E+18,11.94745728,0.030028059,-0.025047567,-0.008184768,0.003643758,0.002250196,0.014754068
1.77E+18,11.95744531,0.038722237,-0.030435909,-0.013775281,0.002213374,-0.000497121,0.01212606
1.77E+18,11.96743433,0.008894085,-0.014999489,0.002504092,0.003014081,-0.000768222,0.009241476
1.77E+18,11.97742236,-0.039675008,-0.018890505,0.007318945,0.002210606,0.000795586,0.009914191
1.77E+18,11.98741113,0.008248188,-0.025947,-6.75E-05,0.003674549,-0.005440797,0.014271985
1.77E+18,11.99739941,0.059063014,-0.023379999,-0.034000031,0.005709204,-0.012407361,0.015837392
1.77E+18,12.00738843,0.028518823,-0.00690883,-0.038408641,0.005594897,-0.016967347,0.020477479
1.77E+18,12.0173772,0.032796939,-0.021788273,-0.0241428,0.004200732,-0.020704294,0.02286447
1.77E+18,12.02736523,0.02959785,-0.020382571,-0.010838205,0.00384531,-0.016661683,0.025242584
1.77E+18,12.03735425,0.020929391,-0.013549437,-0.009602379,0.003124392,-0.015250741,0.020647034
1.77E+18,12.04734229,0.024575638,-0.033103813,0.00402984,0.001142628,-0.009886593,0.018156067
1.77E+18,12.05733154,0.029802433,-0.032162294,0.007198825,0.001011334,-0.006323549,0.014928314
1.77E+18,12.06731934,0.003944938,-0.025283787,0.025062107,-0.002811212,-0.001391943,0.012060279
1.77E+18,12.07730811,0.002991583,-0.021335926,0.012896453,-0.001194141,-0.000190058,0.010379825
1.77E+18,12.08729614,0.042901569,-0.025432694,-0.016564912,-0.001139597,-0.000492671,0.01154232
1.77E+18,12.0972854,0.04657938,-0.029678003,-0.015813509,-0.000333192,-0.001426641,0.006051415
1.77E+18,12.10727344,0.025942251,-0.023024609,-0.00919073,-0.001424552,-0.000590468,0.003408824
1.77E+18,12.11726245,0.02416355,-0.026552491,-0.004284692,-0.000835461,0.000249493,0.001532361
1.77E+18,12.12725024,0.026474165,-0.023790552,-0.004888649,-0.000924569,0.004265901,-0.002331073
1.77E+18,12.13723926,0.023245851,-0.019775252,0.002429711,-0.001073707,0.003809168,-0.00616496
1.77E+18,12.14722729,0.017048165,-0.026876463,-0.001660334,-0.001191261,0.011772888,-0.010257086
1.77E+18,12.15721631,-0.003000351,-0.021461306,0.006506021,-0.001057304,0.012950005,-0.014984997
1.77E+18,12.16720435,-0.051321022,-0.01372735,0.000410334,-0.000655804,0.015089864,-0.020762572
1.77E+18,12.17719312,-0.048484337,-0.015915216,-0.005800941,-0.001412675,0.013938047,-0.020538334
1.77E+18,12.18718213,0.003697101,-0.010577654,0.001840221,-0.001516165,0.015624454,-0.022535691
1.77E+18,12.19717017,0.048836804,-0.017188743,-0.015174188,-0.002457326,0.014032683,-0.026270242
1.77E+18,12.20715918,0.030483986,-0.008368746,-0.014883973,-0.000737992,0.013294514,-0.029506044
1.77E+18,12.21714746,0.006415712,-0.009636574,-0.008842501,-0.001346258,0.013704374,-0.028212549
1.77E+18,12.22713647,0.044909986,-0.004092019,-0.009959376,-0.001893597,0.01283686,-0.026975445
1.77E+18,12.23712402,0.057223524,-0.006231515,-0.003364654,-0.001615829,0.013026478,-0.025991142
1.77E+18,12.24711328,0.04124971,0.010882409,-0.001212737,-0.000443447,0.010337074,-0.024889989
1.77E+18,12.25710132,0.022371991,-0.018479148,-0.008170739,-1.73E-05,0.006711447,-0.022899808
1.77E+18,12.26709033,0.040860418,-0.021965237,-0.011992489,-0.000569624,0.004802879,-0.019671055
1.77E+18,12.27707861,0.054962593,-0.020765359,-0.015741028,0.000863157,0.001871538,-0.017170081
1.77E+18,12.28706714,0.057379007,-0.020072336,-0.016848697,0.000326258,0.000235515,-0.013892492
1.77E+18,12.29705518,0.057878773,-0.014428046,-0.014672961,-0.000287068,-5.98E-05,-0.010513473
1.77E+18,12.30704443,0.035950434,-0.015110841,-0.003439327,0.001571713,0.000121274,-0.007138829
1.77E+18,12.31703247,0.06251637,-0.017323183,-0.003667729,0.002713943,0.0006334,-0.004063677
1.77E+18,12.32702124,0.038350481,-0.02963431,-0.016664281,0.001986952,-0.002663783,-0.007057361
1.77E+18,12.33700903,0.026112346,-0.028144144,-0.011412936,0.000227401,-0.003572187,-0.004358247
1.77E+18,12.34699829,0.033058805,-0.010957374,-0.000956716,0.001764421,0.000726087,-0.004484571
1.77E+18,12.35698706,-0.012577742,-0.003572159,0.008626374,0.002112496,0.003522406,-0.002513832
1.77E+18,12.36697534,-0.005035656,-0.005125015,0.020426702,-0.000199873,0.001190989,-8.44E-05
1.77E+18,12.37696436,0.056080199,-0.019711612,0.007927724,-0.001337309,0.003144418,0.002412623
1.77E+18,12.38695215,0.091191845,-0.018878742,-0.001502075,-0.001203831,0.002401842,0.002531806
1.77E+18,12.39694141,0.053111412,-0.008582389,0.001126228,-0.000335907,0.002708372,0.002958711
1.77E+18,12.4069292,0.050491001,-0.01861936,-0.022503508,-0.001225564,-0.000408068,0.002927133
1.77E+18,12.41691821,0.049652796,-0.026984672,-0.018855946,-0.000105971,-6.08E-05,0.005645688
1.77E+18,12.42690625,0.02920739,-0.014632263,-0.001131781,-0.00198206,0.001039455,0.004189218
1.77E+18,12.43689551,0.008338789,-0.017889146,0.007314999,-0.001180715,0.002763586,0.00095401
1.77E+18,12.4468833,0.020866262,-0.022637145,0.005359189,0.000465703,0.00720475,-0.002031951
1.77E+18,12.45687207,0.017000819,-0.033934711,0.002767127,-0.003259261,0.010737433,-0.005126012
1.77E+18,12.46686035,-0.011521511,-0.019915099,0.010849603,-0.0014138,0.011521535,-0.006590927
1.77E+18,12.47684937,-0.013286767,-0.026520343,0.004677344,-0.000387951,0.010450944,-0.008898823
1.77E+18,12.4868374,0.015174188,-0.015851868,0.005262597,-0.000731386,0.009851236,-0.007230809
1.77E+18,12.49682617,0.021598668,-0.015374022,0.010859248,-0.000355348,0.007603262,-0.006343711
1.77E+18,12.50681519,0.018206688,-0.02321604,-0.01335691,-0.000552693,0.003694067,-0.006567479
1.77E+18,12.51680322,0.028635143,-0.013080869,-0.021030951,0.000340798,-0.000143282,-0.00767349
1.77E+18,12.52679224,0.049176996,-0.017299145,-0.012549539,0.001168886,-0.002950218,-0.005292815
1.77E+18,12.53678027,0.065033321,-0.035305561,-0.028349458,0.002017369,-0.004228535,-0.004907455
1.77E+18,12.54676929,0.046768765,-0.025517449,-0.021051556,0.001939659,-0.005051538,-0.004776288
1.77E+18,12.55675732,0.01773381,-0.028138738,-0.012623042,0.003416914,0.000141893,-0.007204825
1.77E+18,12.56674634,0.010806641,-0.022955051,-0.003744155,0.001313285,0.002859055,-0.005905135
1.77E+18,12.57673413,0.00737842,-0.026710605,0.016895751,-0.000206314,0.004397829,-0.006659076
1.77E+18,12.58672339,0.016551322,-0.013297654,0.004724398,-0.001634307,0.00404588,-0.004460767
1.77E+18,12.59671118,0.039814124,-0.031972324,0.00288783,-0.002502764,0.003601931,-0.002903617
1.77E+18,12.6067002,0.054698974,-0.021417759,-0.001530132,-0.002267602,0.004603855,0.000107317
1.77E+18,12.61668848,0.074407298,-0.010505539,-0.012364538,-0.000451592,0.005930376,-0.00615191
