time,seconds_elapsed,z,y,x
1769666835051091700,0.071091796875,-0.002281657885760069,0.014830590225756168,-0.01861073449254036
1769666835061080600,0.08108056640625,-0.0076967268250882626,0.02479773759841919,-0.021507255733013153
1769666835071068400,0.091068359375,-0.014853172935545444,0.04918723180890083,-0.026102807372808456
1769666835081057500,0.1010576171875,-0.02902970463037491,0.05041952058672905,-0.030449654906988144
1769666835091045600,0.111045654296875,-0.03450516611337662,0.047979000955820084,-0.04070762172341347
1769666835101034800,0.12103466796875,-0.025960730388760567,0.04922794550657272,-0.05335334688425064
1769666835111022600,0.131022705078125,-0.019921479746699333,0.04405422508716583,-0.05827726796269417
1769666835121011500,0.141011474609375,-0.013584702275693417,0.03909416124224663,-0.051820725202560425
1769666835130999600,0.15099951171875,-0.01718742772936821,0.0319366529583931,-0.04785847291350365
1769666835140988700,0.16098876953125,-0.03257378563284874,0.037715889513492584,-0.06142260879278183
1769666835150976800,0.170976806640625,-0.05702826380729675,0.06323350220918655,-0.09763281047344208
1769666835160965600,0.180965576171875,-0.08291195333003998,0.09555637836456299,-0.13743720948696136
1769666835170953500,0.190953369140625,-0.08703239262104034,0.13163554668426514,-0.1545083373785019
1769666835180942600,0.200942626953125,-0.08313848078250885,0.09754388779401779,-0.14113755524158478
1769666835190930700,0.2109306640625,-0.07334763556718826,0.09007212519645691,-0.1219838336110115
1769666835200919600,0.22091943359375,-0.08935467898845673,0.10484517365694046,-0.13619214296340942
1769666835210908700,0.23090869140625,-0.12302768975496292,0.12181377410888672,-0.16208072006702423
1769666835220896500,0.240896484375,-0.15183833241462708,0.1598898470401764,-0.17398835718631744
1769666835230885600,0.2508857421875,-0.1551787406206131,0.16881464421749115,-0.15030966699123383
1769666835240873500,0.26087353515625,-0.13085061311721802,0.14104796946048737,-0.14511577785015106
1769666835250862600,0.270862548828125,-0.11411689966917038,0.16012738645076752,-0.1292012631893158
1769666835260850700,0.2808505859375,-0.1435670405626297,0.20169229805469513,-0.16678941249847412
1769666835270839800,0.29083984375,-0.243293896317482,0.3038117587566376,-0.2578929364681244
1769666835280827600,0.30082763671875,-0.35406410694122314,0.4086780846118927,-0.3306276798248291
1769666835290816500,0.31081640625,-0.43656590580940247,0.4609213173389435,-0.38781002163887024
1769666835300804600,0.3208046875,-0.48600056767463684,0.5087060332298279,-0.3917492926120758
1769666835310793700,0.330793701171875,-0.5255282521247864,0.49284106492996216,-0.4245564937591553
1769666835320781600,0.340781494140625,-0.5768207311630249,0.5049442052841187,-0.44928300380706787
1769666835330770400,0.3507705078125,-0.630751371383667,0.5450202822685242,-0.5075072050094604
1769666835340759600,0.360759521484375,-0.5742833614349365,0.4423750638961792,-0.5156533718109131
1769666835350747600,0.37074755859375,-0.48394283652305603,0.23726028203964233,-0.45953094959259033
1769666835360736500,0.380736572265625,-0.48355260491371155,0.31105372309684753,-0.506748378276825
1769666835370725400,0.390725341796875,-0.567103922367096,0.3719106912612915,-0.538436770439148
1769666835380714500,0.400714599609375,-0.5759536027908325,0.289918452501297,-0.540193498134613
1769666835390702600,0.41070263671875,-0.5772846341133118,0.2754708230495453,-0.5582883358001709
1769666835400691500,0.42069140625,-0.5250840783119202,0.35676950216293335,-0.5477036833763123
1769666835410679300,0.43067919921875,-0.42831090092658997,0.43596288561820984,-0.5161468386650085
1769666835420668400,0.44066845703125,-0.2949657738208771,0.39124277234077454,-0.43586790561676025
1769666835430656500,0.450656494140625,-0.17827963829040527,0.2696543037891388,-0.3235400319099426
1769666835440645400,0.460645263671875,-0.0896056517958641,0.23322606086730957,-0.2224094271659851
1769666835450633500,0.470633544921875,-0.018313094973564148,0.18867003917694092,-0.18684770166873932
1769666835460622600,0.48062255859375,0.0034698625095188618,0.17807301878929138,-0.21042846143245697
1769666835470610400,0.4906103515625,-0.02585526928305626,0.23770678043365479,-0.27241167426109314
1769666835480599300,0.500599365234375,-0.11740840971469879,0.2925730347633362,-0.37649399042129517
1769666835490587400,0.51058740234375,-0.23075494170188904,0.39046257734298706,-0.4620155394077301
1769666835500576500,0.520576416015625,-0.22253428399562836,0.5418684482574463,-0.4372405409812927
1769666835510565600,0.530565673828125,0.004403781145811081,0.6041877269744873,-0.2894739806652069
1769666835520553500,0.540553466796875,0.36892321705818176,0.7068870067596436,-0.14667311310768127
1769666835530542300,0.550542236328125,0.49812832474708557,0.6120284199714661,-0.22524648904800415
1769666835540530400,0.560530517578125,0.4362295866012573,0.6603927612304688,-0.31725209951400757
1769666835550519600,0.57051953125,0.28291887044906616,0.5937733054161072,-0.35002923011779785
1769666835560507600,0.580507568359375,0.1459697037935257,0.48149868845939636,-0.30178672075271606
1769666835570496500,0.59049658203125,0.06232752650976181,0.39332810044288635,-0.207187220454216
1769666835580484400,0.600484375,0.040571048855781555,0.34008845686912537,-0.12789496779441833
1769666835590473500,0.610473388671875,0.06101560592651367,0.31563425064086914,-0.0980135127902031
1769666835600461600,0.620461669921875,0.06977777928113937,0.349568247795105,-0.12681818008422852
1769666835610450400,0.630450439453125,0.0737520158290863,0.39655813574790955,-0.16118468344211578
1769666835620438500,0.6404384765625,0.07929549366235733,0.38451939821243286,-0.18531259894371033
1769666835630427400,0.650427490234375,0.07084128260612488,0.39800989627838135,-0.17809410393238068
1769666835640416300,0.660416259765625,0.06429816782474518,0.38758522272109985,-0.16520893573760986
1769666835650404400,0.670404296875,0.06628594547510147,0.4074670374393463,-0.17100957036018372
1769666835660393500,0.6803935546875,0.07735015451908112,0.41881585121154785,-0.18650399148464203
1769666835670381600,0.690381591796875,0.0791962593793869,0.440960556268692,-0.21097098290920258
1769666835680370700,0.70037060546875,0.09355155378580093,0.41002386808395386,-0.22121521830558777
1769666835690358500,0.710358642578125,0.09684242308139801,0.29353028535842896,-0.15500423312187195
1769666835700347400,0.720347412109375,0.07496342808008194,0.34918883442878723,-0.12225896120071411
1769666835710335500,0.73033544921875,0.07023631781339645,0.2687840163707733,-0.12676581740379333
1769666835720324600,0.74032470703125,0.05840006098151207,0.23303867876529694,-0.10901586711406708
1769666835730312400,0.7503125,0.07385491579771042,0.2564888596534729,-0.14245077967643738
1769666835740301300,0.76030126953125,0.06963013857603073,0.272218257188797,-0.14459584653377533
1769666835750289400,0.770289306640625,0.06995370984077454,0.231777623295784,-0.11167626082897186
1769666835760278500,0.780278564453125,0.05502946302294731,0.2838863730430603,-0.11949997395277023
1769666835770266600,0.7902666015625,0.03361578285694122,0.24659837782382965,-0.09804421663284302
1769666835780255500,0.80025537109375,0.06344419717788696,0.25541335344314575,-0.11562637984752655
1769666835790243300,0.810243408203125,0.05218355357646942,0.24322861433029175,-0.08464396744966507
1769666835800232400,0.820232421875,0.051441490650177,0.2253667563199997,-0.066396065056324
1769666835810221300,0.83022119140625,0.060296766459941864,0.29455167055130005,-0.06369561702013016
1769666835820209400,0.84020947265625,0.059353843331336975,0.23204371333122253,-0.05566464364528656
1769666835830198500,0.850198486328125,0.058022528886795044,0.25438392162323,-0.07888741046190262
1769666835840186400,0.860186279296875,0.06029532104730606,0.25190287828445435,-0.09128008037805557
1769666835850175500,0.870175537109375,0.05401105806231499,0.2085663229227066,-0.08813142776489258
1769666835860163300,0.880163330078125,0.04402239993214607,0.18739505112171173,-0.06744692474603653
1769666835870152400,0.89015234375,0.03493835777044296,0.17658422887325287,-0.043770093470811844
1769666835880140500,0.900140625,0.01407846063375473,0.13860782980918884,-0.04906037822365761
1769666835890129700,0.910129638671875,0.013277914375066757,0.14012449979782104,-0.05424635112285614
1769666835900117500,0.920117431640625,0.01497594453394413,0.1391112357378006,-0.06250222027301788
1769666835910106400,0.9301064453125,0.017704086378216743,0.1262340545654297,-0.07317190617322922
1769666835920094500,0.940094482421875,0.026123084127902985,0.10039402544498444,-0.07476328313350677
1769666835930083600,0.95008349609375,0.032318662852048874,0.11368639022111893,-0.07089264690876007
1769666835940071400,0.960071533203125,0.034985657781362534,0.08618152141571045,-0.06308521330356598
1769666835950060300,0.970060302734375,0.03272410109639168,0.0903158187866211,-0.05095371603965759
1769666835960049400,0.98004931640625,0.030993996188044548,0.07684620469808578,-0.03979344666004181
1769666835970037500,0.99003759765625,0.029289307072758675,0.07791146636009216,-0.040912505239248276
1769666835980026400,1.0000263671875,0.03351782262325287,0.07909729331731796,-0.0319589301943779
1769666835990014500,1.010014404296875,0.03286748006939888,0.07596728205680847,-0.03263324499130249
1769666836000003600,1.020003662109375,0.03670568764209747,0.06165418401360512,-0.039093006402254105
1769666836009991400,1.029991455078125,0.03361162543296814,0.07492178678512573,-0.046976227313280106
1769666836019980500,1.03998046875,0.036450766026973724,0.07865658402442932,-0.06679338216781616
1769666836029968400,1.049968505859375,0.03528030961751938,0.08339514583349228,-0.07437992841005325
1769666836039957500,1.05995751953125,0.021143773570656776,0.06694768369197845,-0.06941382586956024
1769666836049945300,1.0699453125,0.021542714908719063,0.0851392149925232,-0.0809415876865387
1769666836059934500,1.0799345703125,0.031500644981861115,0.08908026665449142,-0.10105326771736145
1769666836069922600,1.089922607421875,0.030643371865153313,0.08792711794376373,-0.11079777777194977
1769666836079911400,1.099911376953125,0.034152351319789886,0.08960001915693283,-0.1269257813692093
1769666836089899500,1.1098994140625,0.03303861618041992,0.09620625525712967,-0.1312912404537201
1769666836099888600,1.119888671875,0.03129339963197708,0.12073222547769547,-0.1386752724647522
1769666836109877200,1.129877197265625,0.02942652255296707,0.14856785535812378,-0.14633426070213318
1769666836119865300,1.139865234375,0.02670508623123169,0.1453825831413269,-0.14268717169761658
1769666836129854500,1.1498544921875,0.026122119277715683,0.13808366656303406,-0.1511235237121582
1769666836139842600,1.159842529296875,0.03339335322380066,0.14957775175571442,-0.15407630801200867
1769666836149831400,1.16983154296875,0.025506136938929558,0.16409064829349518,-0.1417330801486969
1769666836159819300,1.1798193359375,0.021930471062660217,0.15664264559745789,-0.1327136754989624
1769666836169808400,1.189808349609375,0.03805617615580559,0.18136583268642426,-0.1545500010251999
1769666836179796500,1.19979638671875,0.05259953811764717,0.18622982501983643,-0.17093658447265625
1769666836189785600,1.20978564453125,0.046377331018447876,0.18690280616283417,-0.16753040254116058
1769666836199773400,1.2197734375,0.04303042218089104,0.1783808171749115,-0.17747408151626587
1769666836209762600,1.229762451171875,0.03824285790324211,0.1624969244003296,-0.1743144989013672
1769666836219750400,1.23975048828125,0.026522768661379814,0.1457495093345642,-0.17151090502738953
1769666836229739500,1.249739501953125,0.01710556633770466,0.14784781634807587,-0.18059521913528442
1769666836239727600,1.2597275390625,0.00548880361020565,0.13895346224308014,-0.19071535766124725
1769666836249716500,1.269716552734375,-0.005882095079869032,0.14087386429309845,-0.1702665388584137
1769666836259704300,1.279704345703125,-0.010381562635302544,0.13894732296466827,-0.15334540605545044
1769666836269693400,1.289693359375,-0.016656234860420227,0.14984950423240662,-0.13144490122795105
1769666836279682300,1.299682373046875,-0.02163485623896122,0.15737630426883698,-0.12834444642066956
1769666836289670400,1.30967041015625,-0.020518193021416664,0.1738564670085907,-0.12760275602340698
1769666836299659500,1.319659423828125,-0.024137582629919052,0.1848762333393097,-0.12081705033779144
1769666836309647600,1.329647705078125,-0.02424277737736702,0.1907157450914383,-0.110736183822155
1769666836319636200,1.33963623046875,-0.027231646701693535,0.17603620886802673,-0.11232376098632812
1769666836329624300,1.349624267578125,-0.028682004660367966,0.16722966730594635,-0.10784539580345154
1769666836339613400,1.359613525390625,-0.03248770907521248,0.16297981142997742,-0.10395938158035278
1769666836349601500,1.3696015625,-0.03431783616542816,0.1533423662185669,-0.10378015041351318
1769666836359590700,1.379590576171875,-0.035653624683618546,0.1509069800376892,-0.10218334943056107
1769666836369578000,1.389577880859375,-0.038890961557626724,0.1389789581298828,-0.08983346819877625
1769666836379566800,1.39956689453125,-0.040087953209877014,0.1314859390258789,-0.07157238572835922
1769666836389554700,1.4095546875,-0.04163285344839096,0.1306619495153427,-0.06296877562999725
1769666836399543800,1.419543701171875,-0.0435900054872036,0.1039036214351654,-0.046472933143377304
1769666836409532000,1.429531982421875,-0.04113670065999031,0.08649187535047531,-0.033485230058431625
1769666836419520800,1.439520751953125,-0.03693876415491104,0.06562137603759766,-0.017088577151298523
1769666836429510000,1.449510009765625,-0.03191790357232094,0.03424561023712158,0.002627869136631489
1769666836439498000,1.459498046875,-0.022632643580436707,0.02164595015347004,0.013467065989971161
1769666836449486800,1.46948681640625,-0.021412383764982224,0.020567636936903,0.013916607946157455
1769666836459474700,1.479474609375,-0.020148541778326035,0.018732182681560516,0.010414458811283112
1769666836469463800,1.4894638671875,-0.017367668449878693,0.008929619565606117,0.008551044389605522
1769666836479452000,1.499451904296875,-0.01450737752020359,0.008880571462213993,0.016857020556926727
1769666836489441000,1.50944091796875,-0.013173400424420834,0.0029728813096880913,0.020159075036644936
1769666836499428900,1.519428955078125,-0.012539413757622242,-0.0021790778264403343,0.022683169692754745
1769666836509417700,1.529417724609375,-0.009519122540950775,-0.0028826850466430187,0.02974534034729004
1769666836519405800,1.53940576171875,-0.008848588913679123,-0.007670223712921143,0.032379399985075
1769666836529395000,1.54939501953125,-0.009897075593471527,-0.014218403026461601,0.033856652677059174
1769666836539383000,1.559383056640625,-0.009686737321317196,-0.018204865977168083,0.03233698010444641
1769666836549371600,1.56937158203125,-0.009993000887334347,-0.0225085336714983,0.02841947227716446
1769666836559359700,1.57935986328125,-0.0087667778134346,-0.02442409098148346,0.022429004311561584
1769666836569348900,1.589348876953125,-0.008174491114914417,-0.024566572159528732,0.016054194420576096
1769666836579337700,1.599337646484375,-0.0071864621713757515,-0.025458671152591705,0.012421047315001488
1769666836589325800,1.609325927734375,-0.007228007540106773,-0.02675190195441246,0.006565023213624954
1769666836599315000,1.61931494140625,-0.00888693705201149,-0.02237466163933277,0.001540859928354621
1769666836609302800,1.629302734375,-0.005569170694798231,-0.026919346302747726,-0.0022624002303928137
1769666836619292000,1.6392919921875,-0.010865082032978535,-0.03206363692879677,-0.007817847654223442
1769666836629279700,1.64927978515625,-0.010766012594103813,-0.028548795729875565,-0.014015289023518562
1769666836639268900,1.659268798828125,-0.011625678278505802,-0.02048986591398716,-0.02316957339644432
1769666836649257000,1.669257080078125,-0.013289621099829674,-0.01699206978082657,-0.034518104046583176
1769666836659245800,1.679245849609375,-0.010321907699108124,-0.0028540180064737797,-0.052440620958805084
1769666836669234000,1.68923388671875,-0.011529650539159775,0.008687855675816536,-0.06664086133241653
1769666836679222800,1.699222900390625,-0.01037575677037239,0.010982255451381207,-0.07136677950620651
1769666836689211000,1.7092109375,-0.010892143473029137,0.007444512099027634,-0.06629639118909836
1769666836699200000,1.719199951171875,-0.00829098280519247,0.0019094744930043817,-0.05076778680086136
1769666836709187800,1.729187744140625,-0.0077879116870462894,-0.0025470592081546783,-0.03988051787018776
1769666836719176700,1.7391767578125,-0.004917661659419537,-0.004029365256428719,-0.0375216044485569
1769666836729164800,1.749164794921875,-0.0011876383796334267,-0.00524403341114521,-0.03740948438644409
1769666836739154000,1.75915380859375,-0.0007899209158495069,-0.0031008929945528507,-0.034221403300762177
1769666836749142800,1.769142822265625,0.0017427452839910984,-0.00993935763835907,-0.025659073144197464
1769666836759130600,1.779130615234375,0.003305491991341114,-0.016611168161034584,-0.013423649594187737
1769666836769119700,1.78911962890625,0.005971582606434822,-0.01929989643394947,-0.013855613768100739
1769666836779107800,1.79910791015625,0.0063970498740673065,-0.025861117988824844,0.0021213749423623085
1769666836789097000,1.809096923828125,0.00653819739818573,-0.03370572254061699,0.008339855819940567
1769666836799084800,1.819084716796875,0.007222412154078484,-0.03690164536237717,0.008815672248601913
1769666836809074000,1.829073974609375,0.008878098800778389,-0.0367562398314476,0.011037016287446022
1769666836819061800,1.839061767578125,0.007072155363857746,-0.03200187534093857,0.0083319041877985
1769666836829051000,1.84905078125,0.005459877662360668,-0.028432710096240044,0.0031222279649227858
1769666836839039000,1.8590390625,0.005663719028234482,-0.020231038331985474,-0.002710184082388878
1769666836849027800,1.86902783203125,0.002886841306462884,-0.014173412695527077,-0.007239155471324921
1769666836859016000,1.879015869140625,0.0021707690320909023,-0.009467797353863716,-0.010558011941611767
1769666836869004800,1.8890048828125,-0.0015235680621117353,-0.0024876524694263935,-0.010072784498333931
1769666836878993000,1.898992919921875,-0.00037287245504558086,-0.00370153971016407,-0.00764561677351594
1769666836888981800,1.908981689453125,-0.0022093881852924824,-0.0034940792247653008,-0.010053379461169243
1769666836898969900,1.918969970703125,-0.002085174899548292,-0.0027069165371358395,-0.014135030098259449
1769666836908959000,1.928958984375,-0.002745639067143202,0.0018801121041178703,-0.020528215914964676
1769666836918947800,1.93894775390625,-0.0016710077179595828,0.01180717907845974,-0.02310677245259285
1769666836928935700,1.948935791015625,-0.003887556493282318,0.007181800901889801,-0.02153950184583664
1769666836938924800,1.9589248046875,-0.0038019497878849506,0.00033163686748594046,-0.012538179755210876
1769666836948913000,1.968912841796875,-0.0033217817544937134,-0.0012550745159387589,-0.008843043819069862
1769666836958901800,1.97890185546875,-0.002593357814475894,-0.003393822815269232,-0.002824826631695032
1769666836968889900,1.988889892578125,-0.001581622869707644,-0.003387697506695986,-0.0006719273515045643
1769666836978878700,1.998878662109375,-0.0016831948887556791,-0.0032910159789025784,0.0004659276455640793
1769666836988866800,2.00886669921875,0.000002319691702723503,-0.0015889895148575306,0.00410833302885294
1769666836998856000,2.01885595703125,0.0004909496055915952,-0.003201493062078953,0.005992419086396694
1769666837008843800,2.02884375,0.001257939962670207,-0.001154587371274829,0.0030213966965675354
1769666837018833000,2.0388330078125,-0.0010087814880535007,0.002204200718551874,0.0028013044502586126
1769666837028820700,2.04882080078125,0.00003917235881090164,0.001885686651803553,0.0028447138611227274
1769666837038809900,2.058809814453125,-0.0006725381826981902,0.0016433005221188068,0.0022811174858361483
1769666837048798000,2.0687978515625,0.00010563747491687536,0.0018086828058585525,0.005365057848393917
1769666837058786800,2.078786865234375,-0.00026304833590984344,-0.0013844375498592854,0.004593158606439829
1769666837068776000,2.08877587890625,0.000330037553794682,-0.004050261806696653,0.005041634663939476
1769666837078763800,2.098763671875,0.00028855830896645784,-0.0025069559924304485,0.002114084782078862
1769666837088752600,2.108752685546875,-0.0011343685910105705,0.0022371988743543625,0.00107811507768929
1769666837098740700,2.11874072265625,-0.0005939072580076754,0.005104882642626762,0.0004246886819601059
1769666837108729900,2.128729736328125,-0.0006511652609333396,0.0023972466588020325,0.006299089640378952
1769666837118718000,2.138718017578125,0.0003743654815480113,-0.003777103964239359,0.008814738132059574
1769666837128706800,2.148706787109375,0.00008967355825006962,-0.004211731720715761,0.009937526658177376
1769666837138694700,2.158694580078125,0.00009078637231141329,-0.006812540348619223,0.01148989237844944
1769666837148683800,2.168683837890625,0.0009688306599855423,-0.010929521173238754,0.009045643731951714
1769666837158672000,2.178671875,0.0011375196045264602,-0.00485747866332531,0.006142608355730772
1769666837168661000,2.188660888671875,0.00006985827349126339,-0.000024640467017889023,0.0030493466183543205
1769666837178648800,2.19864892578125,0.0012943227775394917,0.0010932337027043104,0.0005969044286757708
1769666837188637700,2.2086376953125,0.00028738146647810936,0.0022924551740288734,-0.0005498528480529785
1769666837198625800,2.218625732421875,-0.001228700508363545,-0.00023140455596148968,-0.001436381135135889
1769666837208615000,2.228614990234375,-0.0002704951912164688,-0.000788537785410881,-0.0008656657300889492
1769666837218603800,2.238603759765625,-0.001637386390939355,-0.002176011446863413,-0.000531625933945179
1769666837228591900,2.248591796875,-0.001786523382179439,-0.003916919697076082,-0.002694911789149046
1769666837238581000,2.2585810546875,-0.0006813177606090903,-0.002708523068577051,-0.005029835272580385
1769666837248568800,2.26856884765625,-0.0010008970275521278,0.00012667803093791008,-0.005243953783065081
1769666837258557700,2.2785576171875,0.0006547968368977308,-0.0017207753844559193,-0.0019586465787142515
1769666837268545800,2.2885458984375,-0.000015520723536610603,-0.0061506773345172405,0.0031146754045039415
1769666837278535000,2.298534912109375,0.0012323801638558507,-0.008614588528871536,0.004869591444730759
1769666837288522800,2.308522705078125,0.0022100266069173813,-0.010340318083763123,0.006519685965031385
1769666837298511600,2.31851171875,0.001167398993857205,-0.010174669325351715,0.00897298939526081
1769666837308499700,2.328499755859375,0.0021554320119321346,-0.009324321523308754,0.010536798276007175
1769666837318488800,2.33848876953125,0.00047811749391257763,-0.010087868198752403,0.009127414785325527
1769666837328477000,2.348476806640625,-0.00013920327182859182,-0.011102531105279922,0.009351386688649654
1769666837338466000,2.358466064453125,-0.00004737579729408026,-0.008578997105360031,0.006826202850788832
1769666837348454000,2.368453857421875,-0.0012103782501071692,-0.0067110564559698105,0.00726615684106946
1769666837358442800,2.37844287109375,-0.00016418145969510078,-0.002681332640349865,0.0067583052441477776
1769666837368430300,2.388430419921875,0.0012177327880635858,0.000004199100658297539,0.006355635356158018
1769666837378419500,2.39841943359375,-0.0008680013124831021,0.003722685156390071,0.002289127791300416
1769666837388408300,2.408408203125,-0.0006935642450116575,0.0024219972547143698,0.0014726025983691216
1769666837398396400,2.418396484375,-0.00015320884995162487,0.0010352893732488155,0.0022340002469718456
1769666837408385500,2.428385498046875,0.0009863576851785183,0.00013514095917344093,0.0033466690219938755
1769666837418373400,2.438373291015625,0.00037942337803542614,-0.0015085621271282434,0.002667563036084175
1769666837428362500,2.448362548828125,0.0003943369956687093,-0.001808434259146452,-0.0002595174591988325
1769666837438350300,2.458350341796875,0.0006851103389635682,0.000084238825365901,-0.0017429739236831665
1769666837448339500,2.46833935546875,0.0004062773659825325,-0.0005069829057902098,-0.0009562764316797256
1769666837458327600,2.47832763671875,-0.0005123958690091968,-0.0010144198313355446,0.0027091349475085735
1769666837468316400,2.48831640625,0.0003139830660074949,-0.004261345602571964,0.006224773824214935
1769666837478304500,2.498304443359375,0.002874312922358513,-0.006237374152988195,0.005934563465416431
1769666837488293400,2.50829345703125,0.0016303505981341004,-0.007433932740241289,0.004660507198423147
1769666837498281500,2.518281494140625,0.0021875733509659767,-0.004102910868823528,0.00185786176007241
1769666837508270600,2.5282705078125,0.00120326888281852,-0.0014237707946449518,-0.006259187124669552
1769666837518258400,2.538258544921875,-0.00027085759211331606,0.002198729896917939,-0.004710471257567406
1769666837528247300,2.548247314453125,0.0025502287317067385,0.0009710126323625445,-0.0015532937832176685
1769666837538236400,2.558236328125,0.0006671303417533636,0.002219579415395856,-0.004853775259107351
1769666837548224500,2.568224609375,0.0011789898853749037,0.009798137471079826,-0.014805208891630173
1769666837558213400,2.57821337890625,0.0005330346757546067,0.015544543042778969,-0.017607487738132477
1769666837568201200,2.588201171875,0.0006195873720571399,0.01994435116648674,-0.02106427028775215
1769666837578190300,2.5981904296875,0.00010105571709573269,0.019245915114879608,-0.024789981544017792
1769666837588178400,2.608178466796875,-0.001138379448093474,0.016958260908722878,-0.02328476309776306
1769666837598167300,2.618167236328125,-0.0007253487128764391,0.020621076226234436,-0.024372143670916557
1769666837608155400,2.6281552734375,-0.0001104248221963644,0.016361884772777557,-0.025253383442759514
1769666837618144500,2.63814453125,-0.0008259934256784618,0.009965777397155762,-0.022587141022086143
1769666837628132400,2.64813232421875,0.0024030893109738827,0.006538555957376957,-0.016116458922624588
1769666837638121500,2.65812158203125,0.004144757520407438,0.00014509749598801136,-0.009090925566852093
1769666837648109300,2.668109375,0.000795033760368824,-0.0045364731922745705,-0.0019459309987723827
1769666837658098400,2.678098388671875,0.0021220985800027847,0.003231811337172985,-0.007304689846932888
1769666837668086500,2.68808642578125,-0.00047288573114201427,0.01044844463467598,-0.011800372041761875
1769666837678075400,2.698075439453125,0.00006882078014314175,0.012086892500519753,-0.00827346183359623
1769666837688064300,2.708064208984375,-0.0007301275036297739,0.009384049102663994,0.0034287343733012676
1769666837698052400,2.71805224609375,-0.0010995656484737992,0.003248854074627161,0.014075100421905518
1769666837708041500,2.72804150390625,-0.001741653773933649,0.001922599971294403,0.021540474146604538
1769666837718029600,2.738029541015625,-0.002644089050590992,-0.002808128949254751,0.025021880865097046
1769666837728018400,2.748018310546875,-0.0025631291791796684,-0.009059900417923927,0.027433639392256737
1769666837738006300,2.75800634765625,-0.001146265771239996,-0.012695986777544022,0.024878021329641342
1769666837747995400,2.767995361328125,0.000403693993575871,-0.014988435432314873,0.023802902549505234
1769666837757983500,2.7779833984375,-0.0032553565688431263,-0.014617104083299637,0.0268547460436821
1769666837767972400,2.787972412109375,-0.0031906417571008205,-0.015431765466928482,0.03192939981818199
1769666837777960200,2.797960205078125,-0.008301881141960621,-0.014051854610443115,0.03409837186336517
1769666837787949300,2.80794921875,-0.007786026690155268,-0.015551745891571045,0.03144000098109245
1769666837797937400,2.8179375,-0.010047106072306633,-0.011922243982553482,0.0180417001247406
1769666837807926500,2.827926513671875,-0.006646249908953905,-0.013795509934425354,0.020719774067401886
1769666837817914400,2.837914306640625,-0.006273405626416206,-0.017706526443362236,0.027878783643245697
1769666837827903500,2.847903564453125,-0.005820668302476406,-0.014866530895233154,0.028875071555376053
1769666837837891300,2.857891357421875,-0.005944771692156792,-0.014548283070325851,0.025469688698649406
1769666837847880400,2.86788037109375,-0.007383944001048803,-0.0037662098184227943,0.021970294415950775
1769666837857869300,2.877869384765625,-0.005074557848274708,0.0017035622149705887,0.013143233954906464
1769666837867857400,2.887857421875,-0.007668210659176111,0.007467708084732294,0.006274408660829067
1769666837877846500,2.897846435546875,-0.007878173142671585,0.0009618805488571525,0.005954183172434568
1769666837887834400,2.90783447265625,-0.0069295549765229225,-0.00009592692367732525,0.008776335045695305
1769666837897823200,2.9178232421875,-0.010043754242360592,-0.0002567314077168703,0.013996713794767857
1769666837907811300,2.927811279296875,-0.005143005400896072,-0.0035902103409171104,0.01674775779247284
1769666837917800400,2.937800537109375,-0.0019510479178279638,-0.01152066607028246,0.018246838822960854
1769666837927788500,2.94778857421875,0.0004316822160035372,-0.01396464928984642,0.022405099123716354
1769666837937777400,2.95777734375,0.0006841558497399092,-0.008629227988421917,0.019969601184129715
1769666837947765200,2.96776513671875,0.0005909453611820936,-0.010071596130728722,0.015739701688289642
1769666837957754400,2.97775439453125,0.002170730847865343,-0.009874358773231506,0.014034846797585487
1769666837967742500,2.987742431640625,0.0012857624096795917,-0.01235988736152649,0.01393178291618824
1769666837977731600,2.997731689453125,0.0022247955203056335,-0.010220896452665329,0.014251960441470146
1769666837987719400,3.007719482421875,0.0030591641552746296,-0.00980331189930439,0.01632816158235073
1769666837997708300,3.017708251953125,0.0033949343487620354,-0.011637448333203793,0.015225838869810104
1769666838007697400,3.027697509765625,0.001266535953618586,-0.011830528266727924,0.015299608930945396
1769666838017685500,3.037685546875,0.0014767673565074801,-0.009401261806488037,0.012029158882796764
1769666838027674400,3.04767431640625,0.0016442801570519805,-0.007348496932536364,0.007863176986575127
1769666838037662500,3.057662353515625,0.0002971452195197344,-0.004102034494280815,0.0012327912263572216
1769666838047651600,3.067651611328125,0.0028087724931538105,-0.0003395206294953823,-0.002386977430433035
1769666838057639400,3.077639404296875,0.0015267820563167334,0.0028957431204617023,-0.0038359921891242266
1769666838067628300,3.087628173828125,0.0015155968721956015,0.002757525071501732,-0.005020299926400185
1769666838077616400,3.097616455078125,0.0016771964728832245,0.0011500882683321834,-0.004748501814901829
1769666838087605500,3.10760546875,-0.0018490952206775546,0.0011695293942466378,-0.001698649488389492
1769666838097593300,3.11759326171875,-0.001303255558013916,-0.0003803614526987076,-0.0012021493166685104
1769666838107582200,3.127582275390625,-0.0020763713400810957,-0.000268775038421154,0.0036155087873339653
1769666838117570300,3.1375703125,-0.00014658959116786718,0.0029081269167363644,0.0003422568552196026
1769666838127559400,3.147559326171875,0.00024942238815128803,0.0006692075403407216,0.0022818371653556824
1769666838137547500,3.157547607421875,0.0003289448795840144,-0.005971376318484545,0.007175016216933727
1769666838147536600,3.16753662109375,-0.0006228688289411366,-0.005173760000616312,0.009431245736777782
1769666838157525200,3.177525146484375,-0.002661732491105795,-0.006648806855082512,0.00980246439576149
1769666838167513300,3.187513427734375,-0.0004459824413061142,-0.004746511112898588,0.009912186302244663
1769666838177502500,3.19750244140625,-0.0012494598049670458,-0.00406484492123127,0.01046702265739441
1769666838187490600,3.207490478515625,-0.0013101798249408603,-0.0025297985412180424,0.008681373670697212
1769666838197479400,3.2174794921875,-0.002451183507218957,-0.0007942079100757837,0.006927302107214928
1769666838207467300,3.22746728515625,-0.001320937997661531,0.0028434039559215307,0.005053502041846514
1769666838217456400,3.237456298828125,-0.0008523353026248515,0.0061759441159665585,-0.0006743988487869501
1769666838227444500,3.247444580078125,-0.0010403544874861836,0.007750671356916428,-0.004039036575704813
1769666838237433300,3.257433349609375,-0.0024355261120945215,0.00854787789285183,-0.0034199166111648083
1769666838247421400,3.26742138671875,-0.0021108868531882763,0.010489055886864662,-0.005604241043329239
1769666838257410600,3.27741064453125,-0.00007937592454254627,0.00946301594376564,-0.0031269940081983805
1769666838267398400,3.2873984375,-0.0009419737616553903,0.00579184852540493,-0.00555499829351902
1769666838277387300,3.29738720703125,-0.0002899212995544076,0.00777327548712492,-0.0033615408465266228
1769666838287375400,3.307375244140625,-0.001154117053374648,0.009083550423383713,-0.002072038594633341
1769666838297364500,3.317364501953125,-0.00004118203651160002,0.011674806475639343,-0.0023173154331743717
1769666838307353600,3.327353515625,0.00029304472263902426,0.008779684081673622,0.0020292296539992094
1769666838317341400,3.337341552734375,-0.0012776892399415374,0.002701448742300272,0.006781474687159061
1769666838327330300,3.347330322265625,-0.0008201581658795476,0.000058527570217847824,0.00824408233165741
1769666838337318400,3.357318359375,0.001059980015270412,-0.012106706388294697,0.0018720639636740088
1769666838347307500,3.3673076171875,0.002392892260104418,-0.00968456082046032,0.0006249055732041597
1769666838357295600,3.377295654296875,0.0019873464480042458,-0.007246523629873991,0.0020522333215922117
1769666838367284700,3.38728466796875,0.001311702304519713,-0.004949014168232679,0.0016817875439301133
1769666838377272800,3.39727294921875,0.0017202848102897406,-0.0035352278500795364,-0.0002568541094660759
1769666838387262000,3.407261962890625,0.000665406696498394,-0.0037754448130726814,-0.0013900294434279203
1769666838397250000,3.41725,0.00020755804143846035,-0.004526431206613779,-0.0004409519024193287
1769666838407238700,3.42723876953125,-0.00011654861737042665,-0.0019626058638095856,-0.005929993465542793
1769666838417226800,3.437226806640625,-0.0010580320376902819,0.001781678874976933,-0.007239142432808876
1769666838427216000,3.4472158203125,-0.001870828797109425,0.006727168802171946,-0.006071346811950207
1769666838437204000,3.457203857421875,-0.0025015724822878838,0.006580866873264313,-0.005389058031141758
1769666838447192800,3.46719287109375,-0.000669850327540189,0.007363303564488888,-0.003993295133113861
1769666838457180700,3.4771806640625,-0.003007942344993353,0.00857316330075264,-0.003023979952558875
1769666838467169800,3.487169677734375,-0.004202636424452066,0.008494334295392036,-0.004020268097519875
1769666838477159000,3.497158935546875,-0.0025217575021088123,0.008095956407487392,0.0006755315698683262
1769666838487146800,3.507146728515625,-0.0025574436876922846,0.00763176754117012,-0.0016059984918683767
1769666838497135900,3.517135986328125,-0.0020277942530810833,0.005502922460436821,-0.0037566409446299076
1769666838507124000,3.5271240234375,-0.0025548338890075684,0.00245866272598505,-0.0032128235325217247
1769666838517112800,3.53711279296875,-0.001045159180648625,0.001247764565050602,-0.0008933106437325478
1769666838527101000,3.547100830078125,-0.0014286544173955917,0.0004663931904360652,0.0005218931473791599
1769666838537089800,3.55708984375,-0.0015692139277234674,-0.0012575665023177862,-0.00029757386073470116
1769666838547078000,3.567077880859375,0.0008654480334371328,-0.00007831864058971405,-0.0004166171420365572
1769666838557067000,3.57706689453125,0.0014859732473269105,0.0029651187360286713,-0.003812807146459818
1769666838567054800,3.587054931640625,-0.00024721201043576,0.003866066224873066,-0.002381624188274145
1769666838577043700,3.597043701171875,-0.0014392273733392358,0.0008130691712722182,0.001376944244839251
1769666838587031800,3.60703173828125,0.00005667016375809908,-0.0030881953425705433,0.002061376580968499
1769666838597021000,3.61702099609375,-0.0014268067898228765,-0.006087052170187235,0.0038503126706928015
1769666838607009000,3.627009033203125,0.0005095776868984103,-0.009330250322818756,0.002754954621195793
1769666838616997600,3.63699755859375,0.0009962557815015316,-0.0011171551886945963,0.0011154990643262863
1769666838626986800,3.64698681640625,0.0006308699958026409,0.001843480858951807,-0.0016179694794118404
1769666838636974800,3.656974853515625,-0.0010758177377283573,0.003706800751388073,-0.003701373701915145
1769666838646963700,3.666963623046875,0.0004930505529046059,0.0049132127314805984,-0.005567716434597969
1769666838656951800,3.676951904296875,-0.001747615053318441,0.00633186986669898,-0.0026005753315985203
1769666838666941000,3.68694091796875,0.00015654508024454117,0.003934492357075214,-0.0007307699415832758
1769666838676928800,3.6969287109375,0.000562355387955904,0.0038119954988360405,-0.0036374579649418592
1769666838686918000,3.70691796875,-0.0012994606513530016,0.0032503348775207996,-0.007153096608817577
1769666838696905700,3.71690576171875,-0.00032033363822847605,0.007988205179572105,-0.009579246863722801
1769666838706894800,3.726894775390625,-0.0009850587230175734,0.006387113593518734,-0.008074561133980751
1769666838716883000,3.736883056640625,-0.00007900851778686047,0.0054330527782440186,-0.005976664833724499
1769666838726871800,3.746871826171875,-0.000958384363912046,0.0019408498192206025,-0.0008442206308245659
1769666838736860000,3.75685986328125,0.0006732026813551784,-0.0005204519256949425,-0.0011652843095362186
1769666838746848800,3.766848876953125,0.0007475047605112195,-0.000531104626134038,-0.0013772719539701939
1769666838756836900,3.7768369140625,-0.0006592900026589632,-0.0008357369806617498,-0.00068423873744905
1769666838766826000,3.786825927734375,-0.000047561945393681526,0.0007046354003250599,-0.00336151453666389
1769666838776814800,3.79681494140625,-0.0011142335133627057,0.0008910233154892921,-0.0024718311615288258
1769666838786802700,3.806802734375,-0.000995989190414548,0.0025083611253648996,-0.004263872280716896
1769666838796791800,3.816791748046875,-0.0018985674250870943,0.005013559944927692,-0.0027567956130951643
1769666838806780000,3.82677978515625,-0.00014274532441049814,0.0004893820732831955,-0.0016369365621358156
1769666838816768800,3.836768798828125,-0.0014232040848582983,0.0010101523948833346,-0.00018298369832336903
1769666838826756600,3.846756591796875,-0.0015523674665018916,-0.00004472583532333374,0.0007073110900819302
1769666838836745700,3.856745849609375,-0.0008528608595952392,-0.0010418044403195381,0.0011170577490702271
1769666838846733800,3.86673388671875,0.00018736987840384245,0.001305771991610527,0.001443827641196549
1769666838856723000,3.876722900390625,-0.0013131891610100865,0.0014862398384138942,-0.0013527707196772099
1769666838866710800,3.886710693359375,-0.0010268993210047483,0.003341397736221552,-0.002621500752866268
1769666838876700000,3.896699951171875,0.000042163184843957424,0.0033370237797498703,-0.004626112058758736
1769666838886687700,3.906687744140625,-0.0010587875731289387,0.0033271699212491512,-0.0025347317568957806
1769666838896676900,3.9166767578125,-0.0013806321658194065,0.0014775306917726994,-0.0018252762965857983
1769666838906665000,3.9266650390625,-0.0017790411366149783,-0.00035072932951152325,-0.0011677420698106289
1769666838916653800,3.93665380859375,-0.0008196211419999599,-0.001330310944467783,-0.001858352217823267
1769666838926643000,3.946642822265625,-0.0007597000221721828,-0.0006834291853010654,-0.0020077559165656567
1769666838936630800,3.956630859375,-0.0016149039147421718,-0.00018919911235570908,-0.0034451100509613752
1769666838946619600,3.96661962890625,-0.0002838560612872243,0.0033653220161795616,-0.0056568654254078865
1769666838956607700,3.976607666015625,-0.0014953791396692395,0.007132871076464653,-0.008795594796538353
1769666838966596900,3.986596923828125,-0.0010402449406683445,0.009634378366172314,-0.010482174344360828
1769666838976585000,3.9965849609375,-0.001818960765376687,0.012756237760186195,-0.010751786641776562
1769666838986573800,4.00657373046875,-0.0007073573069646955,0.011435044929385185,-0.00942313577979803
1769666838996561700,4.016561767578125,-0.0011722443159669638,0.006202379707247019,-0.008707670494914055
1769666839006550800,4.02655078125,-0.0026297923177480698,0.006858049891889095,-0.007476490922272205
1769666839016539000,4.036538818359375,-0.002405367558822036,0.006747888866811991,-0.010172128677368164
1769666839026528000,4.046528076171875,-0.000784567731898278,0.007413146551698446,-0.008590476587414742
1769666839036515800,4.056515869140625,-0.0021102202590554953,0.0050502438098192215,-0.009116582572460175
1769666839046504700,4.066504638671875,0.0009763834532350302,-0.002466794103384018,-0.008079281076788902
1769666839056492800,4.076492919921875,-0.00003681133966892958,-0.005357989575713873,-0.0031543863005936146
1769666839066482000,4.08648193359375,0.0011831825831905007,-0.0020234454423189163,-0.0008001518435776234
1769666839076470800,4.096470703125,-0.0009762062109075487,-0.003456922248005867,-0.0011991939973086119
1769666839086459000,4.106458984375,0.0014816251350566745,-0.0041520074009895325,-0.00306793418712914
1769666839096448000,4.116447998046875,-0.00013839593157172203,-0.0020133783109486103,-0.002459081821143627
1769666839106435800,4.126435791015625,-0.001578100840561092,-0.0025199116207659245,-0.00417442386969924
1769666839116424700,4.1364248046875,0.001383101800456643,0.0017636370612308383,-0.00477190176025033
1769666839126412800,4.146412841796875,0.001391623867675662,0.00204806262627244,-0.005380167160183191
1769666839136402000,4.15640185546875,0.0006851840298622847,0.0013336115516722202,-0.004089287016540766
1769666839146389800,4.1663896484375,0.00028331298381090164,0.0012084429617971182,-0.0019084243103861809
1769666839156378600,4.176378662109375,0.0006836208049207926,0.00000317511148750782,-0.0026067334692925215
1769666839166366700,4.18636669921875,0.0002465960569679737,0.0008239612216129899,-0.004181726835668087
1769666839176355800,4.19635595703125,-0.00037624104879796505,0.0019165024859830737,-0.0034637567587196827
1769666839186344000,4.206343994140625,-0.0004627938033081591,0.00372665305621922,-0.0035188840702176094
1769666839196333000,4.2163330078125,0.0005866363644599915,0.0012080506421625614,-0.0053525203838944435
1769666839206320600,4.226320556640625,-0.0022195365745574236,-0.0022758967243134975,-0.004351438023149967
1769666839216309800,4.236309814453125,0.0012104708002880216,-0.0011809933930635452,-0.0006515346467494965
1769666839226299000,4.246298828125,0.0005073961801826954,-0.00016180146485567093,-0.0018747246358543634
1769666839236287000,4.256286865234375,-0.00026093004271388054,0.0001534635666757822,-0.0016606522258371115
1769666839246275800,4.26627587890625,-0.002312363125383854,0.0007646589074283838,-0.0024580026511102915
1769666839256263700,4.276263671875,-0.0006971609545871615,0.0018004748271778226,-0.002382120583206415
1769666839266252800,4.286252685546875,-0.0002324393717572093,0.00030803936533629894,-0.0018734568729996681
1769666839276241000,4.296240966796875,0.0006817445391789079,-0.00197855057194829,0.0013513650046661496
1769666839286229800,4.306229736328125,0.0011869460577145219,0.0009067179635167122,0.0019689518958330154
1769666839296217900,4.3162177734375,-0.0004509178688749671,0.001988322241231799,0.000766281271353364
1769666839306207000,4.32620703125,0.0006268633296713233,0.0026349376421421766,0.00033191987313330173
1769666839316194800,4.33619482421875,0.0011511949123814702,0.0035937102511525154,0.0008747493848204613
1769666839326183700,4.34618359375,-0.0004512289888225496,0.003313812194392085,-0.0004075628239661455
1769666839336171800,4.356171875,0.00010944460518658161,0.0008763070218265057,-0.0014727006200700998
1769666839346161000,4.366160888671875,0.00028121843934059143,0.003355177352204919,-0.0010519211646169424
1769666839356148700,4.376148681640625,-0.00016896554734557867,0.00354969035834074,0.0010625285794958472
1769666839366137900,4.386137939453125,-0.00017349293921142817,0.0012681602966040373,-0.0002006087452173233
1769666839376126200,4.396126220703125,0.00017536466475576162,0.00324411503970623,0.00044675287790596485
1769666839386114300,4.4061142578125,-0.0013756603002548218,0.003125338116660714,0.0003815055824816227
1769666839396103400,4.416103515625,-0.0012860954739153385,0.0036916369572281837,-0.0024424574803560972
1769666839406091500,4.426091552734375,0.000044952379539608955,0.0018820189870893955,-0.0026360696647316217
1769666839416080100,4.436080078125,-0.0014084366848692298,-0.00002658204175531864,-0.0005317793693393469
1769666839426068200,4.446068115234375,0.0011047885054722428,-0.0027960031293332577,0.0011068637249991298
1769666839436057300,4.456057373046875,0.000844203750602901,-0.0020800852216780186,0.0014724500942975283
1769666839446045400,4.46604541015625,0.00039546098560094833,-0.0006180098280310631,0.002476728055626154
1769666839456034300,4.476034423828125,0.00006166810635477304,0.0009878934361040592,0.0004479710478335619
1769666839466022100,4.486022216796875,-0.0006262263632379472,0.0003695074701681733,-0.00019571511074900627
1769666839476011300,4.49601123046875,-0.0013250572374090552,0.000007548602297902107,0.00025588017888367176
1769666839485999400,4.505999267578125,-0.0008054745267145336,-0.0011463991831988096,0.0025616451166570187
1769666839495988500,4.515988525390625,-0.00014913221821188927,-0.0016322452574968338,0.002843014430254698
1769666839505977300,4.525977294921875,0.0017387826228514314,0.0016112185548990965,0.002268304117023945
1769666839515965200,4.535965087890625,-0.00012651667930185795,0.0016452032141387463,0.003043652046471834
1769666839525954300,4.545954345703125,0.00017735001165419817,0.0009884677128866315,-0.00033350265584886074
1769666839535942400,4.5559423828125,-0.00043094472493976355,0.0017494652420282364,0.0008690985850989819
1769666839545931300,4.56593115234375,-0.00030950456857681274,0.0010123022366315126,-0.0005066904705017805
1769666839555919400,4.57591943359375,-0.0004132860340178013,0.000935231801122427,0.0011766995303332806
1769666839565908500,4.585908447265625,-0.00018824893049895763,0.00008302018977701664,0.005991960875689983
1769666839575896300,4.595896240234375,-0.0000798151595517993,0.0007028490072116256,0.004994126968085766
1769666839585885200,4.60588525390625,0.00047199183609336615,0.00038167182356119156,0.002230298239737749
1769666839595873300,4.615873291015625,0.0008722158381715417,0.0016083747614175081,-0.00013054441660642624
1769666839605862400,4.6258623046875,0.0010109663708135486,0.0020826836116611958,0.00032405718229711056
1769666839615850500,4.6358505859375,-0.0008722867351025343,0.0007478564511984587,0.0021155159920454025
1769666839625839400,4.64583935546875,0.0006928530056029558,0.000260764267295599,-0.0005979787092655897
1769666839635827200,4.6558271484375,-0.00025423825718462467,-0.0007617906667292118,0.0010085797403007746
1769666839645816300,4.66581640625,-0.0010393381817266345,0.001561551121994853,0.002145749516785145
1769666839655804400,4.675804443359375,-0.0008903325069695711,0.0021422752179205418,0.0024540037848055363
1769666839665793500,4.68579345703125,0.00009770027827471495,0.0015529177617281675,0.0020654485560953617
1769666839675782400,4.695782470703125,-0.0010247188620269299,-0.0004005609080195427,0.002223714953288436
1769666839685770200,4.705770263671875,-0.0019419115269556642,-0.0006421096622943878,0.003964889794588089
1769666839695759400,4.71575927734375,-0.0009105533827096224,-0.000541734742000699,0.006400402635335922
1769666839705747500,4.72574755859375,0.0011648481013253331,-0.0015287024434655905,0.0038062171079218388
1769666839715736300,4.735736328125,0.0004277115222066641,-0.0012989379465579987,0.003408327465876937
1769666839725724200,4.74572412109375,-0.0002481987467035651,0.0012726102722808719,0.0025515886954963207
1769666839735713300,4.75571337890625,-0.0004528521094471216,0.0019869161769747734,-0.00013436167500913143
1769666839745701400,4.765701416015625,0.0011743393260985613,0.003086269134655595,0.001271787448786199
1769666839755690200,4.775690185546875,0.0008134866366162896,0.0020520261023193598,0.002167255850508809
1769666839765678300,4.78567822265625,0.0021549207158386707,-0.006220284849405289,0.0007472585421055555
1769666839775667500,4.79566748046875,0.003352704457938671,-0.0036238953471183777,0.002173234475776553
1769666839785655300,4.8056552734375,0.0005334819434210658,0.0031216253992170095,0.004015875514596701
1769666839795644200,4.81564404296875,-0.0005968052428215742,0.000013873446732759476,0.004750395193696022
1769666839805632300,4.82563232421875,-0.00048521882854402065,-0.004321486689150333,0.006028446368873119
1769666839815621400,4.835621337890625,-0.0005701517220586538,-0.005736814346164465,0.006295892409980297
1769666839825610500,4.845610595703125,-0.0000665480038151145,-0.007185839582234621,0.0059866998344659805
1769666839835598300,4.855598388671875,0.0006563338683918118,-0.003991230390965939,0.0032573528587818146
1769666839845587200,4.865587158203125,0.00016258377581834793,0.0020751841366291046,0.0012631779536604881
1769666839855575300,4.8755751953125,0.00043593381997197866,0.004449727479368448,0.00157751829829067
1769666839865564400,4.885564453125,-0.0007688802434131503,0.006973871495574713,0.0035812808200716972
1769666839875552500,4.895552490234375,-0.0025143935345113277,0.009038222953677177,0.0049128420650959015
1769666839885541400,4.905541259765625,-0.002503208350390196,0.008557522669434547,0.004140791483223438
1769666839895529200,4.915529296875,-0.0023808993864804506,0.00871380977332592,-0.0002704362850636244
1769666839905518300,4.925518310546875,-0.0012831443455070257,0.007875446230173111,0.0004624656867235899
1769666839915506400,4.93550634765625,-0.0006089766975492239,0.008828212507069111,0.0029106587171554565
1769666839925495300,4.945495361328125,0.0014262109762057662,0.006383697036653757,0.0021753599867224693
1769666839935483100,4.955483154296875,0.0019077742472290993,0.00621505081653595,0.0030738217756152153
1769666839945472300,4.96547216796875,0.00278555229306221,0.0025582644157111645,0.0024927202612161636
1769666839955460400,4.97546044921875,0.0017723548226058483,-0.0013854301068931818,0.0024566405918449163
1769666839965449200,4.98544921875,0.002665578853338957,-0.002789714839309454,0.0027700946666300297
1769666839975438300,4.995438232421875,0.0018781961407512426,-0.00652473047375679,0.005158506333827972
1769666839985426400,5.005426513671875,0.0023168185725808144,-0.008520769886672497,0.008022203110158443
1769666839995415600,5.01541552734375,0.00468601007014513,-0.011262820102274418,0.009440933354198933
1769666840005403400,5.0254033203125,0.003019403899088502,-0.013728907331824303,0.008877675049006939
1769666840015392300,5.035392333984375,0.0038819662295281887,-0.011103796772658825,0.006509672850370407
1769666840025380400,5.04538037109375,0.0035898173227906227,-0.008534645661711693,0.0032571544870734215
1769666840035369500,5.055369384765625,0.0023939809761941433,-0.004197556525468826,0.0017572817159816623
1769666840045357300,5.065357421875,0.0021052942611277103,0.00044246914330869913,-0.00034981127828359604
1769666840055346200,5.07534619140625,0.000488772988319397,-0.0007876367308199406,0.00008656666614115238
1769666840065334300,5.085334228515625,0.0003817139659076929,-0.002771159168332815,0.003000597469508648
1769666840075323400,5.095323486328125,-0.00022790650837123394,-0.0008718278259038925,0.005625332705676556
1769666840085311500,5.1053115234375,-0.0005394963664002717,-0.0023999493569135666,0.007391541264951229
1769666840095300400,5.11530029296875,-0.000979228294454515,-0.0003987378440797329,0.0042131091468036175
1769666840105288200,5.1252880859375,-0.0014514067443087697,0.00013575865887105465,0.005944429896771908
1769666840115277300,5.13527734375,-0.0030555459670722485,0.002503718715161085,0.0023596836254000664
1769666840125266400,5.145266357421875,-0.0034931031987071037,0.004166862927377224,0.004662518855184317
1769666840135254300,5.155254150390625,-0.0032036076299846172,0.0033655366860330105,0.007512068375945091
1769666840145243400,5.165243408203125,-0.002345537068322301,-0.0022585270926356316,0.007662003859877586
1769666840155231200,5.175231201171875,-0.001296401023864746,-0.005042122211307287,0.006558454595506191
1769666840165220400,5.185220458984375,-0.0025837731081992388,-0.00843738578259945,0.00485269958153367
1769666840175208400,5.19520849609375,-0.003336273832246661,-0.007856251671910286,0.002308929106220603
1769666840185197300,5.205197265625,-0.003037467133253813,-0.0005256347358226776,0.0020151822827756405
1769666840195185400,5.215185302734375,-0.005158356390893459,0.002950565190985799,0.005043268669396639
1769666840205174500,5.225174560546875,-0.004688042216002941,0.004092794843018055,0.0072973682545125484
1769666840215162400,5.235162353515625,-0.0046495371498167515,0.0020455883350223303,0.008980408310890198
1769666840225151200,5.245151123046875,-0.006005884613841772,-0.003024537581950426,0.01462284754961729
1769666840235139300,5.255139404296875,-0.005814403761178255,-0.01356160081923008,0.01952812448143959
1769666840245128400,5.26512841796875,-0.004879634361714125,-0.01753903180360794,0.01905062049627304
1769666840255117300,5.275117431640625,-0.0022122100926935673,-0.018169298768043518,0.01632131077349186
1769666840265105200,5.285105224609375,0.00048370787408202887,-0.010976633056998253,0.010594449006021023
1769666840275094300,5.29509423828125,-0.0031852195970714092,-0.0024443641304969788,0.008197151124477386
1769666840285082400,5.305082275390625,-0.0026360759511590004,0.0014771404676139355,0.006503913085907698
1769666840295071500,5.315071533203125,-0.002053391421213746,0.002094800351187587,0.005820991471409798
1769666840305059300,5.325059326171875,-0.0023601874709129333,0.001044449512846768,0.009626382030546665
1769666840315048200,5.335048095703125,-0.0009427855839021504,-0.003317803144454956,0.008058905601501465
1769666840325036300,5.345036376953125,0.00008998834528028965,-0.007861422374844551,0.008928694762289524
1769666840335025400,5.355025390625,0.00029324088245630264,-0.006102490238845348,0.004996943287551403
1769666840345013500,5.365013427734375,0.0024442761205136776,0.0011516944505274296,-0.0012420446146279573
1769666840355002400,5.37500244140625,-0.0002540377900004387,0.005349470768123865,-0.002127111656591296
1769666840364990200,5.384990234375,-0.00035763473715633154,0.004442398436367512,0.001231400528922677
1769666840374980600,5.394980712890625,-0.00011933536734431982,-0.0015514923725277185,0.0038289078511297703
1769666840384968700,5.40496875,0.0005049096653237939,-0.0040948111563920975,0.005369014106690884
1769666840394957800,5.414957763671875,0.000978096155449748,-0.0022641103714704514,0.0024279793724417686
1769666840404945700,5.424945556640625,-0.0002056789817288518,0.003304027020931244,-0.0004817903973162174
1769666840414934500,5.4349345703125,-0.0022888556122779846,0.007777261082082987,-0.0028152260929346085
1769666840424923600,5.444923583984375,0.0013900351477786899,0.005934353917837143,-0.003460510168224573
1769666840434911700,5.454911865234375,0.0002286825329065323,0.002904286375269294,0.0007246215827763081
1769666840444900900,5.46490087890625,0.0009453392121940851,-0.003705945797264576,0.0021669897250831127
1769666840454888700,5.474888671875,0.0030585057102143764,-0.006492488086223602,0.0035830182023346424
1769666840464877600,5.484877685546875,0.002922950778156519,-0.0028167935088276863,-0.0007336994167417288
1769666840474865700,5.49486572265625,0.003275499679148197,0.004276089370250702,-0.0042223138734698296
1769666840484854800,5.504854736328125,0.001985464245080948,0.006081978790462017,-0.004880114458501339
1769666840494843000,5.5148427734375,0.0021912711672484875,0.007572265807539225,-0.005631164647638798
1769666840504831700,5.524831787109375,0.002655992517247796,-0.005141132511198521,-0.006072716787457466
1769666840514819600,5.534819580078125,0.0006658680504187942,-0.005042311269789934,-0.002010292373597622
1769666840524808700,5.54480859375,0.0014317930908873677,-0.008900964632630348,0.001640102593228221
1769666840534796800,5.554796875,0.001133892685174942,-0.0087714409455657,-0.002830533077940345
1769666840544785700,5.56478564453125,0.001672916579991579,-0.0067197419703006744,-0.004516580142080784
1769666840554773800,5.574773681640625,-0.00044408394023776054,-0.002932907547801733,-0.002703906036913395
1769666840564762600,5.5847626953125,-0.0012821806594729424,0.001405648305080831,-0.00442084576934576
1769666840574751500,5.59475146484375,-0.0023964447900652885,0.00242504570633173,-0.006570483557879925
1769666840584739600,5.604739501953125,-0.002226002514362335,0.005928434431552887,-0.004285491071641445
1769666840594728700,5.614728759765625,-0.0020926897414028645,0.004805241711437702,-0.0036998398136347532
1769666840604716800,5.624716796875,0.0001954982290044427,0.0031745880842208862,-0.0025821111630648375
1769666840614706000,5.634705810546875,-0.0008571911021135747,0.0021015573292970657,-0.00330345775000751
1769666840624693800,5.64469384765625,-0.0010531997540965676,0.0018181969644501805,-0.0021785383578389883
1769666840634682600,5.6546826171875,-0.0002541980938985944,0.0018918808782473207,-0.002399174263700843
1769666840644670700,5.664670654296875,0.00138897227589041,0.002674850169569254,-0.002088383538648486
1769666840654659800,5.674659912109375,-0.00010234455112367868,0.0007170743774622679,-0.004116773139685392
1769666840664648000,5.68464794921875,-0.00006665813270956278,0.0015341321704909205,0.0005778470076620579
1769666840674636500,5.694636474609375,-0.0005121061694808304,0.0013712579384446144,0.002569609321653843
1769666840684624600,5.704624755859375,-0.0012774986680597067,-0.00042797368951141834,0.003439131425693631
1769666840694613800,5.71461376953125,-0.0015929716173559427,-0.0012543168850243092,-0.00042317481711506844
1769666840704601900,5.724601806640625,0.0010744504397735,0.0007558370707556605,0.00012809946201741695
1769666840714590700,5.7345908203125,-0.0009113095002248883,0.002078800927847624,0.003092717146500945
1769666840724579800,5.744579833984375,-0.0003347351448610425,0.00043296744115650654,0.002831194782629609
1769666840734567700,5.754567626953125,0.0007188663585111499,-0.004545262549072504,0.005869900807738304
1769666840744556500,5.764556640625,0.0013159470399841666,-0.007078994065523148,0.008709362708032131
1769666840754544600,5.774544677734375,0.003179679624736309,-0.0032402360811829567,0.005712215788662434
1769666840764533800,5.78453369140625,0.0020105517469346523,0.00009856885299086571,0.004275173880159855
1769666840774521900,5.79452197265625,0.00036439404357224703,0.0025711925700306892,0.000632032984867692
1769666840784510700,5.8045107421875,0.0012096813879907131,0.00456217210739851,-0.001078781671822071
1769666840794498600,5.81449853515625,-0.00030325818806886673,0.005451238714158535,-0.002247212454676628
1769666840804487700,5.82448779296875,-0.0009836958488449454,-0.0004583157133311033,0.00009636953473091125
1769666840814475800,5.834475830078125,0.00008807203266769648,0.002441572956740856,0.0009324813727289438
1769666840824465000,5.84446484375,-0.0018523071194067597,-0.0006705969572067261,-0.0007927145343273878
1769666840834452700,5.85445263671875,-0.002102807629853487,0.0006153939757496119,-0.0009249276481568813
1769666840844441600,5.864441650390625,-0.0006876039551571012,0.004301475360989571,-0.004915141500532627
1769666840854430700,5.8744306640625,-0.0037116226740181446,0.007226699963212013,-0.004733094945549965
1769666840864418800,5.884418701171875,-0.0020111941266804934,0.011992959305644035,-0.007628750056028366
1769666840874407700,5.89440771484375,-0.0029462380334734917,0.011597332544624805,-0.008907925337553024
1769666840884395500,5.9043955078125,-0.0023989584296941757,0.01063033938407898,-0.008090335875749588
1769666840894384600,5.914384521484375,-0.0012893442763015628,0.009421247988939285,-0.007340163923799992
1769666840904372700,5.924372802734375,-0.0009250238654203713,0.003967892844229937,-0.007681314833462238
1769666840914361600,5.934361572265625,0.0007298879791051149,0.0053842561319470406,-0.008192362263798714
1769666840924349700,5.944349609375,-0.0003401701105758548,0.00681304233148694,-0.005155559629201889
1769666840934338800,5.9543388671875,0.001766941393725574,0.003806097898632288,-0.0015684650279581547
1769666840944326700,5.96432666015625,0.0023957137018442154,-0.0002443036064505577,0.0011210613884031773
1769666840954315800,5.974315673828125,0.0017497595399618149,-0.0023192898370325565,0.002787191653624177
1769666840964303600,5.9843037109375,0.0006887561175972223,-0.002796528395265341,0.0028809348586946726
1769666840974292700,5.994292724609375,0.0024932129308581352,0.0006075850687921047,0.002859297674149275
1769666840984280800,6.00428076171875,0.001986413262784481,0.002393234521150589,-0.00005180365405976772
1769666840994269700,6.014269775390625,0.0015676472103223205,0.004735955968499184,-0.001211278373375535
1769666841004258600,6.024258544921875,0.0012965373462066054,0.004922377876937389,0.001126977032981813
1769666841014246700,6.03424658203125,0.001772834686562419,0.0015292013995349407,0.0016836135182529688
1769666841024235800,6.04423583984375,-0.00004850106779485941,-0.001338490517809987,0.0018993295961990952
1769666841034223900,6.054223876953125,0.001176290912553668,-0.006235976237803698,0.0024957009591162205
1769666841044212700,6.064212646484375,-0.000368342618457973,-0.006229850929230452,-0.0007000921759754419
1769666841054200600,6.07420068359375,0.0029174410738050938,-0.004110265988856554,-0.003350862069055438
1769666841064189700,6.084189697265625,0.002003710251301527,-0.0018239421769976616,-0.0028840096201747656
1769666841074177800,6.094177734375,0.0028204242698848248,0.0019978745840489864,-0.00179516919888556
1769666841084166700,6.104166748046875,0.002529873512685299,0.002883375622332096,0.0002887542359530926
1769666841094154500,6.114154541015625,0.0006282449467107654,0.0018669851124286652,0.00019039143808186054
1769666841104143600,6.1241435546875,0.0006388976471498609,0.0016416817670688033,0.0006878699641674757
1769666841114131700,6.134131591796875,-0.0010191192850470543,0.0008385377004742622,0.00009388010948896408
1769666841124120800,6.144120849609375,0.00116520537994802,0.0024542775936424732,-0.0005897532682865858
1769666841134108700,6.154108642578125,-0.0008666219655424356,0.003613073378801346,-0.0021191625855863094
1769666841144097800,6.164097900390625,-0.0012589056277647614,0.003102811984717846,-0.0021612406708300114
1769666841154085600,6.174085693359375,-0.0006341987755149603,0.004610608331859112,-0.0032868196722120047
1769666841164074800,6.18407470703125,-0.002659799065440893,0.00336637906730175,-0.0008340480271726847
1769666841174063600,6.194063720703125,-0.001277315546758473,0.003718112362548709,0.0018849538173526525
1769666841184051700,6.2040517578125,-0.0006240421789698303,0.0016557603375986218,0.0041276016272604465
1769666841194040800,6.214040771484375,-0.002191887702792883,-0.0008840810041874647,-0.0000348768662661314
1769666841204028700,6.224028564453125,0.000003888620994985104,0.00048558274284005165,-0.0007688440382480621
1769666841214017500,6.234017578125,-0.002122163074091077,0.005163462832570076,-0.001237556803971529
1769666841224005600,6.244005615234375,-0.001375679043121636,0.00900720339268446,-0.0019169291481375694
1769666841233994800,6.253994873046875,-0.0015396694652736187,0.012027459219098091,-0.0006690481677651405
1769666841243982800,6.26398291015625,-0.004377267323434353,0.009211698547005653,-0.0019628116860985756
1769666841253971700,6.2739716796875,-0.0012493834365159273,0.0026266302447766066,0.000540116336196661
1769666841263959600,6.28395947265625,-0.0004515004111453891,-0.004738075193017721,0.0001587516162544489
1769666841273948700,6.29394873046875,0.00028468749951571226,0.0011012314353138208,0.0009592336136847734
1769666841283936800,6.303936767578125,-0.0017670117085799575,-0.003949187230318785,0.0010708201443776488
1769666841293926000,6.31392578125,-0.0000994367292150855,-0.005540837999433279,-0.003392167389392853
1769666841303913500,6.32391357421875,-0.0024113268591463566,-0.004714459180831909,-0.0016392748802900314
1769666841313902600,6.333902587890625,-0.0016786584164947271,-0.006051967851817608,-0.0005541224963963032
1769666841323891700,6.3438916015625,0.00008968054316937923,-0.002120343502610922,-0.0055811055935919285
1769666841333879800,6.3538798828125,0.0007093851454555988,0.0035705999471247196,-0.00588629487901926
1769666841343868700,6.36386865234375,0.0010651834309101105,0.0051493216305971146,-0.004570960067212582
1769666841353856800,6.373856689453125,0.000641238410025835,0.00466492772102356,-0.004440654069185257
1769666841363846000,6.383845947265625,0.0008273932617157698,0.00125661410856992,-0.0002906499430537224
1769666841373832700,6.393832763671875,-0.0002852447796612978,-0.0016766376793384552,0.0010357138235121965
1769666841383821800,6.40382177734375,-0.0013169533340260386,-0.004047649912536144,0.0012583540519699454
1769666841393810000,6.413809814453125,0.00015213084407150745,-0.004768796265125275,0.00024928594939410686
1769666841403798800,6.423798828125,0.0006956820143386722,-0.00010773167014122009,-0.002292168792337179
1769666841413786600,6.43378662109375,-0.0009028887143358588,-0.00006629852578043938,-0.003847505897283554
1769666841423775700,6.443775634765625,-0.000033100368455052376,-0.0037068394012749195,-0.00015956023707985878
1769666841433763800,6.453763916015625,0.00014022155664861202,-0.00633007287979126,0.0019078853074461222
1769666841443752700,6.463752685546875,0.0006893653189763427,-0.007048061117529869,0.0019771275110542774
1769666841453740500,6.473740478515625,-0.0001138241495937109,-0.009435145184397697,0.0012052602833136916
1769666841463729700,6.483729736328125,0.001097115222364664,-0.006342417094856501,0.00008646631613373756
1769666841473718500,6.493718505859375,0.00020347163081169128,-0.004507290665060282,-0.0030759756918996572
1769666841483706600,6.50370654296875,0.0012676706537604332,-0.0005527629982680082,-0.002075958764180541
1769666841493695700,6.51369580078125,0.0005661658942699432,-0.0025862245820462704,-0.002134722424671054
1769666841503683800,6.523683837890625,0.0017147872131317854,-0.0022384156472980976,-0.001555218594148755
1769666841513672700,6.533672607421875,0.0010238573886454105,-0.0005139331333339214,0.0015432292129844427
1769666841523660500,6.54366064453125,0.0017184095922857523,-0.0016678809188306332,0.0019448339007794857
1769666841533649700,6.553649658203125,0.0005348357371985912,-0.00481016980484128,0.0009732164908200502
1769666841543637800,6.5636376953125,0.0026211561635136604,-0.00783019419759512,0.0022741707507520914
1769666841553627000,6.573626953125,0.002540304558351636,-0.008956772275269032,0.0005849937442690134
1769666841563614700,6.58361474609375,0.002272923244163394,-0.0059524597600102425,-0.0005612308159470558
1769666841573603600,6.593603515625,0.00020910869352519512,0.0012954708654433489,-0.0002022834960371256
1769666841583591700,6.603591796875,0.0014980785781517625,0.0015961416065692902,0.0003987918607890606
1769666841593580800,6.613580810546875,0.0006226935656741261,0.0005965624004602432,0.004448191728442907
1769666841603569000,6.62356884765625,0.0015161841874942183,-0.003592057153582573,0.005732634104788303
1769666841613557800,6.633557861328125,0.003143526613712311,-0.0057252319529652596,0.005056495778262615
1769666841623546600,6.643546630859375,-0.00011671532411128283,-0.009243800304830074,0.0049742041155695915
1769666841633534700,6.65353466796875,0.0009751163888722658,-0.013219375163316727,0.0023857252672314644
1769666841643523600,6.663523681640625,0.0006800380069762468,-0.009435023181140423,0.005230513866990805
1769666841653511700,6.67351171875,0.0007876784075051546,-0.0021941913291811943,0.0026278002187609673
1769666841663500800,6.683500732421875,0.0005583802703768015,0.002798969391733408,0.0007199116516858339
1769666841673488600,6.693488525390625,-0.000633539108093828,0.00715831620618701,0.001803786726668477
1769666841683477800,6.703477783203125,0.0024272319860756397,0.005226192995905876,0.002988893538713455
1769666841693465600,6.713465576171875,0.0008376764599233866,0.002849777229130268,0.005979915149509907
1769666841703454700,6.723454833984375,0.0021697895135730505,-0.0023306035436689854,0.005821723025292158
1769666841713442800,6.73344287109375,0.0025519656483083963,-0.007007964886724949,0.0060384562239050865
1769666841723432000,6.743431884765625,0.0031003106851130724,-0.004530159756541252,0.005325527861714363
1769666841733419800,6.753419677734375,0.0014274464920163155,-0.0015718033537268639,0.007009387481957674
1769666841743408600,6.76340869140625,0.0018330460879951715,0.001144887413829565,0.0061065759509801865
1769666841753396700,6.773396728515625,0.0016323166200891137,0.001291870605200529,0.0031279008835554123
1769666841763385900,6.7833857421875,0.001784915686585009,0.004026670940220356,0.0012897871201857924
1769666841773374700,6.793374755859375,0.0026961290277540684,0.002114726696163416,-0.003613361157476902
1769666841783362600,6.803362548828125,0.0007331131491810083,0.004806117154657841,-0.0048019299283623695
1769666841793351700,6.8133515625,0.002439570613205433,0.002133437432348728,-0.002842219779267907
1769666841803339800,6.82333984375,0.0025061494670808315,-0.003064253833144903,-0.004609493538737297
1769666841813328600,6.83332861328125,0.0005766173126176,-0.006061846856027842,-0.004255892708897591
1769666841823316700,6.843316650390625,0.0037124897353351116,-0.006463450845330954,-0.0037632083985954523
1769666841833305600,6.8533056640625,0.0019295313395559788,-0.007518382743000984,-0.006013358943164349
1769666841843293700,6.863293701171875,0.0016637479420751333,-0.011518983170390129,-0.0031350140925496817
1769666841853282800,6.87328271484375,0.002306585432961583,-0.009710941463708878,-0.0038464132230728865
1769666841863270700,6.883270751953125,0.0032139241229742765,-0.005923659540712833,-0.0022873987909406424
1769666841873259800,6.893259765625,0.0025348667986691,-0.0054288520477712154,-0.0003967094235122204
1769666841883247600,6.90324755859375,0.002690128982067108,-0.003932687919586897,0.0002621565945446491
1769666841893236700,6.91323681640625,0.0018958918517455459,-0.004270932171493769,-0.0006930490490049124
1769666841903224800,6.923224853515625,-0.0000628629932180047,-0.0024410742335021496,-0.0013641656842082739
1769666841913213700,6.933213623046875,-0.0005071028135716915,-0.003875219263136387,-0.0035214063245803118
1769666841923202800,6.943202880859375,-0.00022161193192005157,-0.003360962960869074,-0.0017828948330134153
1769666841933191000,6.95319091796875,-0.0013289869530126452,-0.002367964945733547,-0.002314208075404167
1769666841943179500,6.963179443359375,0.0007133913459256291,0.0006147755775600672,-0.0005069870967417955
1769666841953167600,6.973167724609375,0.0009581317426636815,0.0011958163231611252,0.00036047003231942654
1769666841963156700,6.98315673828125,-0.001979601103812456,0.0030829322058707476,0.001030787592753768
1769666841973144800,6.993144775390625,-0.0020007186103612185,0.004738259129226208,-0.0025312029756605625
1769666841983133700,7.0031337890625,0.00003207218833267689,0.004336920566856861,-0.004851615056395531
1769666841993121500,7.01312158203125,0.0008741653291508555,0.0038366762455552816,-0.005195329897105694
1769666842003110700,7.023110595703125,0.001907738042064011,0.005361069925129414,-0.007056080736219883
1769666842013098800,7.0330986328125,0.00036051683127880096,0.0066059851087629795,-0.004849169868975878
1769666842023087600,7.043087646484375,-0.00019129016436636448,0.006939679384231567,-0.008659088984131813
1769666842033075700,7.05307568359375,0.00026929157320410013,0.0017717385198920965,-0.008468912914395332
1769666842043064600,7.063064697265625,-0.0009424467571079731,-0.0014959601685404778,-0.00875174067914486
1769666842053052700,7.073052734375,-0.002079311292618513,0.005045716185122728,-0.00507556414231658
1769666842063041800,7.083041748046875,-0.0020031449384987354,-0.0010198995005339384,-0.0016771038062870502
1769666842073030700,7.09303076171875,-0.0005754270241595805,-0.004984589293599129,-0.00041120080277323723
1769666842083018800,7.103018798828125,0.0006000922294333577,-0.003890296444296837,0.0007677807006984949
1769666842093008000,7.1130078125,-0.002164367353543639,-0.006441785488277674,0.001503738691098988
1769666842102995700,7.12299560546875,0.0006924055051058531,-0.004967459477484226,0.0020163971930742264
1769666842112984600,7.132984619140625,0.0000012298114597797394,-0.0034448043443262577,0.0019994487520307302
1769666842122972700,7.14297265625,0.000986066646873951,-0.0005262461490929127,0.0016428513918071985
1769666842132961800,7.1529619140625,0.001100216875784099,-0.004704820923507214,0.004224473610520363
1769666842142950000,7.162949951171875,0.0030448571778833866,-0.004020655062049627,0.007574730087071657
1769666842152938500,7.1729384765625,0.0021003209985792637,-0.0020503271371126175,0.007068932987749577
1769666842162926600,7.182926513671875,0.002175688510760665,-0.0017547160387039185,0.0029926986899226904
1769666842172915700,7.192915771484375,0.0023994450457394123,-0.0008159782737493515,0.001323504839092493
1769666842182903800,7.20290380859375,0.0008486864389851689,-0.003144380170851946,0.0012036625994369388
1769666842192892700,7.212892578125,0.0024473057128489017,-0.00581284100189805,0.0001122236717492342
1769666842202880500,7.222880615234375,0.0009364944417029619,-0.005591265857219696,0.003419869812205434
1769666842212869600,7.23286962890625,0.0005599078722298145,-0.0070862011052668095,0.007646407000720501
1769666842222858800,7.242858642578125,-0.0012997776502743363,-0.008586892858147621,0.0032782903872430325
1769666842232846800,7.252846923828125,-0.002292234916239977,-0.007962493225932121,0.0009993729181587696
1769666842242835700,7.262835693359375,-0.0021897032856941223,-0.0043935920111835,-0.002321056555956602
1769666842252823600,7.272823486328125,-0.0012677237391471863,-0.002878046128898859,-0.005700810346752405
1769666842262812700,7.282812744140625,-0.0026584265287965536,-0.0016370131634175777,-0.0059444899670779705
1769666842272800800,7.29280078125,-0.0011732097482308745,0.0008995073148980737,-0.004632056690752506
1769666842282789600,7.30278955078125,-0.0014855985064059496,0.0009415852837264538,-0.00420488603413105
1769666842292777700,7.31277783203125,-0.0006762216216884553,-0.0021412353962659836,-0.0059499433264136314
1769666842302766800,7.322766845703125,-0.0005119045963510871,-0.003363892436027527,-0.00798220094293356
1769666842312754700,7.332754638671875,-0.0020705186761915684,-0.003337298985570669,-0.011440852656960487
1769666842322743600,7.34274365234375,-0.001643880270421505,-0.0003100836183875799,-0.014571398496627808
1769666842332731600,7.352731689453125,-0.003110656049102545,0.003195978933945298,-0.017141802236437798
1769666842342720800,7.362720703125,-0.0047508967109024525,0.005453540477901697,-0.018407335504889488
1769666842352708900,7.372708984375,-0.00420164130628109,0.011048180982470512,-0.014640850014984608
1769666842362697700,7.38269775390625,-0.005462914239615202,0.007939739152789116,-0.012372368946671486
1769666842372686800,7.392686767578125,-0.004963207058608532,0.0037887804210186005,-0.01658257469534874
1769666842382675000,7.402675048828125,-0.003110978752374649,-0.00023099477402865887,-0.017872611060738564
1769666842392663800,7.412663818359375,-0.0010461695492267609,0.0008749747648835182,-0.016425613313913345
1769666842402652000,7.42265185546875,-0.0009225989342667162,0.0022033595014363527,-0.014490295201539993
1769666842412640800,7.432640869140625,-0.0009016690892167389,0.0027235434390604496,-0.014448394067585468
1769666842422628900,7.44262890625,-0.00082150794332847,0.005724659655243158,-0.01142384298145771
1769666842432618000,7.452617919921875,0.0019055722514167428,0.007393868640065193,-0.008626926690340042
1769666842442605800,7.462605712890625,0.0003790484042838216,0.009554225020110607,-0.009352104738354683
1769666842452594700,7.4725947265625,0.0005595555994659662,0.008861786685883999,-0.010668544098734856
1769666842462582800,7.482582763671875,0.002992353169247508,0.0036025759764015675,-0.008085278794169426
1769666842472572000,7.492572021484375,0.003187773749232292,-0.0035312515683472157,-0.0006148833781480789
1769666842482560000,7.50256005859375,0.005573433358222246,-0.008078066632151604,0.007436385378241539
1769666842492548900,7.512548828125,0.006310548633337021,-0.007604857906699181,0.009439339861273766
1769666842502536700,7.52253662109375,0.0061062839813530445,-0.00892019271850586,0.01693427562713623
1769666842512525800,7.53252587890625,0.008763585239648819,-0.007902066223323345,0.02216605469584465
1769666842522514000,7.542513916015625,0.005040220450609922,-0.008467189036309719,0.021593207493424416
1769666842532502800,7.552502685546875,0.006385383661836386,-0.006655440665781498,0.021705061197280884
1769666842542492000,7.562491943359375,0.0069550336338579655,-0.005822136998176575,0.018625915050506592
1769666842552479700,7.572479736328125,0.0066462112590670586,-0.010813278146088123,0.02293432131409645
1769666842562468900,7.58246875,0.00731706153601408,-0.019445914775133133,0.027657438069581985
1769666842572457000,7.59245703125,0.008530186489224434,-0.022755369544029236,0.024692818522453308
1769666842582445800,7.60244580078125,0.007591156288981438,-0.02181660756468773,0.02097770944237709
1769666842592434000,7.612433837890625,0.007652137894183397,-0.014957448467612267,0.017809942364692688
1769666842602423000,7.622423095703125,0.002668298315256834,-0.010123278945684433,0.01830688863992691
1769666842612411000,7.632410888671875,0.0003691866295412183,-0.004182507283985615,0.013554415665566921
1769666842622399700,7.642399658203125,0.0018166146473959088,0.00005138595588505268,0.008620111271739006
1769666842632387800,7.652387939453125,0.0006723642582073808,0.0010255026863887906,0.0007660926785320044
1769666842642377000,7.662376953125,0.0018572047119960189,-0.0005002222023904324,0.002894490957260132
1769666842652364800,7.67236474609375,0.0026239873841404915,-0.00380924204364419,0.004740697797387838
1769666842662353700,7.682353759765625,0.0019709800835698843,-0.0036121681332588196,0.001683388720266521
1769666842672341800,7.692341796875,0.0027064387686550617,-0.0031768358312547207,-0.0028040511533617973
1769666842682331000,7.702330810546875,-0.0007878952310420573,-0.0014063662383705378,-0.0018338612280786037
1769666842692319700,7.71231982421875,0.0021645929664373398,-0.00026979902759194374,-0.0012536442372947931
1769666842702307800,7.722307861328125,-0.0013377303257584572,-0.0006242657545953989,0.0029048817232251167
1769666842712296700,7.732296630859375,-0.0002975568640977144,-0.0007019857876002789,0.0020451070740818977
1769666842722284800,7.742284912109375,-0.001018740818835795,-0.004819232504814863,0.0020978376269340515
1769666842732274000,7.75227392578125,-0.0012186926323920488,-0.005674563813954592,-0.002023429377004504
1769666842742261800,7.76226171875,-0.000933468050789088,-0.0019879499450325966,-0.006848543882369995
1769666842752251000,7.7722509765625,-0.002007200848311186,0.003603004850447178,-0.013253839686512947
1769666842762238700,7.78223876953125,-0.004975027404725552,0.008585512638092041,-0.01170254871249199
1769666842772227800,7.792227783203125,-0.004435413982719183,0.008021576330065727,-0.014681622385978699
1769666842782216000,7.8022158203125,-0.0011762375943362713,0.002318682847544551,-0.015072841197252274
1769666842792204800,7.812204833984375,-0.00219542789272964,-0.005177910905331373,-0.019555140286684036
1769666842802193000,7.82219287109375,-0.0007237651152536273,-0.0010739797726273537,-0.018234211951494217
1769666842812182000,7.83218212890625,-0.0033690340351313353,0.003495241980999708,-0.02137300744652748
1769666842822169900,7.842169921875,-0.005635650362819433,0.006195953581482172,-0.024220991879701614
1769666842832158700,7.85215869140625,-0.007655235007405281,0.007761160843074322,-0.02078116312623024
1769666842842147800,7.86214794921875,-0.0067529561929404736,0.007870616391301155,-0.013865199871361256
1769666842852136000,7.872135986328125,-0.006083488930016756,0.00900398101657629,-0.016185587272047997
1769666842862124800,7.882124755859375,-0.004164148587733507,-0.0005692839622497559,-0.025327952578663826
1769666842872112600,7.892112548828125,0.0013292627409100533,-0.004147308878600597,-0.023617226630449295
1769666842882101800,7.902101806640625,0.00495009683072567,-0.0035869795829057693,-0.016764912754297256
1769666842892089900,7.91208984375,0.006288172211498022,-0.0037372945807874203,-0.009251387789845467
1769666842902079000,7.922078857421875,0.005513724870979786,0.000044660409912467,-0.0055679697543382645
1769666842912066800,7.93206689453125,0.002379189245402813,0.0056213634088635445,-0.003961320500820875
1769666842922055700,7.9420556640625,-0.0004592078039422631,0.004625340923666954,-0.0016792579554021358
1769666842932043800,7.952043701171875,-0.0010448957327753305,0.000687899999320507,0.0014136336976662278
1769666842942033000,7.962032958984375,-0.0013181361136958003,-0.004649873822927475,0.00733277527615428
1769666842952021000,7.97202099609375,0.0005834720795974135,-0.010060315951704979,0.011927870102226734
1769666842962009900,7.982009765625,0.00038160441908985376,-0.010363651439547539,0.013093802146613598
1769666842971997700,7.991997802734375,0.002275430364534259,-0.0071326266042888165,0.0170496366918087
1769666842981986800,8.00198681640625,0.003829651279374957,-0.004316333215683699,0.02239353395998478
1769666842991975700,8.0119755859375,0.003569195279851556,-0.0030341846868395805,0.024482417851686478
1769666843001963800,8.0219638671875,0.0043601542711257935,-0.0011308235116302967,0.02250741794705391
1769666843011953000,8.031952880859375,0.00529971718788147,0.001997325336560607,0.02141978219151497
1769666843021941000,8.04194091796875,0.004075728356838226,0.0012340634129941463,0.023066947236657143
1769666843031929900,8.051929931640625,0.004795790184289217,0.000020606210455298424,0.02164861001074314
1769666843041917700,8.061917724609375,0.003749700728803873,-0.0024707806296646595,0.01972580887377262
1769666843051906800,8.07190673828125,0.00428627897053957,-0.007894711568951607,0.02025240659713745
1769666843061895000,8.08189501953125,0.003701448440551758,-0.011770942248404026,0.020396217703819275
1769666843071884000,8.091884033203126,0.0025549577549099922,-0.009984760545194149,0.016716526821255684
1769666843081872000,8.101871826171875,0.0031983773224055767,-0.006129302084445953,0.015016098506748676
1769666843091860700,8.11186083984375,0.0017749668331816792,-0.006079896353185177,0.009925375692546368
1769666843101848800,8.121848876953125,0.0007568403379991651,0.0018888138001784682,0.014096951112151146
1769666843111838000,8.131837890625,0.0019474908476695418,0.0018362124683335423,0.014497049152851105
1769666843121826000,8.141825927734375,0.00033947417978197336,0.0014889362500980496,0.014227003790438175
1769666843131814700,8.151814697265625,0.0023492558393627405,-0.0015228241682052612,0.012101954780519009
1769666843141802800,8.161802734375,0.0011079565156251192,-0.0009537066798657179,0.01093948446214199
1769666843151791900,8.1717919921875,0.0024175376165658236,0.0033991187810897827,0.004635728895664215
1769666843161780700,8.18178076171875,-0.0016701482236385345,0.005516065284609795,-0.0023151212371885777
1769666843171768800,8.191768798828125,-0.0007962037343531847,0.005314575508236885,-0.003614956745877862
1769666843181758000,8.201758056640625,-0.0008694406133145094,0.0046977875754237175,-0.002332378411665559
1769666843191745800,8.211745849609375,-0.0021064854227006435,0.006702735088765621,-0.00030451081693172455
1769666843201734700,8.221734619140625,-0.0017991566564887762,0.00597382802516222,0.0017301442567259073
1769666843211722800,8.23172265625,-0.0021270993165671825,0.005198752973228693,0.004040956497192383
1769666843221712000,8.2417119140625,-0.0021188436076045036,0.004048001021146774,0.004599954001605511
1769666843231700000,8.251699951171876,-0.002489122562110424,0.0025934353470802307,0.003805648535490036
1769666843241688800,8.261688720703125,-0.0015357108786702156,-0.00016187108121812344,0.004875440150499344
1769666843251676700,8.2716767578125,-0.0022529521957039833,-0.0015195265877991915,0.004464442376047373
1769666843261665800,8.281665771484375,-0.003407166339457035,0.002073344076052308,0.0010167139116674662
1769666843271654000,8.29165380859375,-0.003894259687513113,0.0027602347545325756,-0.002206311095505953
1769666843281643000,8.30164306640625,-0.003961105365306139,0.0033551850356161594,-0.0027458672411739826
1769666843291630800,8.311630859375,-0.0022423546761274338,0.0051425183191895485,-0.005766831338405609
1769666843301619700,8.32161962890625,-0.0026301108300685883,0.00650366023182869,-0.006108514964580536
1769666843311608800,8.33160888671875,-0.001247882260940969,0.007641765754669905,-0.006351484451442957
1769666843321597000,8.341596923828124,-0.00030512327793985605,0.010729700326919556,-0.0074670822359621525
1769666843331585800,8.351585693359375,-0.0010096882469952106,0.009160393849015236,-0.00821967888623476
1769666843341573600,8.36157373046875,-0.0017508459277451038,0.007090319413691759,-0.007436975836753845
1769666843351562800,8.371562744140626,-0.00018794008065015078,0.006285091862082481,-0.0063586109317839146
1769666843361550800,8.38155078125,-0.0007983366376720369,0.00006155087612569332,-0.00446670176461339
1769666843371539700,8.391539794921876,-0.00012002792209386826,0.002454770263284445,-0.007861534133553505
1769666843381527600,8.401527587890625,0.000031505944207310677,0.002503772499039769,-0.008845305070281029
1769666843391516700,8.4115166015625,-0.0005811271839775145,0.0034934119321405888,-0.0072531141340732574
1769666843401504800,8.4215048828125,0.0007605734281241894,0.0006669990252703428,-0.006640587002038956
1769666843411494000,8.431493896484374,0.002508455188944936,0.000604818225838244,-0.00480229826644063
1769666843421481700,8.441481689453125,0.0019486586097627878,-0.0021765874698758125,-0.0000898346770554781
1769666843431470600,8.451470703125,0.003089082194492221,-0.005075214896351099,0.0015276073245331645
1769666843441458700,8.461458740234375,0.00420281570404768,-0.006041143089532852,0.0009784635622054338
1769666843451447800,8.47144775390625,0.0032192026264965534,-0.006648008245974779,0.0004632284399122
1769666843461436700,8.481436767578124,0.0008633703691884875,-0.005177144426852465,-0.004281459376215935
1769666843471424800,8.4914248046875,0.0012708860449492931,-0.0004116066265851259,-0.006402693223208189
1769666843481413600,8.50141357421875,0.0028251067269593477,-0.0007623450364917517,-0.005386697594076395
1769666843491401700,8.511401611328125,0.0031446758657693863,-0.0015633080620318651,0.0007706740871071815
1769666843501390600,8.521390625,0.0030847545713186264,-0.0036842497065663338,0.001075606094673276
1769666843511378700,8.531378662109375,0.001246170257218182,-0.0044259787537157536,-0.0016529709100723267
1769666843521367800,8.541367919921875,0.0012134135467931628,-0.0009220577776432037,-0.0038420893251895905
1769666843531355600,8.551355712890626,-0.001301618991419673,0.0020056755747646093,-0.0071695041842758656
1769666843541344800,8.5613447265625,-0.0008488816092722118,-0.0029430100694298744,-0.008479246869683266
1769666843551332600,8.57133251953125,-0.00043993291910737753,-0.0015532448887825012,-0.007790262810885906
1769666843561321700,8.58132177734375,0.00022718892432749271,0.004009033087641001,-0.006686382927000523
1769666843571309800,8.591309814453124,-0.0012803706340491772,-0.0041764406487345695,-0.008465602993965149
1769666843581298700,8.601298583984375,-0.0008199100266210735,-0.008809808641672134,-0.009004627354443073
1769666843591286800,8.611286865234375,-0.0011767735704779625,-0.00673547200858593,-0.004170191008597612
1769666843601275600,8.621275634765626,-0.002100357785820961,-0.006809773854911327,-0.0014774687588214874
1769666843611264800,8.6312646484375,0.00018223922234028578,-0.003474328201264143,-0.003873881883919239
1769666843621252900,8.6412529296875,-0.0005621142336167395,-0.0012572463601827621,-0.00491730822250247
1769666843631241700,8.65124169921875,0.00017824454698711634,0.0019012625562027097,-0.004731952678412199
1769666843641229600,8.6612294921875,-0.0012303013354539871,0.005386008881032467,-0.005995356012135744
1769666843651218700,8.67121875,-0.0014815491158515215,0.008028095588088036,-0.004254257772117853
1769666843661206800,8.681206787109375,-0.003939646761864424,0.0036080467980355024,-0.005158134736120701
1769666843671195600,8.691195556640626,-0.0029046842828392982,0.0019104034872725606,0.0002845043782144785
1769666843681183700,8.701183837890625,-0.0016111870063468814,-0.00010987045243382454,0.002797196852043271
1769666843691172600,8.711172607421876,-0.002031592885032296,-0.003088521771132946,0.007365862838923931
1769666843701160700,8.72116064453125,-0.0005695174331776798,-0.009822591207921505,0.012279127724468708
1769666843711149600,8.731149658203124,0.00020503334235399961,-0.0144326351583004,0.017056254670023918
1769666843721137700,8.7411376953125,0.0011507218005135655,-0.01298760436475277,0.01658114790916443
1769666843731126800,8.751126708984375,0.00005856307689100504,-0.010211583226919174,0.013263445347547531
1769666843741114600,8.761114501953125,0.0009970610262826085,-0.00814390555024147,0.008857511915266514
1769666843751103700,8.771103759765625,0.001726127346046269,-0.008488346822559834,0.008627668023109436
1769666843761091600,8.781091552734376,0.001202816260047257,-0.005141818895936012,0.009909180924296379
1769666843771080700,8.791080810546875,0.0024610008113086224,-0.004178991541266441,0.010012258775532246
1769666843781069800,8.80106982421875,0.000602913205511868,-0.005429079290479422,0.01111560594290495
1769666843791058000,8.811057861328125,0.0008722546044737101,-0.0066002304665744305,0.01042929943650961
1769666843801046500,8.821046630859374,-0.0003711753524839878,-0.0074130273424088955,0.004723477177321911
1769666843811034600,8.83103466796875,-0.002094340045005083,-0.004771219566464424,0.002660538535565138
1769666843821023700,8.841023681640625,0.0016386128263548017,-0.0016947358381003141,-0.001726752845570445
1769666843831011800,8.85101171875,0.0017470071325078607,0.0003185548121109605,0.0010129048023372889
1769666843841000700,8.861000732421875,0.0034527620300650597,0.00040537386666983366,0.0011926681036129594
1769666843850988500,8.870988525390626,0.0007732354570180178,-0.0025702589191496372,0.0001316308043897152
1769666843860977700,8.880977783203125,0.0011697800364345312,0.0002502949209883809,-0.000469444552436471
1769666843870965800,8.8909658203125,0.0008136746473610401,0.0014961957931518555,-0.0016203150153160095
1769666843880954600,8.90095458984375,-0.0011248402297496796,0.0008098991820588708,-0.0005305495578795671
1769666843890942700,8.910942626953124,0.00006127823144197464,0.0033477116376161575,0.002695464063435793
1769666843900931600,8.920931640625,0.0013505143579095602,0.002093362621963024,-0.0025624148547649384
1769666843910919700,8.930919677734375,0.0034200805239379406,0.004300315398722887,-0.0036632518749684095
1769666843920908800,8.94090869140625,-0.0012082270113751292,0.0006914659170433879,-0.004642229527235031
1769666843930897700,8.950897705078125,0.00032369152177125216,-0.0027986248023808002,-0.00262359157204628
1769666843940885800,8.9608857421875,-0.0007266592583619058,-0.005010912660509348,-0.002330377232283354
1769666843950875000,8.970875,-0.0019173312466591597,-0.0009136304724961519,-0.0021648427937179804
1769666843960862700,8.98086279296875,0.00020547444000840187,-0.0014510564506053925,-0.00183221441693604
1769666843970851600,8.9908515625,0.0013029688270762563,0.0021947165951132774,-0.0011081136763095856
1769666843980839700,9.000839599609375,-0.0011058602249249816,0.0010421003680676222,0.0032000821083784103
1769666843990828800,9.010828857421876,-0.0012502344325184822,-0.00035782880149781704,0.0011214977130293846
1769666844000817000,9.02081689453125,-0.0011791280703619123,-0.0028263130225241184,0.004477347247302532
1769666844010805500,9.030805419921874,-0.0014571709325537086,-0.003405781928449869,0.0036220168694853783
1769666844020793600,9.040793701171875,-0.0009548987727612257,-0.0014057480730116367,0.005038818344473839
1769666844030782700,9.05078271484375,-0.0018918338464573026,0.0028355768881738186,0.0032889300491660833
1769666844040770800,9.060770751953125,-0.002654030453413725,0.003800173755735159,0.004229292273521423
1769666844050759700,9.070759765625,-0.0028252857737243176,0.00017534522339701653,0.007411769591271877
1769666844060747500,9.08074755859375,-0.0025443225167691708,-0.0053850687108933926,0.007041590288281441
1769666844070736600,9.090736572265625,-0.0032950330059975386,-0.010203896090388298,0.00656791590154171
1769666844080724700,9.100724853515626,-0.0018193754367530346,-0.010967690497636795,0.002878105966374278
1769666844090713900,9.1107138671875,-0.0003130580298602581,-0.00447903573513031,0.0012366236187517643
1769666844100702700,9.12070263671875,-0.0007024122169241309,0.0017570221098139882,0.001399342785589397
1769666844110690600,9.130690673828125,-0.0029569165781140327,0.004570119082927704,0.004127218388020992
1769666844120679700,9.1406796875,-0.0008772540604695678,0.007988552562892437,0.002327986992895603
1769666844130667800,9.150667724609375,-0.0025245947763323784,0.005558134987950325,0.0037708485033363104
1769666844140656600,9.16065673828125,-0.001293947920203209,0.0011495384387671947,0.0067996615543961525
1769666844150644700,9.170644775390626,-0.0022428235970437527,-0.006266000214964151,0.007147549651563168
1769666844160633900,9.1806337890625,-0.0016856901347637177,-0.006817806977778673,0.006011178717017174
1769666844170621700,9.19062158203125,-0.0011718114838004112,-0.005140798632055521,0.0022326584439724684
1769666844180610600,9.200610595703125,-0.001427208655513823,-0.0009428577031940222,0.005993840750306845
1769666844190598700,9.2105986328125,-0.001266332110390067,0.0031753680668771267,0.004173247143626213
1769666844200587800,9.220587890625,-0.0006934861885383725,0.005272340960800648,0.004032898228615522
1769666844210576000,9.230575927734375,-0.002069051843136549,0.0024479918647557497,0.003409292548894882
1769666844220564500,9.240564453125,-0.0010613116901367903,-0.0064610810950398445,0.010455749928951263
1769666844230552600,9.250552490234375,-0.0005737805622629821,-0.00888572633266449,0.011897687800228596
1769666844240541700,9.260541748046874,0.00004886649549007416,-0.010491613298654556,0.00978100672364235
1769666844250530800,9.27053076171875,0.00008497165981680155,-0.006509712431579828,0.0019460504408925772
1769666844260519000,9.280518798828124,-0.0022684638388454914,0.0009844223968684673,0.0005910340696573257
1769666844270507800,9.2905078125,-0.0013916216557845473,0.006499192677438259,0.0006345449946820736
1769666844280495600,9.30049560546875,-0.004661184269934893,0.009047038853168488,0.0005919344257563353
1769666844290484700,9.310484619140626,-0.003999511711299419,0.006420999299734831,0.00035534449853003025
1769666844300472800,9.320472900390625,-0.0033212043344974518,0.005826581735163927,-0.0076463897712528706
1769666844310461700,9.330461669921876,-0.0018779870588332415,0.006384744308888912,-0.00537532102316618
1769666844320449500,9.340449462890625,-0.0018449638737365603,0.00018037785775959492,-0.004216845612972975
1769666844330438700,9.350438720703124,0.00007612118497490883,-0.007599178235977888,-0.004752785433083773
1769666844340426800,9.3604267578125,-0.00019285804592072964,-0.013862667605280876,-0.00711394427344203
1769666844350415600,9.37041552734375,0.001970406388863921,-0.006683120969682932,-0.002827208489179611
1769666844360403700,9.38040380859375,0.0011493538040667772,-0.0017749150283634663,-0.0024458435364067554
1769666844370392800,9.390392822265625,0.00005861616227775812,-0.0054697319865226746,-0.0041807787492871284
1769666844380380700,9.400380615234376,0.0006069609662517905,-0.00869348831474781,-0.0038995486684143543
1769666844390369500,9.41036962890625,-0.0008588791242800653,-0.006536619737744331,-0.003311714855954051
1769666844400358700,9.420358642578124,0.0010676515521481633,-0.009757446125149727,-0.009309419430792332
1769666844410346500,9.430346435546875,0.0010045493254438043,-0.008366383612155914,-0.017998769879341125
1769666844420335600,9.440335693359375,0.000051404000259935856,-0.0034150341525673866,-0.0167675893753767
1769666844430323700,9.45032373046875,-0.001207413850352168,-0.001460531260818243,-0.015345575287938118
1769666844440312600,9.4603125,0.0014533502981066704,-0.003617691807448864,-0.014200948178768158
1769666844450300700,9.47030078125,0.002142959041520953,-0.0060792104341089725,-0.010956785641610622
1769666844460289500,9.48028955078125,0.003529400797560811,-0.0037662554532289505,-0.012126446701586246
1769666844470277600,9.490277587890626,0.0019771649967879057,-0.0047011603601276875,-0.0030761384405195713
1769666844480266500,9.5002666015625,0.0013396043796092272,-0.005335525143891573,-0.005395485553890467
1769666844490254600,9.510254638671874,-0.0007481985376216471,-0.011193491518497467,-0.0015605075750499964
1769666844500243700,9.52024365234375,-0.0004331466043367982,-0.01139056496322155,-0.003262001322582364
1769666844510231600,9.5302314453125,-0.00014857761561870575,-0.011687182821333408,-0.0011384605895727873
1769666844520220400,9.540220458984376,-0.001297998009249568,-0.009567839093506336,-0.0017219593282788992
1769666844530208500,9.55020849609375,0.000050887931138277054,-0.009789707139134407,-0.004120790399610996
1769666844540197600,9.56019775390625,0.0008477057563140988,-0.007516965735703707,-0.006881422363221645
1769666844550185700,9.570185791015625,-0.00007999828085303307,-0.004992063622921705,-0.009468384087085724
1769666844560174600,9.580174560546874,-0.00009358034003525972,-0.0022482085041701794,-0.01082766242325306
1769666844570163500,9.59016357421875,-0.000717050046660006,-0.001298475544899702,-0.0116369454190135
1769666844580151600,9.600151611328124,-0.0007034679292701185,0.0019447221420705318,-0.013911550864577293
1769666844590140700,9.610140625,-0.0012055363040417433,0.0022104643285274506,-0.009380348026752472
1769666844600128800,9.620128662109375,-0.0017030148301273584,0.004812106490135193,-0.010254663415253162
1769666844610117600,9.63011767578125,-0.0033564381301403046,0.003338742535561323,-0.006761027965694666
1769666844620105500,9.64010546875,-0.001873323693871498,0.0011490914039313793,-0.0013018143363296986
1769666844630094600,9.650094482421874,-0.0038155908696353436,0.0002461080439388752,-0.001476504374295473
1769666844640082700,9.660082763671875,-0.0046097454614937305,0.0015100442105904222,-0.005937032867223024
1769666844650071600,9.670071533203124,-0.002087690867483616,0.002955084200948477,-0.005558977834880352
1769666844660059600,9.6800595703125,-0.001335614244453609,0.00252977735362947,-0.007915875874459743
1769666844670048500,9.690048583984375,-0.00013593770563602448,0.0033431383781135082,-0.010039200074970722
1769666844680036600,9.70003662109375,-0.000812913291156292,0.0023551054764539003,-0.007970723323523998
1769666844690025500,9.710025390625,-0.00023917050566524267,0.006630896124988794,-0.00820921454578638
1769666844700013600,9.720013671875,0.00016696157399564981,0.004021797329187393,-0.009831080213189125
1769666844710002700,9.730002685546875,0.0010875571751967072,0.006968278903514147,-0.011530876159667969
1769666844719990500,9.739990478515624,0.0007192421471700072,0.007015150506049395,-0.014923477545380592
1769666844729979400,9.7499794921875,0.000004005385562777519,0.007966190576553345,-0.013807154260575771
1769666844739968500,9.759968505859375,0.00167780218180269,0.004165859892964363,-0.01256026141345501
1769666844749956600,9.76995654296875,0.00006053049582988024,0.0003401092253625393,-0.010357767343521118
1769666844759945700,9.77994580078125,-0.001371184829622507,-0.001055919798091054,-0.009181449189782143
1769666844769933800,9.789933837890626,-0.00009881542064249516,-0.0012167575769126415,-0.00656964723020792
1769666844779922400,9.79992236328125,-0.0012117504375055432,-0.0028628576546907425,-0.006286820396780968
1769666844789910500,9.80991064453125,-0.0009553301497362554,-0.00043832440860569477,-0.004271225538104773
1769666844799899600,9.819899658203125,-0.0008496026275679469,-0.0013842792250216007,-0.005304532591253519
1769666844809887700,9.8298876953125,0.0015770874451845884,-0.0027310927398502827,-0.004421208053827286
1769666844819876600,9.839876708984375,0.001332609448581934,-0.003626713529229164,-0.004071002826094627
1769666844829864400,9.849864501953125,0.002495340071618557,-0.004527472425252199,-0.004766661673784256
1769666844839853600,9.859853515625,0.0014939914690330625,-0.002796151675283909,-0.002348511014133692
1769666844849841700,9.869841552734375,0.003125825896859169,-0.0024265912361443043,-0.0015243198722600937
1769666844859830500,9.87983056640625,0.005074727348983288,-0.0037544434890151024,-0.0031283418647944927
1769666844869818600,9.889818603515625,0.005632543936371803,-0.0037189368158578873,-0.003904862329363823
1769666844879807500,9.899807373046874,0.004798974376171827,-0.00047147832810878754,-0.008708938956260681
1769666844889796600,9.909796630859375,0.0030043835286051035,0.0037905178032815456,-0.012789459899067879
1769666844899784400,9.919784423828125,0.0012003583833575249,0.003990254830569029,-0.016970090568065643
1769666844909773600,9.929773681640626,0.0003108074888586998,0.0017023161053657532,-0.016052937135100365
1769666844919761700,9.93976171875,0.0012322610709816217,-0.0005600391887128353,-0.01603109948337078
1769666844929750800,9.949750732421874,0.0016614036867395043,-0.0022641015239059925,-0.013182302936911583
1769666844939738600,9.959738525390625,0.0038390704430639744,0.00046031223610043526,-0.015223348513245583
1769666844949727500,9.9697275390625,0.0023682047612965107,0.0036946176551282406,-0.013353973627090454
1769666844959715600,9.979715576171875,0.004377293400466442,0.007545282132923603,-0.014381421729922295
1769666844969704700,9.98970458984375,0.0061764195561409,0.008774340152740479,-0.010660035535693169
1769666844979692800,9.99969287109375,0.006420365534722805,0.008943451568484306,-0.011460848152637482
1769666844989681400,10.009681396484375,0.0040087150409817696,0.002875103149563074,-0.010790085420012474
1769666844999669500,10.01966943359375,0.004395139869302511,-0.002182239666581154,-0.011039091274142265
1769666845009658600,10.02965869140625,0.0031674171332269907,-0.006508322898298502,-0.008975636214017868
1769666845019646700,10.039646728515624,0.0037346703466027975,-0.007283036131411791,-0.008085074834525585
1769666845029635600,10.049635498046875,0.0031126542016863823,-0.0046419319696724415,-0.006774744484573603
1769666845039624700,10.059624755859375,0.00404715770855546,-0.0040760100819170475,-0.0025477753952145576
1769666845049612500,10.069612548828125,0.004662725143134594,-0.008237265981733799,0.0015608578687533736
1769666845059601700,10.0796015625,0.006735996343195438,-0.012459973804652691,0.004061033483594656
1769666845069589500,10.089589599609376,0.00837363488972187,-0.012197958305478096,0.0059397267177701
1769666845079578600,10.09957861328125,0.0066337911412119865,-0.011289021000266075,0.004253945779055357
1769666845089566500,10.10956640625,0.0052083623595535755,-0.010124946013092995,0.0008015760686248541
1769666845099555600,10.1195556640625,0.0039039463736116886,-0.011859195306897163,0.0017169046914204955
1769666845109543700,10.129543701171874,0.003798265941441059,-0.007673370186239481,-0.000056050485000014305
1769666845119532500,10.139532470703125,0.0009414931992068887,-0.002016016747802496,-0.007343790493905544
1769666845129520600,10.149520751953125,0.0015455541433766484,0.0021180263720452785,-0.006272629369050264
1769666845139509800,10.159509765625,-0.0012134806020185351,0.006828892044723034,-0.006353589240461588
1769666845149497600,10.16949755859375,0.0002978632692247629,0.0033915499225258827,-0.006103518884629011
1769666845159486500,10.179486572265626,0.0018198598409071565,-0.004152919165790081,-0.0012624245136976242
1769666845169474600,10.189474609375,0.0031071780249476433,-0.00141377211548388,0.0038821306079626083
1769666845179463700,10.199463623046874,0.0023945162538439035,-0.003682252950966358,0.005382022820413113
1769666845189451800,10.20945166015625,0.0016235847724601626,-0.0008359518833458424,0.003613556968048215
1769666845199440400,10.2194404296875,0.0013183866394683719,0.004982256330549717,0.0016289694467559457
1769666845209429500,10.229429443359376,-0.0010829302482306957,0.004068010486662388,-0.004046188667416573
1769666845219417600,10.23941748046875,-0.0017199583817273378,0.006498411297798157,-0.010737113654613495
1769666845229406700,10.24940673828125,-0.0025078821927309036,0.008588185533881187,-0.012364991009235382
1769666845239394600,10.25939453125,-0.000947536202147603,0.008499235846102238,-0.009497832506895065
1769666845249383700,10.2693837890625,-0.002253919839859009,0.004040519241243601,-0.0054762400686740875
1769666845259371500,10.27937158203125,0.00021562946494668722,0.006227240897715092,-0.0005829478614032269
1769666845269360600,10.289360595703124,-0.002186008496209979,0.006400448270142078,0.006225590594112873
1769666845279348700,10.2993486328125,-0.00002698390744626522,0.002375612733885646,0.01144112553447485
1769666845289337600,10.309337646484375,0.0000933861592784524,-0.0015481668524444103,0.015099910087883472
1769666845299325400,10.319325439453126,-0.000333252246491611,-0.00761058647185564,0.022490449249744415
1769666845309314600,10.329314453125,-0.0005352834705263376,-0.011481869965791702,0.016604546457529068
1769666845319302700,10.339302734375,-0.0030943150632083416,-0.010923139750957489,0.014075342565774918
1769666845329291500,10.34929150390625,-0.0031996627803891897,-0.007301900535821915,0.010322123765945435
1769666845339279600,10.359279541015624,-0.0039706481620669365,-0.003154825884848833,0.00845950935035944
1769666845349268700,10.369268798828125,-0.005509692244231701,0.00006446288898587227,0.0054937489330768585
1769666845359257600,10.379257568359375,-0.004594363737851381,0.0003600736381486058,0.004320892505347729
1769666845369245400,10.389245361328125,-0.0036173597909510136,0.0012528328225016594,0.0006958874873816967
1769666845379235300,10.3992353515625,-0.004957728553563356,0.003923450596630573,-0.00040905806235969067
1769666845389223200,10.40922314453125,-0.004458484705537558,0.006248812191188335,0.0000727225560694933
1769666845399212000,10.4192119140625,-0.003232631366699934,0.0049928659573197365,0.003162521868944168
1769666845409200000,10.4292001953125,-0.002588198985904455,0.0014191928785294294,0.0017038378864526749
1769666845419189200,10.439189208984375,-0.0018845917657017708,-0.002312161959707737,0.007019773591309786
1769666845429177300,10.44917724609375,-0.00018001534044742584,-0.0025537856854498386,0.011328722350299358
1769666845439166200,10.459166259765626,0.0014101581182330847,-0.0010658777318894863,0.0074532898142933846
1769666845449154000,10.469154052734375,0.0006213857559487224,-0.002716220449656248,0.006682609207928181
1769666845459143200,10.47914306640625,0.003522633109241724,-0.0021638809703290462,0.00609005568549037
1769666845469131300,10.48913134765625,0.001613881322555244,0.007340609095990658,0.004482043907046318
1769666845479120100,10.4991201171875,-0.00027643039356917143,0.00515788234770298,-0.0011918209493160248
1769666845489108200,10.509108154296875,-0.0009332606568932533,0.004638193175196648,-0.004475223831832409
1769666845499097000,10.51909716796875,-0.0008184784092009068,0.004603572189807892,-0.004504252225160599
1769666845509086200,10.529086181640626,0.0005029244348406792,0.0007322798483073711,-0.0058908965438604355
1769666845519074300,10.53907421875,0.002243566559627652,-0.0011764077935367823,-0.0035321349278092384
1769666845529063200,10.549063232421876,0.003790811635553837,-0.0033642714843153954,-0.004410154186189175
1769666845539051300,10.55905126953125,0.0010466903913766146,0.0005252753617241979,-0.002385352971032262
1769666845549040400,10.569040283203124,0.000818780972622335,0.0033920228015631437,0.0007616421207785606
1769666845559028200,10.5790283203125,0.0006288975710049272,0.004182715434581041,0.002619196893647313
1769666845569017000,10.58901708984375,0.0015200953930616379,0.0015431446954607964,-3.4016557037830353e-7
1769666845579005200,10.599005126953125,0.0022237023804336786,0.0006832100916653872,-0.002170549938455224
1769666845588994300,10.608994384765625,0.0006577637977898121,0.0019953495357185602,0.00043135834857821465
1769666845598982100,10.618982177734376,0.002576571423560381,-0.0006006998009979725,0.0026953115593641996
1769666845608971000,10.628970947265625,0.0018929330399259925,0.0036819877568632364,-0.00024647824466228485
1769666845618959000,10.638958984375,0.0009919855510815978,0.006800815463066101,0.004803141579031944
1769666845628948200,10.6489482421875,-0.0004309333162382245,0.007436926476657391,0.0033129637595266104
1769666845638936300,10.658936279296874,-0.002257063053548336,0.004686946049332619,-0.001038641668856144
1769666845648925200,10.66892529296875,-0.0024563735350966454,0.006926938891410828,0.0037674519699066877
1769666845658913000,10.6789130859375,-0.0019216106738895178,0.0091024748980999,0.00303694698959589
1769666845668902100,10.688902099609376,-0.004210176877677441,0.009272780269384384,0.00441755261272192
1769666845678891300,10.698891357421875,-0.0021960283629596233,0.009219249710440636,0.012720223516225815
1769666845688879400,10.70887939453125,-0.0012979028979316354,0.011957074515521526,0.015635598450899124
1769666845698868200,10.7188681640625,-0.0023306766524910927,0.014998138882219791,0.014507483690977097
1769666845708856000,10.72885595703125,-0.003027625847607851,0.010821502655744553,0.02175687439739704
1769666845718845200,10.73884521484375,-0.0016140200896188617,0.0035606606397777796,0.026996377855539322
1769666845728833300,10.748833251953124,-0.0037659555673599243,-0.0007360959425568581,0.029384886845946312
1769666845738822100,10.758822265625,-0.004134270828217268,-0.0029121646657586098,0.024394124746322632
1769666845748810200,10.768810302734375,-0.0047505805268883705,0.0028634797781705856,0.015574956312775612
1769666845758799400,10.77879931640625,-0.004791060462594032,0.009008990600705147,0.008109848946332932
1769666845768787200,10.788787109375,-0.0047107418067753315,0.01726911962032318,0.005804438143968582
1769666845778776000,10.798776123046874,-0.004405010957270861,0.019046779721975327,0.005602570716291666
1769666845788764200,10.80876416015625,-0.003943588584661484,0.01905764639377594,0.004506100434809923
1769666845798753300,10.818753173828124,-0.0002678937744349241,0.013575262390077114,0.008486460894346237
1769666845808741000,10.8287412109375,-0.0019948543049395084,0.006849028170108795,0.012475593946874142
1769666845818730200,10.838730224609375,-0.00033037865068763494,-0.0018083760514855385,0.0160418339073658
1769666845828718000,10.848718017578125,0.0024766982533037663,-0.004846519324928522,0.009892175905406475
1769666845838707200,10.858707275390625,0.002167504746466875,-0.006081160623580217,0.004507530480623245
1769666845848696300,10.8686962890625,-0.00019982608500868082,0.0002469068858772516,-0.0016448162496089935
1769666845858684400,10.878684326171875,0.0019232459599152207,0.005964979995042086,-0.00901777669787407
1769666845868673300,10.88867333984375,-0.0020200966391712427,0.009654523804783821,-0.009194344282150269
1769666845878661000,10.8986611328125,0.0002228175289928913,0.008969824761152267,-0.004677890334278345
1769666845888650200,10.908650146484375,0.000666552223265171,0.004952790215611458,-0.0030414036009460688
1769666845898638300,10.918638427734376,0.0008979809936136007,0.0034289290197193623,-0.008568794466555119
1769666845908627200,10.928627197265625,0.0014639056753367186,0.009607668966054916,-0.015879906713962555
1769666845918615000,10.938614990234376,0.0009243492968380451,0.011631937697529793,-0.020373990759253502
1769666845928604200,10.948604248046875,-0.0017895223572850227,0.01562371477484703,-0.020704831928014755
1769666845938592300,10.95859228515625,-0.0017841961234807968,0.014957924373447895,-0.024533923715353012
1769666845948581000,10.9685810546875,-0.004029084462672472,0.011068977415561676,-0.02567926049232483
1769666845958569200,10.9785693359375,-0.0028556957840919495,0.0029197053518146276,-0.019460514187812805
1769666845968558300,10.988558349609375,-0.0017601250438019633,0.007694306317716837,-0.01170392893254757
1769666845978546200,10.998546142578125,-0.0024027456529438496,0.0008395959157496691,-0.009234646335244179
1769666845988535000,11.00853515625,-0.0009887635242193937,-0.0009652958251535892,-0.008200631476938725
1769666845998524200,11.018524169921875,0.0003497411962598562,0.0004712131340056658,-0.006944950670003891
1769666846008512300,11.02851220703125,0.000194637686945498,0.0021731448359787464,-0.005544940009713173
1769666846018501400,11.03850146484375,0.0006242054514586926,0.0007161295507103205,-0.0021318327635526657
1769666846028489200,11.0484892578125,0.0009933237452059984,0.0020633633248507977,-0.0009908706415444613
1769666846038478000,11.05847802734375,-0.0013792864046990871,0.004106274340301752,-0.0011727644596248865
1769666846048466200,11.068466064453125,-0.0027012277860194445,-0.0005720234476029873,-0.0003956800792366266
1769666846058455300,11.078455322265626,-0.002774731023237109,-0.000499851768836379,-0.0006811709608882666
1769666846068443400,11.088443359375,-0.001959598623216152,0.0021300590597093105,0.0004931846633553505
1769666846078432300,11.098432373046874,-0.0003835400566458702,0.0036203640047460794,-0.0003108235541731119
1769666846088420000,11.108420166015625,-0.0011968155158683658,0.006982252933084965,-0.0037778543774038553
1769666846098409200,11.1184091796875,-0.0031196177005767822,0.01243374403566122,-0.007163531146943569
1769666846108397300,11.128397216796875,-0.003686118172481656,0.016781486570835114,-0.008343224413692951
1769666846118386200,11.13838623046875,-0.003641110844910145,0.015383592806756496,-0.006073945201933384
1769666846128374000,11.1483740234375,-0.0024106791242957115,0.01394183374941349,-0.0061472076922655106
1769666846138363100,11.158363037109375,-0.0027731352020055056,0.01152794435620308,-0.00384144252166152
1769666846148351200,11.168351318359376,-0.00004520558286458254,0.008821021765470505,-0.008571077138185501
1769666846158340000,11.178340087890625,0.0004472129512578249,0.010740894824266434,-0.01265130564570427
1769666846168329200,11.1883291015625,-0.0015750305028632283,0.011611225083470345,-0.015087147243320942
1769666846178317300,11.1983173828125,-0.002026170026510954,0.004880351945757866,-0.007995681837201118
1769666846188306200,11.20830615234375,-0.0009277735371142626,-0.0026324940845370293,0.00057614641264081
1769666846198294300,11.218294189453125,-0.0003469381481409073,-0.006516714114695787,-0.0006276024505496025
1769666846208283100,11.228283203125,0.00025493826251477003,-0.0077591403387486935,0.004347516223788261
1769666846218271200,11.238271240234376,0.0007327094208449125,-0.00841427780687809,0.007431456819176674
1769666846228260400,11.24826025390625,0.002231749240309,-0.005832737777382135,0.007199934683740139
1769666846238248200,11.258248291015626,0.0005331850843504071,-0.004013265483081341,0.003355927998200059
1769666846248237000,11.268237060546875,0.002421471755951643,-0.0035213888622820377,0.0037025189958512783
1769666846258225200,11.27822509765625,0.0008430161979049444,-0.004035112448036671,0.00568257924169302
1769666846268214300,11.28821435546875,0.0023915949277579784,-0.0019832849502563477,0.002252786187455058
1769666846278202400,11.298202392578125,0.0010461657075211406,-0.003448289819061756,0.00425628200173378
1769666846288191200,11.308191162109376,0.000585704343393445,-0.003479018807411194,0.006335778161883354
1769666846298179000,11.318178955078125,0.000026440597139298916,0.0010507517727091908,0.0034158884081989527
1769666846308168200,11.328168212890626,0.001591576961800456,0.0059201354160904884,0.00392342172563076
1769666846318156300,11.33815625,-0.0019211324397474527,0.005228512920439243,0.00563610065728426
1769666846328145200,11.348145263671874,-0.002970573026686907,0.004951414652168751,0.005851529538631439
1769666846338134300,11.35813427734375,-0.002133275382220745,0.006519749760627747,0.0014032515464350581
1769666846348122000,11.3681220703125,-0.0017391294240951538,0.009622126817703247,0.0015507233329117298
1769666846358111200,11.378111328125,-0.002748201135545969,0.011847198009490967,-0.00024371454492211342
1769666846368099300,11.388099365234375,-0.002070152899250388,0.010793006978929043,-0.0012781373225152493
1769666846378088200,11.398088134765626,-0.0005079425172880292,0.0069133141078054905,-0.0033354293555021286
1769666846388076300,11.408076171875,-0.0003460629377514124,0.004056409001350403,-0.004637001547962427
1769666846398065400,11.4180654296875,-0.001264054561033845,0.0021714232861995697,-0.00330142630264163
1769666846408053500,11.428053466796875,-0.0013192626647651196,-0.0018907533958554268,0.0002345130778849125
1769666846418042000,11.4380419921875,0.0008442893158644438,-0.004557642620056868,-0.00023766537196934223
1769666846428030200,11.4480302734375,-0.0002916869707405567,-0.0015122322365641594,-0.0014239763841032982
1769666846438019300,11.458019287109375,-0.001048024743795395,0.0016161829698830843,-0.001778176985681057
1769666846448007400,11.46800732421875,-0.0024948245845735073,0.005112447775900364,-0.0026358908507972956
1769666846457996300,11.477996337890625,-0.002628515474498272,0.00842462107539177,-0.004178659990429878
1769666846467984100,11.487984130859376,-0.0030588540248572826,0.007429786957800388,-0.0035827101673930883
1769666846477973200,11.49797314453125,-0.0030474024824798107,0.009085208177566528,-0.007471989840269089
1769666846487961300,11.50796142578125,-0.003678834531456232,0.008175068534910679,-0.009547034278512001
1769666846497950200,11.5179501953125,-0.004714271519333124,0.007407279219478369,-0.01047168392688036
1769666846507939300,11.527939208984375,-0.00221850979141891,0.0051345983520150185,-0.00808049738407135
1769666846517927400,11.537927490234376,-0.0016248911852017045,0.003370520193129778,-0.00523490970954299
1769666846527916300,11.547916259765625,-0.0012900824658572674,0.0016611047321930528,-0.003999114036560059
1769666846537904400,11.557904296875,-0.0011601202422752976,0.000531391822732985,-0.0018893578089773655
1769666846547893200,11.567893310546875,-0.0016356592532247305,-0.00017050490714609623,-0.0015337755903601646
1769666846557881300,11.57788134765625,-0.001369609497487545,0.0004449515836313367,-0.004284820985049009
1769666846567870500,11.587870361328125,-0.002057341393083334,0.0023751927074044943,-0.01002397108823061
1769666846577858300,11.5978583984375,-0.003897319547832012,0.006958493031561375,-0.013891413807868958
1769666846587847200,11.60784716796875,-0.003713686019182205,0.011421065777540207,-0.012392180040478706
1769666846597835300,11.617835205078125,-0.0033893128857016563,0.015238175168633461,-0.012471009977161884
1769666846607824400,11.627824462890626,-0.002861365908756852,0.02381066605448723,-0.013464138843119144
1769666846617812500,11.6378125,-0.0016208654269576073,0.02586263418197632,-0.010960767045617104
1769666846627801000,11.647801025390624,0.00003933126572519541,0.024273507297039032,-0.012640729546546936
1769666846637789200,11.6577890625,0.0008105827728286386,0.024273507297039032,-0.014486299827694893
1769666846647778300,11.6677783203125,0.0007976074703037739,0.02585572376847267,-0.014645010232925415
1769666846657767200,11.67776708984375,-0.0028288187459111214,0.022553935647010803,-0.014219969511032104
1769666846667755300,11.68775537109375,-0.000985560822300613,0.015434525907039642,-0.010044628754258156
1769666846677744400,11.697744384765626,-0.00102470931597054,0.004425551742315292,-0.010281650349497795
1769666846687732200,11.707732177734375,-0.0002781543880701065,0.002083292230963707,-0.012049874290823936
1769666846697721300,11.717721435546874,-0.000493870466016233,-0.0018123798072338104,-0.008730776607990265
1769666846707709400,11.72770947265625,-0.00364327197894454,0.0010349451331421733,-0.007446094416081905
1769666846717698300,11.7376982421875,-0.005260609555989504,0.005729032680392265,-0.014909869059920311
1769666846727686400,11.747686279296875,-0.005798635073006153,0.014168012887239456,-0.021482247859239578
