time,seconds_elapsed,z,y,x
1769661638192956400,0.062956298828125,-0.12542724609375,0.9131927490234375,0.37603759765625
1769661638202944500,0.072944580078125,-0.1257171630859375,0.91192626953125,0.37530517578125
1769661638212932400,0.082932373046875,-0.124359130859375,0.9113311767578125,0.37579345703125
1769661638222920400,0.09292041015625,-0.125579833984375,0.909881591796875,0.3755950927734375
1769661638232908500,0.102908447265625,-0.1312103271484375,0.9082794189453125,0.37554931640625
1769661638242896600,0.112896728515625,-0.1312103271484375,0.910003662109375,0.3755645751953125
1769661638252884500,0.122884521484375,-0.130859375,0.9097442626953125,0.373199462890625
1769661638262872600,0.13287255859375,-0.1319122314453125,0.913299560546875,0.373199462890625
1769661638272860400,0.1428603515625,-0.1298980712890625,0.911224365234375,0.37432861328125
1769661638282848300,0.15284814453125,-0.1267852783203125,0.9118499755859375,0.3759307861328125
1769661638292837400,0.16283740234375,-0.1235504150390625,0.91156005859375,0.37908935546875
1769661638302825500,0.172825439453125,-0.1198272705078125,0.91339111328125,0.379852294921875
1769661638312813600,0.1828134765625,-0.1189422607421875,0.9123992919921875,0.3788604736328125
1769661638322801400,0.192801513671875,-0.1218719482421875,0.9112701416015625,0.380859375
1769661638332789500,0.20278955078125,-0.122955322265625,0.9112701416015625,0.3802337646484375
1769661638342777600,0.212777587890625,-0.123199462890625,0.9136962890625,0.382720947265625
1769661638352765400,0.222765380859375,-0.1219635009765625,0.9126739501953125,0.3861083984375
1769661638362753300,0.232753173828125,-0.1184539794921875,0.912506103515625,0.3874969482421875
1769661638372741400,0.242741455078125,-0.1192474365234375,0.91058349609375,0.3855743408203125
1769661638382729500,0.2527294921875,-0.1185150146484375,0.909759521484375,0.385894775390625
1769661638392717300,0.26271728515625,-0.1199798583984375,0.908935546875,0.3828582763671875
1769661638402705400,0.272705322265625,-0.12286376953125,0.909637451171875,0.3819732666015625
1769661638412693500,0.282693603515625,-0.1231231689453125,0.9106903076171875,0.3799896240234375
1769661638422681600,0.292681640625,-0.124237060546875,0.9123382568359375,0.378326416015625
1769661638432669400,0.30266943359375,-0.124755859375,0.9121246337890625,0.379241943359375
1769661638442658300,0.312658203125,-0.1219635009765625,0.9105682373046875,0.3804168701171875
1769661638452646400,0.322646484375,-0.1183319091796875,0.9098663330078125,0.38446044921875
1769661638462634500,0.332634521484375,-0.107086181640625,0.9078521728515625,0.38983154296875
1769661638472622300,0.342622314453125,-0.10107421875,0.9163970947265625,0.3916168212890625
1769661638482610400,0.3526103515625,-0.106903076171875,0.910797119140625,0.38525390625
1769661638492598500,0.3625986328125,-0.11419677734375,0.9121551513671875,0.3845672607421875
1769661638502586400,0.37258642578125,-0.1168365478515625,0.90997314453125,0.3827056884765625
1769661638512574500,0.382574462890625,-0.1125030517578125,0.91021728515625,0.38311767578125
1769661638522562600,0.3925625,-0.1106719970703125,0.913482666015625,0.3860626220703125
1769661638532550400,0.40255029296875,-0.1102142333984375,0.9149627685546875,0.3867034912109375
1769661638542538500,0.41253857421875,-0.1100311279296875,0.9160614013671875,0.3876953125
1769661638552526600,0.422526611328125,-0.11065673828125,0.9119415283203125,0.3878326416015625
1769661638562514400,0.432514404296875,-0.1112518310546875,0.9086761474609375,0.3877716064453125
1769661638572502300,0.442502197265625,-0.1070404052734375,0.907318115234375,0.386260986328125
1769661638582490400,0.452490478515625,-0.104339599609375,0.90936279296875,0.387359619140625
1769661638592479500,0.4624794921875,-0.108245849609375,0.909881591796875,0.3859100341796875
1769661638602467600,0.472467529296875,-0.11181640625,0.91278076171875,0.385772705078125
1769661638612455400,0.482455322265625,-0.1126251220703125,0.9172515869140625,0.384674072265625
1769661638622443500,0.492443603515625,-0.10955810546875,0.916351318359375,0.3867950439453125
1769661638632431600,0.502431640625,-0.1034698486328125,0.9169464111328125,0.387542724609375
1769661638642419500,0.51241943359375,-0.104461669921875,0.9152679443359375,0.38525390625
1769661638652407300,0.5224072265625,-0.1118927001953125,0.912811279296875,0.386566162109375
1769661638662395400,0.5323955078125,-0.11370849609375,0.911376953125,0.3849945068359375
1769661638672383500,0.542383544921875,-0.11279296875,0.90771484375,0.3822479248046875
1769661638682371300,0.552371337890625,-0.1082763671875,0.9044342041015625,0.3821563720703125
1769661638692359400,0.562359375,-0.1063690185546875,0.9057769775390625,0.389190673828125
1769661638702347500,0.572347412109375,-0.108673095703125,0.909332275390625,0.3883056640625
1769661638712335400,0.58233544921875,-0.1121978759765625,0.911773681640625,0.3860321044921875
1769661638722323500,0.592323486328125,-0.11334228515625,0.9110107421875,0.38482666015625
1769661638732311600,0.6023115234375,-0.1115264892578125,0.91314697265625,0.3870086669921875
1769661638742299600,0.612299560546875,-0.1139068603515625,0.914337158203125,0.3853302001953125
1769661638752288300,0.622288330078125,-0.11492919921875,0.91290283203125,0.3842010498046875
1769661638762276400,0.6322763671875,-0.1132659912109375,0.9100189208984375,0.383758544921875
1769661638772264400,0.642264404296875,-0.109405517578125,0.9104766845703125,0.384246826171875
1769661638782252500,0.65225244140625,-0.107666015625,0.9110107421875,0.3825836181640625
1769661638792240400,0.662240478515625,-0.1099395751953125,0.91217041015625,0.3824310302734375
1769661638802228500,0.672228515625,-0.112457275390625,0.9084014892578125,0.380584716796875
1769661638812216600,0.682216552734375,-0.112640380859375,0.9051513671875,0.3821563720703125
1769661638822204400,0.692204345703125,-0.1065826416015625,0.9040069580078125,0.3856658935546875
1769661638832192500,0.702192626953125,-0.1013946533203125,0.907012939453125,0.389923095703125
1769661638842180600,0.7121806640625,-0.09710693359375,0.913421630859375,0.39166259765625
1769661638852168400,0.72216845703125,-0.101776123046875,0.913482666015625,0.3856353759765625
1769661638862156300,0.73215625,-0.11029052734375,0.913848876953125,0.382537841796875
1769661638872144400,0.742144287109375,-0.113616943359375,0.9112548828125,0.381256103515625
1769661638882132500,0.752132568359375,-0.1118011474609375,0.9086456298828125,0.3831634521484375
1769661638892120300,0.762120361328125,-0.1117095947265625,0.9066619873046875,0.385986328125
1769661638902109400,0.772109375,-0.1078033447265625,0.9086761474609375,0.386260986328125
1769661638912097500,0.78209765625,-0.102203369140625,0.91143798828125,0.388702392578125
1769661638922085600,0.792085693359375,-0.100555419921875,0.912322998046875,0.3885345458984375
1769661638932073500,0.802073486328125,-0.1029052734375,0.9122772216796875,0.3868865966796875
1769661638942061300,0.812061279296875,-0.10565185546875,0.908477783203125,0.389007568359375
1769661638952049000,0.822048828125,-0.1067352294921875,0.9062957763671875,0.39056396484375
1769661638962037000,0.832037109375,-0.1056976318359375,0.907470703125,0.3932952880859375
1769661638972025000,0.842025146484375,-0.10601806640625,0.911590576171875,0.39434814453125
1769661638982013000,0.852012939453125,-0.1073455810546875,0.9136199951171875,0.3876800537109375
1769661638992001000,0.8620009765625,-0.108489990234375,0.915252685546875,0.3850250244140625
1769661639001989000,0.871989013671875,-0.1104278564453125,0.9142913818359375,0.382080078125
1769661639011977200,0.881977294921875,-0.111785888671875,0.9114990234375,0.3800506591796875
1769661639021965000,0.891965087890625,-0.11517333984375,0.9108123779296875,0.384124755859375
1769661639031953200,0.901953125,-0.1172027587890625,0.9084014892578125,0.38629150390625
1769661639041941200,0.911941162109375,-0.1149444580078125,0.9111480712890625,0.3884735107421875
1769661639051930000,0.92193017578125,-0.115325927734375,0.9124908447265625,0.3865814208984375
1769661639061918000,0.93191796875,-0.114654541015625,0.9107818603515625,0.3873748779296875
1769661639071906000,0.941906005859375,-0.11505126953125,0.9105377197265625,0.3885345458984375
1769661639081894100,0.95189404296875,-0.115753173828125,0.91009521484375,0.38580322265625
1769661639091882000,0.961882080078125,-0.11474609375,0.9099884033203125,0.3854522705078125
1769661639101870000,0.9718701171875,-0.116851806640625,0.9117584228515625,0.3870849609375
1769661639111858200,0.981858154296875,-0.112640380859375,0.8985748291015625,0.385955810546875
1769661639121846000,0.991845947265625,-0.1063385009765625,0.917236328125,0.4024810791015625
1769661639131834000,1.001834228515625,-0.1153564453125,0.8984832763671875,0.381591796875
1769661639141822200,1.011822265625,-0.129180908203125,0.8991241455078125,0.3844146728515625
1769661639151810000,1.02181005859375,-0.133575439453125,0.9146881103515625,0.3847198486328125
1769661639161798000,1.0317978515625,-0.146331787109375,0.9210357666015625,0.3772125244140625
1769661639171786000,1.041785888671875,-0.2076568603515625,0.9119873046875,0.3692474365234375
1769661639181774000,1.051774169921875,-0.23345947265625,0.89312744140625,0.364105224609375
1769661639191762000,1.061761962890625,-0.16314697265625,0.9255218505859375,0.3536224365234375
1769661639201751000,1.0717509765625,-0.082061767578125,0.937652587890625,0.3562164306640625
1769661639211739100,1.0817392578125,-0.035614013671875,0.918914794921875,0.384979248046875
1769661639221727200,1.091727294921875,-0.015472412109375,0.8935699462890625,0.4058837890625
1769661639231715000,1.101715087890625,-0.013763427734375,0.8966827392578125,0.419158935546875
1769661639241703000,1.111702880859375,-0.0280303955078125,0.9127960205078125,0.42486572265625
1769661639251691000,1.12169091796875,-0.0543212890625,0.9110565185546875,0.411346435546875
1769661639261679000,1.13167919921875,-0.079833984375,0.910064697265625,0.39923095703125
1769661639271667000,1.1416669921875,-0.100372314453125,0.9102935791015625,0.3909759521484375
1769661639281655000,1.151655029296875,-0.1118316650390625,0.9106292724609375,0.3788604736328125
1769661639291643100,1.16164306640625,-0.1265411376953125,0.913665771484375,0.3687286376953125
1769661639301631000,1.171630859375,-0.1434173583984375,0.917724609375,0.363616943359375
1769661639311619000,1.181619140625,-0.149017333984375,0.92144775390625,0.363006591796875
1769661639321607200,1.191607177734375,-0.14141845703125,0.9151611328125,0.3707122802734375
1769661639331595300,1.20159521484375,-0.1165771484375,0.90771484375,0.3827056884765625
1769661639341583000,1.2115830078125,-0.0885162353515625,0.9058380126953125,0.3904571533203125
1769661639351571200,1.2215712890625,-0.067413330078125,0.909393310546875,0.3974151611328125
1769661639361560000,1.23156005859375,-0.06146240234375,0.91217041015625,0.397125244140625
1769661639371548200,1.241548095703125,-0.066192626953125,0.9154205322265625,0.398162841796875
1769661639381536000,1.251535888671875,-0.0758514404296875,0.9141998291015625,0.3931427001953125
1769661639391524000,1.261524169921875,-0.0849151611328125,0.910888671875,0.387054443359375
1769661639401512200,1.27151220703125,-0.09759521484375,0.90771484375,0.3851470947265625
1769661639411500000,1.2815,-0.105804443359375,0.9078216552734375,0.385162353515625
1769661639421488000,1.291488037109375,-0.10931396484375,0.9111175537109375,0.3845977783203125
1769661639431476200,1.301476318359375,-0.1096038818359375,0.9124908447265625,0.385498046875
1769661639441464000,1.311464111328125,-0.108062744140625,0.915130615234375,0.3881072998046875
1769661639451452000,1.321451904296875,-0.1029052734375,0.9221343994140625,0.3888092041015625
1769661639461440000,1.33143994140625,-0.0943603515625,0.92193603515625,0.3909149169921875
1769661639471428000,1.341427978515625,-0.0888214111328125,0.919189453125,0.3880615234375
1769661639481416000,1.351416015625,-0.090057373046875,0.912353515625,0.3859405517578125
1769661639491404000,1.361404052734375,-0.0888671875,0.911865234375,0.3828582763671875
1769661639501392100,1.37139208984375,-0.0870819091796875,0.9113616943359375,0.380706787109375
1769661639511380200,1.381380126953125,-0.092041015625,0.911041259765625,0.380950927734375
1769661639521369000,1.391369140625,-0.0960540771484375,0.9099578857421875,0.3854827880859375
1769661639531357000,1.40135693359375,-0.0943450927734375,0.9117889404296875,0.3883056640625
1769661639541345000,1.411344970703125,-0.0924224853515625,0.913360595703125,0.3870697021484375
1769661639551333000,1.4213330078125,-0.0948333740234375,0.9146728515625,0.3858642578125
1769661639561321000,1.431321044921875,-0.0955963134765625,0.9143218994140625,0.3828125
1769661639571309000,1.44130908203125,-0.0940093994140625,0.91534423828125,0.384185791015625
1769661639581297200,1.451297119140625,-0.09429931640625,0.9172515869140625,0.38336181640625
1769661639591285000,1.461284912109375,-0.0929718017578125,0.915924072265625,0.38201904296875
1769661639601273000,1.471273193359375,-0.0966949462890625,0.91375732421875,0.383087158203125
1769661639611261200,1.48126123046875,-0.0960845947265625,0.9139251708984375,0.3835296630859375
1769661639621249000,1.4912490234375,-0.0938873291015625,0.91436767578125,0.385040283203125
1769661639631237000,1.501237060546875,-0.09442138671875,0.912994384765625,0.3877410888671875
1769661639641225200,1.51122509765625,-0.0915679931640625,0.9105377197265625,0.386962890625
1769661639651213000,1.521213134765625,-0.0921783447265625,0.90771484375,0.3868560791015625
1769661639661201000,1.531200927734375,-0.0911865234375,0.9099578857421875,0.387939453125
1769661639671189000,1.54118896484375,-0.0893707275390625,0.912078857421875,0.3847503662109375
1769661639681178000,1.55117822265625,-0.09100341796875,0.9118194580078125,0.386138916015625
1769661639691166200,1.561166259765625,-0.091644287109375,0.9117279052734375,0.3879241943359375
1769661639701154000,1.571154052734375,-0.0941009521484375,0.9112701416015625,0.3877716064453125
1769661639711142100,1.58114208984375,-0.0947418212890625,0.9141693115234375,0.388519287109375
1769661639721130200,1.591130126953125,-0.093536376953125,0.9153900146484375,0.389251708984375
1769661639731118000,1.6011181640625,-0.0924224853515625,0.9170989990234375,0.38714599609375
1769661639741106000,1.61110595703125,-0.09136962890625,0.914581298828125,0.3837127685546875
1769661639751094000,1.621093994140625,-0.08770751953125,0.912139892578125,0.3845367431640625
1769661639761082000,1.63108203125,-0.08966064453125,0.9132843017578125,0.3852691650390625
1769661639771070000,1.641070068359375,-0.09283447265625,0.9136962890625,0.3841552734375
1769661639781058000,1.65105810546875,-0.0962982177734375,0.912567138671875,0.38470458984375
1769661639791046100,1.661046142578125,-0.0945892333984375,0.913116455078125,0.3845977783203125
1769661639801034000,1.671033935546875,-0.0913238525390625,0.9118499755859375,0.3860015869140625
1769661639811022000,1.68102197265625,-0.0894927978515625,0.9120330810546875,0.384033203125
1769661639821010200,1.69101025390625,-0.0891571044921875,0.91021728515625,0.3853607177734375
1769661639830999000,1.7009990234375,-0.09027099609375,0.912353515625,0.3861083984375
1769661639840987000,1.71098681640625,-0.0884857177734375,0.91314697265625,0.3850555419921875
1769661639850975000,1.72097509765625,-0.08746337890625,0.915069580078125,0.386749267578125
1769661639860963000,1.730963134765625,-0.088714599609375,0.913482666015625,0.38604736328125
1769661639870951200,1.740951171875,-0.08935546875,0.9147186279296875,0.386810302734375
1769661639880939000,1.75093896484375,-0.0876922607421875,0.9165496826171875,0.38690185546875
1769661639890927000,1.760927001953125,-0.091583251953125,0.9174652099609375,0.3829803466796875
1769661639900915200,1.770915283203125,-0.095733642578125,0.9173431396484375,0.3820037841796875
1769661639910903000,1.780903076171875,-0.0978851318359375,0.9156036376953125,0.380767822265625
1769661639920891100,1.79089111328125,-0.0981903076171875,0.90985107421875,0.38299560546875
1769661639930879200,1.800879150390625,-0.0939788818359375,0.9084625244140625,0.388885498046875
1769661639940867000,1.8108671875,-0.090484619140625,0.9069671630859375,0.3919219970703125
1769661639950855000,1.82085498046875,-0.091217041015625,0.9093475341796875,0.392181396484375
1769661639960842500,1.830842529296875,-0.0946502685546875,0.911468505859375,0.3905792236328125
1769661639970830600,1.84083056640625,-0.0983428955078125,0.9155120849609375,0.3894500732421875
1769661639980818700,1.850818603515625,-0.1003875732421875,0.9156494140625,0.384002685546875
1769661639990807800,1.860807861328125,-0.0997467041015625,0.915069580078125,0.3816375732421875
1769661640000795600,1.870795654296875,-0.098388671875,0.9170989990234375,0.379364013671875
1769661640010783700,1.88078369140625,-0.09906005859375,0.9145355224609375,0.375579833984375
1769661640020771800,1.890771728515625,-0.1016845703125,0.912017822265625,0.378021240234375
1769661640030760000,1.900760009765625,-0.1005096435546875,0.9106903076171875,0.38177490234375
1769661640040747500,1.91074755859375,-0.097991943359375,0.911468505859375,0.38592529296875
1769661640050735600,1.920735595703125,-0.0977325439453125,0.911407470703125,0.3852386474609375
1769661640060723700,1.9307236328125,-0.100738525390625,0.912322998046875,0.3824005126953125
1769661640070711600,1.940711669921875,-0.101837158203125,0.91363525390625,0.380218505859375
1769661640080699600,1.95069970703125,-0.102935791015625,0.9112548828125,0.3811798095703125
1769661640090687700,1.960687744140625,-0.1032867431640625,0.910369873046875,0.3841094970703125
1769661640100675600,1.970675537109375,-0.0980377197265625,0.913360595703125,0.38665771484375
1769661640110663700,1.98066357421875,-0.0955963134765625,0.91644287109375,0.386749267578125
1769661640120651800,1.99065185546875,-0.0986328125,0.9185791015625,0.3851165771484375
1769661640130640000,2.000639892578125,-0.1014251708984375,0.917938232421875,0.38275146484375
1769661640140628700,2.010628662109375,-0.1052398681640625,0.9179534912109375,0.378814697265625
1769661640150616600,2.020616455078125,-0.1051483154296875,0.9124298095703125,0.3760986328125
1769661640160604700,2.030604736328125,-0.104034423828125,0.9138336181640625,0.38214111328125
1769661640170592800,2.0405927734375,-0.1023101806640625,0.9144134521484375,0.38482666015625
1769661640180580600,2.05058056640625,-0.102996826171875,0.91290283203125,0.3841400146484375
1769661640190568700,2.060568603515625,-0.1038970947265625,0.9138641357421875,0.384918212890625
1769661640200556800,2.070556884765625,-0.1024169921875,0.9134368896484375,0.3864593505859375
1769661640210544600,2.080544677734375,-0.100250244140625,0.914093017578125,0.386444091796875
1769661640220532700,2.09053271484375,-0.100830078125,0.9159393310546875,0.38238525390625
1769661640230520800,2.100520751953125,-0.106170654296875,0.9140777587890625,0.3801422119140625
1769661640240508700,2.1105087890625,-0.1120452880859375,0.9143524169921875,0.37835693359375
1769661640250496500,2.12049658203125,-0.1150665283203125,0.9111785888671875,0.382415771484375
1769661640260484600,2.130484619140625,-0.1149444580078125,0.90814208984375,0.3842620849609375
1769661640270472700,2.14047265625,-0.1136016845703125,0.9050140380859375,0.382598876953125
1769661640280460500,2.15046044921875,-0.11181640625,0.906524658203125,0.3864593505859375
1769661640290449700,2.16044970703125,-0.1168212890625,0.904876708984375,0.3851165771484375
1769661640300437800,2.170437744140625,-0.125,0.9103240966796875,0.3825225830078125
1769661640310425900,2.18042578125,-0.1302947998046875,0.917205810546875,0.3815460205078125
1769661640320413700,2.19041357421875,-0.1338958740234375,0.919525146484375,0.374847412109375
1769661640330401500,2.200401611328125,-0.1365509033203125,0.91998291015625,0.369354248046875
1769661640340389600,2.2103896484375,-0.134979248046875,0.9193572998046875,0.36865234375
1769661640350377700,2.220377685546875,-0.1349334716796875,0.9123382568359375,0.3671417236328125
1769661640360365600,2.230365478515625,-0.13604736328125,0.9071197509765625,0.370025634765625
1769661640370353700,2.240353759765625,-0.1295013427734375,0.9023590087890625,0.374420166015625
1769661640380341800,2.250341796875,-0.1208648681640625,0.903106689453125,0.3813629150390625
1769661640390329600,2.26032958984375,-0.11651611328125,0.9075164794921875,0.3845062255859375
1769661640400317700,2.270317626953125,-0.122802734375,0.9088897705078125,0.3833465576171875
1769661640410305800,2.280305908203125,-0.12811279296875,0.912139892578125,0.38385009765625
1769661640420294000,2.2902939453125,-0.1289825439453125,0.9124908447265625,0.380706787109375
1769661640430281700,2.30028173828125,-0.12744140625,0.9113006591796875,0.378082275390625
1769661640440269800,2.310269775390625,-0.126800537109375,0.9117584228515625,0.3756256103515625
1769661640450258700,2.3202587890625,-0.127593994140625,0.9135589599609375,0.375946044921875
1769661640460246800,2.330246826171875,-0.1329498291015625,0.9125518798828125,0.376678466796875
1769661640470234600,2.340234619140625,-0.1331634521484375,0.9120941162109375,0.3805694580078125
1769661640480222700,2.35022265625,-0.1260223388671875,0.9098968505859375,0.3833465576171875
1769661640490210800,2.3602109375,-0.1222686767578125,0.908416748046875,0.38470458984375
1769661640500198700,2.37019873046875,-0.12469482421875,0.906585693359375,0.3848724365234375
1769661640510186800,2.380186767578125,-0.131927490234375,0.909027099609375,0.382110595703125
1769661640520174800,2.3901748046875,-0.1415863037109375,0.9093475341796875,0.372406005859375
1769661640530162700,2.40016259765625,-0.1466064453125,0.9087677001953125,0.368316650390625
1769661640540150500,2.410150634765625,-0.144775390625,0.9116668701171875,0.3733062744140625
1769661640550138600,2.420138671875,-0.1356658935546875,0.91192626953125,0.3780059814453125
1769661640560126700,2.430126708984375,-0.1273345947265625,0.908782958984375,0.38262939453125
1769661640570114600,2.440114501953125,-0.12237548828125,0.9089202880859375,0.388153076171875
1769661640580102700,2.4501025390625,-0.1162872314453125,0.9099273681640625,0.3910369873046875
1769661640590090800,2.4600908203125,-0.111907958984375,0.91241455078125,0.3921661376953125
1769661640600080000,2.470079833984375,-0.113677978515625,0.91461181640625,0.3869171142578125
1769661640610067700,2.480067626953125,-0.118621826171875,0.9153594970703125,0.3806915283203125
1769661640620055600,2.4900556640625,-0.124267578125,0.9144744873046875,0.378021240234375
1769661640630043600,2.500043701171875,-0.1267547607421875,0.9143524169921875,0.3772125244140625
1769661640640031700,2.51003173828125,-0.12823486328125,0.913116455078125,0.3758544921875
1769661640650019600,2.52001953125,-0.1305999755859375,0.911407470703125,0.374755859375
1769661640660007700,2.530007568359375,-0.13348388671875,0.911102294921875,0.3747711181640625
1769661640669995800,2.539995849609375,-0.1368560791015625,0.9106903076171875,0.3732452392578125
1769661640679983600,2.549983642578125,-0.13787841796875,0.9130096435546875,0.3712310791015625
1769661640689971700,2.5599716796875,-0.1311798095703125,0.913818359375,0.37164306640625
1769661640699959800,2.569959716796875,-0.1215667724609375,0.9129180908203125,0.37310791015625
1769661640709947600,2.57994775390625,-0.114044189453125,0.9145965576171875,0.3759002685546875
1769661640719935700,2.589935791015625,-0.1119384765625,0.9139556884765625,0.37628173828125
1769661640729923800,2.599923828125,-0.1175079345703125,0.908782958984375,0.37567138671875
1769661640739911700,2.60991162109375,-0.126953125,0.905426025390625,0.37481689453125
1769661640749900800,2.61990087890625,-0.1352386474609375,0.90277099609375,0.374542236328125
1769661640759888600,2.629888671875,-0.141448974609375,0.90106201171875,0.3733673095703125
1769661640769876700,2.639876708984375,-0.14959716796875,0.9058685302734375,0.37982177734375
1769661640779864800,2.64986474609375,-0.12701416015625,0.9152679443359375,0.376312255859375
1769661640789852700,2.659852783203125,-0.0961456298828125,0.9196624755859375,0.370330810546875
1769661640799840800,2.6698408203125,-0.0933074951171875,0.9108123779296875,0.37164306640625
1769661640809828900,2.679828857421875,-0.10552978515625,0.9072418212890625,0.3748016357421875
1769661640819816700,2.689816650390625,-0.1065826416015625,0.9178924560546875,0.3761749267578125
1769661640829804500,2.699804443359375,-0.1109771728515625,0.9213409423828125,0.363922119140625
1769661640839792600,2.709792724609375,-0.1400909423828125,0.89398193359375,0.3602752685546875
1769661640849780700,2.71978076171875,-0.1394195556640625,0.9154510498046875,0.3687896728515625
1769661640859768600,2.7297685546875,-0.1152801513671875,0.9244842529296875,0.366485595703125
1769661640869756700,2.739756591796875,-0.103271484375,0.9175872802734375,0.3686981201171875
1769661640879744800,2.749744873046875,-0.1004486083984375,0.92578125,0.384765625
1769661640889732600,2.759732666015625,-0.0839385986328125,0.938751220703125,0.3944244384765625
1769661640899721700,2.7697216796875,-0.0665283203125,0.9358367919921875,0.381866455078125
1769661640909709600,2.77970947265625,-0.063140869140625,0.929656982421875,0.3743896484375
1769661640919697700,2.78969775390625,-0.0661163330078125,0.92596435546875,0.3841094970703125
1769661640929685500,2.799685546875,-0.0703277587890625,0.914581298828125,0.3897705078125
1769661640939673600,2.809673583984375,-0.0607452392578125,0.9069671630859375,0.3861541748046875
1769661640949661700,2.81966162109375,-0.05267333984375,0.911865234375,0.3906402587890625
1769661640959650600,2.829650634765625,-0.0598297119140625,0.9168548583984375,0.3974609375
1769661640969638700,2.839638671875,-0.0659942626953125,0.9220123291015625,0.391357421875
1769661640979626800,2.849626708984375,-0.0719757080078125,0.9233551025390625,0.3841552734375
1769661640989614600,2.859614501953125,-0.0823822021484375,0.9226226806640625,0.3834991455078125
1769661640999602400,2.8696025390625,-0.0926055908203125,0.9183349609375,0.380706787109375
1769661641009590500,2.879590576171875,-0.100433349609375,0.9139862060546875,0.3784332275390625
1769661641019578600,2.88957861328125,-0.10577392578125,0.9121246337890625,0.3782196044921875
1769661641029566500,2.89956640625,-0.107879638671875,0.9123077392578125,0.38104248046875
1769661641039554600,2.909554443359375,-0.1106109619140625,0.9134063720703125,0.381683349609375
1769661641049543700,2.919543701171875,-0.112213134765625,0.9153289794921875,0.382415771484375
1769661641059531800,2.92953173828125,-0.1090240478515625,0.916259765625,0.3811187744140625
1769661641069519600,2.93951953125,-0.0956878662109375,0.9163360595703125,0.37896728515625
1769661641079507700,2.9495078125,-0.086151123046875,0.9168243408203125,0.3821868896484375
1769661641089495600,2.95949560546875,-0.0800933837890625,0.915252685546875,0.3755950927734375
1769661641099483400,2.9694833984375,-0.0792083740234375,0.910858154296875,0.383575439453125
1769661641109471500,2.979471435546875,-0.08160400390625,0.909820556640625,0.39251708984375
1769661641119459600,2.98945947265625,-0.074859619140625,0.910247802734375,0.389373779296875
1769661641129447400,2.999447509765625,-0.0694427490234375,0.9130401611328125,0.38909912109375
1769661641139435500,3.009435546875,-0.0697479248046875,0.9121551513671875,0.3920440673828125
1769661641149423600,3.019423583984375,-0.0717620849609375,0.912200927734375,0.3922271728515625
1769661641159411700,3.02941162109375,-0.0700531005859375,0.9126129150390625,0.3898773193359375
1769661641169399600,3.039399658203125,-0.075347900390625,0.914886474609375,0.3883056640625
1769661641179387600,3.0493876953125,-0.08123779296875,0.915771484375,0.3832550048828125
1769661641189375700,3.059375732421875,-0.0834503173828125,0.917572021484375,0.3798370361328125
1769661641199363600,3.069363525390625,-0.083251953125,0.9207305908203125,0.373748779296875
1769661641209352400,3.0793525390625,-0.081878662109375,0.9205169677734375,0.3727264404296875
1769661641219340500,3.089340576171875,-0.0794525146484375,0.9170989990234375,0.3722076416015625
1769661641229328600,3.09932861328125,-0.078399658203125,0.916107177734375,0.3751373291015625
1769661641239316500,3.10931640625,-0.076568603515625,0.915985107421875,0.376373291015625
1769661641249304600,3.1193046875,-0.0710906982421875,0.9157257080078125,0.38116455078125
1769661641259292700,3.129292724609375,-0.067779541015625,0.9157562255859375,0.38397216796875
1769661641269280800,3.13928076171875,-0.066986083984375,0.91607666015625,0.3870849609375
1769661641279268600,3.1492685546875,-0.06854248046875,0.916961669921875,0.386444091796875
1769661641289256400,3.15925634765625,-0.0665283203125,0.9190216064453125,0.387481689453125
1769661641299244500,3.16924462890625,-0.0638275146484375,0.9209136962890625,0.3860931396484375
1769661641309232400,3.179232421875,-0.0619049072265625,0.9224090576171875,0.3846893310546875
1769661641319220500,3.189220458984375,-0.0619659423828125,0.92083740234375,0.3814849853515625
1769661641329208600,3.19920849609375,-0.06121826171875,0.9183502197265625,0.380584716796875
1769661641339196700,3.20919677734375,-0.060028076171875,0.916168212890625,0.37933349609375
1769661641349185500,3.219185546875,-0.063720703125,0.908660888671875,0.3774261474609375
1769661641359173600,3.229173583984375,-0.0723114013671875,0.9037933349609375,0.3773956298828125
1769661641369161700,3.23916162109375,-0.0774078369140625,0.9059295654296875,0.37957763671875
1769661641379149600,3.249149658203125,-0.083465576171875,0.91094970703125,0.3807830810546875
1769661641389137400,3.259137451171875,-0.088134765625,0.9109344482421875,0.3782958984375
1769661641399125500,3.26912548828125,-0.0909881591796875,0.9125823974609375,0.3741302490234375
1769661641409113600,3.279113525390625,-0.09234619140625,0.9160614013671875,0.3730316162109375
1769661641419101400,3.289101318359375,-0.0865478515625,0.9216766357421875,0.371124267578125
1769661641429089500,3.299089599609375,-0.085784912109375,0.9237060546875,0.3718414306640625
1769661641439077600,3.30907763671875,-0.0852203369140625,0.9233245849609375,0.37127685546875
1769661641449065700,3.319065673828125,-0.078826904296875,0.923828125,0.370819091796875
1769661641459053600,3.329053466796875,-0.0745697021484375,0.9202728271484375,0.3727569580078125
1769661641469041700,3.339041748046875,-0.0733184814453125,0.9142303466796875,0.3771820068359375
1769661641479029800,3.34902978515625,-0.0715179443359375,0.91290283203125,0.379852294921875
1769661641489018600,3.3590185546875,-0.07177734375,0.9111785888671875,0.380157470703125
1769661641499006500,3.36900634765625,-0.0728912353515625,0.909942626953125,0.3800506591796875
1769661641508994600,3.37899462890625,-0.0695953369140625,0.9138031005859375,0.37890625
1769661641518982700,3.388982666015625,-0.0662841796875,0.9169158935546875,0.3786163330078125
1769661641528970500,3.398970458984375,-0.066558837890625,0.9202117919921875,0.3767242431640625
1769661641538958600,3.40895849609375,-0.066864013671875,0.92041015625,0.3748016357421875
1769661641548946700,3.41894677734375,-0.06829833984375,0.9174041748046875,0.3726043701171875
1769661641558934800,3.428934814453125,-0.068939208984375,0.916748046875,0.373016357421875
1769661641568922600,3.438922607421875,-0.071441650390625,0.9149932861328125,0.37493896484375
1769661641578910500,3.448910400390625,-0.0743560791015625,0.912353515625,0.3787841796875
1769661641588898600,3.458898681640625,-0.0778350830078125,0.91278076171875,0.3810577392578125
1769661641598886400,3.468886474609375,-0.08087158203125,0.9160003662109375,0.3816375732421875
1769661641608874500,3.47887451171875,-0.07861328125,0.9204559326171875,0.3790283203125
1769661641618862600,3.488862548828125,-0.0732574462890625,0.9222259521484375,0.377716064453125
1769661641628850400,3.498850341796875,-0.06671142578125,0.92230224609375,0.3747406005859375
1769661641638839600,3.508839599609375,-0.0611114501953125,0.9205169677734375,0.372833251953125
1769661641648827600,3.51882763671875,-0.0601043701171875,0.9195556640625,0.3766326904296875
1769661641658815700,3.528815673828125,-0.056243896484375,0.917327880859375,0.377166748046875
1769661641668803600,3.538803466796875,-0.057708740234375,0.9199676513671875,0.378875732421875
1769661641678791400,3.54879150390625,-0.0581817626953125,0.9189300537109375,0.3803863525390625
1769661641688779500,3.558779541015625,-0.0551300048828125,0.920166015625,0.380615234375
1769661641698767600,3.568767578125,-0.0536651611328125,0.9224700927734375,0.3846893310546875
1769661641708755500,3.57875537109375,-0.052642822265625,0.9241485595703125,0.3868255615234375
1769661641718743600,3.58874365234375,-0.0502777099609375,0.9279022216796875,0.3861541748046875
1769661641728731600,3.598731689453125,-0.0469207763671875,0.9248809814453125,0.381927490234375
1769661641738719500,3.608719482421875,-0.0459136962890625,0.918121337890625,0.3785247802734375
1769661641748707600,3.61870751953125,-0.0463714599609375,0.913818359375,0.3762054443359375
1769661641758695700,3.62869580078125,-0.0488739013671875,0.9130859375,0.3758544921875
1769661641768683800,3.638683837890625,-0.051025390625,0.914581298828125,0.3732452392578125
1769661641778672600,3.648672607421875,-0.05572509765625,0.91693115234375,0.3690643310546875
1769661641788660500,3.658660400390625,-0.0557403564453125,0.923431396484375,0.369232177734375
1769661641798648600,3.668648681640625,-0.05426025390625,0.9288177490234375,0.370697021484375
1769661641808636700,3.67863671875,-0.0537872314453125,0.9351959228515625,0.3734283447265625
1769661641818624500,3.68862451171875,-0.0523529052734375,0.933563232421875,0.371337890625
1769661641828612600,3.698612548828125,-0.0520172119140625,0.9300689697265625,0.3673858642578125
1769661641838600700,3.7086005859375,-0.0587310791015625,0.9211883544921875,0.3751068115234375
1769661641848588500,3.718588623046875,-0.0551910400390625,0.9135589599609375,0.380126953125
1769661641858576600,3.72857666015625,-0.0506134033203125,0.9132080078125,0.3834381103515625
1769661641868564500,3.738564453125,-0.0527496337890625,0.9160919189453125,0.377044677734375
1769661641878552600,3.748552490234375,-0.055694580078125,0.920166015625,0.3759613037109375
1769661641888540400,3.75854052734375,-0.05322265625,0.926025390625,0.3754425048828125
1769661641898528500,3.768528564453125,-0.049560546875,0.9278564453125,0.3733367919921875
1769661641908516600,3.7785166015625,-0.0446624755859375,0.929412841796875,0.378021240234375
1769661641918505700,3.788505615234375,-0.040283203125,0.930328369140625,0.379638671875
1769661641928493600,3.79849365234375,-0.0397491455078125,0.9249725341796875,0.3787841796875
1769661641938481700,3.808481689453125,-0.0401611328125,0.9167938232421875,0.3836212158203125
1769661641948469800,3.8184697265625,-0.0384368896484375,0.912322998046875,0.387298583984375
1769661641958457000,3.82845703125,-0.0373992919921875,0.90966796875,0.38348388671875
1769661641968445200,3.838445068359375,-0.036102294921875,0.9120635986328125,0.378662109375
1769661641978432800,3.848432861328125,-0.03692626953125,0.9183349609375,0.3759765625
1769661641988420900,3.8584208984375,-0.036285400390625,0.9255523681640625,0.37066650390625
1769661641998409000,3.868408935546875,-0.034576416015625,0.9317626953125,0.36712646484375
1769661642008397000,3.87839697265625,-0.039398193359375,0.931549072265625,0.37115478515625
1769661642018385000,3.888385009765625,-0.0406646728515625,0.927947998046875,0.373870849609375
1769661642028373000,3.898373046875,-0.043182373046875,0.9239654541015625,0.3749542236328125
1769661642038361000,3.908361083984375,-0.0414276123046875,0.9204864501953125,0.3810882568359375
1769661642048349000,3.918348876953125,-0.041015625,0.92376708984375,0.38238525390625
1769661642058338000,3.928338134765625,-0.0392913818359375,0.9234619140625,0.3804779052734375
1769661642068326000,3.938325927734375,-0.0343017578125,0.9218292236328125,0.374359130859375
1769661642078314000,3.94831396484375,-0.0300445556640625,0.9298858642578125,0.3722076416015625
1769661642088301800,3.9583017578125,-0.0326995849609375,0.9243316650390625,0.3620758056640625
1769661642098290000,3.9682900390625,-0.0230560302734375,0.9274139404296875,0.3681640625
1769661642108278000,3.978278076171875,-0.0164031982421875,0.9417266845703125,0.3659515380859375
1769661642118266000,3.98826611328125,-0.017822265625,0.9427337646484375,0.365142822265625
1769661642128254000,3.99825390625,-0.025360107421875,0.9332275390625,0.36553955078125
1769661642138242000,4.008241943359375,-0.0315704345703125,0.9292144775390625,0.3589630126953125
1769661642148230100,4.018230224609375,-0.0321807861328125,0.9226837158203125,0.3594512939453125
1769661642158218000,4.028218017578125,-0.0294036865234375,0.92559814453125,0.3558502197265625
1769661642168206000,4.0382060546875,-0.0254974365234375,0.9288482666015625,0.359405517578125
1769661642178194000,4.04819384765625,-0.0284271240234375,0.9307098388671875,0.3580169677734375
1769661642188181800,4.058181640625,-0.0377044677734375,0.932159423828125,0.362060546875
1769661642198171000,4.0681708984375,-0.03387451171875,0.9296722412109375,0.3611907958984375
1769661642208159000,4.078158935546875,-0.0391082763671875,0.9237060546875,0.3596343994140625
1769661642218147000,4.08814697265625,-0.04443359375,0.9244842529296875,0.3625946044921875
1769661642228135200,4.09813525390625,-0.0435333251953125,0.9234619140625,0.367218017578125
1769661642238123000,4.108123046875,-0.0389862060546875,0.9188079833984375,0.3716583251953125
1769661642248111000,4.118111083984375,-0.0319366455078125,0.920379638671875,0.375244140625
1769661642258099200,4.12809912109375,-0.02886962890625,0.925079345703125,0.3697662353515625
1769661642268086800,4.138086669921875,-0.029022216796875,0.9145660400390625,0.3733062744140625
1769661642278075000,4.148074951171875,-0.01983642578125,0.915252685546875,0.3775787353515625
1769661642288063000,4.15806298828125,-0.0137481689453125,0.9185028076171875,0.378662109375
1769661642298050800,4.16805078125,-0.0088043212890625,0.911346435546875,0.3735809326171875
1769661642308039000,4.178038818359375,-0.012176513671875,0.911834716796875,0.3732452392578125
1769661642318027000,4.188027099609375,-0.01239013671875,0.9197235107421875,0.3681182861328125
1769661642328015000,4.19801513671875,-0.012939453125,0.9210968017578125,0.3637237548828125
1769661642338004200,4.208004150390625,-0.0177764892578125,0.9261016845703125,0.369354248046875
1769661642347992000,4.217991943359375,-0.01898193359375,0.9303436279296875,0.37506103515625
1769661642357980000,4.22797998046875,-0.02191162109375,0.9300994873046875,0.375396728515625
1769661642367968000,4.237968017578125,-0.023712158203125,0.9298095703125,0.371612548828125
1769661642377955800,4.247955810546875,-0.0241546630859375,0.928253173828125,0.368804931640625
1769661642387944000,4.25794384765625,-0.0263824462890625,0.9286651611328125,0.36224365234375
1769661642397932000,4.26793212890625,-0.0229034423828125,0.9317474365234375,0.35516357421875
1769661642407919900,4.277919921875,-0.0216217041015625,0.9282379150390625,0.3548431396484375
1769661642417908000,4.287907958984375,-0.0216522216796875,0.9246978759765625,0.35235595703125
1769661642427896000,4.29789599609375,-0.0239410400390625,0.920318603515625,0.3568572998046875
1769661642437884200,4.30788427734375,-0.024993896484375,0.918701171875,0.3539581298828125
1769661642447872000,4.3178720703125,-0.02374267578125,0.921875,0.35113525390625
1769661642457860000,4.327860107421875,-0.026824951171875,0.924224853515625,0.352691650390625
1769661642467848000,4.337847900390625,-0.0276031494140625,0.9297332763671875,0.354095458984375
1769661642477837000,4.347837158203125,-0.02783203125,0.9286956787109375,0.357208251953125
1769661642487825000,4.357824951171875,-0.0293731689453125,0.9263153076171875,0.358673095703125
1769661642497813000,4.36781298828125,-0.0277557373046875,0.929168701171875,0.369110107421875
1769661642507801000,4.377801025390625,-0.0224761962890625,0.9281005859375,0.3703155517578125
1769661642517789000,4.387788818359375,-0.022857666015625,0.926025390625,0.36907958984375
1769661642527777000,4.397777099609375,-0.0211181640625,0.924835205078125,0.3665924072265625
1769661642537765000,4.40776513671875,-0.017059326171875,0.927947998046875,0.3658294677734375
1769661642547753200,4.417753173828125,-0.011444091796875,0.931671142578125,0.371185302734375
1769661642557740800,4.42774072265625,-0.01092529296875,0.9300079345703125,0.3710174560546875
1769661642567729000,4.43772900390625,-0.014678955078125,0.9279022216796875,0.371246337890625
1769661642577717000,4.447717041015625,-0.015838623046875,0.92437744140625,0.37799072265625
1769661642587704800,4.457704833984375,-0.0161895751953125,0.9200592041015625,0.374420166015625
1769661642597693000,4.46769287109375,-0.016937255859375,0.9160003662109375,0.3701324462890625
1769661642607681000,4.477680908203125,-0.02227783203125,0.9155120849609375,0.3687744140625
1769661642617670100,4.487670166015625,-0.027313232421875,0.9155120849609375,0.3638458251953125
1769661642627658000,4.497657958984375,-0.02557373046875,0.9192962646484375,0.360992431640625
1769661642637646000,4.50764599609375,-0.02655029296875,0.92327880859375,0.361846923828125
1769661642647634000,4.517634033203125,-0.0276031494140625,0.925262451171875,0.3631439208984375
1769661642657622000,4.5276220703125,-0.0268096923828125,0.9284820556640625,0.3648834228515625
1769661642667609900,4.53760986328125,-0.02374267578125,0.9282379150390625,0.3700103759765625
1769661642677598000,4.547597900390625,-0.020050048828125,0.92724609375,0.3731842041015625
1769661642687586000,4.5575859375,-0.0163421630859375,0.9268951416015625,0.3746490478515625
1769661642697574000,4.567573974609375,-0.0152130126953125,0.92529296875,0.378204345703125
1769661642707562000,4.57756201171875,-0.015167236328125,0.9244842529296875,0.3766632080078125
1769661642717550000,4.587550048828125,-0.0157623291015625,0.923980712890625,0.3751068115234375
1769661642727538200,4.5975380859375,-0.0164947509765625,0.9230499267578125,0.3728179931640625
1769661642737526000,4.607526123046875,-0.01580810546875,0.9214019775390625,0.3693389892578125
1769661642747514000,4.61751416015625,-0.01422119140625,0.9221954345703125,0.3679351806640625
1769661642757503000,4.6275029296875,-0.016021728515625,0.92266845703125,0.3662567138671875
1769661642767491000,4.637490966796875,-0.0159912109375,0.9243316650390625,0.3636474609375
1769661642777479000,4.64747900390625,-0.0170745849609375,0.9252471923828125,0.3635101318359375
1769661642787467000,4.657467041015625,-0.018768310546875,0.9249420166015625,0.3660125732421875
1769661642797455000,4.667455078125,-0.018798828125,0.923309326171875,0.3698577880859375
1769661642807443000,4.67744287109375,-0.0219879150390625,0.9228057861328125,0.3740386962890625
1769661642817431000,4.68743115234375,-0.0216064453125,0.9203338623046875,0.37432861328125
1769661642827419100,4.697419189453125,-0.024444580078125,0.91796875,0.3754730224609375
1769661642837407200,4.7074072265625,-0.0277252197265625,0.9216156005859375,0.381011962890625
1769661642847394800,4.717394775390625,-0.0265960693359375,0.9221649169921875,0.379058837890625
1769661642857383000,4.7273828125,-0.0273284912109375,0.921630859375,0.37420654296875
1769661642867371000,4.73737109375,-0.02935791015625,0.9162139892578125,0.3715057373046875
1769661642877358800,4.74735888671875,-0.02679443359375,0.9154052734375,0.3730316162109375
1769661642887348000,4.757347900390625,-0.0158843994140625,0.9194488525390625,0.3729400634765625
1769661642897336000,4.767336181640625,-0.0121307373046875,0.9227752685546875,0.3725738525390625
1769661642907324200,4.77732421875,-0.0117034912109375,0.924591064453125,0.3728790283203125
1769661642917312000,4.78731201171875,-0.010223388671875,0.92852783203125,0.3760528564453125
1769661642927300000,4.797300048828125,-0.0087738037109375,0.9319915771484375,0.3775634765625
1769661642937288000,4.807287841796875,-0.008758544921875,0.932525634765625,0.378814697265625
1769661642947275800,4.81727587890625,-0.0139312744140625,0.9267120361328125,0.3766632080078125
1769661642957264600,4.8272646484375,-0.0154266357421875,0.92205810546875,0.37628173828125
1769661642967252700,4.837252685546875,-0.01513671875,0.9209747314453125,0.3773040771484375
1769661642977240800,4.84724072265625,-0.0160980224609375,0.9185638427734375,0.37493896484375
1769661642987228700,4.857228759765625,-0.02044677734375,0.915618896484375,0.37347412109375
1769661642997216800,4.867216796875,-0.0207672119140625,0.915435791015625,0.370330810546875
1769661643007204900,4.877204833984375,-0.020263671875,0.9174041748046875,0.3665618896484375
1769661643017193700,4.88719384765625,-0.0168914794921875,0.9229583740234375,0.36590576171875
1769661643027181600,4.897181640625,-0.0181427001953125,0.9273681640625,0.3656005859375
1769661643037169700,4.907169677734375,-0.0163116455078125,0.92913818359375,0.3653106689453125
1769661643047157800,4.91715771484375,-0.0107879638671875,0.93310546875,0.365447998046875
1769661643057145600,4.9271455078125,-0.0099639892578125,0.93408203125,0.366607666015625
1769661643067133700,4.9371337890625,-0.0114898681640625,0.9339752197265625,0.369903564453125
1769661643077121800,4.947121826171875,-0.011566162109375,0.932891845703125,0.374664306640625
1769661643087110000,4.95710986328125,-0.0111083984375,0.930511474609375,0.3785247802734375
1769661643097097700,4.96709765625,-0.0119171142578125,0.92449951171875,0.3792266845703125
1769661643107085800,4.9770859375,-0.0104522705078125,0.9224090576171875,0.3794403076171875
1769661643117073700,4.98707373046875,-0.011566162109375,0.9228515625,0.3768157958984375
1769661643127061500,4.9970615234375,-0.010894775390625,0.923583984375,0.3733978271484375
1769661643137049600,5.007049560546875,-0.01153564453125,0.92291259765625,0.373443603515625
1769661643147037700,5.01703759765625,-0.0115966796875,0.922576904296875,0.37261962890625
1769661643157026800,5.02702685546875,-0.010589599609375,0.922088623046875,0.3705596923828125
1769661643167014700,5.0370146484375,-0.013336181640625,0.92169189453125,0.3727874755859375
1769661643177002800,5.047002685546875,-0.011810302734375,0.9210052490234375,0.3727569580078125
1769661643186990800,5.056990966796875,-0.008941650390625,0.920684814453125,0.3750457763671875
1769661643196978700,5.066978759765625,-0.010223388671875,0.92138671875,0.3767852783203125
1769661643206966500,5.076966552734375,-0.0108489990234375,0.9226837158203125,0.3762359619140625
1769661643216954600,5.08695458984375,-0.011810302734375,0.9246063232421875,0.3758544921875
1769661643226942700,5.096942626953125,-0.0113067626953125,0.92474365234375,0.3751373291015625
1769661643236930600,5.1069306640625,-0.01202392578125,0.922088623046875,0.3751373291015625
1769661643246918700,5.116918701171875,-0.0118865966796875,0.9217071533203125,0.3738250732421875
1769661643256906800,5.12690673828125,-0.01336669921875,0.9206695556640625,0.37615966796875
1769661643266894800,5.136894775390625,-0.01568603515625,0.918975830078125,0.375457763671875
1769661643276882700,5.146882568359375,-0.013763427734375,0.9195098876953125,0.3718109130859375
1769661643286871600,5.15687158203125,-0.012786865234375,0.920257568359375,0.3721466064453125
1769661643296859600,5.166859619140625,-0.010467529296875,0.92034912109375,0.370147705078125
1769661643306847700,5.17684765625,-0.012115478515625,0.920928955078125,0.3725433349609375
1769661643316835600,5.186835693359375,-0.0117340087890625,0.92401123046875,0.3703155517578125
1769661643326823700,5.19682373046875,-0.011505126953125,0.9233551025390625,0.3704681396484375
1769661643336811800,5.206811767578125,-0.0115814208984375,0.9235382080078125,0.3708343505859375
1769661643346799600,5.216799560546875,-0.01171875,0.9246673583984375,0.368804931640625
1769661643356787700,5.22678759765625,-0.01068115234375,0.920654296875,0.36846923828125
1769661643366775800,5.23677587890625,-0.0108642578125,0.9182586669921875,0.36907958984375
1769661643376764000,5.246763916015625,-0.011016845703125,0.91925048828125,0.370208740234375
1769661643386751700,5.256751708984375,-0.011383056640625,0.91888427734375,0.3684539794921875
1769661643396739800,5.26673974609375,-0.014129638671875,0.918060302734375,0.3675994873046875
1769661643406727700,5.276727783203125,-0.0147247314453125,0.918365478515625,0.370086669921875
1769661643416715500,5.286715576171875,-0.0108642578125,0.9207763671875,0.3731536865234375
1769661643426704600,5.29670458984375,-0.0113067626953125,0.924163818359375,0.37274169921875
1769661643436692700,5.306692626953125,-0.0125732421875,0.9266510009765625,0.37548828125
1769661643446680800,5.316680908203125,-0.011993408203125,0.9271697998046875,0.375762939453125
1769661643456668700,5.326668701171875,-0.01019287109375,0.925048828125,0.3747711181640625
1769661643466656800,5.33665673828125,-0.01116943359375,0.9207916259765625,0.3741455078125
1769661643476644900,5.346644775390625,-0.012603759765625,0.9185333251953125,0.37408447265625
1769661643486632700,5.3566328125,-0.012725830078125,0.9186553955078125,0.375
1769661643496620500,5.36662060546875,-0.0131683349609375,0.9205322265625,0.377685546875
1769661643506608600,5.376608642578125,-0.01104736328125,0.9221649169921875,0.3784332275390625
1769661643516596700,5.3865966796875,-0.0076751708984375,0.9253082275390625,0.378814697265625
1769661643526584600,5.39658447265625,-0.0040435791015625,0.9242706298828125,0.379119873046875
1769661643536572700,5.40657275390625,-0.0011138916015625,0.9251861572265625,0.3770599365234375
1769661643546560800,5.416560791015625,-0.0032501220703125,0.9268035888671875,0.3751678466796875
1769661643556550000,5.4265498046875,-0.00750732421875,0.9272308349609375,0.3740234375
1769661643566537700,5.436537841796875,-0.0088958740234375,0.922698974609375,0.370361328125
1769661643576525600,5.446525634765625,-0.0061187744140625,0.9206695556640625,0.368316650390625
1769661643586513700,5.456513671875,-0.004364013671875,0.92333984375,0.367431640625
1769661643596501500,5.46650146484375,-0.00469970703125,0.9252166748046875,0.369354248046875
1769661643606489600,5.476489501953125,-0.00347900390625,0.9255828857421875,0.3723602294921875
1769661643616477700,5.486477783203125,-0.0025634765625,0.9265289306640625,0.372772216796875
1769661643626465800,5.4964658203125,-0.0035400390625,0.926910400390625,0.3750762939453125
1769661643636453600,5.50645361328125,-0.00439453125,0.9243927001953125,0.3746337890625
1769661643646441700,5.516441650390625,-0.0022430419921875,0.925994873046875,0.374114990234375
1769661643656429800,5.526429931640625,-0.0045166015625,0.9257354736328125,0.3731536865234375
1769661643666417700,5.536417724609375,-0.005889892578125,0.920684814453125,0.3748321533203125
1769661643676405800,5.54640576171875,-0.006500244140625,0.9193878173828125,0.374908447265625
1769661643686394600,5.55639453125,-0.00091552734375,0.9178924560546875,0.3751068115234375
1769661643696382700,5.5663828125,0.0025787353515625,0.9196929931640625,0.374969482421875
1769661643706370600,5.57637060546875,0.000762939453125,0.925048828125,0.3767242431640625
1769661643716358700,5.586358642578125,-0.00103759765625,0.929046630859375,0.3773193359375
1769661643726346800,5.5963466796875,-0.000396728515625,0.9264678955078125,0.3790435791015625
1769661643736334800,5.6063349609375,0.0031585693359375,0.92523193359375,0.3769378662109375
1769661643746322700,5.61632275390625,0.0035247802734375,0.9246063232421875,0.3755950927734375
1769661643756310800,5.626310791015625,0.000152587890625,0.92388916015625,0.376220703125
1769661643766299000,5.636298828125,-0.0010833740234375,0.9245147705078125,0.3762969970703125
1769661643776286700,5.64628662109375,-0.0030670166015625,0.9233856201171875,0.3753204345703125
1769661643786274600,5.656274658203125,-0.002593994140625,0.9242095947265625,0.376251220703125
1769661643796262700,5.6662626953125,-0.0057373046875,0.9266510009765625,0.3778228759765625
1769661643806250800,5.676250732421875,-0.007720947265625,0.923858642578125,0.3762054443359375
1769661643816239600,5.686239501953125,-0.009918212890625,0.9232940673828125,0.376800537109375
1769661643826227700,5.696227783203125,-0.0083770751953125,0.92327880859375,0.3763427734375
1769661643836215800,5.7062158203125,-0.004852294921875,0.9236602783203125,0.3750762939453125
1769661643846204000,5.716203857421875,-0.00189208984375,0.923126220703125,0.3729705810546875
1769661643856191700,5.726191650390625,0.0000762939453125,0.922607421875,0.3713836669921875
1769661643866179600,5.7361796875,0.0009613037109375,0.9247589111328125,0.3706512451171875
1769661643876167700,5.746167724609375,0.000457763671875,0.927490234375,0.3710174560546875
1769661643886155500,5.756155517578125,0.00048828125,0.928070068359375,0.3715362548828125
1769661643896143600,5.7661435546875,0.0009002685546875,0.92572021484375,0.3712310791015625
1769661643906131700,5.776131591796875,0.000213623046875,0.9229583740234375,0.3702239990234375
1769661643916119800,5.786119873046875,0.0004119873046875,0.9225921630859375,0.368865966796875
1769661643926107600,5.796107666015625,-0.0006866455078125,0.9208984375,0.370513916015625
1769661643936095700,5.806095703125,-0.0027008056640625,0.9213714599609375,0.371673583984375
1769661643946084900,5.8160849609375,-0.003631591796875,0.92279052734375,0.3725433349609375
1769661643956072700,5.82607275390625,-0.0048980712890625,0.9235687255859375,0.375579833984375
1769661643966060300,5.836060302734375,-0.003509521484375,0.9246826171875,0.3787078857421875
1769661643976048400,5.84604833984375,0.0010833740234375,0.92486572265625,0.37890625
1769661643986036200,5.8560361328125,0.0009613037109375,0.9219207763671875,0.37823486328125
1769661643996024300,5.8660244140625,0.0024566650390625,0.9184112548828125,0.378692626953125
1769661644006012400,5.876012451171875,0.00164794921875,0.91925048828125,0.377532958984375
1769661644016000300,5.886000244140625,-0.0003662109375,0.91827392578125,0.3774871826171875
1769661644025988400,5.89598828125,-0.000701904296875,0.9180145263671875,0.3736724853515625
1769661644035976400,5.9059765625,-0.0012664794921875,0.920623779296875,0.373992919921875
1769661644045964500,5.915964599609375,-0.0015106201171875,0.922698974609375,0.37353515625
1769661644055952400,5.925952392578125,-0.0026702880859375,0.9214935302734375,0.37255859375
1769661644065940500,5.9359404296875,-0.00555419921875,0.922027587890625,0.3726043701171875
1769661644075929300,5.945929443359375,-0.0045928955078125,0.92291259765625,0.372222900390625
1769661644085917400,5.95591748046875,-0.00469970703125,0.9218902587890625,0.3715667724609375
1769661644095905300,5.9659052734375,-0.005859375,0.9212646484375,0.37298583984375
1769661644105893400,5.975893310546875,-0.0059967041015625,0.9215850830078125,0.371368408203125
1769661644115881500,5.985881591796875,-0.0059051513671875,0.92083740234375,0.37188720703125
1769661644125869300,5.995869384765625,-0.002410888671875,0.92462158203125,0.3744354248046875
1769661644135857400,6.005857421875,0.0018157958984375,0.9270782470703125,0.3748626708984375
1769661644145845500,6.015845458984375,0.004547119140625,0.9279632568359375,0.3762359619140625
1769661644155833600,6.02583349609375,0.004425048828125,0.9266815185546875,0.37506103515625
1769661644165821400,6.035821533203125,0.0039825439453125,0.926025390625,0.37353515625
1769661644175809300,6.045809326171875,0.004852294921875,0.9251861572265625,0.37249755859375
1769661644185797400,6.05579736328125,0.006317138671875,0.9220123291015625,0.3719329833984375
1769661644195786500,6.065786376953125,0.004913330078125,0.9212493896484375,0.3726348876953125
1769661644205774300,6.0757744140625,0.00286865234375,0.9223175048828125,0.3744659423828125
1769661644215762400,6.085762451171875,0.001220703125,0.9224853515625,0.3738861083984375
1769661644225750500,6.09575048828125,0.000701904296875,0.92303466796875,0.374267578125
1769661644235738400,6.10573828125,-0.0007781982421875,0.92431640625,0.371429443359375
1769661644245726500,6.1157265625,-0.000823974609375,0.9229583740234375,0.3702545166015625
1769661644255714300,6.12571435546875,-0.000152587890625,0.9224090576171875,0.3692169189453125
1769661644265702400,6.135702392578125,0.0026092529296875,0.922088623046875,0.369232177734375
1769661644275690200,6.145690185546875,0.00372314453125,0.9221343994140625,0.3708648681640625
1769661644285678300,6.15567822265625,0.00372314453125,0.92254638671875,0.36968994140625
1769661644295666400,6.16566650390625,0.002716064453125,0.9245452880859375,0.371185302734375
1769661644305654300,6.175654296875,0.0030517578125,0.925567626953125,0.372833251953125
1769661644315642400,6.185642333984375,0.0020904541015625,0.9267730712890625,0.37384033203125
1769661644325631500,6.195631591796875,0.0016021728515625,0.927947998046875,0.3738555908203125
1769661644335619300,6.205619384765625,0.001373291015625,0.9268951416015625,0.3732757568359375
1769661644345607200,6.215607177734375,0.003173828125,0.9286651611328125,0.373321533203125
1769661644355595300,6.22559521484375,0.0006561279296875,0.9252166748046875,0.373077392578125
1769661644365583400,6.235583251953125,-0.000823974609375,0.9208984375,0.3723602294921875
1769661644375571200,6.2455712890625,-0.00067138671875,0.9192047119140625,0.37152099609375
1769661644385559300,6.255559326171875,0.0023345947265625,0.9176788330078125,0.3703155517578125
1769661644395547400,6.26554736328125,0.00244140625,0.9196014404296875,0.369171142578125
1769661644405535500,6.275535400390625,0.0019989013671875,0.9222412109375,0.3690643310546875
1769661644415523300,6.2855234375,0.001708984375,0.925140380859375,0.3701629638671875
1769661644425511400,6.295511474609375,-0.0005645751953125,0.9277496337890625,0.3721466064453125
1769661644435499500,6.30549951171875,-0.0013885498046875,0.9261627197265625,0.374053955078125
1769661644445487400,6.3154873046875,-0.001312255859375,0.923309326171875,0.3735198974609375
1769661644455476200,6.325476318359375,0.0010223388671875,0.923431396484375,0.37371826171875
1769661644465464300,6.33546435546875,0.0041351318359375,0.921142578125,0.371978759765625
1769661644475452400,6.345452392578125,0.0025482177734375,0.919281005859375,0.3702850341796875
1769661644485440300,6.355440185546875,0.0034027099609375,0.9198760986328125,0.3703155517578125
1769661644495428400,6.365428466796875,0.004974365234375,0.919281005859375,0.368988037109375
1769661644505416400,6.37541650390625,0.0066375732421875,0.924041748046875,0.3691864013671875
1769661644515404500,6.385404541015625,0.0012359619140625,0.9276275634765625,0.37103271484375
1769661644525392400,6.395392333984375,-0.002105712890625,0.9297027587890625,0.3738250732421875
1769661644535380500,6.40538037109375,0.00048828125,0.930267333984375,0.3758392333984375
1769661644545368300,6.415368408203125,0.0036773681640625,0.9296417236328125,0.372589111328125
1769661644555356200,6.425356201171875,0.005035400390625,0.9285736083984375,0.3722686767578125
1769661644565344300,6.43534423828125,0.0055389404296875,0.926666259765625,0.369598388671875
1769661644575332400,6.445332275390625,0.0043487548828125,0.925689697265625,0.3672332763671875
1769661644585321500,6.455321533203125,0.00390625,0.9230804443359375,0.365753173828125
1769661644595309300,6.465309326171875,0.0050201416015625,0.925140380859375,0.3650054931640625
1769661644605297400,6.47529736328125,0.00341796875,0.9267578125,0.3673858642578125
1769661644615285500,6.485285400390625,0.00018310546875,0.9263153076171875,0.3688812255859375
1769661644625273300,6.4952734375,0.0000457763671875,0.9290771484375,0.3719940185546875
1769661644635261200,6.50526123046875,0.002593994140625,0.931671142578125,0.370391845703125
1769661644645249300,6.515249267578125,0.0030670166015625,0.931488037109375,0.3704071044921875
1769661644655237400,6.5252373046875,0.0029754638671875,0.92657470703125,0.369598388671875
1769661644665225200,6.53522509765625,0.0079345703125,0.9265899658203125,0.371795654296875
1769661644675213300,6.54521337890625,0.010498046875,0.92742919921875,0.3719329833984375
1769661644685201400,6.555201416015625,0.0112762451171875,0.9276580810546875,0.3715972900390625
1769661644695189500,6.565189453125,0.0095672607421875,0.9292755126953125,0.3729248046875
1769661644705178400,6.575178466796875,0.00653076171875,0.927337646484375,0.3736114501953125
1769661644715166200,6.585166259765625,0.0058441162109375,0.9239959716796875,0.3743743896484375
1769661644725154300,6.595154296875,0.0086822509765625,0.922760009765625,0.3728179931640625
1769661644735142400,6.605142333984375,0.0102081298828125,0.921234130859375,0.372283935546875
1769661644745130200,6.615130126953125,0.008697509765625,0.92266845703125,0.370849609375
1769661644755118300,6.625118408203125,0.00555419921875,0.9269256591796875,0.3699798583984375
1769661644765106400,6.6351064453125,0.0007171630859375,0.9284820556640625,0.3686981201171875
1769661644775094300,6.64509423828125,0.0008544921875,0.9285125732421875,0.369415283203125
1769661644785082400,6.655082275390625,0.0012054443359375,0.9299774169921875,0.37274169921875
1769661644795070500,6.665070556640625,0.0016937255859375,0.9300537109375,0.3715667724609375
1769661644805058600,6.67505859375,0.001007080078125,0.927825927734375,0.371612548828125
1769661644815046400,6.68504638671875,0.0015411376953125,0.9279327392578125,0.372100830078125
1769661644825034500,6.695034423828125,0.00244140625,0.926666259765625,0.3726654052734375
1769661644835023400,6.7050234375,-0.001312255859375,0.925323486328125,0.3713836669921875
1769661644845011500,6.715011474609375,-0.003753662109375,0.9272308349609375,0.3696441650390625
1769661644854999300,6.724999267578125,-0.000274658203125,0.93304443359375,0.3681488037109375
1769661644864987400,6.7349873046875,0.00946044921875,0.9379730224609375,0.3735809326171875
1769661644874975500,6.7449755859375,-0.00701904296875,0.9134674072265625,0.360504150390625
1769661644884963300,6.75496337890625,-0.0199737548828125,0.9122161865234375,0.362396240234375
1769661644894951400,6.764951416015625,-0.00537109375,0.9174957275390625,0.3641357421875
1769661644904939500,6.774939453125,0.0085906982421875,0.922271728515625,0.3649749755859375
1769661644914927400,6.78492724609375,0.0057373046875,0.924835205078125,0.3704986572265625
1769661644924915200,6.794915283203125,-0.0005950927734375,0.9244384765625,0.3696441650390625
1769661644934903300,6.8049033203125,0.00067138671875,0.9268951416015625,0.3717193603515625
1769661644944891400,6.814891357421875,0.0056610107421875,0.925018310546875,0.3718414306640625
1769661644954880500,6.824880615234375,0.007904052734375,0.92333984375,0.3715667724609375
1769661644964868600,6.83486865234375,0.00897216796875,0.924041748046875,0.3718414306640625
1769661644974856700,6.844856689453125,0.0078887939453125,0.925079345703125,0.3724822998046875
1769661644984844800,6.8548447265625,-0.000030517578125,0.9225616455078125,0.3689117431640625
1769661644994832600,6.86483251953125,-0.003753662109375,0.923858642578125,0.369720458984375
1769661645004820500,6.874820556640625,-0.0034637451171875,0.92559814453125,0.370208740234375
1769661645014808600,6.88480859375,-0.0041656494140625,0.9261016845703125,0.3719024658203125
1769661645024796400,6.89479638671875,-0.001861572265625,0.925567626953125,0.3709259033203125
1769661645034784500,6.904784423828125,-0.0028228759765625,0.92529296875,0.3700714111328125
1769661645044772600,6.914772705078125,-0.0037078857421875,0.9246978759765625,0.3715972900390625
1769661645054760700,6.9247607421875,-0.0039825439453125,0.9253692626953125,0.3725738525390625
1769661645064748500,6.93474853515625,0.0026397705078125,0.9301605224609375,0.37396240234375
1769661645074736600,6.944736572265625,0.0045013427734375,0.92742919921875,0.373443603515625
1769661645084725500,6.9547255859375,-0.0041656494140625,0.9201507568359375,0.3704681396484375
1769661645094713600,6.964713623046875,-0.00653076171875,0.9147796630859375,0.36956787109375
1769661645104701400,6.974701416015625,-0.000640869140625,0.915985107421875,0.366729736328125
1769661645114689500,6.984689453125,-0.0009002685546875,0.920257568359375,0.36883544921875
1769661645124677600,6.994677734375,-0.0036163330078125,0.9213714599609375,0.369049072265625
1769661645134665500,7.00466552734375,-0.0070953369140625,0.92181396484375,0.366729736328125
1769661645144653600,7.014653564453125,-0.012451171875,0.925140380859375,0.3673248291015625
1769661645154641700,7.0246416015625,-0.0093231201171875,0.926513671875,0.3685150146484375
1769661645164629500,7.03462939453125,-0.0057525634765625,0.9277496337890625,0.3696136474609375
1769661645174617600,7.04461767578125,-0.0064239501953125,0.9281158447265625,0.37158203125
1769661645184605700,7.054605712890625,-0.0005950927734375,0.9319915771484375,0.374237060546875
1769661645194593800,7.06459375,0.0005340576171875,0.927886962890625,0.3747100830078125
1769661645204582700,7.074582763671875,-0.0045013427734375,0.9203033447265625,0.3702239990234375
1769661645214570500,7.084570556640625,-0.0031280517578125,0.917877197265625,0.3650665283203125
1769661645224558600,7.09455859375,0.003021240234375,0.921783447265625,0.36376953125
1769661645234546700,7.104546630859375,0.0020599365234375,0.921966552734375,0.366058349609375
1769661645244534500,7.114534423828125,-0.001861572265625,0.91961669921875,0.3695220947265625
1769661645254522600,7.124522705078125,-0.0041046142578125,0.9177093505859375,0.3699951171875
1769661645264510700,7.1345107421875,-0.002655029296875,0.9210662841796875,0.3710784912109375
1769661645274498600,7.14449853515625,-0.00042724609375,0.9220123291015625,0.370574951171875
1769661645284486700,7.154486572265625,-0.0042877197265625,0.9215087890625,0.3697967529296875
1769661645294474500,7.164474609375,-0.0086822509765625,0.9256744384765625,0.3720703125
1769661645304462600,7.174462646484375,-0.00726318359375,0.9284515380859375,0.3690948486328125
1769661645314450400,7.184450439453125,-0.0078582763671875,0.928955078125,0.3686370849609375
1769661645324438500,7.1944384765625,-0.0055694580078125,0.928619384765625,0.3697509765625
1769661645334427600,7.204427734375,-0.0023040771484375,0.9312591552734375,0.3729400634765625
1769661645344415700,7.214415771484375,-0.0006561279296875,0.930023193359375,0.373809814453125
1769661645354403600,7.224403564453125,0.0004730224609375,0.92779541015625,0.3744049072265625
1769661645364391700,7.2343916015625,0.0026092529296875,0.9252777099609375,0.374267578125
1769661645374379500,7.244379638671875,0.0064239501953125,0.920501708984375,0.3698577880859375
1769661645384367400,7.254367431640625,0.009552001953125,0.9257965087890625,0.36920166015625
1769661645394355500,7.26435546875,0.003570556640625,0.922760009765625,0.36962890625
1769661645404343600,7.274343505859375,-0.009246826171875,0.91802978515625,0.3656005859375
1769661645414331600,7.28433154296875,-0.0078277587890625,0.9249267578125,0.3677520751953125
1769661645424319500,7.294319580078125,-0.0043792724609375,0.9276885986328125,0.368133544921875
1769661645434307600,7.3043076171875,-0.005950927734375,0.9251556396484375,0.3697967529296875
1769661645444295700,7.314295654296875,-0.006072998046875,0.9250335693359375,0.369537353515625
1769661645454284500,7.324284423828125,-0.0043792724609375,0.92926025390625,0.3690338134765625
1769661645464272400,7.3342724609375,0.0006256103515625,0.936737060546875,0.368682861328125
1769661645474260500,7.344260498046875,0.00054931640625,0.9336090087890625,0.36773681640625
1769661645484248600,7.35424853515625,-0.0060882568359375,0.930267333984375,0.366607666015625
1769661645494236400,7.364236328125,-0.0036773681640625,0.93035888671875,0.3659820556640625
1769661645504224500,7.374224609375,-0.000244140625,0.92681884765625,0.3646087646484375
1769661645514212600,7.384212646484375,0.001007080078125,0.9246978759765625,0.3622894287109375
1769661645524200700,7.39420068359375,-0.0013580322265625,0.92327880859375,0.36309814453125
1769661645534188500,7.4041884765625,-0.000946044921875,0.9191436767578125,0.3612213134765625
1769661645544176600,7.4141767578125,0.0007781982421875,0.9165496826171875,0.3602294921875
1769661645554164700,7.424164794921875,0.000762939453125,0.92022705078125,0.3634033203125
1769661645564152600,7.434152587890625,-0.001434326171875,0.9221038818359375,0.3662109375
1769661645574140700,7.444140625,-0.0011138916015625,0.92596435546875,0.367919921875
1769661645584129500,7.454129638671875,-0.001251220703125,0.9290008544921875,0.37054443359375
1769661645594117600,7.46411767578125,0.00146484375,0.9290618896484375,0.3700103759765625
1769661645604105500,7.47410546875,0.0027923583984375,0.9301300048828125,0.3711700439453125
1769661645614093600,7.484093505859375,0.004608154296875,0.9332733154296875,0.3712310791015625
1769661645624081700,7.49408154296875,0.004547119140625,0.9341278076171875,0.3703460693359375
1769661645634069800,7.50406982421875,-0.0024871826171875,0.9281158447265625,0.369842529296875
1769661645644057600,7.5140576171875,-0.00531005859375,0.9239501953125,0.3675537109375
1769661645654045700,7.524045654296875,-0.0023956298828125,0.919830322265625,0.3680267333984375
1769661645664033500,7.534033447265625,-0.00213623046875,0.915802001953125,0.365478515625
1769661645674021400,7.544021484375,-0.0027618408203125,0.91619873046875,0.3624725341796875
1769661645684009500,7.554009521484375,0.0006103515625,0.9216461181640625,0.3638153076171875
1769661645693997600,7.56399755859375,0.003753662109375,0.9263458251953125,0.3638458251953125
1769661645703986700,7.573986572265625,0.0026702880859375,0.9268341064453125,0.36669921875
1769661645713974500,7.583974609375,0.00518798828125,0.925506591796875,0.367523193359375
1769661645723962600,7.593962646484375,0.0064544677734375,0.9261932373046875,0.3690643310546875
1769661645733950700,7.60395068359375,0.008331298828125,0.926116943359375,0.370361328125
1769661645743938600,7.6139384765625,0.007843017578125,0.9272918701171875,0.372039794921875
1769661645753926400,7.623926513671875,0.0058135986328125,0.928131103515625,0.3725128173828125
1769661645763914500,7.63391455078125,0.0047454833984375,0.9261474609375,0.3716888427734375
1769661645773902600,7.643902587890625,0.00482177734375,0.9256744384765625,0.36895751953125
1769661645783890400,7.653890380859375,0.0059051513671875,0.925567626953125,0.3655853271484375
1769661645793878500,7.66387841796875,0.00408935546875,0.925933837890625,0.365203857421875
1769661645803866600,7.67386669921875,0.0031890869140625,0.9259796142578125,0.3642120361328125
1769661645813854700,7.683854736328125,0.0030670166015625,0.927520751953125,0.3639984130859375
1769661645823842600,7.693842529296875,0.004241943359375,0.9280548095703125,0.36309814453125
1769661645833831400,7.70383154296875,0.00909423828125,0.92999267578125,0.3645782470703125
1769661645843819500,7.713819580078125,0.0047607421875,0.9249114990234375,0.365875244140625
1769661645853807600,7.7238076171875,-0.001922607421875,0.9241485595703125,0.366943359375
1769661645863795500,7.73379541015625,0.0006103515625,0.922271728515625,0.36712646484375
1769661645873783600,7.743783447265625,0.004486083984375,0.9228515625,0.3651580810546875
1769661645883771600,7.753771728515625,0.004791259765625,0.9206390380859375,0.368133544921875
1769661645893759500,7.763759521484375,0.0034332275390625,0.921539306640625,0.3663787841796875
1769661645903747600,7.77374755859375,0.0020751953125,0.92230224609375,0.3656463623046875
1769661645913735700,7.783735595703125,0.0032958984375,0.9240875244140625,0.366302490234375
1769661645923723500,7.7937236328125,0.006317138671875,0.929595947265625,0.3640899658203125
1769661645933711600,7.803711669921875,0.010345458984375,0.935821533203125,0.3679046630859375
1769661645943699700,7.81369970703125,0.0036773681640625,0.9306640625,0.3668975830078125
1769661645953688600,7.8236884765625,-0.0062103271484375,0.9236602783203125,0.3648223876953125
1769661645963676400,7.833676513671875,-0.00299072265625,0.9204559326171875,0.36322021484375
1769661645973664500,7.84366455078125,0.005157470703125,0.9144134521484375,0.363189697265625
1769661645983652400,7.85365234375,0.0048675537109375,0.914764404296875,0.3615570068359375
1769661645993640400,7.863640380859375,0.0050506591796875,0.92010498046875,0.36346435546875
1769661646003628500,7.873628662109375,0.0079193115234375,0.92205810546875,0.3623809814453125
1769661646013616600,7.88361669921875,0.0053253173828125,0.9223175048828125,0.3646392822265625
1769661646023604500,7.8936044921875,0.00634765625,0.9229736328125,0.3670196533203125
1769661646033592600,7.903592529296875,0.011932373046875,0.9215850830078125,0.368438720703125
1769661646043580400,7.913580322265625,0.0116119384765625,0.92132568359375,0.3701019287109375
1769661646053568300,7.923568359375,0.0094757080078125,0.924774169921875,0.3695068359375
1769661646063556400,7.933556396484375,0.0102996826171875,0.929107666015625,0.367095947265625
1769661646073545500,7.94354541015625,0.0074462890625,0.929656982421875,0.366302490234375
1769661646083533600,7.953533447265625,0.0059967041015625,0.9319915771484375,0.3659210205078125
1769661646093521400,7.963521484375,0.0059051513671875,0.939056396484375,0.369476318359375
1769661646103509500,7.973509521484375,0.0087738037109375,0.9339752197265625,0.3659820556640625
1769661646113497600,7.98349755859375,0.0109405517578125,0.932159423828125,0.3661956787109375
1769661646123485400,7.9934853515625,0.0132293701171875,0.9293365478515625,0.363494873046875
1769661646133473300,8.003473388671875,0.0165557861328125,0.925506591796875,0.3643035888671875
1769661646143461400,8.01346142578125,0.01580810546875,0.92242431640625,0.364776611328125
1769661646153449500,8.023449462890625,0.01007080078125,0.9203338623046875,0.365203857421875
1769661646163437300,8.033437255859376,0.0063629150390625,0.91986083984375,0.36407470703125
1769661646173425400,8.04342529296875,0.007904052734375,0.921600341796875,0.362335205078125
1769661646183413500,8.05341357421875,0.00823974609375,0.926239013671875,0.3610992431640625
1769661646193401300,8.0634013671875,0.005889892578125,0.9298095703125,0.3615875244140625
1769661646203390500,8.073390380859376,0.003204345703125,0.932464599609375,0.3600006103515625
1769661646213378300,8.08337841796875,0.00201416015625,0.933197021484375,0.3615264892578125
1769661646223366400,8.093366455078124,0.004180908203125,0.932098388671875,0.36309814453125
1769661646233354500,8.1033544921875,0.0047607421875,0.92913818359375,0.3659210205078125
1769661646243342300,8.11334228515625,0.006378173828125,0.9292449951171875,0.36865234375
1769661646253330400,8.123330322265625,0.007843017578125,0.9278717041015625,0.372039794921875
1769661646263318500,8.133318603515624,0.0089111328125,0.9231719970703125,0.37249755859375
1769661646273306400,8.143306396484375,0.0098876953125,0.9200286865234375,0.37176513671875
1769661646283294500,8.15329443359375,0.01348876953125,0.9176025390625,0.370391845703125
1769661646293282600,8.163282470703125,0.01812744140625,0.9183349609375,0.367462158203125
1769661646303270400,8.1732705078125,0.016204833984375,0.9163818359375,0.3664703369140625
1769661646313258500,8.183258544921875,0.0113525390625,0.9241790771484375,0.371856689453125
1769661646323247400,8.193247314453124,0.008636474609375,0.92669677734375,0.3697662353515625
1769661646333235500,8.2032353515625,0.0038299560546875,0.9247589111328125,0.3685760498046875
1769661646343223300,8.213223388671874,0.0035247802734375,0.922393798828125,0.3675689697265625
1769661646353211400,8.22321142578125,0.0063629150390625,0.9221954345703125,0.36627197265625
1769661646363199500,8.233199462890624,0.0071258544921875,0.9202117919921875,0.3668975830078125
1769661646373187600,8.2431875,0.0037841796875,0.9235076904296875,0.3660736083984375
1769661646383175400,8.253175537109374,0.0056915283203125,0.92498779296875,0.3661041259765625
1769661646393163500,8.26316357421875,0.0071258544921875,0.9265289306640625,0.3653411865234375
1769661646403151600,8.273151611328124,0.006195068359375,0.9264678955078125,0.3654327392578125
1769661646413139500,8.283139404296875,0.008544921875,0.9256591796875,0.365570068359375
1769661646423127300,8.293127197265624,0.0077667236328125,0.9270477294921875,0.3643341064453125
1769661646433115400,8.303115478515625,0.0094451904296875,0.9264678955078125,0.3649139404296875
1769661646443104500,8.3131044921875,0.009796142578125,0.927490234375,0.3662567138671875
1769661646453092400,8.32309228515625,0.0075836181640625,0.9279632568359375,0.369140625
1769661646463080400,8.33308056640625,0.005706787109375,0.9274444580078125,0.36865234375
1769661646473068500,8.343068603515626,0.0066680908203125,0.9271240234375,0.36981201171875
1769661646483056600,8.353056640625,0.0071563720703125,0.9261474609375,0.3709259033203125
1769661646493044500,8.36304443359375,0.00872802734375,0.9251861572265625,0.3710784912109375
1769661646503032300,8.3730322265625,0.009918212890625,0.9264984130859375,0.3692626953125
1769661646513020400,8.3830205078125,0.0128631591796875,0.9259490966796875,0.368316650390625
1769661646523008300,8.39300830078125,0.0121307373046875,0.927032470703125,0.3676300048828125
1769661646532996400,8.402996337890626,0.011566162109375,0.9261016845703125,0.3668975830078125
1769661646542984400,8.412984375,0.010040283203125,0.9267120361328125,0.367401123046875
1769661646552972500,8.42297265625,0.00994873046875,0.9268798828125,0.3657379150390625
1769661646562961400,8.43296142578125,0.00848388671875,0.926971435546875,0.3671112060546875
1769661646572949500,8.442949462890626,0.006622314453125,0.9268646240234375,0.367828369140625
1769661646582937600,8.4529375,0.004974365234375,0.9268646240234375,0.368316650390625
1769661646592925400,8.462925537109374,0.0047607421875,0.9277801513671875,0.36993408203125
1769661646602913300,8.472913330078125,0.0060577392578125,0.9270172119140625,0.370819091796875
1769661646612901400,8.4829013671875,0.0090484619140625,0.9262237548828125,0.369171142578125
1769661646622889500,8.492889404296875,0.0090179443359375,0.9262542724609375,0.3684844970703125
1769661646632877300,8.502877197265626,0.0140533447265625,0.92559814453125,0.36614990234375
1769661646642865400,8.512865478515625,0.0159912109375,0.9271087646484375,0.3646392822265625
1769661646652853500,8.522853515625,0.0120086669921875,0.9254150390625,0.364288330078125
1769661646662841600,8.532841552734375,0.0077972412109375,0.9274749755859375,0.368316650390625
1769661646672829400,8.542829345703124,0.011260986328125,0.929412841796875,0.3664398193359375
1769661646682818300,8.552818359375,0.012115478515625,0.9265899658203125,0.3643646240234375
1769661646692806400,8.562806396484374,0.0067901611328125,0.9224700927734375,0.3629913330078125
1769661646702794500,8.57279443359375,0.003814697265625,0.9246673583984375,0.3657379150390625
1769661646712782300,8.5827822265625,0.004425048828125,0.9235992431640625,0.3657684326171875
1769661646722770400,8.5927705078125,0.0084228515625,0.92474365234375,0.3638153076171875
1769661646732758500,8.602758544921874,0.006103515625,0.92584228515625,0.3629608154296875
1769661646742746400,8.612746337890625,0.0037994384765625,0.922576904296875,0.3643341064453125
1769661646752734500,8.622734375,-0.0000457763671875,0.92315673828125,0.366546630859375
1769661646762722600,8.63272265625,0.003448486328125,0.924285888671875,0.3658294677734375
1769661646772710700,8.642710693359374,0.0050506591796875,0.9245147705078125,0.3670654296875
1769661646782698500,8.652698486328125,0.005859375,0.92535400390625,0.3707733154296875
1769661646792686300,8.662686279296874,0.0053863525390625,0.926513671875,0.369903564453125
1769661646802675500,8.672675537109376,0.0058135986328125,0.928253173828125,0.36871337890625
1769661646812663600,8.68266357421875,0.007080078125,0.92822265625,0.3664093017578125
1769661646822651400,8.6926513671875,0.0067138671875,0.9299468994140625,0.365936279296875
1769661646832639500,8.702639404296875,0.00958251953125,0.9330596923828125,0.36724853515625
1769661646842627600,8.712627685546876,0.0132293701171875,0.931549072265625,0.36578369140625
1769661646852615400,8.722615478515625,0.0150909423828125,0.9304351806640625,0.363555908203125
1769661646862603500,8.732603515625,0.0150604248046875,0.9264068603515625,0.362640380859375
1769661646872591600,8.742591552734375,0.0137939453125,0.92431640625,0.362823486328125
1769661646882579500,8.752579345703126,0.013916015625,0.926055908203125,0.36431884765625
1769661646892567300,8.7625673828125,0.0087890625,0.9250946044921875,0.36517333984375
1769661646902555400,8.772555419921876,0.0056915283203125,0.9241790771484375,0.3643951416015625
1769661646912543500,8.78254345703125,0.0054779052734375,0.9262237548828125,0.3637542724609375
1769661646922532600,8.79253271484375,0.006988525390625,0.9272613525390625,0.363250732421875
1769661646932520400,8.8025205078125,0.0076141357421875,0.928253173828125,0.3651275634765625
1769661646942508500,8.812508544921876,0.009307861328125,0.9283294677734375,0.3629150390625
1769661646952496600,8.82249658203125,0.010589599609375,0.927337646484375,0.3595123291015625
1769661646962484500,8.832484375,0.011016845703125,0.9288177490234375,0.3586273193359375
1769661646972472300,8.842472412109375,0.0105133056640625,0.9315185546875,0.3592681884765625
1769661646982460200,8.852460205078126,0.009979248046875,0.9323883056640625,0.3599700927734375
1769661646992448300,8.8624482421875,0.0094451904296875,0.9309234619140625,0.36248779296875
1769661647002436400,8.872436279296876,0.008453369140625,0.9281158447265625,0.3628387451171875
1769661647012424400,8.882424560546875,0.007720947265625,0.925872802734375,0.363983154296875
1769661647022412300,8.892412353515626,0.01025390625,0.9255218505859375,0.365509033203125
1769661647032400400,8.902400390625,0.012847900390625,0.9252166748046875,0.36529541015625
1769661647042389500,8.912389404296874,0.013519287109375,0.9221954345703125,0.365020751953125
1769661647052377300,8.92237744140625,0.014129638671875,0.922271728515625,0.366180419921875
1769661647062365200,8.932365234375,0.0133056640625,0.92156982421875,0.3642425537109375
1769661647072353300,8.942353271484375,0.011016845703125,0.9234466552734375,0.363555908203125
1769661647082341400,8.95234130859375,0.00970458984375,0.924346923828125,0.3632965087890625
1769661647092329200,8.9623291015625,0.0095062255859375,0.9289703369140625,0.362945556640625
1769661647102317300,8.9723173828125,0.0106048583984375,0.92974853515625,0.3630218505859375
1769661647112305400,8.982305419921875,0.011383056640625,0.93280029296875,0.36151123046875
1769661647122293500,8.99229345703125,0.011077880859375,0.9329376220703125,0.36273193359375
1769661647132281300,9.00228125,0.0095367431640625,0.930572509765625,0.3602294921875
1769661647142269400,9.01226953125,0.0092926025390625,0.9279022216796875,0.360137939453125
1769661647152257500,9.022257568359375,0.0089263916015625,0.926544189453125,0.35809326171875
1769661647162245400,9.032245361328124,0.0075836181640625,0.92437744140625,0.3585205078125
1769661647172234200,9.042234130859375,0.0086822509765625,0.92535400390625,0.35882568359375
1769661647182222300,9.052222412109375,0.0072174072265625,0.9260711669921875,0.361053466796875
1769661647192210400,9.06221044921875,0.008056640625,0.92742919921875,0.360443115234375
1769661647202198300,9.0721982421875,0.0087738037109375,0.92919921875,0.3619384765625
1769661647212186400,9.082186279296875,0.0095977783203125,0.932647705078125,0.3620147705078125
1769661647222174500,9.092174560546875,0.010162353515625,0.931549072265625,0.3624114990234375
1769661647232162600,9.10216259765625,0.0116119384765625,0.9295654296875,0.3630828857421875
1769661647242150400,9.112150390625,0.0115814208984375,0.9287567138671875,0.361236572265625
1769661647252138500,9.122138427734376,0.0117340087890625,0.9269866943359375,0.36419677734375
1769661647262126300,9.132126220703125,0.0095977783203125,0.9275665283203125,0.361663818359375
1769661647272114200,9.1421142578125,0.01129150390625,0.9277496337890625,0.3618621826171875
1769661647282103300,9.152103271484375,0.0129547119140625,0.9274139404296875,0.3608245849609375
1769661647292091400,9.16209130859375,0.0129852294921875,0.9284515380859375,0.3617706298828125
1769661647302079500,9.17207958984375,0.01318359375,0.9278106689453125,0.3622894287109375
1769661647312067300,9.1820673828125,0.013458251953125,0.927520751953125,0.3624267578125
1769661647322055400,9.192055419921875,0.0137939453125,0.927764892578125,0.361236572265625
1769661647332043500,9.20204345703125,0.012908935546875,0.926513671875,0.3631744384765625
1769661647342031400,9.21203125,0.01165771484375,0.926177978515625,0.362884521484375
1769661647352019200,9.222019287109376,0.0098724365234375,0.9242401123046875,0.3640594482421875
1769661647362007300,9.23200732421875,0.010467529296875,0.9244842529296875,0.36358642578125
1769661647371995400,9.241995361328126,0.009918212890625,0.9248046875,0.3631591796875
1769661647381983200,9.251983154296875,0.008331298828125,0.9256744384765625,0.3632049560546875
1769661647391971300,9.261971435546876,0.0080718994140625,0.9265899658203125,0.36297607421875
1769661647401959400,9.27195947265625,0.00860595703125,0.927825927734375,0.363494873046875
1769661647411948500,9.281948486328124,0.0080413818359375,0.92706298828125,0.3643646240234375
1769661647421936400,9.291936279296875,0.0097503662109375,0.9264068603515625,0.3651275634765625
1769661647431924200,9.30192431640625,0.0099029541015625,0.9268951416015625,0.3641815185546875
1769661647441912300,9.311912353515625,0.010162353515625,0.9275665283203125,0.3648223876953125
1769661647451900400,9.321900390625,0.011688232421875,0.9266357421875,0.363616943359375
1769661647461888300,9.33188818359375,0.0147247314453125,0.925628662109375,0.3646392822265625
1769661647471876400,9.34187646484375,0.0180206298828125,0.926513671875,0.363128662109375
1769661647481864400,9.351864501953125,0.0178985595703125,0.9283599853515625,0.3631439208984375
1769661647491852300,9.361852294921874,0.0146942138671875,0.9302825927734375,0.3630828857421875
1769661647501840400,9.37184033203125,0.0116729736328125,0.9280242919921875,0.363067626953125
1769661647511828500,9.381828369140624,0.0097198486328125,0.9268341064453125,0.3639068603515625
1769661647521816300,9.39181640625,0.0112762451171875,0.92529296875,0.363525390625
1769661647531805200,9.40180517578125,0.010772705078125,0.9234619140625,0.3631439208984375
1769661647541793300,9.411793212890625,0.010589599609375,0.923736572265625,0.3649444580078125
1769661647551781400,9.421781494140625,0.0111083984375,0.925018310546875,0.3623809814453125
1769661647561769500,9.43176953125,0.0098724365234375,0.926605224609375,0.360260009765625
1769661647571757300,9.44175732421875,0.0115203857421875,0.9329986572265625,0.361968994140625
1769661647581745400,9.451745361328125,0.01446533203125,0.9349365234375,0.3606719970703125
1769661647591733500,9.4617333984375,0.012908935546875,0.93389892578125,0.3606109619140625
1769661647601721300,9.471721435546876,0.0165252685546875,0.932769775390625,0.3605804443359375
1769661647611709400,9.48170947265625,0.018310546875,0.9290618896484375,0.3612518310546875
1769661647621697500,9.491697509765626,0.01763916015625,0.9251251220703125,0.3634490966796875
1769661647631685400,9.501685302734375,0.0153656005859375,0.923828125,0.3648223876953125
1769661647641674200,9.51167431640625,0.0159149169921875,0.9231109619140625,0.3655853271484375
1769661647651662300,9.521662353515625,0.0167999267578125,0.9241943359375,0.36663818359375
1769661647661650400,9.531650390625,0.0157318115234375,0.9255218505859375,0.3656158447265625
1769661647671638300,9.54163818359375,0.0135345458984375,0.928680419921875,0.3645782470703125
1769661647681626400,9.55162646484375,0.0146942138671875,0.931640625,0.36376953125
1769661647691614500,9.561614501953125,0.013580322265625,0.9317474365234375,0.361297607421875
1769661647701602600,9.5716025390625,0.0137176513671875,0.9298858642578125,0.360137939453125
1769661647711590400,9.58159033203125,0.0120849609375,0.92828369140625,0.35980224609375
1769661647721578200,9.591578125,0.012847900390625,0.9290618896484375,0.361083984375
1769661647731566300,9.60156640625,0.0114593505859375,0.9313201904296875,0.3603363037109375
1769661647741554200,9.61155419921875,0.0129241943359375,0.932373046875,0.361419677734375
1769661647751542300,9.621542236328125,0.0148162841796875,0.93377685546875,0.3630828857421875
1769661647761531400,9.631531494140624,0.01849365234375,0.933349609375,0.364898681640625
1769661647771519500,9.64151953125,0.024139404296875,0.9327239990234375,0.3661956787109375
1769661647781507300,9.65150732421875,0.0194854736328125,0.924560546875,0.3658599853515625
1769661647791495400,9.661495361328125,0.01434326171875,0.92144775390625,0.36767578125
1769661647801483500,9.6714833984375,0.0172882080078125,0.9245758056640625,0.3650970458984375
1769661647811471400,9.681471435546875,0.0167388916015625,0.92779541015625,0.365203857421875
1769661647821459200,9.691459228515624,0.006134033203125,0.927490234375,0.3634185791015625
1769661647831447300,9.701447265625,0.00738525390625,0.9314117431640625,0.361846923828125
1769661647841435400,9.711435302734374,0.011749267578125,0.9296875,0.359161376953125
1769661647851423200,9.72142333984375,0.012725830078125,0.9275970458984375,0.359832763671875
1769661647861411300,9.731411376953124,0.014556884765625,0.927978515625,0.361297607421875
1769661647871399400,9.7413994140625,0.0163421630859375,0.9244384765625,0.3625640869140625
1769661647881388500,9.751388427734375,0.019012451171875,0.9217071533203125,0.3633880615234375
1769661647891376400,9.76137646484375,0.0178680419921875,0.9205780029296875,0.3662261962890625
1769661647901364200,9.7713642578125,0.01788330078125,0.9197845458984375,0.368804931640625
1769661647911352300,9.781352294921875,0.020538330078125,0.922821044921875,0.370941162109375
1769661647921340400,9.79134033203125,0.01806640625,0.92388916015625,0.369964599609375
1769661647931328300,9.801328369140625,0.01727294921875,0.9269256591796875,0.3707427978515625
1769661647941316400,9.81131640625,0.015350341796875,0.9254608154296875,0.3692626953125
1769661647951304400,9.821304443359375,0.0157470703125,0.923614501953125,0.3672637939453125
1769661647961292500,9.83129248046875,0.017669677734375,0.9234619140625,0.3660125732421875
1769661647971280400,9.8412802734375,0.0162353515625,0.922088623046875,0.363739013671875
1769661647981268500,9.8512685546875,0.0159149169921875,0.923431396484375,0.363067626953125
1769661647991256600,9.861256591796876,0.017120361328125,0.9268035888671875,0.36138916015625
1769661648001245400,9.871245361328125,0.0188140869140625,0.92645263671875,0.3624725341796875
1769661648011233500,9.881233642578126,0.0191650390625,0.9271240234375,0.3638916015625
1769661648021221400,9.891221435546875,0.0194244384765625,0.928009033203125,0.364501953125
1769661648031209500,9.90120947265625,0.0179290771484375,0.928680419921875,0.36572265625
1769661648041197600,9.911197509765625,0.019317626953125,0.9298095703125,0.3640899658203125
1769661648051185400,9.921185302734376,0.0208740234375,0.932586669921875,0.3631439208984375
1769661648061173500,9.931173583984375,0.0195465087890625,0.9319915771484375,0.3632659912109375
1769661648071161600,9.94116162109375,0.0169677734375,0.9302978515625,0.36370849609375
1769661648081149400,9.9511494140625,0.0191497802734375,0.9273834228515625,0.36334228515625
1769661648091137500,9.961137451171876,0.0168304443359375,0.9239654541015625,0.3607177734375
1769661648101125400,9.97112548828125,0.0168914794921875,0.9211578369140625,0.3622283935546875
1769661648111113500,9.981113525390626,0.0171966552734375,0.9224853515625,0.3604583740234375
1769661648121102300,9.991102294921875,0.0175018310546875,0.926910400390625,0.36309814453125
1769661648131090400,10.00109033203125,0.0165557861328125,0.929290771484375,0.3630828857421875
1769661648141078500,10.01107861328125,0.01531982421875,0.9308013916015625,0.363250732421875
1769661648151066600,10.021066650390624,0.0165252685546875,0.933349609375,0.3631134033203125
1769661648161054500,10.031054443359375,0.01788330078125,0.931640625,0.36175537109375
1769661648171042600,10.04104248046875,0.0180511474609375,0.9309539794921875,0.362213134765625
1769661648181030400,10.051030517578125,0.0159759521484375,0.9304046630859375,0.362640380859375
1769661648191018200,10.061018310546874,0.0174102783203125,0.9271697998046875,0.3610992431640625
1769661648201006300,10.07100634765625,0.0157623291015625,0.925750732421875,0.3597869873046875
1769661648210994400,10.080994384765624,0.016510009765625,0.927032470703125,0.359954833984375
1769661648220982500,10.090982421875,0.01739501953125,0.9296875,0.3599853515625
1769661648230970400,10.100970458984374,0.018585205078125,0.9331207275390625,0.360137939453125
1769661648240958500,10.11095849609375,0.0190277099609375,0.9326019287109375,0.3610382080078125
1769661648250947600,10.120947509765625,0.0175323486328125,0.9296875,0.3584136962890625
1769661648260935400,10.130935302734375,0.015472412109375,0.927825927734375,0.35870361328125
1769661648270923300,10.14092333984375,0.016876220703125,0.926422119140625,0.3592681884765625
1769661648280911400,10.150911376953125,0.018829345703125,0.9258575439453125,0.359527587890625
1769661648290899500,10.1608994140625,0.015655517578125,0.928619384765625,0.3603057861328125
1769661648300887300,10.17088720703125,0.0142669677734375,0.9301300048828125,0.3597259521484375
1769661648310875400,10.18087548828125,0.0165252685546875,0.9337310791015625,0.35986328125
1769661648320863500,10.190863525390625,0.020477294921875,0.9334564208984375,0.359710693359375
1769661648330851600,10.2008515625,0.0193328857421875,0.9323272705078125,0.3638916015625
1769661648340839400,10.21083935546875,0.0167236328125,0.9311065673828125,0.3658294677734375
1769661648350828300,10.220828369140625,0.019775390625,0.927825927734375,0.3637542724609375
1769661648360816400,10.23081640625,0.020904541015625,0.9245147705078125,0.362945556640625
1769661648370804500,10.240804443359375,0.019775390625,0.925140380859375,0.363555908203125
1769661648380792300,10.250792236328126,0.01971435546875,0.92694091796875,0.3632659912109375
1769661648390780400,10.260780517578125,0.0191192626953125,0.9283599853515625,0.36474609375
1769661648400768500,10.2707685546875,0.01800537109375,0.925689697265625,0.3652191162109375
1769661648410756400,10.28075634765625,0.013671875,0.923187255859375,0.364166259765625
1769661648420744400,10.290744384765626,0.012451171875,0.9233856201171875,0.363006591796875
1769661648430732500,10.300732666015625,0.0120697021484375,0.9257965087890625,0.3614654541015625
1769661648440720600,10.310720703125,0.013336181640625,0.928680419921875,0.3564453125
1769661648450708500,10.32070849609375,0.01318359375,0.9307708740234375,0.3546142578125
1769661648460696600,10.330696533203126,0.0145111083984375,0.928619384765625,0.3555450439453125
1769661648470684400,10.340684326171875,0.0197601318359375,0.9289703369140625,0.3577117919921875
1769661648480673500,10.350673583984374,0.02392578125,0.93060302734375,0.35986328125
1769661648490661400,10.360661376953125,0.0212860107421875,0.9294586181640625,0.364227294921875
1769661648500649500,10.3706494140625,0.0198211669921875,0.92822265625,0.3673553466796875
1769661648510637600,10.380637451171875,0.020416259765625,0.9241943359375,0.3682708740234375
1769661648520625400,10.39062548828125,0.0190887451171875,0.920867919921875,0.3672027587890625
1769661648530613500,10.400613525390625,0.0192718505859375,0.923126220703125,0.364776611328125
1769661648540601600,10.4106015625,0.0169830322265625,0.924407958984375,0.363189697265625
1769661648550589400,10.42058935546875,0.0145263671875,0.9264984130859375,0.360565185546875
1769661648560577300,10.430577392578124,0.0112762451171875,0.926849365234375,0.360382080078125
1769661648570565400,10.4405654296875,0.0094146728515625,0.9245452880859375,0.3597259521484375
1769661648580553500,10.450553466796874,0.0125579833984375,0.923004150390625,0.3606414794921875
1769661648590541300,10.460541259765625,0.0110321044921875,0.9245147705078125,0.362579345703125
1769661648600530400,10.470530517578124,0.0124969482421875,0.925445556640625,0.3617401123046875
1769661648610518500,10.4805185546875,0.0124664306640625,0.9281005859375,0.3631591796875
1769661648620506600,10.490506591796875,0.0117340087890625,0.9301605224609375,0.3644256591796875
1769661648630494500,10.500494384765625,0.015777587890625,0.9320526123046875,0.3691864013671875
1769661648640482300,10.510482421875,0.0168914794921875,0.9290924072265625,0.3662567138671875
1769661648650470400,10.520470458984375,0.0189971923828125,0.9257049560546875,0.366058349609375
1769661648660458500,10.53045849609375,0.018218994140625,0.923126220703125,0.36395263671875
1769661648670446300,10.5404462890625,0.0181732177734375,0.922088623046875,0.3644866943359375
1769661648680434400,10.550434326171874,0.0161285400390625,0.924835205078125,0.365997314453125
1769661648690422500,10.560422607421875,0.013427734375,0.9259033203125,0.362548828125
1769661648700410400,10.570410400390625,0.0128173828125,0.92694091796875,0.3623199462890625
1769661648710399500,10.5803994140625,0.0102081298828125,0.9293975830078125,0.3657989501953125
1769661648720387600,10.5903876953125,0.0107421875,0.9274749755859375,0.36669921875
1769661648730375400,10.60037548828125,0.012451171875,0.9272308349609375,0.3682861328125
1769661648740363300,10.61036328125,0.01324462890625,0.9254302978515625,0.3688812255859375
1769661648750351400,10.620351318359376,0.0158538818359375,0.9241180419921875,0.3681488037109375
1769661648760339500,10.63033935546875,0.01708984375,0.9253387451171875,0.3687591552734375
1769661648770327600,10.64032763671875,0.016937255859375,0.926666259765625,0.368408203125
1769661648780315400,10.6503154296875,0.01617431640625,0.92724609375,0.366790771484375
1769661648790303500,10.660303466796876,0.0156707763671875,0.926727294921875,0.3662109375
1769661648800291600,10.67029150390625,0.014068603515625,0.926727294921875,0.36468505859375
1769661648810279400,10.680279541015626,0.0132598876953125,0.9259796142578125,0.36407470703125
1769661648820267500,10.690267578125,0.01275634765625,0.9260101318359375,0.36474609375
1769661648830256400,10.70025634765625,0.0119171142578125,0.927276611328125,0.36578369140625
1769661648840244500,10.710244384765625,0.010772705078125,0.928070068359375,0.36669921875
1769661648850232300,10.720232421875,0.0129852294921875,0.929534912109375,0.36700439453125
1769661648860220400,10.730220458984375,0.012725830078125,0.9288177490234375,0.3679351806640625
1769661648870208500,10.74020849609375,0.0140380859375,0.92742919921875,0.36956787109375
1769661648880196400,10.7501962890625,0.0144500732421875,0.9259185791015625,0.368408203125
1769661648890184400,10.760184326171874,0.0131988525390625,0.923828125,0.3693389892578125
1769661648900172500,10.770172607421875,0.0142059326171875,0.9251556396484375,0.3694915771484375
1769661648910160600,10.78016064453125,0.0152435302734375,0.9247589111328125,0.3682098388671875
1769661648920148500,10.7901484375,0.016326904296875,0.9255218505859375,0.36859130859375
1769661648930136300,10.80013623046875,0.0171966552734375,0.927886962890625,0.3683929443359375
1769661648940124400,10.81012451171875,0.0171661376953125,0.9279632568359375,0.36767578125
1769661648950113500,10.820113525390624,0.0135345458984375,0.92724609375,0.3667144775390625
1769661648960101400,10.830101318359375,0.012847900390625,0.9245758056640625,0.364776611328125
1769661648970089000,10.8400888671875,0.0118255615234375,0.9234771728515625,0.366119384765625
1769661648980077000,10.8500771484375,0.0098114013671875,0.923675537109375,0.3678131103515625
1769661648990065000,10.86006494140625,0.0087127685546875,0.9242401123046875,0.3693084716796875
1769661649000053000,10.870052978515625,0.00848388671875,0.92388916015625,0.3695526123046875
1769661649010041000,10.880041015625,0.01043701171875,0.9249114990234375,0.3700714111328125
1769661649020029200,10.890029296875,0.01190185546875,0.92486572265625,0.369140625
1769661649030017000,10.90001708984375,0.0134735107421875,0.9254608154296875,0.3692626953125
1769661649040004900,10.9100048828125,0.0177459716796875,0.926666259765625,0.36907958984375
1769661649049993000,10.919992919921874,0.0171051025390625,0.92724609375,0.3700103759765625
1769661649059982000,10.929982177734376,0.017059326171875,0.927520751953125,0.37188720703125
1769661649069970000,10.939969970703125,0.014984130859375,0.92364501953125,0.3712921142578125
1769661649079958000,10.9499580078125,0.01739501953125,0.9243316650390625,0.36956787109375
1769661649089946000,10.959946044921875,0.0176849365234375,0.9242095947265625,0.368377685546875
1769661649099934000,10.969933837890625,0.0144195556640625,0.921875,0.368499755859375
1769661649109922000,10.979922119140625,0.0131988525390625,0.923797607421875,0.3681640625
1769661649119910000,10.989909912109376,0.0101318359375,0.922943115234375,0.3679351806640625
1769661649129897700,10.999897705078125,0.00787353515625,0.9232940673828125,0.3660736083984375
1769661649139885800,11.0098857421875,0.00738525390625,0.92669677734375,0.364166259765625
1769661649149874000,11.0198740234375,0.0073394775390625,0.928253173828125,0.3636016845703125
1769661649159862000,11.029862060546876,0.0075225830078125,0.9296875,0.3613128662109375
1769661649169849900,11.039849853515625,0.008087158203125,0.92950439453125,0.3597412109375
1769661649179839000,11.0498388671875,0.010040283203125,0.92926025390625,0.359161376953125
1769661649189827000,11.0598271484375,0.0109405517578125,0.9285125732421875,0.3614349365234375
1769661649199815000,11.06981494140625,0.0117340087890625,0.929718017578125,0.3634033203125
1769661649209802800,11.079802734375,0.012725830078125,0.9286651611328125,0.3657684326171875
1769661649219790800,11.089790771484376,0.014556884765625,0.9263458251953125,0.36663818359375
1769661649229779000,11.099779052734375,0.01617431640625,0.924530029296875,0.3692169189453125
1769661649239766800,11.109766845703126,0.0157623291015625,0.9225311279296875,0.36834716796875
1769661649249755000,11.1197548828125,0.015899658203125,0.92498779296875,0.3704833984375
1769661649259743000,11.129742919921876,0.01495361328125,0.926055908203125,0.368438720703125
1769661649269731000,11.13973095703125,0.0136566162109375,0.9281463623046875,0.3690185546875
1769661649279719000,11.149718994140626,0.0117340087890625,0.9282989501953125,0.3700408935546875
1769661649289707800,11.159707763671875,0.01043701171875,0.9277191162109375,0.3701629638671875
1769661649299695900,11.16969580078125,0.011749267578125,0.9262237548828125,0.3675079345703125
1769661649309684000,11.17968408203125,0.0127105712890625,0.92376708984375,0.3670196533203125
1769661649319671800,11.189671875,0.0146636962890625,0.92254638671875,0.3671417236328125
1769661649329660000,11.199659912109375,0.0146484375,0.92242431640625,0.36700439453125
1769661649339648000,11.20964794921875,0.01080322265625,0.9217071533203125,0.3677215576171875
1769661649349635800,11.2196357421875,0.009613037109375,0.921966552734375,0.3678436279296875
1769661649359624000,11.2296240234375,0.0088958740234375,0.922210693359375,0.36773681640625
1769661649369612000,11.239612060546875,0.008636474609375,0.9238433837890625,0.3665924072265625
1769661649379600100,11.24960009765625,0.010223388671875,0.92510986328125,0.3660125732421875
1769661649389588000,11.259587890625,0.0103759765625,0.9260101318359375,0.3670501708984375
1769661649399576000,11.269576171875,0.0116424560546875,0.92681884765625,0.367034912109375
1769661649409565000,11.27956494140625,0.0136871337890625,0.927398681640625,0.367462158203125
1769661649419553000,11.289552978515625,0.0128631591796875,0.9244537353515625,0.3683929443359375
1769661649429540900,11.299540771484375,0.0130767822265625,0.9223785400390625,0.36810302734375
1769661649439529000,11.309529052734375,0.014434814453125,0.9217376708984375,0.366607666015625
1769661649449517000,11.31951708984375,0.0135650634765625,0.9241180419921875,0.367828369140625
1769661649459505000,11.3295048828125,0.01153564453125,0.9263458251953125,0.3677215576171875
1769661649469493000,11.339492919921875,0.0113525390625,0.92803955078125,0.3680267333984375
1769661649479481000,11.349481201171875,0.0092620849609375,0.9303436279296875,0.3665008544921875
1769661649489469000,11.359468994140625,0.01092529296875,0.92919921875,0.3691253662109375
1769661649499456800,11.369456787109375,0.011505126953125,0.92657470703125,0.368743896484375
1769661649509444900,11.37944482421875,0.0117950439453125,0.9254150390625,0.3683929443359375
1769661649519434000,11.38943408203125,0.0152587890625,0.924407958984375,0.3700103759765625
1769661649529422000,11.399422119140626,0.01373291015625,0.9243927001953125,0.3699188232421875
1769661649539410000,11.409409912109375,0.0144805908203125,0.9234619140625,0.3698272705078125
1769661649549398000,11.41939794921875,0.0149078369140625,0.9223175048828125,0.3680267333984375
1769661649559386000,11.42938623046875,0.0166778564453125,0.92352294921875,0.368682861328125
1769661649569374000,11.4393740234375,0.0163421630859375,0.9244842529296875,0.367523193359375
1769661649579361800,11.44936181640625,0.014678955078125,0.925323486328125,0.367523193359375
1769661649589350000,11.459349853515626,0.01318359375,0.9232025146484375,0.36956787109375
1769661649599338000,11.469337890625,0.01239013671875,0.926025390625,0.3683624267578125
1769661649609325800,11.479325927734376,0.0088653564453125,0.9283905029296875,0.368896484375
1769661649619314000,11.48931396484375,0.0074615478515625,0.927703857421875,0.3681182861328125
1769661649629302000,11.499302001953126,0.008697509765625,0.926727294921875,0.366485595703125
1769661649639291100,11.509291015625,0.012054443359375,0.9252471923828125,0.3671722412109375
1769661649649279000,11.519279052734374,0.01641845703125,0.92620849609375,0.3675537109375
1769661649659267000,11.52926708984375,0.0171051025390625,0.9234466552734375,0.3686981201171875
1769661649669255000,11.5392548828125,0.0160675048828125,0.9213714599609375,0.3679962158203125
1769661649679242800,11.54924267578125,0.0133209228515625,0.9193267822265625,0.3682861328125
1769661649689230800,11.55923095703125,0.0126800537109375,0.921295166015625,0.3682403564453125
1769661649699219000,11.569218994140625,0.0118865966796875,0.9202880859375,0.36883544921875
1769661649709207000,11.57920703125,0.0114898681640625,0.9199676513671875,0.3699798583984375
1769661649719195000,11.58919482421875,0.008148193359375,0.92108154296875,0.3692169189453125
1769661649729183000,11.599182861328124,0.0082550048828125,0.9232330322265625,0.36761474609375
1769661649739171000,11.609171142578125,0.0111541748046875,0.9277496337890625,0.366943359375
1769661649749160000,11.619159912109374,0.0122833251953125,0.9316558837890625,0.3681793212890625
1769661649759147800,11.629147705078125,0.009368896484375,0.929107666015625,0.3698577880859375
1769661649769135900,11.639135986328125,0.0139312744140625,0.9267120361328125,0.3726348876953125
1769661649779124000,11.6491240234375,0.0193328857421875,0.923583984375,0.3705596923828125
1769661649789111800,11.65911181640625,0.0189208984375,0.9197540283203125,0.3706207275390625
1769661649799100000,11.669099853515625,0.019805908203125,0.9203948974609375,0.36883544921875
1769661649809088000,11.679087890625,0.0185394287109375,0.920166015625,0.3667144775390625
1769661649819076000,11.689076171875,0.0170745849609375,0.920867919921875,0.3663177490234375
1769661649829064000,11.69906396484375,0.0150146484375,0.922210693359375,0.365753173828125
1769661649839052000,11.709052001953125,0.015960693359375,0.92413330078125,0.366607666015625
1769661649849040100,11.7190400390625,0.0144805908203125,0.9237213134765625,0.36614990234375
1769661649859029000,11.729029052734376,0.012664794921875,0.9249267578125,0.365020751953125
1769661649869016800,11.739016845703125,0.0123291015625,0.9265594482421875,0.36480712890625
1769661649879005000,11.7490048828125,0.013092041015625,0.9272308349609375,0.3656463623046875
1769661649888993000,11.758992919921875,0.0146636962890625,0.9252471923828125,0.36669921875
1769661649898980900,11.76898095703125,0.0143280029296875,0.9262542724609375,0.3670501708984375
1769661649908969000,11.778968994140625,0.0162200927734375,0.926116943359375,0.3685302734375
1769661649918957000,11.78895703125,0.0171661376953125,0.9232330322265625,0.3659515380859375
1769661649928945200,11.798945068359375,0.0173187255859375,0.92218017578125,0.366455078125
1769661649938933000,11.80893310546875,0.0168304443359375,0.9217529296875,0.3681488037109375
1769661649948921000,11.818921142578125,0.0197296142578125,0.92230224609375,0.3690948486328125
1769661649958909000,11.828908935546876,0.019317626953125,0.9239654541015625,0.3678741455078125
1769661649968897500,11.8388974609375,0.0190277099609375,0.9264678955078125,0.3687591552734375
1769661649978886700,11.84888671875,0.016204833984375,0.928955078125,0.3703460693359375
1769661649988874800,11.858874755859375,0.01513671875,0.92822265625,0.368408203125
1769661649998862600,11.868862548828124,0.0168609619140625,0.9262237548828125,0.36676025390625
1769661650008850700,11.8788505859375,0.0184783935546875,0.926727294921875,0.367462158203125
1769661650018838500,11.888838623046874,0.0177764892578125,0.9267425537109375,0.36700439453125
1769661650028826400,11.898826416015625,0.017608642578125,0.9267578125,0.3650054931640625
1769661650038814500,11.908814453125,0.0166015625,0.92681884765625,0.366302490234375
1769661650048802600,11.918802490234375,0.01629638671875,0.92669677734375,0.366058349609375
1769661650058790700,11.928790771484374,0.017608642578125,0.927276611328125,0.367340087890625
1769661650068778500,11.938778564453125,0.018218994140625,0.927825927734375,0.367279052734375
1769661650078766600,11.9487666015625,0.01751708984375,0.9263458251953125,0.3655853271484375
1769661650088755700,11.958755615234375,0.0183563232421875,0.9278717041015625,0.365997314453125
1769661650098743600,11.96874365234375,0.0180816650390625,0.927581787109375,0.36627197265625
1769661650108731400,11.9787314453125,0.0168304443359375,0.9276885986328125,0.3660888671875
1769661650118719500,11.988719482421875,0.0159759521484375,0.926513671875,0.365325927734375
1769661650128707600,11.99870751953125,0.01641845703125,0.9276123046875,0.3654937744140625
1769661650138695400,12.0086953125,0.0185394287109375,0.926849365234375,0.3668670654296875
1769661650148683500,12.01868359375,0.0186614990234375,0.9253387451171875,0.36663818359375
1769661650158671600,12.028671630859375,0.0175933837890625,0.924957275390625,0.366943359375
1769661650168659700,12.03865966796875,0.016387939453125,0.924285888671875,0.365753173828125
1769661650178647600,12.0486474609375,0.016815185546875,0.9266815185546875,0.36669921875
1769661650188635600,12.0586357421875,0.0167999267578125,0.9255218505859375,0.3657073974609375
1769661650198623700,12.068623779296875,0.0161895751953125,0.92681884765625,0.3659820556640625
1769661650208612600,12.078612548828126,0.01739501953125,0.9283447265625,0.3672332763671875
1769661650218600400,12.088600341796875,0.0178375244140625,0.92706298828125,0.3654022216796875
1769661650228588500,12.098588623046876,0.01885986328125,0.9258880615234375,0.3662261962890625
1769661650238576600,12.10857666015625,0.0193328857421875,0.92529296875,0.368682861328125
1769661650248564500,12.118564453125,0.020263671875,0.92266845703125,0.36932373046875
1769661650258552600,12.128552490234375,0.01898193359375,0.9223175048828125,0.3681793212890625
1769661650268540700,12.138540771484376,0.0188751220703125,0.923309326171875,0.36859130859375
1769661650278528800,12.14852880859375,0.0181427001953125,0.9256134033203125,0.3669891357421875
1769661650288516600,12.1585166015625,0.0167236328125,0.925689697265625,0.366302490234375
1769661650298504700,12.168504638671875,0.0132904052734375,0.92742919921875,0.3670501708984375
1769661650308492500,12.178492431640626,0.0128326416015625,0.9269561767578125,0.36767578125
1769661650318481700,12.188481689453125,0.01507568359375,0.9272308349609375,0.3689117431640625
1769661650328469500,12.198469482421874,0.014068603515625,0.925079345703125,0.3697357177734375
1769661650338457600,12.20845751953125,0.0140533447265625,0.9236602783203125,0.371246337890625
1769661650348445700,12.21844580078125,0.0138092041015625,0.922607421875,0.372589111328125
1769661650358433500,12.22843359375,0.0171356201171875,0.9225311279296875,0.3704986572265625
1769661650368421600,12.238421630859374,0.01971435546875,0.9219818115234375,0.3703765869140625
1769661650378409700,12.24840966796875,0.0204620361328125,0.923126220703125,0.369354248046875
1769661650388397600,12.2583974609375,0.0211181640625,0.9260406494140625,0.3685150146484375
1769661650398385400,12.268385498046875,0.01873779296875,0.9261474609375,0.367889404296875
1769661650408373500,12.27837353515625,0.0181732177734375,0.9272003173828125,0.3682098388671875
1769661650418361600,12.288361572265625,0.0163116455078125,0.9254302978515625,0.3678131103515625
1769661650428350700,12.298350830078125,0.018341064453125,0.9239349365234375,0.3659210205078125
1769661650438338600,12.308338623046875,0.017974853515625,0.921295166015625,0.3647308349609375
1769661650448326700,12.31832666015625,0.0160980224609375,0.9225921630859375,0.3703155517578125
1769661650458314800,12.328314697265625,0.0137481689453125,0.9265289306640625,0.3728179931640625
1769661650468302600,12.338302490234375,0.0151519775390625,0.9304046630859375,0.37030029296875
1769661650478290400,12.34829052734375,0.0157318115234375,0.9287109375,0.3665924072265625
1769661650488278500,12.358278564453125,0.0150146484375,0.930023193359375,0.368011474609375
1769661650498266400,12.368266357421875,0.0199737548828125,0.9332427978515625,0.3714599609375
1769661650508254500,12.37825439453125,0.027130126953125,0.9325714111328125,0.3680572509765625
1769661650518242600,12.38824267578125,0.023773193359375,0.92218017578125,0.3701019287109375
1769661650528230700,12.398230712890625,0.017303466796875,0.916473388671875,0.370330810546875
1769661650538218500,12.408218505859375,0.015655517578125,0.9180450439453125,0.3614654541015625
1769661650548207600,12.41820751953125,0.0153656005859375,0.9169921875,0.3661346435546875
1769661650558195700,12.42819580078125,0.014495849609375,0.921783447265625,0.3710174560546875
1769661650568183600,12.43818359375,0.0266265869140625,0.9235687255859375,0.369781494140625
1769661650578171400,12.44817138671875,0.021392822265625,0.9272308349609375,0.370452880859375
1769661650588159500,12.458159423828125,0.0092315673828125,0.9329986572265625,0.366119384765625
1769661650598147600,12.468147705078126,0.013885498046875,0.9328155517578125,0.36572265625
1769661650608135400,12.478135498046875,0.0262603759765625,0.9275360107421875,0.368621826171875
1769661650618123500,12.48812353515625,0.0322113037109375,0.925506591796875,0.36810302734375
1769661650628111600,12.498111572265625,0.02423095703125,0.927642822265625,0.3685302734375
1769661650638099700,12.508099609375,0.0142059326171875,0.929473876953125,0.36932373046875
1769661650648087600,12.518087646484375,0.01324462890625,0.9285736083984375,0.371307373046875
1769661650658076400,12.528076416015624,0.01593017578125,0.91998291015625,0.3724517822265625
1769661650668064500,12.538064453125,0.0146636962890625,0.9153900146484375,0.371551513671875
1769661650678052600,12.548052490234374,0.0184783935546875,0.9170684814453125,0.3683013916015625
1769661650688040400,12.55804052734375,0.01959228515625,0.9214630126953125,0.36590576171875
1769661650698028500,12.568028564453124,0.0142974853515625,0.926544189453125,0.3667755126953125
1769661650708016600,12.5780166015625,0.009521484375,0.9288482666015625,0.3672332763671875
1769661650718004500,12.58800439453125,0.0104827880859375,0.92974853515625,0.367431640625
1769661650727992600,12.59799267578125,0.0122222900390625,0.9243011474609375,0.36920166015625
1769661650737980700,12.607980712890624,0.01141357421875,0.9231719970703125,0.370391845703125
1769661650747968800,12.61796875,0.00921630859375,0.92486572265625,0.3707427978515625
1769661650757956600,12.62795654296875,0.0130615234375,0.9257049560546875,0.3699493408203125
1769661650767944400,12.6379443359375,0.0154266357421875,0.926849365234375,0.369232177734375
1769661650777933600,12.64793359375,0.0192718505859375,0.9256744384765625,0.3708343505859375
1769661650787921700,12.657921630859375,0.0207366943359375,0.923980712890625,0.3703155517578125
1769661650797909500,12.667909423828124,0.0250701904296875,0.921478271484375,0.3697967529296875
1769661650807897600,12.677897705078125,0.0256195068359375,0.9193878173828125,0.369110107421875
1769661650817885700,12.6878857421875,0.0244140625,0.9183502197265625,0.3676605224609375
1769661650827873500,12.69787353515625,0.0220794677734375,0.9193878173828125,0.3690948486328125
1769661650837861600,12.707861572265625,0.017303466796875,0.9212188720703125,0.3682861328125
1769661650847849700,12.717849609375,0.0148162841796875,0.923370361328125,0.3679046630859375
1769661650857837600,12.727837646484375,0.0134124755859375,0.9265594482421875,0.36846923828125
1769661650867825400,12.737825439453125,0.01348876953125,0.9286346435546875,0.369781494140625
1769661650877813500,12.7478134765625,0.015472412109375,0.92767333984375,0.3706207275390625
1769661650887802600,12.757802734375,0.0173492431640625,0.927978515625,0.370758056640625
1769661650897790700,12.767790771484375,0.01971435546875,0.9270477294921875,0.37158203125
1769661650907778600,12.777778564453126,0.0218963623046875,0.92431640625,0.3720855712890625
1769661650917766700,12.7877666015625,0.02276611328125,0.9225006103515625,0.3712615966796875
1769661650927754800,12.797754638671876,0.0231170654296875,0.9216156005859375,0.37054443359375
1769661650937742600,12.80774267578125,0.0221710205078125,0.9212646484375,0.36865234375
1769661650947730400,12.81773046875,0.018341064453125,0.9211273193359375,0.3681640625
1769661650957718500,12.827718505859375,0.015411376953125,0.9207916259765625,0.36578369140625
1769661650967705900,12.837705810546876,0.01336669921875,0.924072265625,0.365020751953125
1769661650977694000,12.84769384765625,0.01055908203125,0.925506591796875,0.365753173828125
1769661650987682000,12.85768212890625,0.0103759765625,0.9275970458984375,0.36578369140625
1769661650997670100,12.867670166015625,0.01239013671875,0.9293212890625,0.368408203125
1769661651007659000,12.877658935546876,0.0147857666015625,0.9298553466796875,0.3704071044921875
1769661651017647000,12.887647216796875,0.01593017578125,0.931915283203125,0.3729248046875
1769661651027635200,12.89763525390625,0.0157012939453125,0.9288787841796875,0.375640869140625
1769661651037623000,12.907623046875,0.017425537109375,0.9247283935546875,0.3736724853515625
1769661651047611000,12.91761083984375,0.018951416015625,0.923858642578125,0.3723297119140625
1769661651057599000,12.927598876953125,0.0207061767578125,0.9213409423828125,0.372650146484375
1769661651067587000,12.937587158203126,0.0185699462890625,0.9221649169921875,0.370269775390625
1769661651077575000,12.947574951171875,0.01483154296875,0.9217376708984375,0.368927001953125
1769661651087563000,12.95756298828125,0.014007568359375,0.922576904296875,0.36627197265625
1769661651097551000,12.967551025390625,0.0142059326171875,0.9237213134765625,0.368194580078125
1769661651107539200,12.977539306640624,0.013671875,0.9238128662109375,0.3673858642578125
1769661651117528000,12.987528076171875,0.015167236328125,0.9244384765625,0.368438720703125
1769661651127516000,12.997515869140624,0.017120361328125,0.9258880615234375,0.36822509765625
1769661651137504000,13.00750390625,0.017974853515625,0.9259033203125,0.3698272705078125
1769661651147492000,13.0174921875,0.018218994140625,0.925750732421875,0.3686981201171875
1769661651157480000,13.02747998046875,0.0169219970703125,0.9258575439453125,0.3690338134765625
1769661651167468000,13.037468017578124,0.018707275390625,0.9241790771484375,0.3680877685546875
1769661651177456000,13.0474560546875,0.0201416015625,0.92144775390625,0.3676300048828125
1769661651187444000,13.05744384765625,0.0183868408203125,0.9219207763671875,0.36871337890625
1769661651197432000,13.06743212890625,0.0189666748046875,0.9232635498046875,0.3675689697265625
1769661651207420200,13.077420166015624,0.0204010009765625,0.927764892578125,0.368255615234375
1769661651217408300,13.087408203125,0.0185089111328125,0.927215576171875,0.367340087890625
1769661651227396000,13.09739599609375,0.0132904052734375,0.92510986328125,0.36492919921875
1769661651237385000,13.107385009765625,0.0091094970703125,0.9229736328125,0.3668975830078125
1769661651247373000,13.117373046875,0.01287841796875,0.926361083984375,0.374053955078125
1769661651257361200,13.127361083984376,0.022186279296875,0.9237518310546875,0.367767333984375
