time,seconds_elapsed,z,y,x
1769661638192956400,0.062956298828125,-0.00025220136740244925,-0.000180029688635841,-0.00101173494476825
1769661638202944500,0.072944580078125,0.004589958116412163,0.005660548806190491,-0.002463690238073468
1769661638212932400,0.082932373046875,0.0036852823104709387,0.011303254403173923,-0.007538343779742718
1769661638222920400,0.09292041015625,0.0024317323695868254,0.02003602683544159,-0.012183163315057755
1769661638232908500,0.102908447265625,0.005619536153972149,0.026637203991413116,-0.018454907462000847
1769661638242896600,0.112896728515625,0.007015299052000046,0.034331608563661575,-0.024456074461340904
1769661638252884500,0.122884521484375,0.01110618095844984,0.045042309910058975,-0.028173580765724182
1769661638262872600,0.13287255859375,0.01164547074586153,0.049144111573696136,-0.029627135023474693
1769661638272860400,0.1428603515625,0.008463526144623756,0.05789019912481308,-0.032948095351457596
1769661638282848300,0.15284814453125,0.006918626371771097,0.062116365879774094,-0.028745627030730247
1769661638292837400,0.16283740234375,0.009492571465671062,0.06181782856583595,-0.02690831385552883
1769661638302825500,0.172825439453125,0.011966381222009659,0.06764882057905197,-0.032890304923057556
1769661638312813600,0.1828134765625,0.014036723412573338,0.06222981959581375,-0.03087322786450386
1769661638322801400,0.192801513671875,0.016280436888337135,0.057904310524463654,-0.029651103541254997
1769661638332789500,0.20278955078125,0.012929647229611874,0.057550109922885895,-0.026816699653863907
1769661638342777600,0.212777587890625,0.010635866783559322,0.055642757564783096,-0.021817946806550026
1769661638352765400,0.222765380859375,0.01158768031746149,0.049668487161397934,-0.018435200676321983
1769661638362753300,0.232753173828125,0.012738698162138462,0.0450148805975914,-0.022065887227654457
1769661638372741400,0.242741455078125,0.012855610810220242,0.042206309735774994,-0.02388029918074608
1769661638382729500,0.2527294921875,0.012834838591516018,0.044730186462402344,-0.020654678344726562
1769661638392717300,0.26271728515625,0.013518472202122211,0.049610428512096405,-0.023145265877246857
1769661638402705400,0.272705322265625,0.016868196427822113,0.05691761150956154,-0.029876671731472015
1769661638412693500,0.282693603515625,0.018282068893313408,0.06683921813964844,-0.03365569934248924
1769661638422681600,0.292681640625,0.01920032687485218,0.07604390382766724,-0.035280492156744
1769661638432669400,0.30266943359375,0.01636006496846676,0.08496469259262085,-0.035770781338214874
1769661638442658300,0.312658203125,0.015085475519299507,0.08932455629110336,-0.039073098450899124
1769661638452646400,0.322646484375,0.005726595409214497,0.06506261974573135,-0.030482009053230286
1769661638462634500,0.332634521484375,0.014752048067748547,0.047392550855875015,-0.032285235822200775
1769661638472622300,0.342622314453125,0.015156315639615059,0.04779601842164993,-0.04098578169941902
1769661638482610400,0.3526103515625,0.011276889592409134,0.0501241534948349,-0.042088862508535385
1769661638492598500,0.3625986328125,0.009157545864582062,0.04893451929092407,-0.03576092794537544
1769661638502586400,0.37258642578125,0.0060206083580851555,0.04538559168577194,-0.027771709486842155
1769661638512574500,0.382574462890625,0.007949535734951496,0.04104117676615715,-0.026559971272945404
1769661638522562600,0.3925625,0.007196393795311451,0.03838680312037468,-0.025603098794817924
1769661638532550400,0.40255029296875,0.012745356187224388,0.03575506806373596,-0.02478044666349888
1769661638542538500,0.41253857421875,0.01082947850227356,0.029992520809173584,-0.01877501979470253
1769661638552526600,0.422526611328125,0.01014078501611948,0.019452260807156563,-0.011094995774328709
1769661638562514400,0.432514404296875,0.008220379240810871,0.012355202808976173,-0.007976433262228966
1769661638572502300,0.442502197265625,0.009004147723317146,0.0057098171673715115,-0.012588229961693287
1769661638582490400,0.452490478515625,0.006038983818143606,0.005703425966203213,-0.018079401925206184
1769661638592479500,0.4624794921875,0.005969741847366095,0.008310128003358841,-0.019270101562142372
1769661638602467600,0.472467529296875,0.006622748915106058,0.012655074708163738,-0.012568255886435509
1769661638612455400,0.482455322265625,0.0037984666414558887,0.009752762503921986,0.00037976677413098514
1769661638622443500,0.492443603515625,0.005155880004167557,-0.0036250948905944824,0.011778095737099648
1769661638632431600,0.502431640625,0.004687163513153791,-0.01137169823050499,0.013672668486833572
1769661638642419500,0.51241943359375,0.003751062322407961,-0.010999388061463833,0.0035473306197673082
1769661638652407300,0.5224072265625,0.003774498123675585,-0.011828962713479996,0.0005515406373888254
1769661638662395400,0.5323955078125,0.0014660701854154468,-0.0017606157343834639,-0.0016524913953617215
1769661638672383500,0.542383544921875,0.003620301140472293,0.010670754127204418,-0.0017217335989698768
1769661638682371300,0.552371337890625,0.0017904432024806738,0.008951683528721333,-0.004776113200932741
1769661638692359400,0.562359375,0.006718622520565987,-0.0037771612405776978,-0.0038424087688326836
1769661638702347500,0.572347412109375,0.006702111102640629,-0.010675814002752304,0.0004953479510731995
1769661638712335400,0.58233544921875,0.008469651453197002,-0.010318949818611145,0.003686347510665655
1769661638722323500,0.592323486328125,0.005147357936948538,-0.004396612755954266,0.0032344090286642313
1769661638732311600,0.6023115234375,0.006373477168381214,0.0002817624481394887,-0.002317482838407159
1769661638742299600,0.612299560546875,0.004450141917914152,0.008477640338242054,-0.0049585397355258465
1769661638752288300,0.622288330078125,0.004541222471743822,0.011022557504475117,-0.0037758296821266413
1769661638762276400,0.6322763671875,0.004579039290547371,0.010428672656416893,-0.0027092336677014828
1769661638772264400,0.642264404296875,0.005830991081893444,0.011871573515236378,-0.007895473390817642
1769661638782252500,0.65225244140625,0.009319998323917389,0.016893496736884117,-0.01631319336593151
1769661638792240400,0.662240478515625,0.00996421743184328,0.02052897773683071,-0.017800036817789078
1769661638802228500,0.672228515625,0.0091732582077384,0.02484303154051304,-0.015607189387083054
1769661638812216600,0.682216552734375,0.0057473680935800076,0.02522199973464012,-0.01593981869518757
1769661638822204400,0.692204345703125,0.0031193606555461884,0.024025974795222282,-0.01955479197204113
1769661638832192500,0.702192626953125,0.0019254654180258512,0.015514245256781578,-0.02375992387533188
1769661638842180600,0.7121806640625,0.0025217472575604916,0.010158095508813858,-0.026880882680416107
1769661638852168400,0.72216845703125,0.005900233518332243,0.006583333946764469,-0.018578210845589638
1769661638862156300,0.73215625,0.006828078534454107,0.006560430862009525,-0.009439308196306229
1769661638872144400,0.742144287109375,0.0060238041914999485,0.006463225465267897,-0.008510397747159004
1769661638882132500,0.752132568359375,0.003206445835530758,0.009189769625663757,-0.012108860537409782
1769661638892120300,0.762120361328125,-0.00044314999831840396,0.009738647378981113,-0.016405604779720306
1769661638902109400,0.772109375,-0.0023696806747466326,-0.0013004215434193611,-0.010840397328138351
1769661638912097500,0.78209765625,0.0023361248895525932,-0.018736403435468674,0.0006479470757767558
1769661638922085600,0.792085693359375,0.004968393128365278,-0.03003566339612007,0.010720022022724152
1769661638932073500,0.802073486328125,0.005025384947657585,-0.03410017862915993,0.015123292803764343
1769661638942061300,0.812061279296875,0.0008165251929312944,-0.04012824594974518,0.01654755137860775
1769661638952049000,0.822048828125,-0.0031380027066916227,-0.04668095335364342,0.015245531685650349
1769661638962037000,0.832037109375,-0.0038480013608932495,-0.060921140015125275,0.014390656724572182
1769661638972025000,0.842025146484375,-0.0033097765408456326,-0.06850022822618484,0.01782267354428768
1769661638982013000,0.852012939453125,-0.0014921691035851836,-0.07655788958072662,0.026164758950471878
1769661638992001000,0.8620009765625,0.0013467605458572507,-0.08038352429866791,0.036981720477342606
1769661639001989000,0.871989013671875,0.0011531487107276917,-0.08316865563392639,0.04686577618122101
1769661639011977200,0.881977294921875,0.0038091193418949842,-0.065320685505867,0.04100176319479942
1769661639021965000,0.891965087890625,-0.0027052389923483133,-0.05002854764461517,0.02870967611670494
1769661639031953200,0.901953125,-0.003404052462428808,-0.04899763688445091,0.021024858579039574
1769661639041941200,0.911941162109375,-0.002335592173039913,-0.04858165234327316,0.018500713631510735
1769661639051930000,0.92193017578125,-0.0010428938549011946,-0.045097969472408295,0.022541794925928116
1769661639061918000,0.93191796875,0.0009475527331233025,-0.047873251140117645,0.02551228366792202
1769661639071906000,0.941906005859375,0.004011253360658884,-0.050396062433719635,0.026103772222995758
1769661639081894100,0.95189404296875,0.0013156015193089843,-0.052318599075078964,0.02388269640505314
1769661639091882000,0.961882080078125,0.0044072652235627174,-0.0584140419960022,0.026565298438072205
1769661639101870000,0.9718701171875,-0.010672884061932564,-0.06684321165084839,0.03497582674026489
1769661639111858200,0.981858154296875,-0.003971039317548275,-0.09432410448789597,0.049073003232479095
1769661639121846000,0.991845947265625,0.012222577817738056,-0.07912171632051468,0.030821828171610832
1769661639131834000,1.001834228515625,0.0030482541769742966,-0.041678737848997116,0.012133628129959106
1769661639141822200,1.011822265625,0.006076534744352102,-0.022898657247424126,-0.009325058199465275
1769661639151810000,1.02181005859375,-0.0010972223244607449,0.036193955689668655,-0.07117511332035065
1769661639161798000,1.0317978515625,-0.005622465629130602,0.291626513004303,-0.2867864966392517
1769661639171786000,1.041785888671875,-0.016166985034942627,0.390662282705307,-0.31263619661331177
1769661639181774000,1.051774169921875,-0.0025302693247795105,0.3845234513282776,-0.22080907225608826
1769661639191762000,1.061761962890625,0.004078098572790623,0.3651534616947174,-0.15583433210849762
1769661639201751000,1.0717509765625,0.007748999632894993,0.32740768790245056,-0.1234833225607872
1769661639211739100,1.0817392578125,0.010853180661797523,0.2931799590587616,-0.10618875175714493
1769661639221727200,1.091727294921875,0.0021587584633380175,0.16167864203453064,-0.07531765848398209
1769661639231715000,1.101715087890625,-0.00538464542478323,0.011651596054434776,-0.040768735110759735
1769661639241703000,1.111702880859375,-0.01050270814448595,-0.08690134435892105,-0.010454504750669003
1769661639251691000,1.12169091796875,-0.0163603313267231,-0.11331244558095932,0.007408647798001766
1769661639261679000,1.13167919921875,-0.019225891679525375,-0.11621502041816711,0.01992950029671192
1769661639271667000,1.1416669921875,-0.02033429965376854,-0.11846140027046204,0.016986973583698273
1769661639281655000,1.151655029296875,-0.016348879784345627,-0.10361187905073166,0.0009052084642462432
1769661639291643100,1.16164306640625,-0.0007195860962383449,-0.05356975272297859,-0.01582823134958744
1769661639301631000,1.171630859375,0.005434446502476931,0.01944666914641857,-0.027225762605667114
1769661639311619000,1.181619140625,0.0037529265973716974,0.0846291333436966,-0.03289669752120972
1769661639321607200,1.191607177734375,0.003970507066696882,0.12562210857868195,-0.03393905982375145
1769661639331595300,1.20159521484375,-0.00046924897469580173,0.13208426535129547,-0.039094407111406326
1769661639341583000,1.2115830078125,-0.0005289037944748998,0.10380149632692337,-0.04643780738115311
1769661639351571200,1.2215712890625,-0.00016245282313320786,0.057672351598739624,-0.04674353823065758
1769661639361560000,1.23156005859375,-0.0052951630204916,0.023182017728686333,-0.032577116042375565
1769661639371548200,1.241548095703125,-0.005423261318355799,-0.010696852579712868,-0.011463843286037445
1769661639381536000,1.251535888671875,-0.005690642632544041,-0.037934064865112305,0.0015219965716823936
1769661639391524000,1.261524169921875,-0.004720186814665794,-0.044672928750514984,0.0001901497016660869
1769661639401512200,1.27151220703125,-0.0030487868934869766,-0.02737516537308693,-0.005530586466193199
1769661639411500000,1.2815,-0.0024522386956959963,-0.005277053453028202,-0.01284415926784277
1769661639421488000,1.291488037109375,-0.0019627497531473637,0.011125887744128704,-0.021449098363518715
1769661639431476200,1.301476318359375,-0.0014405038673430681,0.029195701703429222,-0.02466912753880024
1769661639441464000,1.311464111328125,-0.0034432008396834135,0.037584125995635986,-0.020140955224633217
1769661639451452000,1.321451904296875,-0.001645567244850099,0.031129157170653343,-0.011485947296023369
1769661639461440000,1.33143994140625,-0.0025987126864492893,0.019748138263821602,-0.005406749434769154
1769661639471428000,1.341427978515625,-0.002201901515945792,0.007345530670136213,-0.0031792817171663046
1769661639481416000,1.351416015625,-0.0032112395856529474,-0.0005872269975952804,-0.005890646018087864
1769661639491404000,1.361404052734375,-0.0015494271647185087,-0.00475587323307991,-0.012226039543747902
1769661639501392100,1.37139208984375,-0.0019917781464755535,0.0015504923649132252,-0.016745423898100853
1769661639511380200,1.381380126953125,-0.00242107966914773,0.007081877905875444,-0.009236374869942665
1769661639521369000,1.391369140625,-0.0026754115242511034,0.00836632028222084,-0.002573146251961589
1769661639531357000,1.40135693359375,-0.003038400551304221,0.008496282622218132,-0.002359560690820217
1769661639541345000,1.411344970703125,-0.0007323693134821951,0.010483799502253532,-0.0023257385473698378
1769661639551333000,1.4213330078125,0.0004135889175813645,0.009250489994883537,-0.0014413028256967664
1769661639561321000,1.431321044921875,-0.0021142836194485426,0.009904296137392521,-0.0003278351214248687
1769661639571309000,1.44130908203125,-0.001898034941405058,0.00794447585940361,0.00021118867152836174
1769661639581297200,1.451297119140625,-0.0014061490073800087,0.01095464639365673,0.00021917815320193768
1769661639591285000,1.461284912109375,-0.0007107976707629859,0.013347763568162918,-0.0030631679110229015
1769661639601273000,1.471273193359375,0.0006053365068510175,0.014301707968115807,-0.0038890140131115913
1769661639611261200,1.48126123046875,0.000287088769255206,0.013426059857010841,-0.005909554194658995
1769661639621249000,1.4912490234375,0.0003222425002604723,0.016398148611187935,-0.006451241206377745
1769661639631237000,1.501237060546875,0.0006274407496675849,0.007892810739576817,-0.007324757985770702
1769661639641225200,1.51122509765625,-0.0008008125587366521,0.00732395937666297,-0.005565207917243242
1769661639651213000,1.521213134765625,-0.0016261261189356446,0.011590609326958656,-0.00567013630643487
1769661639661201000,1.531200927734375,0.000002663161012605997,0.011773568578064442,-0.008385228924453259
1769661639671189000,1.54118896484375,-0.001969407545402646,0.01212723646312952,-0.006262423470616341
1769661639681178000,1.55117822265625,-0.0002695118892006576,0.008447546511888504,-0.0020413128659129143
1769661639691166200,1.561166259765625,-0.0011739213950932026,0.0005400890368036926,-0.0009408948244526982
1769661639701154000,1.571154052734375,-0.0014125406742095947,-0.0024000408593565226,-0.0037081853952258825
1769661639711142100,1.58114208984375,-0.006586796138435602,-0.0022836606949567795,-0.0041273669339716434
1769661639721130200,1.591130126953125,-0.0057066213339567184,-0.0028581044171005487,-0.003943342715501785
1769661639731118000,1.6011181640625,-0.007813714444637299,-0.0014884406700730324,-0.0011203918838873506
1769661639741106000,1.61110595703125,-0.006469883490353823,-0.005613677203655243,-0.0011608719360083342
1769661639751094000,1.621093994140625,-0.004891161806881428,-0.008351939730346203,-0.001216798322275281
1769661639761082000,1.63108203125,-0.00395639194175601,-0.0034903388004750013,-0.005613410845398903
1769661639771070000,1.641070068359375,-0.005840844940394163,0.006244047544896603,-0.004939364735037088
1769661639781058000,1.65105810546875,-0.0049766493029892445,0.007510380353778601,-0.003079413203522563
1769661639791046100,1.661046142578125,-0.005742574110627174,0.005681055132299662,-0.0014112089993432164
1769661639801034000,1.671033935546875,-0.00794394314289093,-0.0008966863388195634,0.0007752461824566126
1769661639811022000,1.68102197265625,-0.007897870615124702,-0.003347327234223485,-0.000245543458731845
1769661639821010200,1.69101025390625,-0.00857404712587595,-0.005149754695594311,0.0016410398529842496
1769661639830999000,1.7009990234375,-0.008285626769065857,-0.006304767448455095,0.005941512528806925
1769661639840987000,1.71098681640625,-0.006037119776010513,-0.01010829396545887,0.010006560944020748
1769661639850975000,1.72097509765625,-0.0065132929012179375,-0.012168249115347862,0.012029765173792839
1769661639860963000,1.730963134765625,-0.007809720002114773,-0.012716860510408878,0.01563941314816475
1769661639870951200,1.740951171875,-0.0062581622041761875,-0.01847434788942337,0.014825285412371159
1769661639880939000,1.75093896484375,-0.005927663762122393,-0.02478311024606228,0.01449638418853283
1769661639890927000,1.760927001953125,-0.0037236318457871675,-0.02797224558889866,0.020073575899004936
1769661639900915200,1.770915283203125,0.001133174984715879,-0.02919170819222927,0.02509363554418087
1769661639910903000,1.780903076171875,-0.0000804274677648209,-0.029869215562939644,0.0340740792453289
1769661639920891100,1.79089111328125,-0.0021907163318246603,-0.030759243294596672,0.036313265562057495
1769661639930879200,1.800879150390625,-0.007012635935097933,-0.03391934931278229,0.032348085194826126
1769661639940867000,1.8108671875,-0.007631554268300533,-0.04589878022670746,0.021135644987225533
1769661639950855000,1.82085498046875,-0.007679224945604801,-0.05001522973179817,0.016258863732218742
1769661639960842500,1.830842529296875,-0.004123372491449118,-0.0512796975672245,0.015422898344695568
1769661639970830600,1.84083056640625,0.0005765743553638458,-0.05061337724328041,0.018098043277859688
1769661639980818700,1.850818603515625,0.0038016624748706818,-0.05121125653386116,0.024401480332016945
1769661639990807800,1.860807861328125,0.00824008695781231,-0.0511031299829483,0.02580549754202366
1769661640000795600,1.870795654296875,0.007367368787527084,-0.04995104670524597,0.0245551448315382
1769661640010783700,1.88078369140625,0.0043295007199049,-0.04543565958738327,0.024571655318140984
1769661640020771800,1.890771728515625,0.0008074704091995955,-0.03886883705854416,0.025910425931215286
1769661640030760000,1.900760009765625,-0.004747883416712284,-0.03573083132505417,0.02100781351327896
1769661640040747500,1.91074755859375,-0.0036272252909839153,-0.03581312298774719,0.015394669026136398
1769661640050735600,1.920735595703125,-0.00018908442871179432,-0.03729544207453728,0.0114369448274374
1769661640060723700,1.9307236328125,0.0010998855577781796,-0.04152214154601097,0.010949852876365185
1769661640070711600,1.940711669921875,-0.00043782367720268667,-0.039455264806747437,0.015809057280421257
1769661640080699600,1.95069970703125,-0.0025600967928767204,-0.0349033884704113,0.023667246103286743
1769661640090687700,1.960687744140625,-0.003418699838221073,-0.03656839579343796,0.02683534286916256
1769661640100675600,1.970675537109375,-0.0013603427214547992,-0.0474865585565567,0.02707848884165287
1769661640110663700,1.98066357421875,0.00538304727524519,-0.06088279187679291,0.026331473141908646
1769661640120651800,1.99065185546875,0.009788448922336102,-0.07306968420743942,0.03073980286717415
1769661640130640000,2.000639892578125,0.014916365034878254,-0.07860985398292542,0.03886324167251587
1769661640140628700,2.010628662109375,0.008201204240322113,-0.07548277080059052,0.0494232103228569
1769661640150616600,2.020616455078125,0.0027209515683352947,-0.0705316886305809,0.05319610983133316
1769661640160604700,2.030604736328125,0.0032557144295424223,-0.06894630938768387,0.05703558772802353
1769661640170592800,2.0405927734375,0.0033800839446485043,-0.07685376703739166,0.05408720299601555
1769661640180580600,2.05058056640625,0.002270611235871911,-0.08258488774299622,0.058027349412441254
1769661640190568700,2.060568603515625,0.00401604687795043,-0.09148544073104858,0.06530949473381042
1769661640200556800,2.070556884765625,0.006115150637924671,-0.104801245033741,0.07123929262161255
1769661640210544600,2.080544677734375,0.016515860334038734,-0.11855247616767883,0.07140840590000153
1769661640220532700,2.09053271484375,0.018802981823682785,-0.1268162727355957,0.07463669031858444
1769661640230520800,2.100520751953125,0.017911089584231377,-0.12507562339305878,0.07859068363904953
1769661640240508700,2.1105087890625,0.012201272882521152,-0.12318984419107437,0.08758044987916946
1769661640250496500,2.12049658203125,0.007097324356436729,-0.12365137040615082,0.09214377403259277
1769661640260484600,2.130484619140625,0.0044016726315021515,-0.13490988314151764,0.09026544541120529
1769661640270472700,2.14047265625,0.0011587414192035794,-0.14412468671798706,0.07578451186418533
1769661640280460500,2.15046044921875,0.0026008430868387222,-0.14130306243896484,0.05850006267428398
1769661640290449700,2.16044970703125,-0.0007709851488471031,-0.12613050639629364,0.04453098401427269
1769661640300437800,2.170437744140625,-0.0022530341520905495,-0.10869185626506805,0.03651779890060425
1769661640310425900,2.18042578125,0.001472728094086051,-0.09646715223789215,0.03549807146191597
1769661640320413700,2.19041357421875,0.0028418591246008873,-0.08211085200309753,0.04182521253824234
1769661640330401500,2.200401611328125,0.00950748473405838,-0.07715737074613571,0.04737177491188049
1769661640340389600,2.2103896484375,0.008985239081084728,-0.07499781250953674,0.04945330321788788
1769661640350377700,2.220377685546875,0.002353435382246971,-0.05778580158948898,0.047810398042201996
1769661640360365600,2.230365478515625,-0.00466505903750658,-0.03863261267542839,0.04144730791449547
1769661640370353700,2.240353759765625,-0.009905095212161541,-0.019638415426015854,0.025900838896632195
1769661640380341800,2.250341796875,-0.004799016285687685,-0.01630120910704136,0.006674148142337799
1769661640390329600,2.26032958984375,-0.0021105550695210695,-0.023269370198249817,-0.0030834078788757324
1769661640400317700,2.270317626953125,0.0033726270776242018,-0.02725851908326149,0.0003683151735458523
1769661640410305800,2.280305908203125,0.004009655211120844,-0.03599635139107704,0.008220645599067211
1769661640420294000,2.2902939453125,0.002409894485026598,-0.03512603044509888,0.012525645084679127
1769661640430281700,2.30028173828125,0.0014807175612077117,-0.033723343163728714,0.011815913021564484
1769661640440269800,2.310269775390625,0.000075101139373146,-0.024179106578230858,0.011321363970637321
1769661640450258700,2.3202587890625,-0.0006570018595084548,-0.01654408872127533,0.011474495753645897
1769661640460246800,2.330246826171875,-0.005034439731389284,-0.008871255442500114,0.020376645028591156
1769661640470234600,2.340234619140625,-0.008173241280019283,-0.0075884112156927586,0.024417458102107048
1769661640480222700,2.35022265625,-0.009752229787409306,-0.014197311364114285,0.01721573807299137
1769661640490210800,2.3602109375,-0.006875482853502035,-0.02075108513236046,0.005338838789612055
1769661640500198700,2.37019873046875,-0.00572925852611661,-0.01949194259941578,-0.011834022589027882
1769661640510186800,2.380186767578125,-0.0027025758754462004,-0.007005445193499327,-0.02550429478287697
1769661640520174800,2.3901748046875,-0.002205097349360585,0.019836023449897766,-0.030074013397097588
1769661640530162700,2.40016259765625,-0.003364105010405183,0.044738441705703735,-0.02671683207154274
1769661640540150500,2.410150634765625,-0.0014735270524397492,0.05784465745091438,-0.0240174513310194
1769661640550138600,2.420138671875,-0.0013755226973444223,0.0593474805355072,-0.02484649419784546
1769661640560126700,2.430126708984375,-0.004348942078649998,0.05132018029689789,-0.024162594228982925
1769661640570114600,2.440114501953125,-0.007704791147261858,0.0336487740278244,-0.021812887862324715
1769661640580102700,2.4501025390625,-0.008285893127322197,0.011836419813334942,-0.019332418218255043
1769661640590090800,2.4600908203125,-0.010736001655459404,-0.012630840763449669,-0.02040753699839115
1769661640600080000,2.470079833984375,-0.009869408793747425,-0.023082682862877846,-0.013882259838283062
1769661640610067700,2.480067626953125,-0.009437443688511848,-0.02329440414905548,-0.007734884973615408
1769661640620055600,2.4900556640625,-0.009107477962970734,-0.025073660537600517,-0.003832288784906268
1769661640630043600,2.500043701171875,-0.008271778002381325,-0.023274695500731468,-0.0025936525780707598
1769661640640031700,2.51003173828125,-0.00803156103938818,-0.015139271505177021,-0.011305118910968304
1769661640650019600,2.52001953125,-0.004221110139042139,-0.001219727797433734,-0.02436579391360283
1769661640660007700,2.530007568359375,-0.004487692844122648,0.01452621165663004,-0.0368453674018383
1769661640669995800,2.539995849609375,-0.0062706791795790195,0.03506770730018616,-0.040650222450494766
1769661640679983600,2.549983642578125,-0.0030887341126799583,0.049983538687229156,-0.036138296127319336
1769661640689971700,2.5599716796875,-0.0018152105621993542,0.05330663174390793,-0.03050517849624157
1769661640699959800,2.569959716796875,-0.0008154599345289171,0.044499024748802185,-0.030291059985756874
1769661640709947600,2.57994775390625,0.0008761800127103925,0.032825857400894165,-0.03517982363700867
1769661640719935700,2.589935791015625,0.0011499529937282205,0.02449415810406208,-0.04446839913725853
1769661640729923800,2.599923828125,-0.0016048208344727755,0.02913258597254753,-0.06308842450380325
1769661640739911700,2.60991162109375,-0.004655205644667149,0.053700245916843414,-0.09099754691123962
1769661640749900800,2.61990087890625,-0.0070888022892177105,0.08304481953382492,-0.12223856151103973
1769661640759888600,2.629888671875,-0.02148984558880329,0.14739185571670532,-0.1310136765241623
1769661640769876700,2.639876708984375,-0.03033233992755413,0.20411238074302673,-0.10439884662628174
1769661640779864800,2.64986474609375,-0.02610989660024643,0.18040385842323303,-0.09773082286119461
1769661640789852700,2.659852783203125,-0.020596887916326523,0.1343199908733368,-0.10782712697982788
1769661640799840800,2.6698408203125,-0.0214749313890934,0.1089315414428711,-0.11505628377199173
1769661640809828900,2.679828857421875,-0.02195802889764309,0.11019974201917648,-0.125299334526062
1769661640819816700,2.689816650390625,-0.005318332463502884,0.10432161390781403,-0.1609390825033188
1769661640829804500,2.699804443359375,-0.01543621439486742,0.1280232071876526,-0.16840073466300964
1769661640839792600,2.709792724609375,-0.006639793049544096,0.19300194084644318,-0.1515253484249115
1769661640849780700,2.71978076171875,0.0009603358921594918,0.2496654987335205,-0.14806003868579865
1769661640859768600,2.7297685546875,-0.015590145252645016,0.24568113684654236,-0.16494899988174438
1769661640869756700,2.739756591796875,-0.026816433295607567,0.22859641909599304,-0.16701029241085052
1769661640879744800,2.749744873046875,-0.001680720946751535,0.21611525118350983,-0.15727244317531586
1769661640889732600,2.759732666015625,0.027698738500475883,0.18705298006534576,-0.14222292602062225
1769661640899721700,2.7697216796875,0.032825589179992676,0.14373932778835297,-0.12232271581888199
1769661640909709600,2.77970947265625,0.028067853301763535,0.10146723687648773,-0.09341197460889816
1769661640919697700,2.78969775390625,0.03242744877934456,0.10973022878170013,-0.05727554112672806
1769661640929685500,2.799685546875,0.01906770095229149,0.0983785018324852,-0.023914920166134834
1769661640939673600,2.809673583984375,0.008162588812410831,0.05975307896733284,-0.009321596473455429
1769661640949661700,2.81966162109375,0.008770056068897247,0.01555472519248724,-0.0052442969754338264
1769661640959650600,2.829650634765625,0.010087255388498306,-0.03531884029507637,0.006444050930440426
1769661640969638700,2.839638671875,0.005859486758708954,-0.06731539219617844,0.01726607233285904
1769661640979626800,2.849626708984375,0.005163336638361216,-0.07507504522800446,0.028323782607913017
1769661640989614600,2.859614501953125,0.004311657976359129,-0.07737574726343155,0.03708318620920181
1769661640999602400,2.8696025390625,0.0031997880432754755,-0.06753936409950256,0.03531111776828766
1769661641009590500,2.879590576171875,0.0032866070978343487,-0.04730333387851715,0.029677467420697212
1769661641019578600,2.88957861328125,0.003356115659698844,-0.01944800093770027,0.015326225198805332
1769661641029566500,2.89956640625,0.0041276332922279835,0.018196580931544304,-0.006971356924623251
1769661641039554600,2.909554443359375,0.0062946476973593235,0.06919318437576294,-0.0343630351126194
1769661641049543700,2.919543701171875,0.00561207951977849,0.1285281479358673,-0.06598647683858871
1769661641059531800,2.92953173828125,0.006053631659597158,0.14512842893600464,-0.07699891179800034
1769661641069519600,2.93951953125,0.007132744416594505,0.13141874969005585,-0.08445336669683456
1769661641079507700,2.9495078125,0.0100827282294631,0.10822127759456635,-0.08861508965492249
1769661641089495600,2.95949560546875,0.0024863271974027157,0.09465833008289337,-0.09150435030460358
1769661641099483400,2.9694833984375,0.001270594191737473,0.10997629910707474,-0.0844525694847107
1769661641109471500,2.979471435546875,-0.0035577169619500637,0.09875347465276718,-0.0732068344950676
1769661641119459600,2.98945947265625,-0.009388175792992115,0.07520873099565506,-0.0679984912276268
1769661641129447400,2.999447509765625,-0.010873153805732727,0.055635832250118256,-0.06737371534109116
1769661641139435500,3.009435546875,-0.011387144215404987,0.03353798761963844,-0.06481335312128067
1769661641149423600,3.019423583984375,-0.010367419570684433,0.015802664682269096,-0.06476381421089172
1769661641159411700,3.02941162109375,-0.010122142732143402,0.008102667517960072,-0.06897693872451782
1769661641169399600,3.039399658203125,-0.011873703449964523,0.010946391150355339,-0.07012902200222015
1769661641179387600,3.0493876953125,-0.012223110534250736,0.0189630389213562,-0.0713849663734436
1769661641189375700,3.059375732421875,-0.011087538674473763,0.03248151019215584,-0.07417329400777817
1769661641199363600,3.069363525390625,-0.010587130673229694,0.04841866344213486,-0.07129255682229996
1769661641209352400,3.0793525390625,-0.009097890928387642,0.05293858051300049,-0.06786533445119858
1769661641219340500,3.089340576171875,-0.008218781091272831,0.04565510153770447,-0.061476677656173706
1769661641229328600,3.09932861328125,-0.0036338833160698414,0.027247866615653038,-0.047621846199035645
1769661641239316500,3.10931640625,-0.003087935270741582,0.024055268615484238,-0.033785928040742874
1769661641249304600,3.1193046875,-0.0007246461464092135,0.02576395310461521,-0.027244403958320618
1769661641259292700,3.129292724609375,0.0014359764754772186,0.024755680933594704,-0.02323261834681034
1769661641269280800,3.13928076171875,-0.00021358551748562604,0.01920298859477043,-0.011436413042247295
1769661641279268600,3.1492685546875,0.00033182985498569906,0.011041199788451195,-0.0001728391507640481
1769661641289256400,3.15925634765625,-0.003963582683354616,-0.00236302288249135,0.013732589781284332
1769661641299244500,3.16924462890625,-0.005663744639605284,-0.01888687163591385,0.023479759693145752
1769661641309232400,3.179232421875,-0.012459599412977695,-0.03699743375182152,0.0319984145462513
1769661641319220500,3.189220458984375,-0.015146195888519287,-0.04784821718931198,0.03202158212661743
1769661641329208600,3.19920849609375,-0.02099609561264515,-0.06192275509238243,0.03176086023449898
1769661641339196700,3.20919677734375,-0.023434752598404884,-0.07275276631116867,0.02749554067850113
1769661641349185500,3.219185546875,-0.02123657986521721,-0.07277620583772659,0.023144466802477837
1769661641359173600,3.229173583984375,-0.017525730654597282,-0.06867013871669769,0.020791564136743546
1769661641369161700,3.23916162109375,-0.01581731252372265,-0.061402373015880585,0.011652927845716476
1769661641379149600,3.249149658203125,-0.014659636653959751,-0.05028447508811951,-0.0005395564367063344
1769661641389137400,3.259137451171875,-0.01624927669763565,-0.02654319442808628,-0.011318966746330261
1769661641399125500,3.26912548828125,-0.01380928885191679,0.002275404753163457,-0.026884078979492188
1769661641409113600,3.279113525390625,-0.013952567242085934,0.020532438531517982,-0.03886617347598076
1769661641419101400,3.289101318359375,-0.010755708441138268,0.034815236926078796,-0.044864676892757416
1769661641429089500,3.299089599609375,-0.012057461775839329,0.04944904148578644,-0.04769961163401604
1769661641439077600,3.30907763671875,-0.010520551353693008,0.05760470777750015,-0.04839682579040527
1769661641449065700,3.319065673828125,-0.015309447422623634,0.05971206724643707,-0.05142723768949509
1769661641459053600,3.329053466796875,-0.017474863678216934,0.05686621367931366,-0.0559234544634819
1769661641469041700,3.339041748046875,-0.014319284819066525,0.050088733434677124,-0.06358270347118378
1769661641479029800,3.34902978515625,-0.012766394764184952,0.03858201205730438,-0.060923270881175995
1769661641489018600,3.3590185546875,-0.010179134085774422,0.02533118985593319,-0.05789845436811447
1769661641499006500,3.36900634765625,-0.008195078931748867,0.01635793410241604,-0.054678160697221756
1769661641508994600,3.37899462890625,-0.007261108607053757,0.010278469882905483,-0.04999685287475586
1769661641518982700,3.388982666015625,-0.005774531979113817,0.0027020431589335203,-0.048337437212467194
1769661641528970500,3.398970458984375,-0.004571582190692425,-0.0006578007596544921,-0.04379115626215935
1769661641538958600,3.40895849609375,-0.0018868496408686042,-0.003781156148761511,-0.03922995924949646
1769661641548946700,3.41894677734375,-0.0026343988720327616,-0.004560397006571293,-0.033668216317892075
1769661641558934800,3.428934814453125,-0.007752195466309786,-0.004306597635149956,-0.03284023702144623
1769661641568922600,3.438922607421875,-0.00695085059851408,-0.0005597964627668262,-0.04170776531100273
1769661641578910500,3.448910400390625,-0.00887977797538042,0.0035683694295585155,-0.05709657445549965
1769661641588898600,3.458898681640625,-0.009132511913776398,0.01894386298954487,-0.07033035904169083
1769661641598886400,3.468886474609375,-0.007143929600715637,0.03610261157155037,-0.07815578579902649
1769661641608874500,3.47887451171875,-0.005605421494692564,0.04496214911341667,-0.08099471777677536
1769661641618862600,3.488862548828125,-0.0004876247840002179,0.04369821026921272,-0.08257823437452316
1769661641628850400,3.498850341796875,-0.0013337110867723823,0.040758613497018814,-0.0812905952334404
1769661641638839600,3.508839599609375,-0.0034045851789414883,0.04188593104481697,-0.0829649269580841
1769661641648827600,3.51882763671875,-0.0031380027066916227,0.039681099355220795,-0.08129139244556427
1769661641658815700,3.528815673828125,-0.004554005339741707,0.03465305268764496,-0.07933157682418823
1769661641668803600,3.538803466796875,-0.010484598577022552,0.033433057367801666,-0.07269897311925888
1769661641678791400,3.54879150390625,-0.012560798786580563,0.0367598794400692,-0.07037828862667084
1769661641688779500,3.558779541015625,-0.014026869088411331,0.031085481867194176,-0.07094927132129669
1769661641698767600,3.568767578125,-0.013627927750349045,0.02213805913925171,-0.07225874811410904
1769661641708755500,3.57875537109375,-0.007671768311411142,0.013010607101023197,-0.06900463253259659
1769661641718743600,3.58874365234375,-0.0036365464329719543,0.0065649584867060184,-0.062433019280433655
1769661641728731600,3.598731689453125,-0.004862932022660971,-0.0010713896481320262,-0.054066963493824005
1769661641738719500,3.608719482421875,-0.006317817140370607,-0.004880242515355349,-0.049376070499420166
1769661641748707600,3.61870751953125,-0.012924853712320328,-0.01152616087347269,-0.051300473511219025
1769661641758695700,3.62869580078125,-0.00999031588435173,-0.010674748569726944,-0.05880499258637428
1769661641768683800,3.638683837890625,-0.010186591185629368,0.003681021276861429,-0.06241730600595474
1769661641778672600,3.648672607421875,-0.006957774516195059,0.02634745091199875,-0.06339521706104279
1769661641788660500,3.658660400390625,-0.0023129554465413094,0.03550952300429344,-0.0581304132938385
1769661641798648600,3.668648681640625,0.005873868241906166,0.030827155336737633,-0.04964505136013031
1769661641808636700,3.67863671875,0.01047607697546482,0.032884977757930756,-0.03826882690191269
1769661641818624500,3.68862451171875,0.001936650718562305,0.03520885482430458,-0.030674289911985397
1769661641828612600,3.698612548828125,-0.007595335599035025,0.03831702843308449,-0.025008147582411766
1769661641838600700,3.7086005859375,-0.01347719319164753,0.037880271673202515,-0.02797490917146206
1769661641848588500,3.718588623046875,-0.012133361771702766,0.03209322318434715,-0.043767187744379044
1769661641858576600,3.72857666015625,-0.010350908152759075,0.033057551831007004,-0.06043298542499542
1769661641868564500,3.738564453125,-0.015533685684204102,0.04745300114154816,-0.06743230670690536
1769661641878552600,3.748552490234375,-0.019026687368750572,0.06034829467535019,-0.0631406158208847
1769661641888540400,3.75854052734375,-0.01828925870358944,0.06638115644454956,-0.05573010817170143
1769661641898528500,3.768528564453125,-0.014785337261855602,0.07196953147649765,-0.041190579533576965
1769661641908516600,3.7785166015625,-0.009980728849768639,0.07452376931905746,-0.035358790308237076
1769661641918505700,3.788505615234375,-0.01110351737588644,0.07551392912864685,-0.03202131763100624
1769661641928493600,3.79849365234375,-0.017128653824329376,0.07298313081264496,-0.03063860349357128
1769661641938481700,3.808481689453125,-0.018330536782741547,0.05704917013645172,-0.03484932705760002
1769661641948469800,3.8184697265625,-0.01461702585220337,0.04256796836853027,-0.04418397322297096
1769661641958457000,3.82845703125,-0.016879115253686905,0.03562856838107109,-0.053828343749046326
1769661641968445200,3.838445068359375,-0.017834125086665154,0.027597272768616676,-0.058987684547901154
1769661641978432800,3.848432861328125,-0.021290108561515808,0.02166215144097805,-0.05299690365791321
1769661641988420900,3.8584208984375,-0.033490847796201706,0.019872240722179413,-0.048043426126241684
1769661641998409000,3.868408935546875,-0.04188832640647888,0.02707928791642189,-0.04452459141612053
1769661642008397000,3.87839697265625,-0.042379945516586304,0.03545892611145973,-0.04143984988331795
1769661642018385000,3.888385009765625,-0.04180204123258591,0.04146808013319969,-0.03947896510362625
1769661642028373000,3.898373046875,-0.04072505980730057,0.032340630888938904,-0.04494217410683632
1769661642038361000,3.908361083984375,-0.0314873531460762,0.0187838077545166,-0.052201952785253525
1769661642048349000,3.918348876953125,-0.02792271040380001,0.015676164999604225,-0.05940393730998039
1769661642058338000,3.928338134765625,-0.025920813903212547,0.023500798270106316,-0.06250093132257462
1769661642068326000,3.938325927734375,-0.02744121104478836,0.032832782715559006,-0.06412705779075623
1769661642078314000,3.94831396484375,-0.006735667120665312,0.0601046159863472,-0.06609006971120834
1769661642088301800,3.9583017578125,-0.02310185693204403,0.04964211955666542,-0.04947806894779205
1769661642098290000,3.9682900390625,-0.02924976497888565,0.02979091927409172,-0.04771532490849495
1769661642108278000,3.978278076171875,-0.03894580155611038,-0.0026322684716433287,-0.038847796618938446
1769661642118266000,3.98826611328125,-0.045163750648498535,-0.012770656496286392,-0.03958602622151375
1769661642128254000,3.99825390625,-0.04824316129088402,0.0006117281154729426,-0.0342266783118248
1769661642138242000,4.008241943359375,-0.04500316083431244,0.01555365975946188,-0.02371305227279663
1769661642148230100,4.018230224609375,-0.041910164058208466,0.023449400439858437,-0.014809572137892246
1769661642158218000,4.028218017578125,-0.03827787935733795,0.023150593042373657,-0.008475510403513908
1769661642168206000,4.0382060546875,-0.03708025813102722,0.030075078830122948,-0.009156480431556702
1769661642178194000,4.04819384765625,-0.03741368278861046,0.053153231739997864,-0.0009217200567945838
1769661642188181800,4.058181640625,-0.03850638121366501,0.05276893824338913,0.003023486817255616
1769661642198171000,4.0681708984375,-0.04205290973186493,0.04863065108656883,-0.004723116289824247
1769661642208159000,4.078158935546875,-0.046776026487350464,0.0569453090429306,-0.01002307329326868
1769661642218147000,4.08814697265625,-0.047746218740940094,0.057435330003499985,-0.01721254177391529
1769661642228135200,4.09813525390625,-0.04506601020693779,0.049131594598293304,-0.03160106763243675
1769661642238123000,4.108123046875,-0.03822967782616615,0.055456068366765976,-0.044979725033044815
1769661642248111000,4.118111083984375,-0.002740392694249749,0.06881581246852875,-0.06479151546955109
1769661642258099200,4.12809912109375,0.006971889175474644,0.09046145528554916,-0.0640048161149025
1769661642268086800,4.138086669921875,-0.003325489116832614,0.08661478757858276,-0.06706558912992477
1769661642278075000,4.148074951171875,-0.00911333691328764,0.06376513093709946,-0.060386911034584045
1769661642288063000,4.15806298828125,-0.006087719928473234,0.03738731890916824,-0.05037635564804077
1769661642298050800,4.16805078125,-0.004461327567696571,0.04754248633980751,-0.05155107378959656
1769661642308039000,4.178038818359375,0.003984355367720127,0.06420854479074478,-0.039021436125040054
1769661642318027000,4.188027099609375,0.0052964948117733,0.05952617898583412,-0.031442876905202866
1769661642328015000,4.19801513671875,0.0032642364967614412,0.04278554767370224,-0.023187078535556793
1769661642338004200,4.208004150390625,0.0054581486620008945,0.021769477054476738,-0.015558719635009766
1769661642347992000,4.217991943359375,0.01022866927087307,0.003972104750573635,-0.012898487970232964
1769661642357980000,4.22797998046875,0.009874735027551651,-0.015313176438212395,-0.010044644586741924
1769661642367968000,4.237968017578125,0.006988401059061289,-0.027278758585453033,-0.010296313092112541
1769661642377955800,4.247955810546875,0.0032583775464445353,-0.03922197222709656,-0.007419033907353878
1769661642387944000,4.25794384765625,-0.005020591430366039,-0.04159724339842796,-0.007798800710588694
1769661642397932000,4.26793212890625,-0.009436910971999168,-0.03981851786375046,-0.007807589136064053
1769661642407919900,4.277919921875,-0.015175490640103817,-0.034441329538822174,-0.010660100728273392
1769661642417908000,4.287907958984375,-0.013990383595228195,-0.020424848422408104,-0.012853480875492096
1769661642427896000,4.29789599609375,-0.00387330143712461,-0.009792709723114967,-0.011633220128715038
1769661642437884200,4.30788427734375,0.001056476030498743,0.005569468718022108,-0.015045794658362865
1769661642447872000,4.3178720703125,0.006746852304786444,0.016875652596354485,-0.01564820110797882
1769661642457860000,4.327860107421875,0.013350692577660084,0.026131203398108482,-0.018814966082572937
1769661642467848000,4.337847900390625,0.01606445387005806,0.03852049261331558,-0.0190820824354887
1769661642477837000,4.347837158203125,0.012300875037908554,0.047874048352241516,-0.020257601514458656
1769661642487825000,4.357824951171875,0.014802115969359875,0.05287999287247658,-0.022160962224006653
1769661642497813000,4.36781298828125,0.020288759842514992,0.04625777527689934,-0.02581881359219551
1769661642507801000,4.377801025390625,0.022971894592046738,0.035645611584186554,-0.026730947196483612
1769661642517789000,4.387788818359375,0.01925545372068882,0.02936667762696743,-0.025477396324276924
1769661642527777000,4.397777099609375,0.014377075247466564,0.027462251484394073,-0.021019265055656433
1769661642537765000,4.40776513671875,0.011327489279210567,0.016939835622906685,-0.01794011890888214
1769661642547753200,4.417753173828125,0.006877347361296415,0.0049500176683068275,-0.01489426102489233
1769661642557740800,4.42774072265625,-0.0032658344134688377,0.0005752427969127893,-0.00866459496319294
1769661642567729000,4.43772900390625,0.0010269149206578732,-0.004254666157066822,0.0007430219557136297
1769661642577717000,4.447717041015625,0.009517605416476727,-0.012195679359138012,0.005304484162479639
1769661642587704800,4.457704833984375,0.010611631907522678,-0.018809640780091286,0.005742041394114494
1769661642597693000,4.46769287109375,0.01068140659481287,-0.0172056183218956,-0.002654372714459896
1769661642607681000,4.477680908203125,0.010721620172262192,-0.014392787590622902,-0.004701278172433376
1769661642617670100,4.487670166015625,0.013320598751306534,-0.006875749211758375,-0.008285626769065857
1769661642627658000,4.497657958984375,0.017293503507971764,-0.0026618295814841986,-0.012359198182821274
1769661642637646000,4.50764599609375,0.019999807700514793,0.008494950830936432,-0.010697385296225548
1769661642647634000,4.517634033203125,0.021832061931490898,0.02135828509926796,-0.007020092569291592
1769661642657622000,4.5276220703125,0.024692296981811523,0.02401558682322502,-0.0046394928358495235
1769661642667609900,4.53760986328125,0.02520388923585415,0.031240742653608322,-0.0010013486025854945
1769661642677598000,4.547597900390625,0.024767929688096046,0.03382560610771179,0.00008948221511673182
1769661642687586000,4.5575859375,0.021675733849406242,0.03169747442007065,0.0009153284481726587
1769661642697574000,4.567573974609375,0.019274627789855003,0.02118677832186222,0.0027294738683849573
1769661642707562000,4.57756201171875,0.016200274229049683,0.010846788994967937,0.0015520902816206217
1769661642717550000,4.587550048828125,0.016474314033985138,0.003997404593974352,0.004324440844357014
1769661642727538200,4.5975380859375,0.013252954930067062,0.00239205127581954,0.005841644015163183
1769661642737526000,4.607526123046875,0.011474495753645897,0.0020362529903650284,-0.0007107976707629859
1769661642747514000,4.61751416015625,0.011261709034442902,-0.00014221279707271606,-0.003567037871107459
1769661642757503000,4.6275029296875,0.01013998594135046,0.008675247430801392,-0.004448277875781059
1769661642767491000,4.637490966796875,0.01140046026557684,0.017532121390104294,-0.00555189186707139
1769661642777479000,4.64747900390625,0.011700065806508064,0.0204570721834898,-0.005830192007124424
1769661642787467000,4.657467041015625,0.010877414606511593,0.021980399265885353,-0.003525492735207081
1769661642797455000,4.667455078125,0.01245320774614811,0.021518075838685036,-0.0018367822049185634
1769661642807443000,4.67744287109375,0.010742925107479095,0.017853831872344017,-0.0038780951872467995
1769661642817431000,4.68743115234375,0.007150321267545223,0.020057065412402153,-0.007869907654821873
1769661642827419100,4.697419189453125,0.010156763717532158,0.025068068876862526,-0.013412744738161564
1769661642837407200,4.7074072265625,0.013583719730377197,0.020288759842514992,-0.019993681460618973
1769661642847394800,4.717394775390625,0.0181699488312006,0.01546151377260685,-0.02455274760723114
1769661642857383000,4.7273828125,0.021810756996273994,0.019158780574798584,-0.027994349598884583
1769661642867371000,4.73737109375,0.020797157660126686,0.03525812178850174,-0.026343723759055138
1769661642877358800,4.74735888671875,0.02208559401333332,0.03907203674316406,-0.02340732142329216
1769661642887348000,4.757347900390625,0.02166588045656681,0.03610926866531372,-0.025672340765595436
1769661642897336000,4.767336181640625,0.019604327157139778,0.042327217757701874,-0.02142672799527645
1769661642907324200,4.77732421875,0.016205867752432823,0.0413341224193573,-0.015118765644729137
1769661642917312000,4.78731201171875,0.01221538707613945,0.03172410652041435,-0.011620436795055866
1769661642927300000,4.797300048828125,0.01245054416358471,0.013999971561133862,-0.01474752090871334
1769661642937288000,4.807287841796875,0.010280600748956203,-0.004485029727220535,-0.01512861903756857
1769661642947275800,4.81727587890625,0.009369799867272377,-0.014156298711895943,-0.014355503022670746
1769661642957264600,4.8272646484375,0.009257148019969463,-0.01943734660744667,-0.015727564692497253
1769661642967252700,4.837252685546875,0.0075790900737047195,-0.018140921369194984,-0.02118704468011856
1769661642977240800,4.84724072265625,0.007869641296565533,-0.015370434150099754,-0.022396918386220932
1769661642987228700,4.857228759765625,0.008885370567440987,-0.002416286151856184,-0.027161845937371254
1769661642997216800,4.867216796875,0.009898437187075615,0.006189452484250069,-0.029405558481812477
1769661643007204900,4.877204833984375,0.01095517911016941,0.013447898440063,-0.031019700691103935
1769661643017193700,4.88719384765625,0.010968761518597603,0.01872441917657852,-0.030364297330379486
1769661643027181600,4.897181640625,0.009474195539951324,0.029811691492795944,-0.02761005610227585
1769661643037169700,4.907169677734375,0.008549545891582966,0.038177747279405594,-0.024696292355656624
1769661643047157800,4.91715771484375,0.011001784354448318,0.03656386956572533,-0.020736970007419586
1769661643057145600,4.9271455078125,0.01236479077488184,0.03471803292632103,-0.013647635467350483
1769661643067133700,4.9371337890625,0.011532818898558617,0.03993942588567734,-0.0075913406908512115
1769661643077121800,4.947121826171875,0.009947439655661583,0.037997983396053314,-0.0032613070216029882
1769661643087110000,4.95710986328125,0.009198292158544064,0.03465145453810692,-0.0030948594212532043
1769661643097097700,4.96709765625,0.008355135098099709,0.028021780773997307,-0.002977680414915085
1769661643107085800,4.9770859375,0.008139685727655888,0.01859472319483757,-0.00800519622862339
1769661643117073700,4.98707373046875,0.008164718747138977,0.01190885715186596,-0.009662747383117676
1769661643127061500,4.9970615234375,0.010399644263088703,0.009862750768661499,-0.006202768534421921
1769661643137049600,5.007049560546875,0.011901666410267353,0.003094060579314828,-0.005364671815186739
1769661643147037700,5.01703759765625,0.012366387993097305,0.00047164582065306604,-0.0014125406742095947
1769661643157026800,5.02702685546875,0.010271280072629452,0.006690925918519497,0.004372377879917622
1769661643167014700,5.0370146484375,0.008540491573512554,0.012237491086125374,0.006730873137712479
1769661643177002800,5.047002685546875,0.0057255299761891365,0.012194348499178886,0.005077050067484379
1769661643186990800,5.056990966796875,0.0021523667965084314,0.006957774516195059,0.0013254552613943815
1769661643196978700,5.066978759765625,0.003365170443430543,0.00484402384608984,-0.00031904669594950974
1769661643206966500,5.076966552734375,0.003975833300501108,0.0034650389570742846,-0.00036218989407643676
1769661643216954600,5.08695458984375,-0.000916393706575036,-0.0006530070677399635,0.0005502090789377689
1769661643226942700,5.096942626953125,-0.0008306399104185402,-0.002924683503806591,-0.0005989448982290924
1769661643236930600,5.1069306640625,-0.00020373181905597448,-0.0060027651488780975,-0.003477555699646473
1769661643246918700,5.116918701171875,-0.0006064017652533948,-0.008036354556679726,-0.007179349660873413
1769661643256906800,5.12690673828125,-0.002630670554935932,-0.011235344223678112,-0.006842193193733692
1769661643266894800,5.136894775390625,-0.004986236337572336,-0.009926400147378445,-0.007506652269512415
1769661643276882700,5.146882568359375,-0.00541340745985508,-0.008473379537463188,-0.006272010505199432
1769661643286871600,5.15687158203125,-0.007399593014270067,-0.009633186273276806,-0.007988151162862778
1769661643296859600,5.166859619140625,-0.008696019649505615,-0.005422195885330439,-0.0033843449782580137
1769661643306847700,5.17684765625,-0.00908484123647213,-0.0035776905715465546,-0.002743055811151862
1769661643316835600,5.186835693359375,-0.007889880798757076,-0.0025742114521563053,-0.0035513252951204777
1769661643326823700,5.19682373046875,-0.011408715508878231,-0.0016706009628251195,-0.01088780164718628
1769661643336811800,5.206811767578125,-0.00902678444981575,0.001312405802309513,-0.016350744292140007
1769661643346799600,5.216799560546875,-0.01101323589682579,0.005228317808359861,-0.02221342734992504
1769661643356787700,5.22678759765625,-0.010581005364656448,0.008412925526499748,-0.026638269424438477
1769661643366775800,5.23677587890625,-0.010911770164966583,0.011738414876163006,-0.02943272329866886
1769661643376764000,5.246763916015625,-0.01044358592480421,0.014190653339028358,-0.03273957222700119
1769661643386751700,5.256751708984375,-0.008813997730612755,0.012489693239331245,-0.0352751649916172
1769661643396739800,5.26673974609375,-0.011084608733654022,0.01998036541044712,-0.03260907530784607
1769661643406727700,5.276727783203125,-0.010403372347354889,0.023074159398674965,-0.03241493180394173
1769661643416715500,5.286715576171875,-0.013006346300244331,0.024379640817642212,-0.03213636577129364
1769661643426704600,5.29670458984375,-0.007677360903471708,0.028114724904298782,-0.029335517436265945
1769661643436692700,5.306692626953125,-0.0036764938849955797,0.0348980613052845,-0.025801504030823708
1769661643446680800,5.316680908203125,-0.0027861990965902805,0.03898921236395836,-0.02273993380367756
1769661643456668700,5.326668701171875,0.00020639497961383313,0.04177354648709297,-0.023495739325881004
1769661643466656800,5.33665673828125,0.0014418354257941246,0.046248454600572586,-0.02604837901890278
1769661643476644900,5.346644775390625,0.0032810145057737827,0.049612294882535934,-0.024997228756546974
1769661643486632700,5.3566328125,0.006643787957727909,0.05205228179693222,-0.02419162169098854
1769661643496620500,5.36662060546875,0.008192149922251701,0.05655355751514435,-0.024165790528059006
1769661643506608600,5.376608642578125,0.010100571438670158,0.05674370750784874,-0.022041385993361473
1769661643516596700,5.3865966796875,0.011167965829372406,0.05200327932834625,-0.01888926886022091
1769661643526584600,5.39658447265625,0.012230567634105682,0.046182140707969666,-0.01811615377664566
1769661643536572700,5.40657275390625,0.014091317541897297,0.037038978189229965,-0.01780696026980877
1769661643546560800,5.416560791015625,0.01293177716434002,0.0324530154466629,-0.01745861954987049
1769661643556550000,5.4265498046875,0.011091000400483608,0.034579548984766006,-0.011730425991117954
1769661643566537700,5.436537841796875,0.006078931502997875,0.031559523195028305,-0.006649913266301155
1769661643576525600,5.446525634765625,0.004549211822450161,0.030823959037661552,-0.009824400767683983
1769661643586513700,5.456513671875,0.0028514466248452663,0.03971785306930542,-0.017650365829467773
1769661643596501500,5.46650146484375,0.0013997574569657445,0.05174681916832924,-0.022671490907669067
1769661643606489600,5.476489501953125,0.0024671524297446012,0.0523391030728817,-0.02419162169098854
1769661643616477700,5.486477783203125,0.0033214944414794445,0.04994199424982071,-0.026676883921027184
1769661643626465800,5.4964658203125,0.0013784521725028753,0.045283325016498566,-0.024705613031983376
1769661643636453600,5.50645361328125,0.0013025520602241158,0.034393392503261566,-0.024468325078487396
1769661643646441700,5.516441650390625,0.0031941954512149096,0.016994696110486984,-0.02490614913403988
1769661643656429800,5.526429931640625,0.0014170679496601224,0.013136574998497963,-0.024384435266256332
1769661643666417700,5.536417724609375,-0.0008410262526012957,0.016265256330370903,-0.02213326469063759
1769661643676405800,5.54640576171875,-0.0016413062112405896,0.015607722103595734,-0.021322332322597504
1769661643686394600,5.55639453125,-0.0022567627020180225,0.014913968741893768,-0.025944780558347702
1769661643696382700,5.5663828125,-0.0003067961661145091,0.018734538927674294,-0.029077190905809402
1769661643706370600,5.57637060546875,-0.0009265137487091124,0.025855565443634987,-0.030976558104157448
1769661643716358700,5.586358642578125,-0.004012318328022957,0.022372150793671608,-0.027151459828019142
1769661643726346800,5.5963466796875,-0.004500209353864193,0.00839961040765047,-0.023933827877044678
1769661643736334800,5.6063349609375,-0.003959587775170803,-0.007693605963140726,-0.023136744275689125
1769661643746322700,5.61632275390625,-0.00538517814129591,-0.022702915593981743,-0.021162809804081917
1769661643756310800,5.626310791015625,-0.0033193640410900116,-0.03549780696630478,-0.01950632408261299
1769661643766299000,5.636298828125,-0.0024136228021234274,-0.04091440886259079,-0.013983460143208504
1769661643776286700,5.64628662109375,0.003826163476333022,-0.042214300483465195,-0.00905794370919466
1769661643786274600,5.656274658203125,0.003335609333589673,-0.03928748518228531,-0.0065713501535356045
1769661643796262700,5.6662626953125,0.0038541266694664955,-0.03334943577647209,-0.003882089862599969
1769661643806250800,5.676250732421875,0.005122057627886534,-0.02323688007891178,-0.0029944581910967827
1769661643816239600,5.686239501953125,0.006127134896814823,-0.015016233548521996,0.0017142767319455743
1769661643826227700,5.696227783203125,0.004474643152207136,-0.01025476772338152,0.004282629117369652
1769661643836215800,5.7062158203125,0.006360427476465702,-0.006568952929228544,0.005033107940107584
1769661643846204000,5.716203857421875,0.00657694274559617,-0.007348194252699614,0.004874649923294783
1769661643856191700,5.726191650390625,0.008650213479995728,-0.0049095372669398785,0.007219563238322735
1769661643866179600,5.7361796875,0.008920524269342422,-0.006046707276254892,0.00939243659377098
1769661643876167700,5.746167724609375,0.007405718322843313,-0.011493138037621975,0.014819959178566933
1769661643886155500,5.756155517578125,0.006076801102608442,-0.018252773210406303,0.01438080333173275
1769661643896143600,5.7661435546875,0.002966495230793953,-0.0194887463003397,0.013203686103224754
1769661643906131700,5.776131591796875,0.0035459990613162518,-0.020433902740478516,0.006161489523947239
1769661643916119800,5.786119873046875,0.0002924150903709233,-0.01895105466246605,0.002041046740487218
1769661643926107600,5.796107666015625,0.002888730727136135,-0.01194241363555193,-0.00032650353386998177
1769661643936095700,5.806095703125,0.0024088292848318815,-0.0013198626693338156,-0.00566960358992219
1769661643946084900,5.8160849609375,0.0020423782989382744,0.011865714564919472,-0.0080296965315938
1769661643956072700,5.82607275390625,0.0016700683627277613,0.01618882268667221,-0.008281898684799671
1769661643966060300,5.836060302734375,0.0018692727899178863,0.012866264209151268,-0.008053931407630444
1769661643976048400,5.84604833984375,-0.0008844357798807323,0.002365419641137123,-0.00839907769113779
1769661643986036200,5.8560361328125,-0.003422162029892206,-0.006727677304297686,-0.007397462613880634
1769661643996024300,5.8660244140625,-0.0036970002111047506,-0.01435150858014822,-0.0043625240214169025
1769661644006012400,5.876012451171875,-0.0032594427466392517,-0.017102021723985672,-0.0030565098859369755
1769661644016000300,5.886000244140625,-0.005662146955728531,-0.015310246497392654,-0.002091646660119295
1769661644025988400,5.89598828125,-0.0051598744466900826,-0.0126995500177145,-0.004628041293472052
1769661644035976400,5.9059765625,0.00010333064710721374,-0.010123740881681442,-0.008591623976826668
1769661644045964500,5.915964599609375,-0.00043329631444066763,-0.009670204482972622,-0.007143396884202957
1769661644055952400,5.925952392578125,0.00044581317342817783,-0.007990015670657158,-0.005115932319313288
1769661644065940500,5.9359404296875,0.00166633992921561,-0.00555109279230237,-0.003923901356756687
1769661644075929300,5.945929443359375,0.0004767058417201042,-0.0025933862198144197,0.00003728425508597866
1769661644085917400,5.95591748046875,0.0008506136364303529,0.003326554549857974,0.0008788431296125054
1769661644095905300,5.9659052734375,0.0003885551996063441,0.008203335106372833,0.0012455604737624526
1769661644105893400,5.975893310546875,-0.002275138394907117,0.014302506111562252,0.003948668949306011
1769661644115881500,5.985881591796875,-0.0024804682470858097,0.016688432544469833,0.004466653801500797
1769661644125869300,5.995869384765625,-0.001136104459874332,0.01944187469780445,0.0009765811264514923
1769661644135857400,6.005857421875,-0.001088433898985386,0.01600506529211998,-0.006588394287973642
1769661644145845500,6.015845458984375,-0.0013395700370892882,0.0140156839042902,-0.011030812747776508
1769661644155833600,6.02583349609375,-0.0032378712203353643,0.010972755961120129,-0.00926487147808075
1769661644165821400,6.035821533203125,-0.00612154183909297,0.007700796704739332,-0.006887200754135847
1769661644175809300,6.045809326171875,-0.007802529260516167,0.0000958738019107841,-0.005962285213172436
1769661644185797400,6.05579736328125,-0.007892278023064137,-0.006885070353746414,-0.003293264890089631
1769661644195786500,6.065786376953125,-0.009534649550914764,-0.009156746789813042,-0.0038919434882700443
1769661644205774300,6.0757744140625,-0.008497081696987152,-0.008198807947337627,-0.004633633885532618
1769661644215762400,6.085762451171875,-0.0086001455783844,-0.006458165589720011,-0.006366819143295288
1769661644225750500,6.09575048828125,-0.007016896735876799,-0.00430233683437109,-0.0080323601141572
1769661644235738400,6.10573828125,-0.004607002250850201,0.0026104305870831013,-0.008462460711598396
1769661644245726500,6.1157265625,-0.004418716765940189,0.007561513222754002,-0.007660316303372383
1769661644255714300,6.12571435546875,-0.004188087303191423,0.009077650494873524,-0.007488809060305357
1769661644265702400,6.135702392578125,-0.004748948849737644,0.008293882943689823,-0.00848456472158432
1769661644275690200,6.145690185546875,-0.005163602996617556,0.008843825198709965,-0.010156763717532158
1769661644285678300,6.15567822265625,-0.004652276169508696,0.010434531606733799,-0.011973305605351925
1769661644295666400,6.16566650390625,-0.004489556886255741,0.005291434936225414,-0.01296533364802599
1769661644305654300,6.175654296875,-0.005273325368762016,0.0030543794855475426,-0.012506204657256603
1769661644315642400,6.185642333984375,-0.00415346585214138,0.0013424995122477412,-0.011143997311592102
1769661644325631500,6.195631591796875,-0.0036189695820212364,0.001029311795718968,-0.006325540132820606
1769661644335619300,6.205619384765625,-0.004021373111754656,-0.0013283847365528345,-0.007918642833828926
1769661644345607200,6.215607177734375,-0.0012958941515535116,-0.0073231603018939495,-0.005100752227008343
1769661644355595300,6.22559521484375,-0.00098217383492738,-0.00980309583246708,-0.004427238833159208
1769661644365583400,6.235583251953125,-0.0003073287953156978,-0.010366620495915413,-0.004460528492927551
1769661644375571200,6.2455712890625,-0.0013970943400636315,-0.010097641497850418,-0.008343417197465897
1769661644385559300,6.255559326171875,-0.0035089810844510794,-0.014060159213840961,-0.010335728526115417
1769661644395547400,6.26554736328125,-0.0007669904152862728,-0.01338824350386858,-0.015914518386125565
1769661644405535500,6.275535400390625,-0.0006101301987655461,-0.010165286250412464,-0.01691613346338272
1769661644415523300,6.2855234375,0.0006157228490337729,-0.008226770907640457,-0.013482519425451756
1769661644425511400,6.295511474609375,0.002341451123356819,-0.00983425509184599,-0.011175689287483692
1769661644435499500,6.30549951171875,0.002913231961429119,-0.0116750318557024,-0.009267800487577915
1769661644445487400,6.3154873046875,0.0017297230660915375,-0.011030014604330063,-0.013402091339230537
1769661644455476200,6.325476318359375,0.0016306535108014941,-0.008109858259558678,-0.020241888239979744
1769661644465464300,6.33546435546875,0.0011001517996191978,-0.003620833856984973,-0.020959876477718353
1769661644475452400,6.345452392578125,0.0027827369049191475,0.006125004030764103,-0.021803565323352814
1769661644485440300,6.355440185546875,0.00039015308720991015,0.017101222649216652,-0.0238235741853714
1769661644495428400,6.365428466796875,0.0032266860362142324,0.022821160033345222,-0.024161262437701225
1769661644505416400,6.37541650390625,0.0046237800270318985,0.02215217426419258,-0.02532852627336979
1769661644515404500,6.385404541015625,0.006256830412894487,0.02033829502761364,-0.017114005982875824
1769661644525392400,6.395392333984375,0.004857605788856745,0.011800200678408146,-0.011591408401727676
1769661644535380500,6.40538037109375,0.0022354573011398315,-0.00037763622822239995,-0.008856874890625477
1769661644545368300,6.415368408203125,-0.0007073355955071747,-0.00544456671923399,-0.008647549897432327
1769661644555356200,6.425356201171875,0.0001661812566453591,-0.004978246986865997,-0.005352687556296587
1769661644565344300,6.43534423828125,-0.000850879936479032,0.004628840368241072,-0.004825914278626442
1769661644575332400,6.445332275390625,-0.0010554107138887048,0.013256150297820568,0.001157143502496183
1769661644585321500,6.455321533203125,0.0032208270858973265,0.02184857428073883,0.007228085305541754
1769661644595309300,6.465309326171875,0.0049281795509159565,0.026310699060559273,0.008508799597620964
1769661644605297400,6.47529736328125,0.00612287363037467,0.025777002796530724,0.008950884453952312
1769661644615285500,6.485285400390625,0.0034256239887326956,0.027545340359210968,0.006866960786283016
1769661644625273300,6.4952734375,0.002651443239301443,0.023456057533621788,0.003385144053027034
1769661644635261200,6.50526123046875,0.0022301310673356056,0.02214045636355877,0.0018074874533340335
1769661644645249300,6.515249267578125,0.002746784361079335,0.0240174513310194,0.00800413079559803
1769661644655237400,6.5252373046875,0.004375840071588755,0.027581026777625084,0.009765013121068478
1769661644665225200,6.53522509765625,0.0043710460886359215,0.028851356357336044,0.008742092177271843
1769661644675213300,6.54521337890625,0.0035771578550338745,0.030376281589269638,0.005309011787176132
1769661644685201400,6.555201416015625,0.0057407100684940815,0.024943167343735695,0.004349741153419018
1769661644695189500,6.565189453125,0.004253334365785122,0.01774757169187069,0.007737015374004841
1769661644705178400,6.575178466796875,0.0010626012226566672,0.008352472446858883,0.011149589903652668
1769661644715166200,6.585166259765625,-0.001597363967448473,0.0002902845444623381,0.015729960054159164
1769661644725154300,6.595154296875,-0.0033340114168822765,-0.005790511146187782,0.012577843852341175
1769661644735142400,6.605142333984375,-0.0029553098138421774,-0.010060623288154602,0.008072840049862862
1769661644745130200,6.615130126953125,-0.002770486520603299,-0.012527509592473507,0.008146876469254494
1769661644755118300,6.625118408203125,-0.0037736992817372084,-0.005372661165893078,0.011299792677164078
1769661644765106400,6.6351064453125,-0.005769472103565931,0.001528920722194016,0.017107347026467323
1769661644775094300,6.64509423828125,-0.005564142484217882,0.000284159294096753,0.02153325453400612
1769661644785082400,6.655082275390625,-0.005144428461790085,-0.004734567832201719,0.02099236659705639
1769661644795070500,6.665070556640625,-0.006159359123557806,-0.012094213627278805,0.023309050127863884
1769661644805058600,6.67505859375,-0.003659449517726898,-0.021089838817715645,0.024701617658138275
1769661644815046400,6.68504638671875,-0.00628985371440649,-0.02947773039340973,0.025346901267766953
1769661644825034500,6.695034423828125,-0.008026234805583954,-0.040169522166252136,0.023626765236258507
1769661644835023400,6.7050234375,-0.005568669643253088,-0.04019295796751976,0.026080869138240814
1769661644845011500,6.715011474609375,-0.00826991442590952,-0.03430098295211792,0.024803616106510162
1769661644854999300,6.724999267578125,-0.0011398328933864832,-0.03838680312037468,0.006056827027350664
1769661644864987400,6.7349873046875,-0.004613926634192467,-0.03562643751502037,-0.012651346623897552
1769661644874975500,6.7449755859375,-0.008477640338242054,-0.008311991579830647,0.000218645524000749
1769661644884963300,6.75496337890625,-0.007474161684513092,0.002124137245118618,0.013380520045757294
1769661644894951400,6.764951416015625,-0.004630704410374165,-0.0025718146935105324,0.011595935560762882
1769661644904939500,6.774939453125,-0.001973136095330119,-0.0065460498444736,0.0057348511181771755
1769661644914927400,6.78492724609375,-0.0007909588166512549,0.0024921861477196217,0.00020266656065359712
1769661644924915200,6.794915283203125,-0.006208361126482487,0.005906358826905489,0.0041193775832653046
1769661644934903300,6.8049033203125,-0.009372196160256863,-0.00287434970960021,0.001936650718562305
1769661644944891400,6.814891357421875,-0.00951068103313446,-0.011739746667444706,0.0033896714448928833
1769661644954880500,6.824880615234375,-0.008710667490959167,-0.013740046881139278,0.0021968416403979063
1769661644964868600,6.83486865234375,-0.007631820626556873,-0.0159523356705904,-0.001939313835464418
1769661644974856700,6.844856689453125,-0.007862983271479607,-0.01972923055291176,0.0005962817813269794
1769661644984844800,6.8548447265625,-0.006757771130651236,-0.018486332148313522,0.010487794876098633
1769661644994832600,6.86483251953125,-0.0026935210917145014,-0.011782890185713768,0.017599234357476234
1769661645004820500,6.874820556640625,-0.0017214673571288586,-0.005546565633267164,0.02051672711968422
1769661645014808600,6.88480859375,0.002186721656471491,-0.0005962817813269794,0.017729993909597397
1769661645024796400,6.89479638671875,0.004512193612754345,0.0007339671719819307,0.012922456488013268
1769661645034784500,6.904784423828125,0.005224855616688728,0.0005438174703158438,0.008213454857468605
1769661645044772600,6.914772705078125,0.0018492990639060736,0.0003454120014794171,0.00618306128308177
1769661645054760700,6.9247607421875,0.0012900352012366056,-0.0036546560004353523,0.003611512714996934
1769661645064748500,6.93474853515625,0.001853826455771923,-0.010470750741660595,-0.008772718720138073
1769661645074736600,6.944736572265625,-0.005765743553638458,-0.01056103128939867,-0.012857475318014622
1769661645084725500,6.9547255859375,-0.003194727934896946,-0.011183146387338638,-0.0039020637050271034
1769661645094713600,6.964713623046875,0.0015454323729500175,-0.008836634457111359,0.003917243797332048
1769661645104701400,6.974701416015625,0.0015419702976942062,-0.001487375469878316,0.004298608284443617
1769661645114689500,6.984689453125,0.001463406952098012,-0.005914348177611828,0.00048363005043938756
1769661645124677600,6.994677734375,0.0014386395923793316,-0.00503949960693717,0.00017896443023346364
1769661645134665500,7.00466552734375,0.0016828514635562897,-0.004767058417201042,0.0019510318525135517
1769661645144653600,7.014653564453125,0.002695385366678238,-0.0059724049642682076,0.004133225884288549
1769661645154641700,7.0246416015625,0.001788046327419579,-0.007660582661628723,0.004279167391359806
1769661645164629500,7.03462939453125,0.003317766124382615,-0.004815794061869383,0.002529204124584794
1769661645174617600,7.04461767578125,0.003576092654839158,0.0016831178218126297,0.0010761833982542157
1769661645184605700,7.054605712890625,0.004602208733558655,0.005360943265259266,-0.010806309059262276
1769661645194593800,7.06459375,-0.0017899106023833156,0.0006596649764105678,-0.01714250072836876
1769661645204582700,7.074582763671875,-0.002999251941218972,-0.00726483715698123,-0.01727086678147316
1769661645214570500,7.084570556640625,-0.0038607846945524216,-0.007713579572737217,-0.01750868558883667
1769661645224558600,7.09455859375,-0.0006743124104104936,-0.012495285831391811,-0.017904965206980705
1769661645234546700,7.104546630859375,-0.0016144082183018327,-0.012477708980441093,-0.013828197494149208
1769661645244534500,7.114534423828125,-0.003983822651207447,-0.005730856209993362,-0.008007858879864216
1769661645254522600,7.124522705078125,-0.005417136009782553,0.006185724399983883,-0.004113784991204739
1769661645264510700,7.1345107421875,-0.00439048744738102,0.0062826634384691715,-0.013527526520192623
1769661645274498600,7.14449853515625,-0.0038181741256266832,0.0024466461036354303,-0.023089872673153877
1769661645284486700,7.154486572265625,-0.0033129723742604256,-0.002425074577331543,-0.026992734521627426
1769661645294474500,7.164474609375,-0.003168096300214529,-0.003997404593974352,-0.02545049786567688
1769661645304462600,7.174462646484375,-0.0034163030795753,-0.004918325692415237,-0.01805250346660614
1769661645314450400,7.184450439453125,-0.00011345066013745964,-0.000029827404432580806,-0.010277139022946358
1769661645324438500,7.1944384765625,-0.00039494677912443876,0.005494633689522743,-0.005012867972254753
1769661645334427600,7.204427734375,-0.0030024477746337652,0.008636364713311195,-0.006954845041036606
1769661645344415700,7.214415771484375,-0.00794181227684021,0.01110538188368082,-0.007661914452910423
1769661645354403600,7.224403564453125,-0.009475260972976685,0.008597749285399914,-0.006750580854713917
1769661645364391700,7.2343916015625,-0.010400176979601383,-0.007745271548628807,-0.0075881448574364185
1769661645374379500,7.244379638671875,-0.01008113007992506,-0.024389229714870453,-0.010087521746754646
1769661645384367400,7.254367431640625,-0.006027265917509794,-0.040997765958309174,-0.02304619736969471
1769661645394355500,7.26435546875,-0.0068328725174069405,-0.04597707837820053,-0.020297547802329063
1769661645404343600,7.274343505859375,-0.007241401355713606,-0.040115196257829666,-0.014513961970806122
1769661645414331600,7.28433154296875,-0.007623564917594194,-0.03093288280069828,-0.01372193731367588
1769661645424319500,7.294319580078125,-0.005090099759399891,-0.027053188532590866,-0.013699300587177277
1769661645434307600,7.3043076171875,0.0005078648100607097,-0.022162826731801033,-0.014009292237460613
1769661645444295700,7.314295654296875,-0.0027028422337025404,-0.008615858852863312,-0.01509985700249672
1769661645454284500,7.324284423828125,-0.004151069093495607,-0.007874701172113419,-0.019031215459108353
1769661645464272400,7.3342724609375,-0.0064773401245474815,-0.015661517158150673,-0.02744467370212078
1769661645474260500,7.344260498046875,-0.008919725194573402,-0.02678500860929489,-0.02901407517492771
1769661645484248600,7.35424853515625,-0.009972739033401012,-0.02611389197409153,-0.030100643634796143
1769661645494236400,7.364236328125,-0.00580835435539484,-0.029049761593341827,-0.028711805120110512
1769661645504224500,7.374224609375,-0.006421946454793215,-0.0355026014149189,-0.028131769970059395
1769661645514212600,7.384212646484375,-0.004012851044535637,-0.02887718752026558,-0.03037921153008938
1769661645524200700,7.39420068359375,-0.0023851271253079176,-0.015392271801829338,-0.02877012826502323
1769661645534188500,7.4041884765625,0.0012937636347487569,-0.01432407833635807,-0.02394155226647854
1769661645544176600,7.4141767578125,0.004232828039675951,-0.0019046928500756621,-0.02220170944929123
1769661645554164700,7.424164794921875,0.006082127336412668,0.0024748756550252438,-0.017003750428557396
1769661645564152600,7.434152587890625,0.006746053230017424,0.007218764163553715,-0.01218555960804224
1769661645574140700,7.444140625,0.006423544604331255,0.014564828015863895,-0.008747418411076069
1769661645584129500,7.454129638671875,0.004569185432046652,0.012110458686947823,-0.006533532869070768
1769661645594117600,7.46411767578125,0.00037710359902121127,0.004822452086955309,-0.005693039391189814
1769661645604105500,7.47410546875,-0.0005291700945235789,-0.00267727579921484,-0.011041998863220215
1769661645614093600,7.484093505859375,-0.004030427895486355,-0.014300908893346786,-0.01998143084347248
1769661645624081700,7.49408154296875,-0.006309028714895248,-0.022842464968562126,-0.02893577702343464
1769661645634069800,7.50406982421875,-0.008389489725232124,-0.02111886814236641,-0.02822258323431015
1769661645644057600,7.5140576171875,-0.007682687137275934,-0.02322809025645256,-0.024404142051935196
1769661645654045700,7.524045654296875,-0.005797701422125101,-0.01847301609814167,-0.025469673797488213
1769661645664033500,7.534033447265625,-0.00560968229547143,-0.0016972325975075364,-0.02323261834681034
1769661645674021400,7.544021484375,-0.00407623453065753,0.006524744443595409,-0.016688965260982513
1769661645684009500,7.554009521484375,-0.003334810258820653,0.011491007171571255,-0.01179514080286026
1769661645693997600,7.56399755859375,-0.0033097765408456326,0.017169132828712463,-0.011079016141593456
1769661645703986700,7.573986572265625,-0.003942809998989105,0.019344935193657875,-0.011053450405597687
1769661645713974500,7.583974609375,-0.005121524911373854,0.01817367784678936,-0.011838017031550407
1769661645723962600,7.593962646484375,-0.004188885912299156,0.011009774170815945,-0.010541590861976147
1769661645733950700,7.60395068359375,-0.004126301966607571,0.0022945795208215714,-0.010331200435757637
1769661645743938600,7.6139384765625,-0.004006193019449711,-0.0001549959706608206,-0.007236607372760773
1769661645753926400,7.623926513671875,-0.005091697443276644,-0.009784719906747341,-0.01002067606896162
1769661645763914500,7.63391455078125,-0.006169212516397238,-0.016053535044193268,-0.009609484113752842
1769661645773902600,7.643902587890625,-0.010488593950867653,-0.02082725055515766,-0.01019990723580122
1769661645783890400,7.653890380859375,-0.013086773455142975,-0.02347656339406967,-0.01287718303501606
1769661645793878500,7.66387841796875,-0.013313940726220608,-0.026018017902970314,-0.01293550617992878
1769661645803866600,7.67386669921875,-0.016829580068588257,-0.02347576431930065,-0.010599114932119846
1769661645813854700,7.683854736328125,-0.010521350428462029,-0.017131315544247627,-0.006569219287484884
1769661645823842600,7.693842529296875,-0.008805742487311363,-0.015717709437012672,-0.007546599488705397
1769661645833831400,7.70383154296875,-0.006133259739726782,-0.014762966893613338,-0.014585067518055439
1769661645843819500,7.713819580078125,-0.008527441881597042,-0.0065713501535356045,-0.013975203968584538
1769661645853807600,7.7238076171875,-0.008537295274436474,0.0011073424248024821,-0.01197863183915615
1769661645863795500,7.73379541015625,-0.00734340026974678,-0.0018066884949803352,-0.01119326613843441
1769661645873783600,7.743783447265625,-0.008817726746201515,0.0008088020258583128,-0.015667110681533813
1769661645883771600,7.753771728515625,-0.009282181970775127,0.002572879893705249,-0.017240772023797035
1769661645893759500,7.763759521484375,-0.008638761937618256,0.003397394670173526,-0.016709737479686737
1769661645903747600,7.77374755859375,-0.005929261911660433,0.000007456851108145202,-0.009758621454238892
1769661645913735700,7.783735595703125,-0.0019185412675142288,0.000508663768414408,-0.010150904767215252
1769661645923723500,7.7937236328125,-0.0034522556234151125,-0.004785966593772173,-0.016929449513554573
1769661645933711600,7.803711669921875,-0.00446825148537755,-0.011118697002530098,-0.027629230171442032
1769661645943699700,7.81369970703125,-0.004761199466884136,-0.002757703186944127,-0.024945296347141266
1769661645953688600,7.8236884765625,-0.007757521700114012,0.01306200586259365,-0.015956595540046692
1769661645963676400,7.833676513671875,-0.0029885992407798767,0.007197459228336811,-0.01324203610420227
1769661645973664500,7.84366455078125,0.0039854203350842,0.023092536255717278,-0.01389717310667038
1769661645983652400,7.85365234375,0.0028788771014660597,0.04209871590137482,-0.01423459593206644
1769661645993640400,7.863640380859375,0.005366003140807152,0.03887389600276947,-0.015411713160574436
1769661646003628500,7.873628662109375,0.0046389601193368435,0.039673641324043274,-0.014633803628385067
1769661646013616600,7.88361669921875,0.004561462439596653,0.043051596730947495,-0.012382367625832558
1769661646023604500,7.8936044921875,0.004349741153419018,0.0430995337665081,-0.01683916710317135
1769661646033592600,7.903592529296875,0.004506601020693779,0.039084021002054214,-0.020436830818653107
1769661646043580400,7.913580322265625,0.0012154667638242245,0.03603629767894745,-0.02377004362642765
1769661646053568300,7.923568359375,0.0004644552827812731,0.03447968140244484,-0.0270095132291317
1769661646063556400,7.933556396484375,0.0005038700764998794,0.03122982382774353,-0.023194534704089165
1769661646073545500,7.94354541015625,-0.0024498419370502234,0.02449788525700569,-0.014592524617910385
1769661646083533600,7.953533447265625,0.0019204054260626435,0.019507920369505882,-0.008070443756878376
1769661646093521400,7.963521484375,0.0027057717088609934,0.011899003759026527,-0.002816559048369527
1769661646103509500,7.973509521484375,-0.00012543488992378116,0.00586614478379488,0.00379021093249321
1769661646113497600,7.98349755859375,0.0010522148804739118,0.0054453653283417225,0.010973022319376469
1769661646123485400,7.9934853515625,0.0006572681595571339,0.0037609159480780363,0.011963185854256153
1769661646133473300,8.003473388671875,-0.0005696501466445625,-0.0031334753148257732,0.009672600775957108
1769661646143461400,8.01346142578125,0.004047205671668053,-0.007927698083221912,0.011422031559050083
1769661646153449500,8.023449462890625,0.00344479875639081,-0.009884322062134743,0.014814898371696472
1769661646163437300,8.033437255859376,0.0008018778171390295,-0.008606803603470325,0.009606022387742996
1769661646173425400,8.04342529296875,0.0019060244085267186,-0.009543703868985176,0.003631486324593425
1769661646183413500,8.05341357421875,0.0028162929229438305,-0.0059244679287076,-0.0013840447645634413
1769661646193401300,8.0634013671875,0.003326021833345294,0.0059907808899879456,0.0020578245166689157
1769661646203390500,8.073390380859376,0.006199306342750788,0.01739896461367607,0.007354585453867912
1769661646213378300,8.08337841796875,0.008335161954164505,0.023861655965447426,0.011489941738545895
1769661646223366400,8.093366455078124,0.00989470910280943,0.02845321223139763,0.010859837755560875
1769661646233354500,8.1033544921875,0.012106197886168957,0.031249798834323883,0.008344216272234917
1769661646243342300,8.11334228515625,0.011889948509633541,0.026761572808027267,-0.00037736992817372084
1769661646253330400,8.123330322265625,0.013771206140518188,0.014644456095993519,-0.0029169602785259485
1769661646263318500,8.133318603515624,0.010452374815940857,0.007794806268066168,-0.004197674337774515
1769661646273306400,8.143306396484375,0.008672051131725311,0.0010096043115481734,-0.002286856295540929
1769661646283294500,8.15329443359375,0.006910902913659811,-0.0068267472088336945,-0.004774515051394701
1769661646293282600,8.163282470703125,0.005916212219744921,-0.015263907611370087,-0.006713829003274441
1769661646303270400,8.1732705078125,0.004653075244277716,-0.012657738290727139,-0.006982808467000723
1769661646313258500,8.183258544921875,0.006684267893433571,-0.01618722639977932,-0.0065202172845602036
1769661646323247400,8.193247314453124,0.006470416206866503,-0.013549364171922207,-0.002299905987456441
1769661646333235500,8.2032353515625,0.006147108506411314,-0.005601426586508751,-0.0005006743012927473
1769661646343223300,8.213223388671874,0.008042746223509312,0.0020303940400481224,-0.0030149647500365973
1769661646353211400,8.22321142578125,0.01001934427767992,0.00549330236390233,-0.0101402522996068
1769661646363199500,8.233199462890624,0.008417187258601189,0.007647533435374498,-0.01564660482108593
1769661646373187600,8.2431875,0.010417221114039421,0.014830611646175385,-0.01697658747434616
1769661646383175400,8.253175537109374,0.012166118249297142,0.01702665351331234,-0.019774770364165306
1769661646393163500,8.26316357421875,0.00905661191791296,0.014452975243330002,-0.017767811194062233
1769661646403151600,8.273151611328124,0.009543703868985176,0.012255867011845112,-0.016268718987703323
1769661646413139500,8.283139404296875,0.007141266483813524,0.008594286628067493,-0.015270032919943333
1769661646423127300,8.293127197265624,0.005079979542642832,0.00592500064522028,-0.012678244151175022
1769661646433115400,8.303115478515625,0.006986536551266909,0.007610515225678682,-0.013056679628789425
1769661646443104500,8.3131044921875,0.007889614440500736,0.010753312148153782,-0.011449195444583893
1769661646453092400,8.32309228515625,0.009476859122514725,0.01594274677336216,-0.010064885020256042
1769661646463080400,8.33308056640625,0.008087754249572754,0.01979687437415123,-0.009427590295672417
1769661646473068500,8.343068603515626,0.007941014133393764,0.020482106134295464,-0.009425459429621696
1769661646483056600,8.353056640625,0.0059926449321210384,0.018670357763767242,-0.00920122116804123
1769661646493044500,8.36304443359375,0.003650128608569503,0.013680924661457539,-0.009161273948848248
1769661646503032300,8.3730322265625,0.000303334032651037,0.004281031433492899,-0.007170028518885374
1769661646513020400,8.3830205078125,-0.0007736482657492161,-0.004099670331925154,-0.006626477465033531
1769661646523008300,8.39300830078125,-0.002930276095867157,-0.005054413340985775,-0.004797950852662325
1769661646532996400,8.402996337890626,-0.0036602485924959183,-0.005350290797650814,-0.0010365023044869304
1769661646542984400,8.412984375,-0.005271194502711296,-0.004209924954921007,0.0008064051507972181
1769661646552972500,8.42297265625,-0.004232029430568218,-0.0029177593532949686,-0.0021377194207161665
1769661646562961400,8.43296142578125,-0.0044016726315021515,-0.0014514228096231818,-0.005568936001509428
1769661646572949500,8.442949462890626,-0.005782788153737783,-0.001936650718562305,-0.007050186395645142
1769661646582937600,8.4529375,-0.004697283264249563,-0.00330258603207767,-0.006673082709312439
1769661646592925400,8.462925537109374,-0.0041031320579349995,-0.006659234408289194,-0.0054855793714523315
1769661646602913300,8.472913330078125,-0.004019775427877903,-0.009066465310752392,-0.0025308020412921906
1769661646612901400,8.4829013671875,-0.004119910299777985,-0.011142665520310402,-0.0014927018200978637
1769661646622889500,8.492889404296875,-0.00732395937666297,-0.015904398635029793,0.0020128171890974045
1769661646632877300,8.502877197265626,-0.008617988787591457,-0.0201614610850811,0.002796319080516696
1769661646642865400,8.512865478515625,-0.008376440964639187,-0.018731608986854553,0.004269579891115427
1769661646652853500,8.522853515625,-0.007150587625801563,-0.013766412623226643,0.009414007887244225
1769661646662841600,8.532841552734375,-0.010384996421635151,-0.015396533533930779,0.012989302165806293
1769661646672829400,8.542829345703124,-0.011326157487928867,-0.021379856392741203,0.007938350550830364
1769661646682818300,8.552818359375,-0.012831109575927258,-0.019354788586497307,0.0029313412960618734
1769661646692806400,8.562806396484374,-0.013168266043066978,-0.01206811424344778,0.0015720640076324344
1769661646702794500,8.57279443359375,-0.017538780346512794,-0.01314935740083456,0.0010759170399978757
1769661646712782300,8.5827822265625,-0.012832441367208958,-0.011318434961140156,-0.003721234854310751
1769661646722770400,8.5927705078125,-0.012199408374726772,-0.0007249124464578927,-0.008305600844323635
1769661646732758500,8.602758544921874,-0.010202303528785706,0.00621155695989728,-0.009573264978826046
1769661646742746400,8.612746337890625,-0.009414806962013245,0.005076784174889326,-0.0070611052215099335
1769661646752734500,8.622734375,-0.009845440275967121,0.002034388715401292,-0.005015797447413206
1769661646762722600,8.63272265625,-0.007719172164797783,0.001127582392655313,-0.010713097639381886
1769661646772710700,8.642710693359374,-0.00726403808221221,0.004037884995341301,-0.014815164729952812
1769661646782698500,8.652698486328125,-0.00660463934764266,0.00447011599317193,-0.017948107793927193
1769661646792686300,8.662686279296874,-0.006626477465033531,0.008012918755412102,-0.018375013023614883
1769661646802675500,8.672675537109376,-0.005083441734313965,0.015843944624066353,-0.015960058197379112
1769661646812663600,8.68266357421875,-0.001294029993005097,0.017950505018234253,-0.008784436620771885
1769661646822651400,8.6926513671875,0.00039254993316717446,0.014573615975677967,-0.0022154836915433407
1769661646832639500,8.702639404296875,-0.0029033781029284,0.007686415687203407,-0.0030836742371320724
1769661646842627600,8.712627685546876,-0.006086388137191534,-0.0010990865994244814,-0.0022687469609081745
1769661646852615400,8.722615478515625,-0.006580937188118696,-0.003911917097866535,0.000865793670527637
1769661646862603500,8.732603515625,-0.0073561836034059525,-0.0018610169645398855,0.0019827233627438545
1769661646872591600,8.742591552734375,-0.008207862265408039,0.0022093583829700947,0.0049316417425870895
1769661646882579500,8.752579345703126,-0.004549478180706501,0.0016136092599481344,0.008825981989502907
1769661646892567300,8.7625673828125,-0.0046416232362389565,0.008947688154876232,0.010608435608446598
1769661646902555400,8.772555419921876,-0.002784601179882884,0.011201255023479462,0.010306699201464653
1769661646912543500,8.78254345703125,-0.003710316028445959,0.012961338274180889,0.008131695911288261
1769661646922532600,8.79253271484375,-0.0049068741500377655,0.012400743551552296,0.004001399502158165
1769661646932520400,8.8025205078125,-0.008984972722828388,0.015121428295969963,0.0007954862085171044
1769661646942508500,8.812508544921876,-0.010851848870515823,0.014809305779635906,0.0029784792568534613
1769661646952496600,8.82249658203125,-0.009290969930589199,0.017250359058380127,0.005093029234558344
1769661646962484500,8.832484375,-0.01076769270002842,0.018459435552358627,0.004610198084264994
1769661646972472300,8.842472412109375,-0.011553059332072735,0.0178154818713665,0.004037884995341301
1769661646982460200,8.852460205078126,-0.009786584414541721,0.013109676539897919,0.0009957558941096067
1769661646992448300,8.8624482421875,-0.009217733517289162,0.008200138807296753,-0.002356897573918104
1769661647002436400,8.872436279296876,-0.008960205130279064,0.007644603960216045,-0.004486094694584608
1769661647012424400,8.882424560546875,-0.0068086376413702965,0.00495081627741456,-0.005831257440149784
1769661647022412300,8.892412353515626,-0.0041345576755702496,0.00010492854926269501,-0.007463508751243353
1769661647032400400,8.902400390625,-0.0029635655228048563,0.0001627191377338022,-0.01017114520072937
1769661647042389500,8.912389404296874,-0.0015683355741202831,0.003409378696233034,-0.009467271156609058
1769661647052377300,8.92237744140625,-0.002784867538139224,0.003230680711567402,-0.010892861522734165
1769661647062365200,8.932365234375,-0.003040797309949994,0.003454119898378849,-0.010337059386074543
1769661647072353300,8.942353271484375,-0.005231780000030994,-0.0038152446504682302,-0.008015848696231842
1769661647082341400,8.95234130859375,-0.006505569908767939,-0.0076275598257780075,-0.006197175942361355
1769661647092329200,8.9623291015625,-0.008125037886202335,-0.011122692376375198,-0.003954794257879257
1769661647102317300,8.9723173828125,-0.005979595705866814,-0.013882259838283062,0.0002162486780434847
1769661647112305400,8.982305419921875,-0.006068811286240816,-0.015488145872950554,0.0002639192680362612
1769661647122293500,8.99229345703125,-0.0076179723255336285,-0.013103018514811993,-0.0009619337506592274
1769661647132281300,9.00228125,-0.007691209204494953,-0.009251289069652557,-0.00401711231097579
1769661647142269400,9.01226953125,-0.006041114684194326,-0.005345230456441641,-0.004856273997575045
1769661647152257500,9.022257568359375,-0.004920190200209618,-0.0017089504981413484,-0.008914132602512836
1769661647162245400,9.032245361328124,-0.0057249972596764565,0.0009651295840740204,-0.009238772094249725
1769661647172234200,9.042234130859375,-0.0030916635878384113,0.0004596615908667445,-0.010774617083370686
1769661647182222300,9.052222412109375,-0.0032871398143470287,-0.0004223773430567235,-0.011401258409023285
1769661647192210400,9.06221044921875,-0.0023758059833198786,-0.0006796387024223804,-0.009699499234557152
1769661647202198300,9.0721982421875,-0.0016879114555194974,-0.002900448627769947,-0.010006560944020748
1769661647212186400,9.082186279296875,-0.0011456918437033892,0.00036511936923488975,-0.0092923017218709
1769661647222174500,9.092174560546875,-0.0004703142330981791,-0.0020652813836932182,-0.005278917960822582
1769661647232162600,9.10216259765625,0.0011515507940202951,-0.004732171073555946,-0.0043444144539535046
1769661647242150400,9.112150390625,0.0006860303110443056,-0.0010002832859754562,-0.007938350550830364
1769661647252138500,9.122138427734376,0.005019525997340679,0.001284975209273398,-0.009260343387722969
1769661647262126300,9.132126220703125,0.0010183927370235324,0.00443975580856204,-0.00965875294059515
1769661647272114200,9.1421142578125,0.0034320156555622816,0.008363391272723675,-0.008652877062559128
1769661647282103300,9.152103271484375,0.003543868428096175,0.006846720818430185,-0.008904545567929745
1769661647292091400,9.16209130859375,0.0033159018494188786,0.00618252856656909,-0.005617672111839056
1769661647302079500,9.17207958984375,0.006499977316707373,0.0028186896815896034,-0.003687146585434675
1769661647312067300,9.1820673828125,0.006880542729049921,-0.0019539613276720047,-0.0007912251749075949
1769661647322055400,9.192055419921875,0.006579073145985603,-0.0024495755787938833,-0.0005169195355847478
1769661647332043500,9.20204345703125,0.007963917218148708,-0.004216582980006933,-0.0007206514128483832
1769661647342031400,9.21203125,0.0059902481734752655,-0.004757737275213003,-0.00010892329009948298
1769661647352019200,9.222019287109376,0.006729541812092066,-0.0027502465527504683,-0.001094825565814972
1769661647362007300,9.23200732421875,0.004811000544577837,0.0006548712844960392,-0.0016418388113379478
1769661647371995400,9.241995361328126,0.007435812149196863,-0.0008831042214296758,-0.005766276270151138
1769661647381983200,9.251983154296875,0.0057468353770673275,-0.00015419702685903758,-0.00729413190856576
1769661647391971300,9.261971435546876,0.007084274664521217,0.0030149647500365973,-0.009965814650058746
1769661647401959400,9.27195947265625,0.006338057108223438,0.00401657959446311,-0.011469169519841671
1769661647411948500,9.281948486328124,0.0073103769682347775,0.007727694697678089,-0.011325358413159847
1769661647421936400,9.291936279296875,0.008249407634139061,0.007668306119740009,-0.012388226576149464
1769661647431924200,9.30192431640625,0.009379386901855469,0.00689172837883234,-0.01224308367818594
1769661647441912300,9.311912353515625,0.008508799597620964,0.008679774589836597,-0.012103800661861897
1769661647451900400,9.321900390625,0.006436061579734087,0.007919974625110626,-0.012743758037686348
1769661647461888300,9.33188818359375,0.00458782771602273,0.005120459944009781,-0.014473214745521545
1769661647471876400,9.34187646484375,0.0049124667420983315,0.002189651131629944,-0.015618374571204185
1769661647481864400,9.351864501953125,0.006807039491832256,-0.00045140579459257424,-0.01432407833635807
1769661647491852300,9.361852294921874,0.008174040354788303,-0.003424558788537979,-0.011494469828903675
1769661647501840400,9.37184033203125,0.006682936567813158,-0.005810484755784273,-0.009269931353628635
1769661647511828500,9.381828369140624,0.005810218397527933,-0.009192433208227158,-0.010943461209535599
1769661647521816300,9.39181640625,0.0057260626927018166,-0.010084325447678566,-0.01594194769859314
1769661647531805200,9.40180517578125,0.007092264015227556,-0.005279717035591602,-0.02184804156422615
1769661647541793300,9.411793212890625,0.008577775210142136,-0.0029619678389281034,-0.02623293548822403
1769661647551781400,9.421781494140625,0.006090915761888027,0.00695005152374506,-0.031501732766628265
1769661647561769500,9.43176953125,0.007041397970169783,0.020445087924599648,-0.03256859630346298
1769661647571757300,9.44175732421875,0.00851279404014349,0.02225310727953911,-0.03158322721719742
1769661647581745400,9.451745361328125,0.007607053499668837,0.02594238519668579,-0.027717115357518196
1769661647591733500,9.4617333984375,0.007617439609020948,0.021396102383732796,-0.022774554789066315
1769661647601721300,9.471721435546876,0.005921006202697754,0.011640410870313644,-0.02124243788421154
1769661647611709400,9.48170947265625,0.004084490239620209,0.0046815709210932255,-0.020743893459439278
1769661647621697500,9.491697509765626,0.002638659905642271,0.002156095113605261,-0.01739203929901123
1769661647631685400,9.501685302734375,0.00199390877969563,-0.004874916281551123,-0.012455071322619915
1769661647641674200,9.51167431640625,0.001130245509557426,-0.006509298458695412,-0.00986434891819954
1769661647651662300,9.521662353515625,0.00046818371629342437,-0.004334294702857733,-0.010466222651302814
1769661647661650400,9.531650390625,-0.00012383698776829988,-0.004056526813656092,-0.008526642806828022
1769661647671638300,9.54163818359375,-0.00046578687033616006,-0.0041486723348498344,-0.008388690650463104
1769661647681626400,9.55162646484375,-0.001692705205641687,-0.0042131207883358,-0.00717721926048398
1769661647691614500,9.561614501953125,-0.00010865696822293103,-0.004830707795917988,-0.0057710702531039715
1769661647701602600,9.5716025390625,0.00033902039285749197,-0.0037025928031653166,-0.005328719038516283
1769661647711590400,9.58159033203125,0.0006551376427523792,0.003368099918588996,-0.003951598424464464
1769661647721578200,9.591578125,0.0034405377227813005,0.010890730656683445,-0.006709834095090628
1769661647731566300,9.60156640625,0.004762797150760889,0.01775556057691574,-0.007369499187916517
1769661647741554200,9.61155419921875,0.006411560345441103,0.025235848501324654,-0.005678125657141209
1769661647751542300,9.621542236328125,0.007596134208142757,0.028563734143972397,-0.0015150723047554493
1769661647761531400,9.631531494140624,0.0067511131055653095,0.021752700209617615,-0.0026045716367661953
1769661647771519500,9.64151953125,0.007837682962417603,0.011961587704718113,-0.003367833560332656
1769661647781507300,9.65150732421875,0.007154315710067749,0.004561994690448046,0.002314020646736026
1769661647791495400,9.661495361328125,0.004613393917679787,-0.008168447762727737,0.0038338867016136646
1769661647801483500,9.6714833984375,0.0024975123815238476,-0.02220596931874752,-0.004237355664372444
1769661647811471400,9.681471435546875,0.0034091125708073378,-0.01852521486580372,-0.00589490681886673
1769661647821459200,9.691459228515624,0.0046693203039467335,-0.006256031803786755,-0.0018908443162217736
1769661647831447300,9.701447265625,0.0041127195581793785,-0.001484445994719863,0.0009302421822212636
1769661647841435400,9.711435302734374,0.006895190104842186,0.0032205607276409864,0.0044083306565880775
1769661647851423200,9.72142333984375,0.010183128528296947,0.01655580662190914,0.0034173682797700167
1769661647861411300,9.731411376953124,0.009665676392614841,0.02274179831147194,0.0012178635224699974
1769661647871399400,9.7413994140625,0.008839031681418419,0.0182943195104599,-0.00008202536264434457
1769661647881388500,9.751388427734375,0.0064927865751087666,0.012381568551063538,-0.002566754585132003
1769661647891376400,9.76137646484375,0.00353428116068244,0.012457202188670635,-0.004942560568451881
1769661647901364200,9.7713642578125,0.0008506136364303529,0.010997789911925793,-0.00837031565606594
1769661647911352300,9.781352294921875,-0.0023638217244297266,0.002980609890073538,-0.011606855317950249
1769661647921340400,9.79134033203125,-0.005318066570907831,-0.001192829804494977,-0.010321080684661865
1769661647931328300,9.801328369140625,-0.004433896858245134,-0.0035830168053507805,-0.0072355424053967
1769661647941316400,9.81131640625,-0.006981743033975363,-0.011995942331850529,-0.005279184319078922
1769661647951304400,9.821304443359375,-0.00698041170835495,-0.012820723466575146,-0.007105047348886728
1769661647961292500,9.83129248046875,-0.007735151331871748,-0.011126154102385044,-0.010999388061463833
1769661647971280400,9.8412802734375,-0.009062737226486206,-0.006293582264333963,-0.015279353596270084
1769661647981268500,9.8512685546875,-0.008650213479995728,-0.001743571599945426,-0.017004549503326416
1769661647991256600,9.861256591796876,-0.009530920535326004,0.004240018781274557,-0.015305719338357449
1769661648001245400,9.871245361328125,-0.010380735620856285,0.00714685907587409,-0.013814615085721016
1769661648011233500,9.881233642578126,-0.013055081479251385,0.009032643400132656,-0.013801299966871738
1769661648021221400,9.891221435546875,-0.010694189928472042,0.006104497704654932,-0.012894227169454098
1769661648031209500,9.90120947265625,-0.012417254969477654,0.00018429075134918094,-0.013126987032592297
1769661648041197600,9.911197509765625,-0.013254818506538868,-0.009586581028997898,-0.013009008951485157
1769661648051185400,9.921185302734376,-0.01209634356200695,-0.014729944057762623,-0.012190353125333786
1769661648061173500,9.931173583984375,-0.010036654770374298,-0.015263907611370087,-0.013224991969764233
1769661648071161600,9.94116162109375,-0.010491522960364819,-0.016732107847929,-0.012352806515991688
1769661648081149400,9.9511494140625,-0.00956793874502182,-0.014519820921123028,-0.014581872150301933
1769661648091137500,9.961137451171876,-0.009438242763280869,-0.0071037160232663155,-0.014755776152014732
1769661648101125400,9.97112548828125,-0.010615626350045204,-0.003983822651207447,-0.015602661296725273
1769661648111113500,9.981113525390626,-0.009402822703123093,-0.002820287598297,-0.016820792108774185
1769661648121102300,9.991102294921875,-0.008160457946360111,-0.0010404969798400998,-0.01751561090350151
1769661648131090400,10.00109033203125,-0.007871771231293678,-0.0013603427214547992,-0.016344351693987846
1769661648141078500,10.01107861328125,-0.006691458635032177,-0.0038101845420897007,-0.012428706511855125
1769661648151066600,10.021066650390624,-0.004832039587199688,-0.006390521302819252,-0.007411843631416559
1769661648161054500,10.031054443359375,-0.004818723537027836,-0.013879329897463322,-0.004795021377503872
1769661648171042600,10.04104248046875,-0.0024855281226336956,-0.016598151996731758,-0.0023912524338811636
1769661648181030400,10.051030517578125,-0.003070358419790864,-0.014544587582349777,-0.0012282498646527529
1769661648191018200,10.061018310546874,-0.0028583707753568888,-0.011934956535696983,0.00044474788592197
1769661648201006300,10.07100634765625,-0.0014285196084529161,-0.008183361031115055,0.000916393706575036
1769661648210994400,10.080994384765624,0.000037550569686573,-0.004225904121994972,0.00006471481174230576
1769661648220982500,10.090982421875,-0.0002490055630914867,0.0007241134881041944,-0.0010548781137913465
1769661648230970400,10.100970458984374,0.001876995898783207,0.003934820648282766,0.0004894890007562935
1769661648240958500,10.11095849609375,0.002674346324056387,-0.0032509206794202328,0.0018658105982467532
1769661648250947600,10.120947509765625,0.004289287142455578,-0.011741078458726406,0.0071039823815226555
1769661648260935400,10.130935302734375,0.0041364217177033424,-0.013630058616399765,0.00449994346126914
1769661648270923300,10.14092333984375,0.0028122980147600174,-0.013029515743255615,-0.0016871124971657991
1769661648280911400,10.150911376953125,0.002386192325502634,-0.010512827895581722,-0.004904477391391993
1769661648290899500,10.1608994140625,0.0034708979073911905,0.0017118799732998013,-0.008099738508462906
1769661648300887300,10.17088720703125,0.004898884799331427,0.014782408252358437,-0.002493251347914338
1769661648310875400,10.18087548828125,0.008711466565728188,0.02347230352461338,0.0035262915771454573
1769661648320863500,10.190863525390625,0.009767143055796623,0.021630993112921715,0.012316054664552212
1769661648330851600,10.2008515625,0.011124822311103344,0.01665966957807541,0.01369424071162939
1769661648340839400,10.21083935546875,0.008889897726476192,0.005537510849535465,0.012653743848204613
1769661648350828300,10.220828369140625,0.006654706783592701,-0.0065503111109137535,0.011799934320151806
1769661648360816400,10.23081640625,0.007645935285836458,-0.014974421821534634,0.009227586910128593
1769661648370804500,10.240804443359375,0.004575044382363558,-0.016115853562951088,0.012857475318014622
1769661648380792300,10.250792236328126,0.006397712044417858,-0.01642291620373726,0.017971277236938477
1769661648390780400,10.260780517578125,0.006662430241703987,-0.014512363821268082,0.021328991279006004
1769661648400768500,10.2707685546875,0.006595850922167301,-0.01091789547353983,0.022176142781972885
1769661648410756400,10.28075634765625,0.006111954804509878,-0.013456153683364391,0.016173111274838448
1769661648420744400,10.290744384765626,0.0036786242853850126,-0.01629987731575966,0.005152151454240084
1769661648430732500,10.300732666015625,0.006690659560263157,-0.020384367555379868,-0.001065264455974102
1769661648440720600,10.310720703125,0.005875998642295599,-0.014395983889698982,-0.0016756609547883272
1769661648450708500,10.32070849609375,0.007814247161149979,-0.0024975123815238476,0.006572148762643337
1769661648460696600,10.330696533203126,0.00974290817975998,0.009951434098184109,0.01212963368743658
1769661648470684400,10.340684326171875,0.012557869777083397,0.017677264288067818,0.01065237820148468
1769661648480673500,10.350673583984374,0.0129349734634161,0.018074074760079384,0.010431068949401379
1769661648490661400,10.360661376953125,0.012827115133404732,0.01041349209845066,0.00765791954472661
1769661648500649500,10.3706494140625,0.010470218025147915,-0.006587595213204622,0.006046973634511232
1769661648510637600,10.380637451171875,0.006958307232707739,-0.020000606775283813,0.0034943337086588144
1769661648520625400,10.39062548828125,0.0035547874867916107,-0.031208785250782967,0.0019118833588436246
1769661648530613500,10.400613525390625,0.007450459524989128,-0.03501177951693535,0.0007773766992613673
1769661648540601600,10.4106015625,0.008784702979028225,-0.025103755295276642,0.0023699470330029726
1769661648550589400,10.42058935546875,0.010163688100874424,-0.009313073940575123,0.004145476501435041
1769661648560577300,10.430577392578124,0.012311261147260666,0.004770786967128515,0.0035779569298028946
1769661648570565400,10.4405654296875,0.012225773185491562,0.013275591656565666,0.00007909588020993397
1769661648580553500,10.450553466796874,0.01207051146775484,0.011758921667933464,-0.003644536016508937
1769661648590541300,10.460541259765625,0.014093714766204357,0.004246676806360483,-0.006747118663042784
1769661648600530400,10.470530517578124,0.012976518832147121,-0.0007664577569812536,-0.007542870938777924
1769661648610518500,10.4805185546875,0.011351191438734531,-0.003853327827528119,-0.004796619527041912
1769661648620506600,10.490506591796875,0.01236212719231844,-0.0009347695158794522,-0.0075426045805215836
1769661648630494500,10.500494384765625,0.011960522271692753,0.0002921487612184137,-0.006529538426548243
1769661648640482300,10.510482421875,0.012796488590538502,0.006852846127003431,-0.009426258504390717
1769661648650470400,10.520470458984375,0.013770407065749168,0.010727479122579098,-0.011611648835241795
1769661648660458500,10.53045849609375,0.011949603445827961,0.00872158631682396,-0.01404790859669447
1769661648670446300,10.5404462890625,0.012665195390582085,0.002029062481597066,-0.013232714496552944
1769661648680434400,10.550434326171874,0.013976802118122578,-0.0005752427969127893,-0.010755442082881927
1769661648690422500,10.560422607421875,0.01401781477034092,-0.002966228872537613,-0.00746271014213562
1769661648700410400,10.570410400390625,0.014956844970583916,0.0021459751296788454,-0.00008122641156660393
1769661648710399500,10.5803994140625,0.017592309042811394,0.0041553303599357605,0.0031254857312887907
1769661648720387600,10.5903876953125,0.018200840801000595,0.011344533413648605,0.0031883365008980036
1769661648730375400,10.60037548828125,0.019243735820055008,0.01561411377042532,0.0044352286495268345
1769661648740363300,10.61036328125,0.01967942900955677,0.013280651532113552,0.0017619474092498422
1769661648750351400,10.620351318359376,0.016769925132393837,0.008241950534284115,0.00007163903501350433
1769661648760339500,10.63033935546875,0.01410703081637621,-0.002356897573918104,0.00037630466977134347
1769661648770327600,10.64032763671875,0.01353658176958561,-0.01227450929582119,0.000035686356568476185
1769661648780315400,10.6503154296875,0.013177587650716305,-0.017225058749318123,0.0014764565275982022
1769661648790303500,10.660303466796876,0.011449994519352913,-0.018862903118133545,0.0003818972909357399
1769661648800291600,10.67029150390625,0.010056628845632076,-0.01570093259215355,0.0017576862592250109
1769661648810279400,10.680279541015626,0.010755708441138268,-0.009873935952782631,0.001279116258956492
1769661648820267500,10.690267578125,0.010817760601639748,-0.00532552320510149,0.00007057376933516935
1769661648830256400,10.70025634765625,0.010270480997860432,-0.0021076255943626165,-0.0001174454009742476
1769661648840244500,10.710244384765625,0.009226255118846893,0.0027276095934212208,-0.0022860574536025524
1769661648850232300,10.720232421875,0.008285360410809517,0.004309260752052069,-0.00224903947673738
1769661648860220400,10.730220458984375,0.007577492389827967,0.005025384947657585,-0.0009661948424763978
1769661648870208500,10.74020849609375,0.006164152640849352,0.0017686053179204464,0.002615224104374647
1769661648880196400,10.7501962890625,0.006404103245586157,-5.326322138898831e-7,0.003382214577868581
1769661648890184400,10.760184326171874,0.003400324145331979,-0.005468801129609346,0.00785366166383028
1769661648900172500,10.770172607421875,0.002192580606788397,-0.010207363404333591,0.008074171841144562
1769661648910160600,10.78016064453125,0.0004767058417201042,-0.015357650816440582,0.011448130942881107
1769661648920148500,10.7901484375,-0.0003451456723269075,-0.018510833382606506,0.012120578438043594
1769661648930136300,10.80013623046875,0.0005083974683657289,-0.016167251393198967,0.01161670871078968
1769661648940124400,10.81012451171875,0.0004093278548680246,-0.010835603810846806,0.011499263346195221
1769661648950113500,10.820113525390624,-0.000666589243337512,-0.005824067164212465,0.01619042083621025
1769661648960101400,10.830101318359375,-0.001059405505657196,-0.006335393991321325,0.014730476774275303
1769661648970089000,10.8400888671875,0.0006849650526419282,-0.004563060123473406,0.011030812747776508
1769661648980077000,10.8500771484375,-0.0007379619055427611,-0.00013209278404247016,0.0014109427575021982
1769661648990065000,10.86006494140625,-0.0020330571569502354,0.0018839201657101512,-0.004597681108862162
1769661649000053000,10.870052978515625,-0.00034674355993047357,0.001115864492021501,-0.009734386578202248
1769661649010041000,10.880041015625,0.0002769687562249601,0.005859486758708954,-0.013026852160692215
1769661649020029200,10.890029296875,-0.0022945795208215714,0.007321029901504517,-0.011605257168412209
1769661649030017000,10.90001708984375,-0.0004974784678779542,0.0006583334179595113,-0.009380452334880829
1769661649040004900,10.9100048828125,-0.0028493159916251898,-0.0075548551976680756,-0.009004946798086166
1769661649049993000,10.919992919921874,-0.0024887239560484886,-0.01563568413257599,-0.0064373929053545
1769661649059982000,10.929982177734376,-0.004070907831192017,-0.023918382823467255,-0.005623264703899622
1769661649069970000,10.939969970703125,-0.0023422501981258392,-0.028381306678056717,-0.004721251782029867
1769661649079958000,10.9499580078125,-0.0034288198221474886,-0.03229349106550217,-0.008478705771267414
1769661649089946000,10.959946044921875,-0.00019361180602572858,-0.030426083132624626,-0.005307679995894432
1769661649099934000,10.969933837890625,0.0017739315517246723,-0.029201561585068703,-0.0030389330349862576
1769661649109922000,10.979922119140625,0.001998702296987176,-0.0315731056034565,0.0007566040731035173
1769661649119910000,10.989909912109376,0.0020804614759981632,-0.03045670874416828,0.002666356973350048
1769661649129897700,10.999897705078125,0.002031192881986499,-0.031022630631923676,0.0014215953415259719
1769661649139885800,11.0098857421875,0.0049127331003546715,-0.027772508561611176,-0.0013733921805396676
1769661649149874000,11.0198740234375,0.004293282050639391,-0.02521454356610775,-0.004710066597908735
1769661649159862000,11.029862060546876,0.006125270389020443,-0.013482785783708096,-0.005628590937703848
1769661649169849900,11.039849853515625,0.009973271749913692,-0.002239984693005681,-0.006069610361009836
1769661649179839000,11.0498388671875,0.011287808418273926,0.01070910319685936,-0.005943642929196358
1769661649189827000,11.0598271484375,0.013903298415243626,0.021620607003569603,-0.006332198157906532
1769661649199815000,11.06981494140625,0.013685984537005424,0.023089339956641197,-0.00358807691372931
1769661649209802800,11.079802734375,0.011172226630151272,0.021575866267085075,-0.0035289546940475702
1769661649219790800,11.089790771484376,0.011024953797459602,0.01618696004152298,-0.0026181535795331
1769661649229779000,11.099779052734375,0.01025689858943224,0.006216084118932486,-0.0024264061357825994
1769661649239766800,11.109766845703126,0.010031328536570072,-0.0032661007717251778,-0.004571848548948765
1769661649249755000,11.1197548828125,0.009140768088400364,-0.009063536301255226,-0.001669003046117723
1769661649259743000,11.129742919921876,0.009158344939351082,-0.008582303300499916,-0.00039707732503302395
1769661649269731000,11.13973095703125,0.008576709777116776,-0.005327653605490923,0.000574177538510412
1769661649279719000,11.149718994140626,0.0075633772648870945,-0.0005126585019752383,0.002484995638951659
1769661649289707800,11.159707763671875,0.005556951742619276,0.0016399745363742113,0.00526720006018877
1769661649299695900,11.16969580078125,0.005712214391678572,-0.0008676578872837126,0.008112254552543163
1769661649309684000,11.17968408203125,0.0065191518515348434,-0.0036077843979001045,0.0073591130785644054
1769661649319671800,11.189671875,0.0059966398403048515,-0.005498095881193876,0.007063501980155706
1769661649329660000,11.199659912109375,0.0031822111923247576,-0.0054307179525494576,0.00675324397161603
1769661649339648000,11.20964794921875,0.002552906284108758,-0.0035241609439253807,0.003044259501621127
1769661649349635800,11.2196357421875,0.0024943165481090546,-0.0023086944129318,-0.0006679208017885685
1769661649359624000,11.2296240234375,0.0020580908749252558,0.002110022585839033,-0.0028698223177343607
1769661649369612000,11.239612060546875,0.0036916739773005247,0.0033832797780632973,-0.0065471152774989605
1769661649379600100,11.24960009765625,0.002223206916823983,0.00535588338971138,-0.006474144756793976
1769661649389588000,11.259587890625,0.004737763665616512,0.006893592420965433,-0.006619020365178585
1769661649399576000,11.269576171875,0.00415399856865406,0.007682953495532274,-0.005871205125004053
1769661649409565000,11.27956494140625,0.0032599754631519318,0.00788668543100357,-0.006272543221712112
1769661649419553000,11.289552978515625,0.0022738068364560604,0.006739129312336445,-0.004168912302702665
1769661649429540900,11.299540771484375,0.0010801780736073852,0.004493285436183214,-0.008213188499212265
1769661649439529000,11.309529052734375,-0.0017936390358954668,-0.003260774305090308,-0.012444152496755123
1769661649449517000,11.31951708984375,-0.0008969526388682425,-0.008893626742064953,-0.014592258259654045
1769661649459505000,11.3295048828125,-0.00079735042527318,-0.013016998767852783,-0.012444152496755123
1769661649469493000,11.339492919921875,-0.0009629990672692657,-0.011254784651100636,-0.0067721521481871605
1769661649479481000,11.349481201171875,-0.002668221015483141,-0.006506102625280619,-0.0027177559677511454
1769661649489469000,11.359468994140625,-0.005453621037304401,-0.0018157431622967124,0.0004844290087930858
1769661649499456800,11.369456787109375,-0.006508499383926392,0.004637362435460091,0.0020003002136945724
1769661649509444900,11.37944482421875,-0.004344148561358452,0.011108310893177986,-0.0002921487612184137
1769661649519434000,11.38943408203125,-0.0052442969754338264,0.014270548708736897,-0.0032059133518487215
1769661649529422000,11.399422119140626,-0.004573712591081858,0.01565113104879856,-0.0042733084410429
1769661649539410000,11.409409912109375,-0.005849899724125862,0.016717728227376938,-0.003493002150207758
1769661649549398000,11.41939794921875,-0.004255997482687235,0.011020959354937077,0.00017363809456583112
1769661649559386000,11.42938623046875,-0.004283960908651352,0.005510612856596708,0.002748914761468768
1769661649569374000,11.4393740234375,-0.004893824923783541,0.001725728390738368,0.005724464543163776
1769661649579361800,11.44936181640625,-0.0002532666258048266,-0.0022130869328975677,0.0049039446748793125
1769661649589350000,11.459349853515626,-0.0008862999966368079,-0.0026461167726665735,0.0008729841792955995
1769661649599338000,11.469337890625,0.001136104459874332,-0.00020186760229989886,-0.0019475696608424187
1769661649609325800,11.479325927734376,0.00040533312130719423,0.0059969061985611916,-0.0006945523782633245
1769661649619314000,11.48931396484375,0.002981142606586218,0.01025583315640688,0.0035278894938528538
1769661649629302000,11.499302001953126,0.00242161238566041,0.015161908231675625,0.004062652122229338
1769661649639291100,11.509291015625,0.00364719913341105,0.01563994586467743,0.006440588738769293
1769661649649279000,11.519279052734374,0.005255215801298618,0.015126221813261509,0.002528671408072114
1769661649659267000,11.52926708984375,0.0049532135017216206,0.00700890738517046,-0.0025068335235118866
1769661649669255000,11.5392548828125,0.005390238016843796,-0.0035169704351574183,-0.0065710837952792645
1769661649679242800,11.54924267578125,0.004093811381608248,-0.006327404174953699,-0.011402856558561325
1769661649689230800,11.55923095703125,0.0037997981999069452,-0.006591057404875755,-0.016088955104351044
1769661649699219000,11.569218994140625,0.003020290983840823,-0.0038091193418949842,-0.018253838643431664
1769661649709207000,11.57920703125,0.0023004384711384773,0.0021491709630936384,-0.019113507121801376
1769661649719195000,11.58919482421875,0.0018809906905516982,0.012673716992139816,-0.019397133961319923
1769661649729183000,11.599182861328124,0.004222175572067499,0.01889353059232235,-0.016079368069767952
1769661649739171000,11.609171142578125,0.006708502769470215,0.02232394739985466,-0.011262774467468262
1769661649749160000,11.619159912109374,0.007838748395442963,0.017410948872566223,-0.003780623432248831
1769661649759147800,11.629147705078125,0.0070914654061198235,0.014189855195581913,-0.001055943313986063
1769661649769135900,11.639135986328125,0.004450674634426832,0.006729275453835726,-0.002525475574657321
1769661649779124000,11.6491240234375,0.0022280006669461727,0.0016666061710566282,-0.009135441854596138
1769661649789111800,11.65911181640625,-0.0011504855938255787,0.0018072210950776935,-0.012472381815314293
1769661649799100000,11.669099853515625,-0.00247594085521996,-0.0035960664972662926,-0.01184946857392788
1769661649809088000,11.679087890625,-0.0023912524338811636,-0.006065615452826023,-0.005483448505401611
1769661649819076000,11.689076171875,0.0009262474486604333,0.0022857910953462124,-0.00296250032261014
1769661649829064000,11.69906396484375,-0.0014958975370973349,0.01107395626604557,-0.003079146845266223
1769661649839052000,11.709052001953125,-0.0014093448407948017,0.014718492515385151,-0.005137770436704159
1769661649849040100,11.7190400390625,-0.001341966912150383,0.018221881240606308,-0.008407599292695522
1769661649859029000,11.729029052734376,-0.0008460862445645034,0.01781255193054676,-0.009840646758675575
1769661649869016800,11.739016845703125,-0.0015954998089000583,0.016176307573914528,-0.010206565260887146
1769661649879005000,11.7490048828125,-0.000743554555810988,0.013275325298309326,-0.010422280989587307
1769661649888993000,11.758992919921875,-0.0003049319493584335,0.016529176384210587,-0.012416455894708633
1769661649898980900,11.76898095703125,-0.0013526194961741567,0.019830429926514626,-0.013744574040174484
1769661649908969000,11.778968994140625,0.0005869606975466013,0.013457219116389751,-0.014595987275242805
1769661649918957000,11.78895703125,-0.0004540689697023481,0.012330436147749424,-0.014148842543363571
1769661649928945200,11.798945068359375,-0.0006431533838622272,0.013133378699421883,-0.01233576238155365
1769661649938933000,11.80893310546875,-0.0011909656459465623,0.010512827895581722,-0.014668158255517483
1769661649948921000,11.818921142578125,-0.0008042746339924634,0.008475244045257568,-0.013519803062081337
1769661649958909000,11.828908935546876,-0.0011438276851549745,0.008679508231580257,-0.013672668486833572
1769661649968897500,11.8388974609375,-0.000022636868379777297,0.00774660287424922,-0.013033243827521801
