time,seconds_elapsed,acc_z,acc_y,acc_x,gyro_z,gyro_y,gyro_x
1.76966E+18,0.07294458,0.011745529,-0.028147652,-0.036171676,0.002732804,0.007803881,0.000312233
1.76966E+18,0.082932373,0.013650924,-0.040958618,-0.045552668,0.001827711,0.013447369,-0.004763607
1.76966E+18,0.09292041,0.026845337,-0.050581017,-0.038748541,0.000574161,0.022180142,-0.009408426
1.76966E+18,0.102908447,-0.023626959,-0.073075758,-0.040989598,0.003761913,0.028781416,-0.015680319
1.76966E+18,0.112896729,-0.049252983,-0.071228084,-0.049091655,0.005157676,0.036475822,-0.021681486
1.76966E+18,0.122884521,-0.052299073,-0.059647536,-0.04533844,0.009249079,0.047185544,-0.025397509
1.76966E+18,0.132872559,-0.064973115,-0.052139937,-0.079290394,0.009788369,0.051287346,-0.026851064
1.76966E+18,0.142860352,-0.064846858,-0.0354419,-0.055385787,0.006606477,0.060033336,-0.030171875
1.76966E+18,0.152848145,-0.038451603,-0.047859483,-0.065754621,0.005061577,0.064259499,-0.025969407
1.76966E+18,0.162837402,-0.013790771,-0.048386138,-0.029476562,0.007634793,0.063962333,-0.02413417
1.76966E+18,0.172825439,0.012290011,-0.041951136,-0.007871172,0.010108603,0.069793329,-0.030116163
1.76966E+18,0.182813477,0.035677463,-0.027808044,-0.021958149,0.012179833,0.064372666,-0.028096564
1.76966E+18,0.192801514,0.01884557,-0.045752866,-0.014236031,0.014423545,0.060047153,-0.02687444
1.76966E+18,0.202789551,-0.007118308,-0.04812661,-0.005234101,0.011072285,0.059693832,-0.02404137
1.76966E+18,0.212777588,-0.020938305,-0.033556817,-0.009167934,0.008778504,0.05778648,-0.019042617
1.76966E+18,0.222765381,-0.019155951,-0.027460254,0.032910044,0.009730213,0.051812407,-0.015660167
1.76966E+18,0.232753174,0.00295885,-0.040912441,0.052160688,0.010881231,0.0471588,-0.019290853
1.76966E+18,0.242741455,0.01798267,-0.050912441,0.039001054,0.010998196,0.044350132,-0.021105116
1.76966E+18,0.252729492,0.01176058,-0.059076458,0.030685061,0.010977424,0.046874009,-0.017879495
1.76966E+18,0.262717285,0.003941869,-0.076097151,0.030145255,0.011661266,0.05175386,-0.020369491
1.76966E+18,0.272705322,-0.023877719,-0.069709496,0.002646131,0.01501099,0.059061043,-0.027100896
1.76966E+18,0.282693604,-0.045382864,-0.060771572,-0.014461072,0.016423425,0.068985388,-0.030884095
1.76966E+18,0.292681641,-0.060689154,-0.046100657,-0.039168227,0.017341683,0.078190073,-0.032508887
1.76966E+18,0.302669434,-0.065508683,-0.041806759,-0.045815995,0.014502598,0.087108612,-0.032995746
1.76966E+18,0.312658203,-0.065306147,-0.051666474,-0.04188187,0.013228009,0.091468476,-0.036298063
1.76966E+18,0.322646484,-0.049218058,-0.044111529,-0.00628098,0.003869599,0.06720566,-0.027705641
1.76966E+18,0.332634521,0.033066988,-0.097350952,0.02460165,0.012895051,0.049535591,-0.029508868
1.76966E+18,0.342622314,0.12239713,-0.022504677,0.089920509,0.013298486,0.049940623,-0.038211789
1.76966E+18,0.352610352,0.1195546,-0.023238837,0.037891631,0.00941906,0.052268758,-0.03931487
1.76966E+18,0.362598633,0.034651042,-0.052053428,0.007720365,0.007300183,0.051078241,-0.032985598
1.76966E+18,0.372586426,-0.030170682,-0.048587213,0.001978022,0.004163245,0.047529314,-0.024996379
1.76966E+18,0.382574463,-0.008645663,-0.071851769,-0.013735972,0.006091552,0.043186076,-0.023786426
1.76966E+18,0.3925625,0.024264673,-0.044940381,-0.006423896,0.00533841,0.040531702,-0.022829551
1.76966E+18,0.402550293,0.020696313,-0.016561259,0.021560382,0.010887527,0.037899673,-0.022006454
1.76966E+18,0.412538574,0.029734044,-0.001253215,0.02513298,0.008971649,0.032137126,-0.016001027
1.76966E+18,0.422526611,0.014701748,-0.019266426,0.033008828,0.008283058,0.021596668,-0.008320704
1.76966E+18,0.432514404,0.012447978,-0.05480185,0.017360885,0.006362653,0.014499611,-0.005202142
1.76966E+18,0.442502197,0.032654315,-0.084085227,0.02347586,0.007146576,0.007853932,-0.009813493
1.76966E+18,0.452490479,0.068305548,-0.086065588,0.016239187,0.004181413,0.00784754,-0.015304665
1.76966E+18,0.462479492,0.062452803,-0.055369421,0.015858079,0.004112274,0.010454047,-0.016495068
1.76966E+18,0.472467529,0.010190043,-0.0525152,0.013098551,0.004765281,0.014798993,-0.009793222
1.76966E+18,0.482455322,-0.017067382,-0.007082652,-0.000555588,0.001940176,0.011898248,0.003152418
1.76966E+18,0.492443604,-0.007350947,0.008376783,0.002139935,0.00329759,-0.001479609,0.014550747
1.76966E+18,0.502431641,0.054629562,0.011988544,0.025507658,0.002828772,-0.009226017,0.016445022
1.76966E+18,0.512419434,0.08922091,0.001163783,0.012896891,0.00189267,-0.008853706,0.006319684
1.76966E+18,0.522407227,0.037682592,-0.020675708,0.004340952,0.001917554,-0.009686021,0.003328056
1.76966E+18,0.532395508,-0.014750994,-0.036801498,0.005225626,-0.000390874,0.000382325,0.001124024
1.76966E+18,0.542383545,-0.019787235,-0.063992872,-0.021283319,0.001761909,0.012816437,0.001050619
1.76966E+18,0.552371338,0.013489596,-0.09597791,-0.033544542,-6.79487E-05,0.011097366,-0.00200376
1.76966E+18,0.562359375,0.050939914,-0.117740244,-0.008726035,0.004860948,-0.001632851,-0.001067969
1.76966E+18,0.572347412,0.044963762,-0.074722356,0.050094403,0.004844436,-0.008531503,0.003269788
1.76966E+18,0.582335449,0.01232764,-0.062936056,0.005493921,0.00661208,-0.008174835,0.006461085
1.76966E+18,0.592323486,-0.008341712,-0.038742695,-0.0007704,0.003289787,-0.002252498,0.006009146
1.76966E+18,0.602311523,-0.004143603,-0.047964113,0.003724573,0.004516692,0.002424411,0.000459476
1.76966E+18,0.612299561,-0.001154869,-0.015506197,0.014086101,0.002593356,0.010620289,-0.002181581
1.76966E+18,0.62228833,-0.031290626,-0.010941665,-0.013771628,0.002682628,0.013168632,-0.001004075
1.76966E+18,0.632276367,-0.0232978,-0.044846273,-0.019615093,0.002720445,0.012574747,6.25206E-05
1.76966E+18,0.642264404,-0.000426628,-0.052222939,-0.022931086,0.003973058,0.014016373,-0.005121778
1.76966E+18,0.652252441,0.031200025,-0.054751581,-0.029020051,0.007462066,0.019038297,-0.013539498
1.76966E+18,0.662240479,0.035694998,-0.034082887,-0.037955929,0.008106906,0.022672603,-0.015024558
1.76966E+18,0.672228516,0.001179565,-0.049942135,-0.043586044,0.007315947,0.026986657,-0.01283171
1.76966E+18,0.682216553,-0.017716858,-0.091104166,-0.060390756,0.003889436,0.0273668,-0.013166123
1.76966E+18,0.692204346,0.001252046,-0.109257078,-0.012898937,0.001261428,0.026170775,-0.016781095
1.76966E+18,0.702192627,0.061192501,-0.110508539,0.008578443,6.78943E-05,0.01765836,-0.020985186
1.76966E+18,0.712180664,0.117613988,-0.056112932,0.051775488,0.000664176,0.012302211,-0.024106145
1.76966E+18,0.722168457,0.112728042,-0.010173019,0.022322599,0.00404225,0.008728232,-0.015804663
1.76966E+18,0.73215625,0.039780222,-0.014914076,-0.024838673,0.004970095,0.008705329,-0.006665762
1.76966E+18,0.742144287,-0.025659196,-0.032934886,-0.048460372,0.004166078,0.008607633,-0.005736106
1.76966E+18,0.752132568,-0.03213168,-0.054463412,-0.046527358,0.001348719,0.011334178,-0.009334569
1.76966E+18,0.762120361,-0.022028146,-0.082029464,-0.016121698,-0.002300513,0.01188237,-0.013630274
1.76966E+18,0.772109375,-0.004981149,-0.077300682,-0.006840367,-0.004227044,0.000843301,-0.008065066
1.76966E+18,0.782097656,0.044767509,-0.058963061,0.009800971,0.000478039,-0.016591311,0.003421196
1.76966E+18,0.792085693,0.085693393,-0.034975452,0.027697277,0.003110307,-0.02789057,0.013493271
1.76966E+18,0.802073486,0.080111648,-0.025078327,0.003920388,0.003168283,-0.031956945,0.017899364
1.76966E+18,0.812061279,0.057597107,-0.047750762,0.009762392,-0.001040576,-0.037985012,0.019323623
1.76966E+18,0.822048828,0.035157823,-0.081806761,0.035847266,-0.004994788,-0.044538304,0.018022491
1.76966E+18,0.832037109,0.044002881,-0.086487612,0.053289984,-0.005704787,-0.058778491,0.017167617
1.76966E+18,0.842025146,0.058751464,-0.061193012,0.083491938,-0.005167244,-0.066356309,0.020597707
1.76966E+18,0.852012939,0.055690323,-0.033091538,0.048551557,-0.003349636,-0.07441397,0.028939793
1.76966E+18,0.862000977,0.049552113,-0.010025719,0.001451952,-0.000510078,-0.078240782,0.039758533
1.76966E+18,0.871989014,0.034621085,-0.004571546,-0.024134032,-0.00070369,-0.081025913,0.049642589
1.76966E+18,0.881977295,0.030741029,-0.034530046,-0.056868719,0.001952176,-0.063177742,0.043778278
1.76966E+18,0.891965088,0.013147651,-0.033543373,-0.028736557,-0.004562183,-0.047885608,0.031486191
1.76966E+18,0.901953125,-0.019289807,-0.066888009,-0.002202186,-0.005261311,-0.046854109,0.023800487
1.76966E+18,0.911941162,-0.009459318,-0.062402972,0.023346389,-0.004192851,-0.046438124,0.021276342
1.76966E+18,0.921930176,0.002318287,-0.030889644,0.027879941,-0.002899996,-0.042954735,0.025317866
1.76966E+18,0.931917969,0.006709142,-0.035134442,0.005092939,-0.000909549,-0.045730017,0.028288355
1.76966E+18,0.941906006,0.019989333,-0.055164838,0.030123628,0.002154627,-0.048253708,0.028881174
1.76966E+18,0.951894043,0.007315949,-0.053980597,0.025437224,-0.000541025,-0.050176244,0.026660098
1.76966E+18,0.96188208,0.0220752,-0.055640054,-0.00506722,0.002549281,-0.056269143,0.029338844
1.76966E+18,0.971870117,0.012331658,-0.040200493,0.012312077,-0.012530868,-0.064698316,0.037749372
1.76966E+18,0.981858154,0.019418986,-0.110413847,-0.003704407,-0.005828455,-0.092180282,0.051848184
1.76966E+18,0.991845947,0.104341249,-0.082998017,0.116985919,0.010365163,-0.076977894,0.033597011
1.76966E+18,1.001834229,0.112991442,-0.010390461,0.094533264,0.001190322,-0.039533939,0.014907324
1.76966E+18,1.011822266,-0.041127472,-0.237082663,-0.071671152,0.004218603,-0.020753857,-0.006551363
1.76966E+18,1.021810059,-0.121125795,-0.050924132,0.027468145,-0.002954113,0.038336799,-0.068398453
1.76966E+18,1.031797852,-0.191155755,0.003043605,-0.073851126,-0.007479357,0.29376936,-0.284009844
1.76966E+18,1.041785889,-0.56645198,0.100039168,-0.073764324,-0.018023718,0.392804831,-0.309859097
1.76966E+18,1.05177417,-1.229673897,-0.225113408,-0.230459153,-0.004387002,0.386666,-0.218031973
1.76966E+18,1.061761963,-0.975895389,-0.075398648,-0.231322492,0.002220788,0.367297083,-0.153058857
1.76966E+18,1.071750977,-0.15576975,0.175191732,-0.367192852,0.005891689,0.329551309,-0.12070784
1.76966E+18,1.081739258,0.460311573,0.145403912,-0.178764622,0.008995506,0.295324266,-0.103414312
1.76966E+18,1.091727295,0.733940736,-0.117461427,0.111572369,0.000301084,0.163822949,-0.072543219
1.76966E+18,1.101715088,0.839679577,-0.261600434,0.2423834,-0.007242217,0.013795711,-0.037993997
1.76966E+18,1.111702881,0.789077517,-0.099987145,0.370448346,-0.012360279,-0.084757231,-0.007679768
1.76966E+18,1.121690918,0.568610035,-0.037113048,0.318840616,-0.018218469,-0.111167252,0.010181747
1.76966E+18,1.131679199,0.320806656,-0.072739658,0.179257666,-0.021084029,-0.114069827,0.022702601
1.76966E+18,1.141666992,0.089790892,-0.055564066,0.087930212,-0.022192944,-0.116315231,0.019758578
1.76966E+18,1.151655029,-0.057222866,-0.076444942,-0.008131576,-0.018207524,-0.10146571,0.003676813
1.76966E+18,1.161643066,-0.170923553,-0.048327685,-0.120420277,-0.002577157,-0.05142564,-0.013053495
1.76966E+18,1.171630859,-0.350691653,-0.041147418,-0.198497789,0.003576875,0.021590784,-0.024451025
1.76966E+18,1.181619141,-0.467023053,0.037393619,-0.224803027,0.001895097,0.086773738,-0.030122705
1.76966E+18,1.191607178,-0.467049941,0.016095979,-0.204611595,0.002112678,0.127766714,-0.031165067
1.76966E+18,1.201595215,-0.315831206,-0.060830609,-0.085204587,-0.002327335,0.134229362,-0.036321159
1.76966E+18,1.211583008,-0.044144774,-0.111124625,-0.00241466,-0.00238699,0.105946593,-0.04366456
1.76966E+18,1.221571289,0.1982821,-0.096340898,0.082205405,-0.002020076,0.059816565,-0.043968949
1.76966E+18,1.231560059,0.330368265,-0.073659695,0.10431816,-0.007152786,0.02532623,-0.029802527
1.76966E+18,1.241548096,0.325966815,-0.032674189,0.114232236,-0.007280415,-0.008553521,-0.00868792
1.76966E+18,1.251535889,0.244502438,-0.024001638,0.10342355,-0.007547797,-0.035790734,0.00429792
1.76966E+18,1.26152417,0.171958157,-0.049076458,0.037663083,-0.006578068,-0.042528227,0.002963995
1.76966E+18,1.271512207,0.064949734,-0.074433602,-0.004693126,-0.004906668,-0.025230464,-0.002756741
1.76966E+18,1.2815,-0.052255819,-0.091095983,-0.011588731,-0.00430934,-0.003133819,-0.010068088
1.76966E+18,1.291488037,-0.111279524,-0.081006551,-0.001060323,-0.003819851,0.013269122,-0.018673027
1.76966E+18,1.301476318,-0.121909639,-0.047173839,-0.005777414,-0.003297815,0.031339329,-0.021893648
1.76966E+18,1.311464111,-0.12690204,-0.047501171,0.01728402,-0.005300512,0.039727751,-0.017365476
1.76966E+18,1.321451904,-0.105485743,0.015076573,0.017896599,-0.003502564,0.033272196,-0.00870958
1.76966E+18,1.331439941,-0.01937807,0.046467152,0.036682256,-0.004455709,0.021891177,-0.002630382
1.76966E+18,1.341427979,0.051296472,0.031789223,0.038580198,-0.004058101,0.009487105,-0.000400702
1.76966E+18,1.351416016,0.071579235,-0.018490765,0.003948153,-0.005067439,0.001554347,-0.003112066
1.76966E+18,1.361404053,0.052692895,-0.057127662,-0.013065233,-0.003406842,-0.002612052,-0.009450857
1.76966E+18,1.37139209,0.080422029,-0.06597557,-0.042467269,-0.003849193,0.003694313,-0.013970241
1.76966E+18,1.381380127,0.062566639,-0.063624623,-0.050583648,-0.004278391,0.009225504,-0.006460896
1.76966E+18,1.391369141,0.002826163,-0.068357497,-0.023470307,-0.004532723,0.010509945,0.000202333
1.76966E+18,1.401356934,-0.005256021,-0.073703534,0.01359861,-0.004895868,0.010640201,0.000415473
1.76966E+18,1.411344971,0.024155367,-0.046259647,0.012972002,-0.002589837,0.012627718,0.000449296
1.76966E+18,1.421333008,0.022179756,-0.02879764,0.008885317,-0.00144424,0.011395094,0.001332691
1.76966E+18,1.431321045,-0.001702055,-0.026957565,-0.015089725,-0.003972113,0.0120489,0.002446158
1.76966E+18,1.441309082,0.001927753,-0.034719431,-0.021913141,-0.003755554,0.010088492,0.002986074
1.76966E+18,1.451297119,0.009889599,-0.010882044,-0.013237959,-0.003263668,0.013098663,0.002994064
1.76966E+18,1.461284912,0.012079729,-0.012663082,-0.03627046,-0.002568213,0.015491584,-0.000287985
1.76966E+18,1.471273193,0.017886954,-0.026341479,-0.040321489,-0.001252079,0.016445529,-0.001113832
1.76966E+18,1.48126123,-0.019838088,-0.048219549,-0.018588965,-0.001570065,0.015569392,-0.003133631
1.76966E+18,1.491249023,0.008901099,-0.032131168,-0.013583996,-0.001534912,0.018541481,-0.003675318
1.76966E+18,1.501237061,-0.000296937,-0.037757776,0.010934066,-0.001229818,0.010036338,-0.004549131
1.76966E+18,1.511225098,0.022528131,-0.053414779,0.025358313,-0.002658071,0.009467487,-0.00278958
1.76966E+18,1.521213135,0.032066286,-0.081876904,-0.001902326,-0.003483697,0.013734724,-0.002895399
1.76966E+18,1.531200928,0.020888474,-0.094162969,0.035356852,-0.001854908,0.013917683,-0.005610492
1.76966E+18,1.541188965,0.044188101,-0.056498717,0.004761808,-0.003826562,0.014270568,-0.0034865
1.76966E+18,1.551178223,0.039844519,-0.056185998,-0.007180559,-0.002126666,0.010590878,0.000734611
1.76966E+18,1.56116626,0.030619595,-0.060714873,0.020722178,-0.003031956,0.002685085,0.001832503
1.76966E+18,1.571154053,0.020465134,-0.060066638,0.021715573,-0.003270576,-0.000255045,-0.000934788
1.76966E+18,1.58114209,0.000630553,-0.047424014,0.038394905,-0.00844395,-0.000140329,-0.001351443
1.76966E+18,1.591130127,-0.003512977,-0.028255788,0.024791911,-0.007563775,-0.000714772,-0.001167419
1.76966E+18,1.601118164,0.015228695,-0.011064415,0.02641659,-0.009671286,0.000655674,0.001654345
1.76966E+18,1.611105957,0.017211978,-0.015051439,-0.00213029,-0.008327454,-0.003469563,0.001613865
1.76966E+18,1.621093994,0.055102952,-0.040009354,-0.015663433,-0.006748888,-0.006207531,0.001557493
1.76966E+18,1.631082031,0.062517027,-0.054314359,0.000303367,-0.005814118,-0.001345931,-0.002839119
1.76966E+18,1.641070068,0.024325536,-0.047081485,-0.000866554,-0.007697946,0.008387282,-0.002163293
1.76966E+18,1.651058105,-0.004270371,-0.05361001,0.000909808,-0.006833751,0.009653615,-0.000303342
1.76966E+18,1.661046143,-0.011747867,-0.049642275,-0.01015373,-0.007599676,0.00782429,0.001364863
1.76966E+18,1.671033936,0.009895956,-0.05951485,0.009727906,-0.009801045,0.001246548,0.003551318
1.76966E+18,1.681021973,0.03763035,-0.06297405,0.001105331,-0.009755077,-0.001203897,0.002530232
1.76966E+18,1.691010254,0.051949967,-0.070521981,-0.005257774,-0.010431253,-0.003006325,0.004416815
1.76966E+18,1.700999023,0.041752983,-0.072673607,0.013242928,-0.010143456,-0.004160163,0.008715506
1.76966E+18,1.710986816,0.052182096,-0.054949734,0.002670973,-0.007894949,-0.00796369,0.012780555
1.76966E+18,1.720975098,0.060717942,-0.040481063,0.009343582,-0.00837102,-0.010023841,0.014804057
1.76966E+18,1.730963135,0.071008304,-0.037213586,0.018312486,-0.009667447,-0.010572452,0.018413704
1.76966E+18,1.740951172,0.064472911,-0.040828269,0.021646891,-0.008116094,-0.016329547,0.017598981
1.76966E+18,1.750938965,0.060783262,-0.024456396,0.035745267,-0.007785596,-0.02263831,0.017270081
1.76966E+18,1.760927002,0.062923781,-0.010102876,0.009330723,-0.005580943,-0.02582862,0.022849055
1.76966E+18,1.770915283,0.024099253,-0.011294716,-0.023044776,-0.000724136,-0.027048083,0.027869115
1.76966E+18,1.780903076,-0.012477935,-0.015509119,-0.025437224,-0.001937739,-0.02772559,0.036849558
1.76966E+18,1.790891113,-0.010533669,-0.055969725,-0.024327801,-0.004048027,-0.028615618,0.039088745
1.76966E+18,1.80087915,0.000355828,-0.086391751,0.026041619,-0.008869475,-0.031776603,0.035124898
1.76966E+18,1.810867188,0.04782485,-0.112630938,0.068124857,-0.009488393,-0.043756034,0.023912456
1.76966E+18,1.82085498,0.069331895,-0.097789343,0.094718265,-0.009536483,-0.047871701,0.019034492
1.76966E+18,1.830842529,0.048035278,-0.081290044,0.074116207,-0.005980631,-0.049136169,0.018198526
1.76966E+18,1.840830566,0.020280571,-0.048753217,0.072276424,-0.001281512,-0.048468284,0.020871293
1.76966E+18,1.850818604,-0.008405863,-0.022780572,0.022858898,0.001943576,-0.049066164,0.02717473
1.76966E+18,1.860807861,-0.013519991,-0.032853053,-0.01380027,0.006383514,-0.048960872,0.028583046
1.76966E+18,1.870795654,0.008626447,-0.008840894,-0.026036651,0.005510795,-0.047808789,0.027332693
1.76966E+18,1.880783691,0.014578999,-0.014072364,-0.061506024,0.002472033,-0.04329174,0.027346689
1.76966E+18,1.890771729,-0.002840338,-0.048688335,-0.079563951,-0.001049997,-0.036724918,0.02868546
1.76966E+18,1.90076001,-0.004314283,-0.067354457,-0.035861002,-0.00660561,-0.033586424,0.023782104
1.76966E+18,1.910747559,0.023785219,-0.072227616,0.010702888,-0.005484952,-0.033668716,0.01816896
1.76966E+18,1.920735596,0.038172056,-0.061483519,0.031447278,-0.002046133,-0.035152305,0.014213164
1.76966E+18,1.930723633,0.025868601,-0.063740359,0.003090659,-0.000757164,-0.039379004,0.013726072
1.76966E+18,1.94071167,0.004399696,-0.044195116,-0.019845979,-0.002295756,-0.037310466,0.018582754
1.76966E+18,1.950699707,0.005513064,-0.050692661,-0.028584289,-0.004418029,-0.03275859,0.026440943
1.76966E+18,1.960687744,-0.012343349,-0.075512045,-0.00804419,-0.005276271,-0.034424283,0.029610081
1.76966E+18,1.970675537,0.029483284,-0.060921209,0.035529286,-0.003217914,-0.045342445,0.029853227
1.76966E+18,1.980663574,0.070153733,-0.032504678,0.040241117,0.003526527,-0.058740631,0.029109169
1.76966E+18,1.990651855,0.077492843,-0.00380816,0.038474108,0.007931929,-0.070927523,0.033517499
1.76966E+18,2.000639893,0.048834466,0.000462941,0.012849837,0.013057721,-0.076463684,0.041634846
1.76966E+18,2.010628662,0.022742578,0.010589783,-0.022177053,0.00634256,-0.073336601,0.052194815
1.76966E+18,2.020616455,0.002357231,-0.020799042,-0.061438219,0.000862712,-0.068386301,0.05596891
1.76966E+18,2.030604736,0.016280688,-0.046257309,-0.038554479,0.001397475,-0.066800922,0.059808388
1.76966E+18,2.040592773,0.041906128,-0.034349429,0.014221418,0.001522825,-0.074710242,0.056862831
1.76966E+18,2.050580566,0.065279989,-0.040580432,0.014311434,0.000413353,-0.080441363,0.060802978
1.76966E+18,2.060568604,0.057780646,-0.031156186,0.018135376,0.002158476,-0.089341328,0.068084233
1.76966E+18,2.070556885,0.060442486,-0.04044307,0.021891806,0.004257579,-0.102657132,0.07401403
1.76966E+18,2.080544678,0.092814623,-0.0351058,0.044042555,0.014658969,-0.11640963,0.074185066
1.76966E+18,2.090532715,0.12574571,-0.021799744,0.018804069,0.01694609,-0.124673426,0.07741335
1.76966E+18,2.100520752,0.110645171,-0.018735096,-0.013353403,0.01605441,-0.122933172,0.08136794
1.76966E+18,2.110508789,0.06106734,-0.021363106,-0.032131168,0.010344593,-0.121047392,0.090357706
1.76966E+18,2.120496582,0.023133623,-0.034994741,-0.024210312,0.00523934,-0.121506475,0.09491732
1.76966E+18,2.130484619,0.028958383,-0.069396192,0.013180384,0.002543689,-0.13276498,0.093038991
1.76966E+18,2.140472656,0.044603696,-0.093864863,0.012780863,-0.000698517,-0.141981155,0.078560136
1.76966E+18,2.150460449,0.074158292,-0.110126847,0.020194062,0.000743584,-0.13915953,0.061275691
1.76966E+18,2.160449707,0.068501947,-0.103394324,0.053272448,-0.002628712,-0.123986095,0.047305275
1.76966E+18,2.170437744,0.003873042,-0.088719317,0.017054303,-0.004110761,-0.106547445,0.03929209
1.76966E+18,2.180425781,-0.054761445,-0.027211248,0.001673778,-0.000384998,-0.094322741,0.038272362
1.76966E+18,2.190413574,-0.088998718,0.032812136,-0.019914076,0.000984133,-0.079966441,0.044599503
1.76966E+18,2.200401611,-0.115833534,0.02664017,-0.104956166,0.007649758,-0.07501296,0.050146066
1.76966E+18,2.210389648,-0.105399161,0.05062018,-0.124030869,0.007127513,-0.072853401,0.052227594
1.76966E+18,2.220377686,-0.096031832,0.001598667,-0.138547762,0.000495349,-0.055640709,0.050583646
1.76966E+18,2.230365479,-0.104175683,-0.060153732,-0.121280109,-0.006523145,-0.03648752,0.044220556
1.76966E+18,2.24035376,-0.071602032,-0.103064069,-0.089280166,-0.011763283,-0.017493125,0.028673789
1.76966E+18,2.250341797,0.019740035,-0.131263158,-0.036030806,-0.006657205,-0.014155919,0.009447099
1.76966E+18,2.26032959,0.08232757,-0.099522451,0.024801264,-0.003967657,-0.021126136,-0.000307336
1.76966E+18,2.270317627,0.079985975,-0.066213471,0.024263796,0.001515526,-0.025115285,0.003144387
1.76966E+18,2.280305908,-0.001162176,-0.053888827,0.033747079,0.002153188,-0.033854291,0.010998489
1.76966E+18,2.290293945,-0.014661416,-0.018636311,0.010329963,0.000553427,-0.03298397,0.015303489
1.76966E+18,2.300281738,-0.01434519,-0.04503332,-0.008978256,-0.000376541,-0.031579815,0.01459154
1.76966E+18,2.310269775,0.009905892,-0.043739188,-0.043372109,-0.001782158,-0.022035578,0.014096991
1.76966E+18,2.320258789,0.017908436,-0.038270986,-0.054359074,-0.002514625,-0.014399877,0.014249085
1.76966E+18,2.330246826,-0.02134747,-0.01321604,-0.038567339,-0.006892063,-0.006727043,0.023151234
1.76966E+18,2.340234619,-0.057944824,-0.039805941,-0.029819092,-0.0100305,-0.005444883,0.027193086
1.76966E+18,2.350222656,-0.012000381,-0.046743631,0.01671265,-0.011609488,-0.012053784,0.019991366
1.76966E+18,2.360210938,0.060877809,-0.063626961,0.035926177,-0.008733313,-0.01860648,0.008112832
1.76966E+18,2.37019873,0.063161097,-0.092803956,0.04314093,-0.007587088,-0.017347338,-0.009060029
1.76966E+18,2.380186768,0.00780176,-0.076910806,0.038854047,-0.004559991,-0.004861624,-0.022729112
1.76966E+18,2.390174805,-0.083428371,-0.060050856,-0.026528818,-0.004062512,0.021979844,-0.02729883
1.76966E+18,2.400162598,-0.15880656,-0.074825232,-0.101850309,-0.005221676,0.046882555,-0.023942094
1.76966E+18,2.410150635,-0.187692901,-0.049105684,-0.09505495,-0.003331098,0.059988771,-0.021242714
1.76966E+18,2.420138672,-0.128751468,-0.035116906,-0.047323769,-0.003232781,0.061491009,-0.022070866
1.76966E+18,2.430126709,-0.033499534,-0.058884735,0.002601999,-0.006206201,0.053463709,-0.021386966
1.76966E+18,2.440114502,0.014513679,-0.078536946,0.045845221,-0.009561682,0.035791617,-0.019036224
1.76966E+18,2.450102539,0.064529463,-0.064838091,0.091696871,-0.010142785,0.013979263,-0.016555754
1.76966E+18,2.46009082,0.12528876,-0.051304071,0.118521165,-0.012593156,-0.010487509,-0.017631613
1.76966E+18,2.470079834,0.135465432,-0.031509822,0.097318511,-0.011726563,-0.02093935,-0.011106336
1.76966E+18,2.480067627,0.098266313,-0.015109891,0.029483576,-0.011294176,-0.021151854,-0.004957778
1.76966E+18,2.490055664,0.036388826,-0.012563713,-0.005080372,-0.01096421,-0.02293111,-0.001055182
1.76966E+18,2.500043701,0.004586743,-0.017408231,-0.025947511,-0.010129556,-0.021130189,0.00018049
1.76966E+18,2.510031738,-0.017103841,-0.026176059,-0.020368542,-0.009889339,-0.012994765,-0.008530976
1.76966E+18,2.520019531,-0.025549452,-0.044558688,-0.041108255,-0.006077843,0.000922822,-0.021588687
1.76966E+18,2.530007568,-0.060658759,-0.052539166,-0.043176294,-0.006344425,0.016668761,-0.03406826
1.76966E+18,2.53999585,-0.094212069,-0.051212301,-0.055651745,-0.00812799,0.037211332,-0.037874743
1.76966E+18,2.549983643,-0.134269939,-0.047803954,-0.076388535,-0.004946045,0.052127164,-0.033362817
1.76966E+18,2.55997168,-0.099653383,-0.03264847,-0.083732761,-0.003672678,0.055450551,-0.027730145
1.76966E+18,2.569959717,-0.01952062,-0.034607203,-0.06909604,-0.002672927,0.046642944,-0.027516026
1.76966E+18,2.579947754,0.058209685,-0.036118777,-0.038793549,-0.000981079,0.034969386,-0.032404196
1.76966E+18,2.589935791,0.111275578,-0.022831425,-0.030337563,-0.000707306,0.026637686,-0.041692771
1.76966E+18,2.599923828,0.081745532,-0.05524784,-0.032967619,-0.003461975,0.031275917,-0.060312502
1.76966E+18,2.609911621,-0.00753288,-0.101052144,-0.049142801,-0.00651236,0.055843577,-0.088221624
1.76966E+18,2.619900879,-0.115312725,-0.12920038,-0.048732759,-0.008945535,0.085187368,-0.119461454
1.76966E+18,2.629888672,-0.187644386,-0.151329795,-0.057329322,-0.023346579,0.149534404,-0.128236577
1.76966E+18,2.639876709,-0.28452056,-0.155234985,-0.046374213,-0.032189019,0.20625484,-0.101621591
1.76966E+18,2.649864746,-0.270161926,-0.066641341,0.004934242,-0.027966576,0.182546318,-0.094953567
1.76966E+18,2.659852783,0.04617438,0.00537351,-0.079126728,-0.022454614,0.136464402,-0.105052836
1.76966E+18,2.66984082,0.211090582,-0.01358838,-0.082492405,-0.023332657,0.111075953,-0.112281993
1.76966E+18,2.679828857,0.12122794,-0.106447281,-0.065518474,-0.023815339,0.112343371,-0.122523852
1.76966E+18,2.68981665,0.013649171,-0.086315178,-0.03691285,-0.007175643,0.106465243,-0.158163607
1.76966E+18,2.699804443,0.03896949,0.086333299,-0.052887248,-0.017293993,0.130167708,-0.165626585
1.76966E+18,2.709792725,-0.204114021,-0.158098558,-0.216961081,-0.008497572,0.195146441,-0.148751199
1.76966E+18,2.719780762,-0.401005982,-0.171706228,-0.135325293,-0.000897287,0.251809716,-0.145285457
1.76966E+18,2.729768555,-0.262153318,0.041335634,-0.108946112,-0.017447768,0.247825354,-0.162174404
1.76966E+18,2.739756592,-0.073096727,0.009590835,-0.138997844,-0.028673429,0.230739459,-0.164233923
1.76966E+18,2.749744873,-0.055730655,-0.01184709,-0.035556759,-0.003537717,0.218258291,-0.154496074
1.76966E+18,2.759732666,0.002336334,0.140311557,0.119900929,0.025841637,0.189196214,-0.139446855
1.76966E+18,2.76972168,0.18752339,0.189771461,0.086108842,0.030968487,0.145882562,-0.119546644
1.76966E+18,2.779709473,0.270143294,0.11636428,-0.042359425,0.026210595,0.103610761,-0.09063635
1.76966E+18,2.789697754,0.274263516,0.089383334,-0.042412616,0.03057019,0.111873753,-0.054499913
1.76966E+18,2.799685547,0.195314555,0.005314473,0.093583124,0.017210234,0.100522421,-0.021139886
1.76966E+18,2.809673584,0.218064586,-0.105166009,0.055060208,0.006305121,0.061896998,-0.006546563
1.76966E+18,2.819661621,0.335817762,-0.106264326,0.055032736,0.006913165,0.017697569,-0.002467634
1.76966E+18,2.829650635,0.331869975,-0.06194763,0.13076573,0.008230364,-0.033175997,0.009220714
1.76966E+18,2.839638672,0.253901111,-4.90998E-05,0.141202661,0.00400135,-0.065170199,0.020039171
1.76966E+18,2.849626709,0.20921507,0.025696167,0.050138826,0.0033052,-0.072929852,0.031096883
1.76966E+18,2.859614502,0.135176532,0.041290626,0.019535891,0.002455138,-0.075233586,0.039860882
1.76966E+18,2.869602539,0.038503041,-0.002990414,0.013107027,0.001343268,-0.065397203,0.038088813
1.76966E+18,2.879590576,-0.050776321,-0.03163374,-0.019019466,0.001429716,-0.045160491,0.032454129
1.76966E+18,2.889578613,-0.111239119,-0.080284666,-0.034575347,0.001499225,-0.017305158,0.018102888
1.76966E+18,2.899566406,-0.152568908,-0.069378657,-0.02408727,0.00227106,0.020338839,-0.004193808
1.76966E+18,2.909554443,-0.166643611,-0.074164722,0.004226678,0.004438074,0.071335442,-0.031585485
1.76966E+18,2.919543701,-0.209694817,-0.045970893,0.000235562,0.00375456,0.130672172,-0.06321159
1.76966E+18,2.929531738,-0.215460614,-0.044652796,0.006141279,0.004196113,0.147272453,-0.074224025
1.76966E+18,2.939519531,-0.1436247,-0.035471126,-0.021983576,0.00527559,0.133562088,-0.081677444
1.76966E+18,2.949507813,-0.033021322,-0.035004678,-0.017017186,0.008225574,0.110364608,-0.085839167
1.76966E+18,2.959495605,0.029478096,-0.031654198,-0.029933074,0.000628704,0.09680254,-0.088729762
1.76966E+18,2.969483398,0.05806582,-0.069438278,-0.059989774,-0.000587029,0.112120509,-0.081677981
1.76966E+18,2.979471436,0.018714126,-0.099759766,0.079206515,-0.005414871,0.100896806,-0.070430912
1.76966E+18,2.989459473,0.035059696,-0.093803488,0.076504855,-0.01124533,0.077352062,-0.065222569
1.76966E+18,2.99944751,0.098670729,-0.081868136,0.057542673,-0.012729781,0.057778187,-0.06459631
1.76966E+18,3.009435547,0.130082935,-0.076787472,0.074473934,-0.013243771,0.035680342,-0.062035952
1.76966E+18,3.019423584,0.095138463,-0.078044194,0.101113519,-0.012224416,0.017945703,-0.061987448
1.76966E+18,3.029411621,0.09157003,-0.07721125,0.081077862,-0.011979139,0.010245706,-0.066200569
1.76966E+18,3.039399658,0.073861866,-0.069946227,0.063978551,-0.01373117,0.01309031,-0.067353986
1.76966E+18,3.049387695,-0.002602876,-0.052902154,0.038656186,-0.014080578,0.021106958,-0.068609931
1.76966E+18,3.059375732,-0.04522497,-0.051295303,0.001558335,-0.012944901,0.034625232,-0.07139796
1.76966E+18,3.069363525,-0.069757427,-0.02152385,-0.055178282,-0.012444493,0.050562385,-0.068517223
1.76966E+18,3.079352539,-0.069551018,-0.00755553,-0.087701957,-0.010955617,0.055082988,-0.065091044
1.76966E+18,3.089340576,-0.059016253,-0.013732757,-0.097985742,-0.010076508,0.047799509,-0.058702387
1.76966E+18,3.099328613,-0.03330613,-0.054120882,-0.084498484,-0.005491037,0.029391199,-0.044845924
1.76966E+18,3.109316406,-0.040602644,-0.050028059,-0.061368369,-0.004945089,0.026198601,-0.031010004
1.76966E+18,3.119304688,-0.002631518,-0.053707625,-0.024660102,-0.002581957,0.027907578,-0.024468925
1.76966E+18,3.129292725,0.039553939,-0.062676529,0.003408347,-0.000421335,0.026899306,-0.020457139
1.76966E+18,3.139280762,0.064316624,-0.041535541,0.03245587,-0.002071672,0.021348082,-0.008663164
1.76966E+18,3.149268555,0.052456748,-0.042376668,0.053654726,-0.001526256,0.013186294,0.00260041
1.76966E+18,3.159256348,0.059750412,-0.027844869,0.048004737,-0.005820579,-0.000219984,0.016508957
1.76966E+18,3.169244629,0.08452888,-0.015703181,0.052087038,-0.007520741,-0.016743833,0.026256127
1.76966E+18,3.179232422,0.114115113,0.003529928,0.032265608,-0.014316753,-0.034854103,0.034774337
1.76966E+18,3.189220459,0.127133584,0.00874094,0.021866087,-0.01700335,-0.045704886,0.034797505
1.76966E+18,3.199208496,0.138142323,-0.023629297,-0.007217969,-0.022852881,-0.059780106,0.034537818
1.76966E+18,3.209196777,0.15098668,-0.034888358,-0.013329729,-0.025291538,-0.070610121,0.030272499
1.76966E+18,3.219185547,0.149525302,-0.089708912,-0.023779812,-0.023093153,-0.070633948,0.025922015
1.76966E+18,3.229173584,0.08785364,-0.156411043,-0.034988896,-0.019382304,-0.066527881,0.023569113
1.76966E+18,3.239161621,0.019582068,-0.169295659,-0.016173428,-0.017674098,-0.059259724,0.014429887
1.76966E+18,3.249149658,-0.030778,-0.133599492,-0.003797346,-0.016516423,-0.048141826,0.002237403
1.76966E+18,3.259137451,-0.085472225,-0.106696872,-0.000486322,-0.018106379,-0.02439996,-0.008542895
1.76966E+18,3.269125488,-0.124001058,-0.09577625,-0.037288113,-0.01566639,0.004418639,-0.024108008
1.76966E+18,3.279113525,-0.142544942,-0.081296473,-0.059458736,-0.015809616,0.022675576,-0.036089953
1.76966E+18,3.289101318,-0.124504405,-0.035752866,-0.076852354,-0.012612757,0.036958374,-0.042088456
1.76966E+18,3.2990896,-0.103646837,0.011612696,-0.081472122,-0.013914511,0.051592179,-0.044923391
1.76966E+18,3.309077637,-0.105872039,0.021738954,-0.072999185,-0.0123776,0.059747845,-0.045620605
1.76966E+18,3.319065674,-0.080133786,0.010603227,-0.08322072,-0.017166967,0.061856084,-0.048652351
1.76966E+18,3.329053467,-0.01992752,0.005876783,-0.082728552,-0.019332383,0.05901023,-0.053148568
1.76966E+18,3.339041748,-0.010743585,-0.062618076,-0.038799102,-0.016175698,0.052230697,-0.060804714
1.76966E+18,3.349029785,0.006188333,-0.085717797,-0.009309388,-0.014622808,0.040723976,-0.058145281
1.76966E+18,3.359018555,0.006228081,-0.103338209,0.020264205,-0.012035866,0.02747374,-0.055121347
1.76966E+18,3.369006348,-0.014153029,-0.12492168,0.006692191,-0.010051811,0.018500485,-0.051901054
1.76966E+18,3.378994629,-0.007113631,-0.104876671,0.003500409,-0.009116823,0.012419166,-0.047216952
1.76966E+18,3.388982666,0.026956907,-0.06933774,0.007373744,-0.007630246,0.00484274,-0.045557536
1.76966E+18,3.398970459,0.044551674,-0.053912792,-0.009235154,-0.006429153,0.001486314,-0.041016418
1.76966E+18,3.408958496,0.027671924,-0.019423662,-0.027557869,-0.003744421,-0.001637042,-0.036455221
1.76966E+18,3.418946777,0.023342297,-0.045096448,-0.049141048,-0.004490972,-0.00241814,-0.030890668
1.76966E+18,3.428934814,0.001385317,-0.051941784,-0.051738371,-0.009608769,-0.00216434,-0.030062689
1.76966E+18,3.438922607,-0.007756021,-0.063988196,-0.054298869,-0.008807741,0.001583047,-0.038931102
1.76966E+18,3.4489104,-0.05513795,-0.092864746,-0.007659283,-0.010736668,0.005711213,-0.054319911
1.76966E+18,3.458898682,-0.075046181,-0.110233814,0.015287586,-0.010989666,0.021087196,-0.067554437
1.76966E+18,3.468886475,-0.122495914,-0.093226565,0.03026742,-0.009001084,0.038245942,-0.075379863
1.76966E+18,3.478874512,-0.141770524,-0.046145081,0.027411446,-0.007463096,0.04710646,-0.078220278
1.76966E+18,3.488862549,-0.096342067,-0.018878888,0.001128127,-0.002345299,0.045842521,-0.079803795
1.76966E+18,3.498850342,-0.054436597,-0.006215806,-0.010454759,-0.003191438,0.042903021,-0.078516304
1.76966E+18,3.5088396,0.00082476,-0.027965281,-0.048486675,-0.005262312,0.044030339,-0.080190636
1.76966E+18,3.518827637,0.02071078,-0.037301264,-0.028704116,-0.00499431,0.041822869,-0.078513108
1.76966E+18,3.528815674,0.039083472,-0.050067222,-0.00841127,-0.006410312,0.036794823,-0.076553293
1.76966E+18,3.538803467,0.038166941,-0.059624155,0.004570377,-0.012342013,0.03557688,-0.069923788
1.76966E+18,3.548791504,0.026246713,-0.035454175,0.01530629,-0.014418214,0.038903702,-0.067603104
1.76966E+18,3.558779541,0.028157515,-0.043243514,0.019117665,-0.015884284,0.033229303,-0.068174087
1.76966E+18,3.568767578,0.052672363,-0.025343116,0.043284138,-0.015485343,0.02428188,-0.069483563
1.76966E+18,3.578755371,0.049579074,-0.005821838,0.08635025,-0.009528342,0.015152864,-0.066227086
1.76966E+18,3.588743652,0.055735843,0.023622868,0.100899,-0.00549312,0.008707216,-0.059655469
1.76966E+18,3.598731689,0.086814945,0.031606852,0.059255907,-0.006719981,0.001071747,-0.051290743
1.76966E+18,3.608719482,0.09806458,-0.032104865,0.027045243,-0.008174866,-0.002737106,-0.04659985
1.76966E+18,3.61870752,0.098822705,-0.087671854,0.00723492,-0.01478206,-0.009382731,-0.048524696
1.76966E+18,3.628695801,0.082516298,-0.116827221,-0.020961832,-0.011847522,-0.008531319,-0.056029215
1.76966E+18,3.638683838,0.055298036,-0.105591541,-0.012595278,-0.012043164,0.005823279,-0.059639756
1.76966E+18,3.648672607,8.2929E-05,-0.100565822,-0.061121993,-0.008814348,0.028489709,-0.060617667
1.76966E+18,3.6586604,-0.024231939,-0.04882336,-0.077514032,-0.004169688,0.037652072,-0.055353306
1.76966E+18,3.668648682,-0.018805311,0.003656184,-0.069825816,0.004017136,0.032969706,-0.046867944
1.76966E+18,3.678636719,-0.007551438,0.085741762,-0.049645782,0.008619663,0.035026941,-0.035490837
1.76966E+18,3.688624512,-0.005223288,0.106481184,-0.035048517,8.02372E-05,0.037350819,-0.027896298
1.76966E+18,3.698612549,0.003919804,0.074776716,-0.084424542,-0.009453062,0.040461436,-0.022233857
1.76966E+18,3.708600586,-0.032996188,0.006723755,-0.065289342,-0.015334919,0.040024679,-0.025200618
1.76966E+18,3.718588623,-0.070299279,-0.079861472,0.009137246,-0.013990147,0.034235872,-0.04099023
1.76966E+18,3.72857666,-0.013660861,-0.119484458,0.056825757,-0.012207693,0.035200201,-0.057656027
1.76966E+18,3.738564453,-0.00880111,-0.098690091,0.045695583,-0.017390313,0.049595356,-0.064654902
1.76966E+18,3.74855249,-0.051877487,-0.075360069,0.002560206,-0.020883314,0.06249065,-0.060363214
1.76966E+18,3.758540527,-0.069896543,-0.030611411,0.00086743,-0.020146202,0.0685241,-0.052953593
1.76966E+18,3.768528564,-0.027496494,0.022333997,-0.02075608,-0.016642282,0.074112475,-0.038414065
1.76966E+18,3.778516602,0.00019523,0.02593056,-0.00110913,-0.011836767,0.076665051,-0.032579768
1.76966E+18,3.788505615,0.042086709,0.046291211,0.045759588,-0.012959556,0.077655211,-0.029242298
1.76966E+18,3.798493652,0.060416731,0.023370939,0.027523967,-0.018985333,0.075125583,-0.027861349
1.76966E+18,3.808481689,0.051240906,-0.046044543,0.051165831,-0.020187216,0.059191622,-0.032072075
1.76966E+18,3.818469727,0.050542439,-0.117414081,0.109243634,-0.016474441,0.044711791,-0.041408792
1.76966E+18,3.828457031,0.067579462,-0.150226217,0.106058574,-0.01873653,0.037772391,-0.051053163
1.76966E+18,3.838445068,0.072483052,-0.160264796,0.060325874,-0.019691749,0.029741485,-0.056213096
1.76966E+18,3.848432861,0.07438505,-0.110537181,0.019051614,-0.023147732,0.023806363,-0.050222315
1.76966E+18,3.858420898,0.052135297,-0.04355974,-0.007153963,-0.035347156,0.022014011,-0.045265142
1.76966E+18,3.868408936,0.078633392,0.020481062,-0.066183368,-0.043744635,0.029221058,-0.041746307
1.76966E+18,3.878396973,0.046829556,0.053570847,-0.051710898,-0.044237256,0.037602551,-0.038664371
1.76966E+18,3.88838501,0.016187165,0.031067338,-0.001944997,-0.043659352,0.043611705,-0.036703486
1.76966E+18,3.898373047,-0.007996881,0.00357026,0.008377952,-0.042582318,0.034484159,-0.042166546
1.76966E+18,3.908361084,-0.028594226,-0.05874445,0.047534781,-0.033344612,0.020927336,-0.049426325
1.76966E+18,3.918348877,-0.002109065,-0.047727966,0.094038174,-0.029779602,0.017819008,-0.056627274
1.76966E+18,3.928338135,-0.016533823,-0.026329204,0.095759883,-0.027777705,0.025643641,-0.059724268
1.76966E+18,3.938325928,0.017566015,-0.042259179,0.054082303,-0.029296653,0.034972992,-0.061346427
1.76966E+18,3.948313965,0.055061414,-0.042204819,0.004191022,-0.00859111,0.062244825,-0.063309439
1.76966E+18,3.958301758,0.050055532,0.034914662,-0.045581309,-0.02495859,0.051784668,-0.046700962
1.76966E+18,3.968290039,0.061024049,-0.065476389,-0.078967738,-0.031106498,0.031933468,-0.044938218
1.76966E+18,3.978278076,0.168288528,0.094735216,-0.023652678,-0.04080306,-0.000488741,-0.036072168
1.76966E+18,3.988266113,0.194262306,0.15950784,-0.0764654,-0.047021009,-0.010627129,-0.036810398
1.76966E+18,3.998253906,0.13819325,0.100129769,-0.044641983,-0.050099947,0.002754376,-0.03144972
1.76966E+18,4.008241943,0.054508383,0.019511341,-0.081926588,-0.046859946,0.017696308,-0.020936094
1.76966E+18,4.018230225,0.020533085,-0.013500118,-0.102398006,-0.043766417,0.025591072,-0.01203114
1.76966E+18,4.028218018,0.034933987,-0.061727265,-0.120991647,-0.040134132,0.025292264,-0.005697078
1.76966E+18,4.038206055,0.058576692,-0.011692776,-0.114079968,-0.038937569,0.032218706,-0.006381001
1.76966E+18,4.048193848,0.084318452,-0.000862754,-0.09761574,-0.039270993,0.055296857,0.001853759
1.76966E+18,4.058181641,0.00144724,0.031477673,-0.08495558,-0.040363271,0.054911781,0.00580015
1.76966E+18,4.068170898,-0.03234514,0.015965046,-0.048810208,-0.043909799,0.050773494,-0.001946453
1.76966E+18,4.078158936,-0.012736147,-0.020658173,-0.077087624,-0.048631687,0.059085909,-0.007243026
1.76966E+18,4.088146973,-0.09322894,-0.074773794,-0.063770169,-0.049601879,0.05957593,-0.014432495
1.76966E+18,4.098135254,-0.108823947,-0.042097266,-0.01489391,-0.046922263,0.051273268,-0.028822634
1.76966E+18,4.108123047,-0.094417236,-0.090831779,0.037265316,-0.04008593,0.057597741,-0.042201292
1.76966E+18,4.118111084,-0.037130036,-0.120097036,0.065716627,-0.004597231,0.070958555,-0.062014703
1.76966E+18,4.128099121,0.014773809,-0.0414578,0.093058223,0.005115051,0.092604198,-0.061228003
1.76966E+18,4.13808667,-0.004749204,-0.115128016,0.027735564,-0.005182643,0.088758118,-0.064289667
1.76966E+18,4.148074951,0.038228316,-0.159033793,0.103195586,-0.010970491,0.065908462,-0.057610989
1.76966E+18,4.158062988,0.122373183,-0.117043494,0.12284049,-0.00794424,0.03952948,-0.04759866
1.76966E+18,4.168050781,0.171008327,-0.135895494,0.109188689,-0.006317848,0.049684647,-0.048773378
1.76966E+18,4.178038818,0.168424137,-0.209210906,0.059155077,0.002127254,0.066351779,-0.036245365
1.76966E+18,4.1880271,0.142164491,-0.134893039,0.06184037,0.003439393,0.061669413,-0.028666805
1.76966E+18,4.198015137,0.140217412,-0.095124508,-0.012498832,0.001407557,0.044927999,-0.020409824
1.76966E+18,4.20800415,0.103245234,-0.06759002,-0.001692483,0.003601469,0.023911931,-0.012781465
1.76966E+18,4.217991943,0.069821176,-0.019575054,0.061539049,0.008373281,0.006112217,-0.010117709
1.76966E+18,4.22797998,0.050521414,0.003449848,0.090783848,0.008019347,-0.013173064,-0.007263865
1.76966E+18,4.237968018,0.023307847,-0.00605214,0.065721888,0.005130882,-0.025134742,-0.007521427
1.76966E+18,4.247955811,0.028072833,-0.005665186,0.040437809,0.001400858,-0.037077956,-0.004644148
1.76966E+18,4.257943848,0.001809643,-0.019863223,-0.009097791,-0.006877112,-0.039455082,-0.005021105
1.76966E+18,4.267932129,0.004655717,0.009797756,-0.082450904,-0.011293431,-0.037676357,-0.005029893
1.76966E+18,4.277919922,0.038789457,-0.000485153,-0.103012631,-0.017032064,-0.032299072,-0.007882552
1.76966E+18,4.287907959,0.038863691,-0.039267012,-0.133764035,-0.015846957,-0.01828259,-0.010075932
1.76966E+18,4.297895996,0.027895723,-0.075656422,-0.10918752,-0.00572934,-0.007651429,-0.008854199
1.76966E+18,4.307884277,0.005535422,-0.110250765,-0.089592008,-0.000799562,0.00771075,-0.012266774
1.76966E+18,4.31787207,0.008669647,-0.098632808,-0.139630881,0.004889698,0.019018985,-0.012872278
1.76966E+18,4.327860107,0.003690671,-0.074228435,-0.136681968,0.011493539,0.028274536,-0.016039042
1.76966E+18,4.3378479,-0.02374675,-0.038370355,-0.129043144,0.014207248,0.040663924,-0.016306307
1.76966E+18,4.347837158,-0.027030594,-0.005075404,-0.099690208,0.010443669,0.05001748,-0.017481826
1.76966E+18,4.357824951,-0.04155483,-0.033685412,-0.095078623,0.012945596,0.055022154,-0.019383267
1.76966E+18,4.367812988,-0.051340877,-0.018312486,-0.020809856,0.018432239,0.048399936,-0.023041118
1.76966E+18,4.377801025,-0.021225743,-0.017713936,0.033845279,0.021115428,0.037787672,-0.023953103
1.76966E+18,4.387788818,0.011205869,-0.024447044,0.036006548,0.017398987,0.03150874,-0.022699554
1.76966E+18,4.3977771,0.009303269,-0.051131052,0.012659283,0.012519973,0.029605485,-0.018243194
1.76966E+18,4.407765137,0.029898879,-0.041712651,-0.014556933,0.009470387,0.01908307,-0.015164047
1.76966E+18,4.417753174,0.075347812,0.009624153,0.01621756,0.005021201,0.007091494,-0.012115534
1.76966E+18,4.427740723,0.11872752,0.022840777,0.048291737,-0.005121981,0.002716719,-0.005885868
1.76966E+18,4.437729004,0.093047702,-0.006830138,0.032322307,-0.000830029,-0.002111725,0.003519537
1.76966E+18,4.447717041,0.074530633,-0.032137598,0.080230598,0.007660662,-0.010052739,0.008080999
1.76966E+18,4.457704834,0.052402972,-0.072319971,0.094641985,0.0087549,-0.01666709,0.008519148
1.76966E+18,4.467692871,0.065821841,-0.121042208,0.043367433,0.008824674,-0.015063068,0.000122734
1.76966E+18,4.477680908,0.039729368,-0.13475743,0.005992226,0.008864888,-0.012250237,-0.001924172
1.76966E+18,4.487670166,-0.034260563,-0.135600311,-0.008675474,0.011463867,-0.004733199,-0.005508521
1.76966E+18,4.497657959,-0.040337856,-0.119255909,-0.060226505,0.015436824,-0.000519377,-0.009581944
1.76966E+18,4.507645996,-0.02399698,-0.075230305,-0.066689856,0.018143129,0.010637403,-0.007920131
1.76966E+18,4.517634033,-0.048254638,-0.057036477,-0.044124681,0.019976348,0.023498982,-0.004240192
1.76966E+18,4.52762207,-0.050803154,-0.01788637,-0.043342883,0.022836583,0.026156284,-0.001859592
1.76966E+18,4.537609863,-0.034357612,-0.014553426,-0.013763152,0.023347743,0.033382218,0.001777378
1.76966E+18,4.5475979,0.005327314,-0.016083704,0.030528994,0.022911783,0.035967082,0.002868209
1.76966E+18,4.557585938,0.032010172,-0.024255905,0.048479953,0.01981975,0.03383866,0.003694496
1.76966E+18,4.567573975,0.061436776,-0.022912089,0.077248952,0.017418643,0.023327962,0.005508641
1.76966E+18,4.577562012,0.066418053,-0.053602995,0.082957977,0.014343968,0.012988558,0.004330376
1.76966E+18,4.587550049,0.065112231,-0.040979076,0.068385846,0.014618007,0.006139174,0.007102726
1.76966E+18,4.597538086,0.055756392,-0.054732292,0.039428632,0.01139617,0.004534699,0.008618603
1.76966E+18,4.607526123,0.050543023,-0.065752283,0.014181378,0.00961771,0.004178901,0.002066161
1.76966E+18,4.61751416,0.07914251,-0.072429276,-0.009607494,0.009405136,0.002000045,-0.000789489
1.76966E+18,4.62750293,0.064364646,-0.060730655,-0.022123277,0.008283413,0.010817504,-0.001670729
1.76966E+18,4.637490967,0.046342667,-0.046163785,-0.052241644,0.009544584,0.019673111,-0.002772431
1.76966E+18,4.647479004,0.050106404,-0.031695699,-0.055564943,0.00984419,0.022598062,-0.003050731
1.76966E+18,4.657467041,0.033666141,-0.041445525,-0.049519525,0.009020261,0.024123732,-0.000749569
1.76966E+18,4.667455078,0.03650573,-0.044763855,-0.02535276,0.010596054,0.023661409,0.000939141
1.76966E+18,4.677442871,0.016197668,-0.054265259,0.024685821,0.008885719,0.019997261,-0.00110232
1.76966E+18,4.687431152,-0.009936854,-0.069220251,0.035218905,0.005293115,0.022200495,-0.005094132
1.76966E+18,4.697419189,-0.016215222,-0.099814711,0.046060325,0.008299767,0.027211107,-0.010636377
1.76966E+18,4.707407227,-0.053122518,-0.086887425,0.07869915,0.011726723,0.022431798,-0.017217314
1.76966E+18,4.717394775,-0.062110711,-0.055611997,0.101970428,0.016313057,0.017604357,-0.021776084
1.76966E+18,4.727382813,-0.062765376,-0.067333415,0.057931088,0.019953866,0.021301623,-0.025217686
1.76966E+18,4.737371094,-0.074046667,-0.083480247,0.010577508,0.018941497,0.037398722,-0.023563676
1.76966E+18,4.747358887,-0.092294253,-0.127411743,0.014577391,0.020229934,0.041212637,-0.020627273
1.76966E+18,4.7573479,-0.025091789,-0.105882633,0.016914894,0.01980936,0.03825143,-0.022894645
1.76966E+18,4.767336182,0.061438511,-0.063765493,0.017166239,0.017747806,0.044469379,-0.018649032
1.76966E+18,4.777324219,0.063904006,-0.037096682,0.005866554,0.014350045,0.043475013,-0.012339158
1.76966E+18,4.787312012,0.070589804,-0.01801438,0.02464432,0.010359565,0.033864997,-0.008840829
1.76966E+18,4.797300049,0.082867668,0.025542438,0.050346916,0.010593971,0.016142229,-0.011969972
1.76966E+18,4.807287842,0.092844872,0.052746671,0.066307871,0.008424028,-0.002342772,-0.01235107
1.76966E+18,4.817275879,0.069670918,0.021135727,0.046772565,0.007513653,-0.012014822,-0.011576776
1.76966E+18,4.827264648,0.026923097,-0.038856677,0.036856151,0.007401002,-0.017295871,-0.012948838
1.76966E+18,4.837252686,0.017760716,-0.066757076,0.042981064,0.005722305,-0.015998274,-0.018410087
1.76966E+18,4.847240723,0.031222255,-0.073570848,0.038480537,0.006012856,-0.013227786,-0.01961996
1.76966E+18,4.85722876,-0.012385434,-0.099413729,0.014558102,0.00702901,-0.000274419,-0.024383707
1.76966E+18,4.867216797,-0.043288504,-0.127598206,-0.001442016,0.008042077,0.008331319,-0.02662742
1.76966E+18,4.877204834,-0.03178862,-0.118650929,-0.044753626,0.009097816,0.015591621,-0.028244371
1.76966E+18,4.887193848,-0.024497294,-0.085274729,-0.063927698,0.009111399,0.020868141,-0.027588967
1.76966E+18,4.897181641,-0.012761848,-0.025252515,-0.059336278,0.007618481,0.031952389,-0.024830155
1.76966E+18,4.907169678,-0.02075577,0.00223112,-0.074773501,0.006693832,0.040318444,-0.021916391
1.76966E+18,4.917157715,0.027010181,0.027235213,-0.083622578,0.009145531,0.038705543,-0.017958537
1.76966E+18,4.927145508,0.056309332,0.071156772,-0.074348554,0.010508537,0.036859706,-0.010869203
1.76966E+18,4.937133789,0.046211132,0.063924483,-0.058513272,0.009675981,0.042082172,-0.00481453
1.76966E+18,4.947121826,0.028425884,0.061735448,-0.014719722,0.008090601,0.040140729,-0.000484496
1.76966E+18,4.957109863,0.038398412,0.044194531,0.038887072,0.007341666,0.036793809,-0.000317458
1.76966E+18,4.967097656,0.022431009,-0.002445055,0.056162032,0.006498509,0.030164136,-0.000200279
1.76966E+18,4.977085938,0.034324294,-0.043446928,0.066371876,0.006283701,0.020735906,-0.005226029
1.76966E+18,4.98707373,0.030517303,-0.049714171,0.039127895,0.006308734,0.01405004,-0.00688358
1.76966E+18,4.997061523,0.030533085,-0.043866614,0.006815525,0.008543071,0.012005008,-0.00342522
1.76966E+18,5.007049561,0.030634208,-0.039554012,-0.007957096,0.010045093,0.005236318,-0.002587123
1.76966E+18,5.017037598,0.017045846,-0.048051206,0.000936404,0.010510566,0.002612537,0.001367067
1.76966E+18,5.027026855,0.038743874,-0.045614919,-0.02369681,0.008415457,0.008831818,0.007151986
1.76966E+18,5.037014648,0.020659935,-0.060105217,-0.015215982,0.006684078,0.014379456,0.009508864
1.76966E+18,5.047002686,0.01236673,-0.057157473,-0.009103052,0.003869116,0.014336313,0.007855041
1.76966E+18,5.056990967,0.039062447,-0.065672788,-0.003970657,0.000296544,0.009098666,0.004105063
1.76966E+18,5.06697876,0.054437702,-0.067079732,0.022890754,0.001509348,0.006984916,0.002460561
1.76966E+18,5.076966553,0.034198038,-0.052229369,0.019806524,0.0021205,0.005605054,0.002418735
1.76966E+18,5.08695459,0.024818809,-0.032622167,0.014559271,-0.002771727,0.001487008,0.003331134
1.76966E+18,5.096942627,0.021856452,-0.017283143,0.01953706,-0.002687267,-0.000782329,0.002178457
1.76966E+18,5.106930664,0.029643443,-0.038329438,0.010206044,-0.002060358,-0.00386041,-0.000700154
1.76966E+18,5.116918701,0.027487726,-0.055909519,-0.002633271,-0.002462601,-0.00589478,-0.00440077
1.76966E+18,5.126906738,0.019539379,-0.05571195,0.006740706,-0.00448687,-0.00909377,-0.004063614
1.76966E+18,5.136894775,-0.001294707,-0.078794135,0.028295828,-0.006842863,-0.007784045,-0.00472925
1.76966E+18,5.146882568,-0.003874796,-0.075402739,-0.005781214,-0.007270034,-0.006331025,-0.003494609
1.76966E+18,5.156871582,0.02008008,-0.085098788,-0.017545594,-0.009255308,-0.00749249,-0.00520825
1.76966E+18,5.166859619,0.027480137,-0.070891984,-0.033249943,-0.010551734,-0.003281499,-0.000604444
1.76966E+18,5.176847656,0.025256625,-0.072135262,-0.013387889,-0.010942152,-0.001434065,3.24235E-05
1.76966E+18,5.186835693,0.015566402,-0.043622284,-0.02355331,-0.009747192,-0.000430586,-0.000775846
1.76966E+18,5.19682373,0.034875499,-0.042236383,-0.028839141,-0.013265554,0.000472145,-0.008110991
1.76966E+18,5.206811768,0.020627175,-0.044136079,-0.018449264,-0.010883623,0.003455151,-0.013573933
1.76966E+18,5.216799561,0.027777065,-0.031387072,-0.033182723,-0.012868896,0.007368917,-0.019433379
1.76966E+18,5.226787598,0.020948095,-0.051889762,-0.053694473,-0.012436666,0.010553525,-0.023858221
1.76966E+18,5.236775879,0.02311785,-0.085417353,-0.039338908,-0.012768131,0.013880282,-0.026654584
1.76966E+18,5.246763916,0.024541152,-0.0852683,-0.030855742,-0.012299947,0.01633252,-0.029961433
1.76966E+18,5.256751709,0.014803583,-0.078960724,-0.032456162,-0.010670518,0.014631853,-0.032497469
1.76966E+18,5.266739746,0.002435703,-0.096352588,-0.05382073,-0.012941129,0.022122525,-0.02983138
1.76966E+18,5.276727783,-0.027001989,-0.099070615,-0.044383039,-0.012260211,0.025216905,-0.029638121
1.76966E+18,5.286715576,-0.017760113,-0.090782679,-0.006788053,-0.014863185,0.026522387,-0.029359555
1.76966E+18,5.29670459,0.004061852,-0.052636196,0.00816694,-0.009533454,0.030256104,-0.026556645
1.76966E+18,5.306692627,-0.006574693,-0.02588146,0.015619886,-0.005532586,0.03703944,-0.023022631
1.76966E+18,5.316680908,-0.012182605,-0.008871289,0.041605684,-0.004642345,0.041130688,-0.019961208
1.76966E+18,5.326668701,-0.012659566,-0.013939094,0.022232875,-0.001649751,0.043915022,-0.020717014
1.76966E+18,5.336656738,-0.001785112,-0.054088733,0.024794542,-0.000415056,0.048391297,-0.023271715
1.76966E+18,5.346644775,-0.026179557,-0.085351886,0.02092676,0.001424124,0.051755138,-0.022220565
1.76966E+18,5.356632813,-0.036041044,-0.094069446,0.017561376,0.004786791,0.054195322,-0.021415254
1.76966E+18,5.366620605,-0.043255798,-0.087872929,0.050311553,0.006335153,0.058696598,-0.021389423
1.76966E+18,5.376608643,-0.045346633,-0.057076224,0.056879241,0.00824502,0.05888411,-0.019261045
1.76966E+18,5.38659668,-0.011968095,-0.049450552,0.060111354,0.009312415,0.054143682,-0.016108928
1.76966E+18,5.396584473,0.011862863,-0.021837153,0.07211948,0.010373676,0.048324984,-0.015339491
1.76966E+18,5.406572754,0.044363449,-0.033385552,0.053050622,0.012234427,0.039181821,-0.015030297
1.76966E+18,5.416560791,0.05189853,-0.016921324,0.036907004,0.01107515,0.03459537,-0.014681218
1.76966E+18,5.426549805,0.016166122,-0.012031799,0.009983342,0.009234373,0.036721904,-0.008953025
1.76966E+18,5.436537842,-0.019250653,-0.024314357,0.000559387,0.004222518,0.033701487,-0.003871922
1.76966E+18,5.446525635,-0.014618308,-0.066460139,-0.040818625,0.002692798,0.032965925,-0.00704641
1.76966E+18,5.456513672,0.016442016,-0.058832713,-0.052441258,0.00099557,0.041858841,-0.014870904
1.76966E+18,5.466501465,0.015932318,-0.027350948,-0.04799743,-0.000456119,0.053887807,-0.019892029
1.76966E+18,5.476489502,0.009517765,-0.028646833,-0.022144027,0.000610526,0.054481458,-0.02141422
1.76966E+18,5.486477783,0.017381338,-0.01732406,-0.004045768,0.001464868,0.052084349,-0.023899483
1.76966E+18,5.49646582,0.027774138,-0.004842764,0.017147826,-0.000478386,0.047426071,-0.021928802
1.76966E+18,5.506453613,-0.007297756,-0.018608254,0.018149112,-0.000554286,0.036536139,-0.021691514
1.76966E+18,5.51644165,0.001284775,-0.026846506,0.013799393,0.001337357,0.019137442,-0.022129338
1.76966E+18,5.526429932,0.01078326,-0.006503975,0.007357085,-0.00043977,0.015279321,-0.021607624
1.76966E+18,5.536417725,-0.016115858,-0.050557636,0.001200608,-0.002697011,0.01840644,-0.019354098
1.76966E+18,5.546405762,-0.036938281,-0.080648239,0.026873686,-0.003497291,0.017748905,-0.018543165
1.76966E+18,5.556394531,-0.01152911,-0.091297643,0.015913901,-0.004113495,0.017056519,-0.023167673
1.76966E+18,5.566382813,0.046309331,-0.086159696,0.013444003,-0.002163529,0.020877089,-0.026300084
1.76966E+18,5.576370605,0.046223407,-0.055837038,0.022832886,-0.002782981,0.027997628,-0.028198715
1.76966E+18,5.586358643,0.010571661,0.004936287,0.04273761,-0.005868786,0.024514213,-0.024373617
1.76966E+18,5.59634668,0.012623917,0.008037176,0.055468497,-0.006356677,0.010541672,-0.021155983
1.76966E+18,5.606334961,0.029352936,-0.017766543,0.050909811,-0.005816055,-0.005551544,-0.020358901
1.76966E+18,5.616322754,0.056886839,-0.026661212,0.033484921,-0.007241055,-0.020561926,-0.018383348
1.76966E+18,5.626310791,0.027408231,-0.031626726,0.038411856,-0.005175241,-0.033356819,-0.016726863
1.76966E+18,5.636298828,0.009752162,-0.038922728,0.036302609,-0.004270143,-0.038772248,-0.011205764
1.76966E+18,5.646286621,-0.009940964,-0.035334348,0.022691724,0.001969643,-0.040072139,-0.006280247
1.76966E+18,5.656274658,-0.011876315,-0.043755555,0.029460196,0.001479571,-0.037146203,-0.00379233
1.76966E+18,5.666262695,-0.025631869,-0.021219314,0.035523733,0.001998088,-0.031208154,-0.001103069
1.76966E+18,5.676250732,-0.045542434,-0.025990766,0.042594987,0.003265644,-0.021094916,-0.000216467
1.76966E+18,5.686239502,-0.068266311,-0.051391165,0.036596039,0.004270721,-0.012874269,0.004492268
1.76966E+18,5.696227783,-0.074358199,-0.04360884,0.035027182,0.002618551,-0.008113389,0.007061503
1.76966E+18,5.70621582,-0.048830374,-0.053605333,0.023812837,0.004504335,-0.004427574,0.007811981
1.76966E+18,5.716203857,-0.011834815,-0.040386955,0.014042554,0.004720797,-0.005206718,0.007653377
1.76966E+18,5.72619165,0.017675944,-0.048358665,-0.016522096,0.006794067,-0.002768061,0.00999829
1.76966E+18,5.736179688,0.032412912,-0.037599955,-0.022908874,0.007064864,-0.003906108,0.012172484
1.76966E+18,5.746167725,0.032552024,-0.017892215,-0.020986674,0.005550058,-0.009352539,0.017600007
1.76966E+18,5.756155518,0.024444119,0.003756138,-0.021893267,0.004220441,-0.016110906,0.017158942
1.76966E+18,5.766143555,0.034684942,-0.007611644,-0.016572072,0.001110135,-0.017346879,0.015981825
1.76966E+18,5.776131592,0.033943771,-0.028025487,-0.027395664,0.001689799,-0.018292328,0.008940069
1.76966E+18,5.786119873,0.032880528,-0.050121583,-0.031101825,-0.001563784,-0.01680948,0.004819626
1.76966E+18,5.796107666,0.033130118,-0.05665946,-0.042580666,0.00103184,-0.009799571,0.00245016
1.76966E+18,5.806095703,0.012817985,-0.069949735,-0.016012977,0.000551938,0.00082298,-0.002892941
1.76966E+18,5.816084961,0.008010288,-0.053340545,-0.014672961,0.000186018,0.014007581,-0.005251558
1.76966E+18,5.826072754,-0.019796003,-0.034168227,0.006369243,-0.000186292,0.01833069,-0.005503761
1.76966E+18,5.836060303,-0.016063828,-0.034202714,0.036373044,1.36127E-05,0.015006864,-0.005273884
1.76966E+18,5.84604834,0.022186697,-0.021567104,0.053183601,-0.002740096,0.004506019,-0.00561903
1.76966E+18,5.856036133,0.041712651,-0.043426469,0.048943187,-0.005278895,-0.004585127,-0.004620356
1.76966E+18,5.866024414,0.045423781,-0.07911796,0.051750938,-0.005553733,-0.012208958,-0.001585418
1.76966E+18,5.876012451,0.056152095,-0.084257661,0.045823301,-0.005115535,-0.014960643,-0.000277636
1.76966E+18,5.886000244,0.040811318,-0.081780458,0.050105801,-0.007518239,-0.013168868,0.000687227
1.76966E+18,5.895988281,0.020454759,-0.101309334,0.020742344,-0.007015208,-0.010559536,-0.001847116
1.76966E+18,5.905976563,0.029180497,-0.081244451,0.004023264,-0.001752003,-0.007983726,-0.005810698
1.76966E+18,5.9159646,0.013746197,-0.054035542,0.008573183,-0.002290082,-0.007527556,-0.004366438
1.76966E+18,5.925952393,0.011878649,-0.052363809,-0.009149521,-0.001410972,-0.005847367,-0.002338973
1.76966E+18,5.93594043,-0.01288637,-0.064614219,-0.00531155,-0.000190074,-0.003409128,-0.00114591
1.76966E+18,5.945929443,-0.027847787,-0.045271805,-0.008700024,-0.001379708,-0.000451422,0.002815275
1.76966E+18,5.95591748,-0.014511338,-0.048514732,-0.011813772,-0.00100633,0.005469495,0.003655359
1.76966E+18,5.965905273,-0.0224924,-0.058065235,-0.003351064,-0.001468389,0.010346277,0.004022076
1.76966E+18,5.975893311,-0.028566167,-0.066204118,-0.00724661,-0.004131231,0.016443886,0.006727543
1.76966E+18,5.985881592,-0.034983048,-0.067633859,-0.011230711,-0.004336561,0.018829811,0.007245528
1.76966E+18,5.995869385,-0.007575404,-0.05024784,-0.00299889,-0.002992572,0.021583937,0.003754425
1.76966E+18,6.005857422,0.023561493,-0.025219197,0.020911563,-0.002944901,0.018147128,-0.003810551
1.76966E+18,6.015845459,0.059902972,0.001132803,0.026175767,-0.003195067,0.01615599,-0.008250326
1.76966E+18,6.025833496,0.074060677,-0.008281506,0.025308044,-0.005093368,0.013113063,-0.006484385
1.76966E+18,6.035821533,0.057732058,-0.00955401,0.005363865,-0.007977955,0.009842761,-0.004109209
1.76966E+18,6.045809326,0.062506433,-0.023758477,0.003232991,-0.009658943,0.002237838,-0.003184294
1.76966E+18,6.055797363,0.08619769,-0.039490299,-0.012280805,-0.009747556,-0.004745153,-0.000512193
1.76966E+18,6.065786377,0.078702365,-0.063800564,-0.005227672,-0.011389928,-0.00701683,-0.001110872
1.76966E+18,6.075774414,0.057121817,-0.067028294,0.01159253,-0.010353281,-0.006057234,-0.001855054
1.76966E+18,6.085762451,0.041627895,-0.056325698,0.017450024,-0.010456345,-0.004316592,-0.003588239
1.76966E+18,6.095750488,0.028285014,-0.051412207,0.013315701,-0.008872611,-0.00216164,-0.005252459
1.76966E+18,6.105738281,0.020925884,-0.042249827,0.005142039,-0.006462716,0.004751127,-0.00568256
1.76966E+18,6.115726563,0.004027358,-0.047279053,-0.016857904,-0.00627513,0.009703478,-0.004882325
1.76966E+18,6.125714355,0.013135378,-0.051239773,-0.025443653,-0.006044501,0.011219615,-0.004710818
1.76966E+18,6.135702393,0.029700726,-0.054463996,-0.035048225,-0.006605255,0.010435652,-0.00570628
1.76966E+18,6.145690186,0.045237903,-0.060374681,-0.018632512,-0.00701991,0.010985594,-0.007378479
1.76966E+18,6.155678223,0.054034373,-0.068079849,-0.016137188,-0.00650869,0.012576496,-0.009195315
1.76966E+18,6.165666504,0.04927578,-0.041656537,-0.012322598,-0.006345971,0.0074334,-0.010187343
1.76966E+18,6.175654297,0.042744917,-0.029015667,0.000512041,-0.007129846,0.005196539,-0.009728508
1.76966E+18,6.185642334,0.036012394,-0.018451602,0.016144787,-0.006009986,0.003484659,-0.008366301
1.76966E+18,6.195631592,0.035223289,-0.006394085,0.017571313,-0.005475008,0.003170593,-0.00354652
1.76966E+18,6.205619385,0.030928222,-0.009443536,0.015091771,-0.005877411,0.000812897,-0.005139622
1.76966E+18,6.215607178,0.034827568,-0.001957564,0.023983225,-0.003151609,-0.005182464,-0.002320851
1.76966E+18,6.225595215,0.026937691,-0.010427286,0.01852233,-0.002837888,-0.0076624,-0.001647338
1.76966E+18,6.235583252,0.015759295,-0.052725628,0.002312953,-0.002162826,-0.008226314,-0.001680042
1.76966E+18,6.245571289,0.001012975,-0.08098317,0.006668226,-0.003252591,-0.007957335,-0.00556293
1.76966E+18,6.255559326,0.016759995,-0.10731062,-0.008244389,-0.005363985,-0.011920729,-0.007553927
1.76966E+18,6.265547363,0.031388825,-0.106713823,-0.026124914,-0.002621995,-0.011248813,-0.013132717
1.76966E+18,6.2755354,0.028941432,-0.069415482,-0.025551205,-0.002466916,-0.008022638,-0.014139174
1.76966E+18,6.285523438,0.032919688,-0.045798459,-0.016809388,-0.001241063,-0.006084123,-0.01070556
1.76966E+18,6.295511475,0.014632336,-0.013934417,-0.001677286,0.000485038,-0.00769229,-0.008397698
1.76966E+18,6.305499512,-0.000811316,-0.004463994,0.020060791,0.001056818,-0.009533067,-0.00648981
1.76966E+18,6.315487305,-0.003131284,-0.038837972,0.027583588,-0.000125991,-0.008889318,-0.01062219
1.76966E+18,6.325476318,0.005630114,-0.043755555,0.01810615,-0.000225061,-0.005969162,-0.017461987
1.76966E+18,6.335464355,0.032288405,-0.05586568,0.007750176,-0.000756208,-0.001478967,-0.018181738
1.76966E+18,6.345452393,0.031888007,-0.089053663,-0.003254618,0.000926377,0.008266871,-0.019025426
1.76966E+18,6.355440186,0.028885318,-0.082325817,-0.005634791,-0.001465398,0.019241627,-0.021043234
1.76966E+18,6.365428467,0.041918403,-0.088012045,-0.017903905,0.001371135,0.024961565,-0.021380922
1.76966E+18,6.375416504,0.057880527,-0.061722004,-0.027589433,0.002767473,0.024293944,-0.02255024
1.76966E+18,6.385404541,0.036641339,-0.024768531,-0.017316461,0.004400523,0.022480065,-0.014335721
1.76966E+18,6.395392334,-0.016813189,-0.001706219,0.013243805,0.003001513,0.013941579,-0.008812535
1.76966E+18,6.405380371,-0.020903672,0.019618893,0.029364918,0.000379365,0.001763743,-0.006078001
1.76966E+18,6.415368408,0.010725977,0.016285364,0.029319618,-0.00256332,-0.003303383,-0.005868383
1.76966E+18,6.425356201,0.033142391,0.01113748,-0.005542729,-0.001689803,-0.002837063,-0.00257352
1.76966E+18,6.435344238,0.04397592,-0.011828385,-0.005662848,-0.00270756,0.006771293,-0.00204866
1.76966E+18,6.445332275,0.038252282,-0.018783026,-0.031969548,-0.00291209,0.015398603,0.003934397
1.76966E+18,6.455321533,0.021753567,-0.040644145,-0.055127428,0.001364789,0.023989856,0.010007106
1.76966E+18,6.465309326,0.036020577,-0.051198857,-0.065775664,0.003072141,0.028451981,0.01128782
1.76966E+18,6.475297363,0.030724809,-0.018854338,-0.05842384,0.004266781,0.027918382,0.011729758
1.76966E+18,6.4852854,0.00848609,-0.019638766,-0.035813948,0.001569532,0.029686719,0.009645835
1.76966E+18,6.495273438,-0.019241292,-0.011021745,-0.006702713,0.000794817,0.025598412,0.006162546
1.76966E+18,6.50526123,0.00694295,0.017253917,0.002292203,0.000373504,0.024282811,0.004584889
1.76966E+18,6.515249268,0.015889643,0.041520343,-0.013033377,0.000889683,0.026160685,0.010780202
1.76966E+18,6.525237305,0.007314707,0.004748656,-0.018519115,0.002518739,0.029724261,0.012541085
1.76966E+18,6.535225098,0.036533787,-0.018403087,-0.002760697,0.002514473,0.030993614,0.011519641
1.76966E+18,6.545213379,0.082147537,-0.004438275,0.000860124,0.001720585,0.03251854,0.00808656
1.76966E+18,6.555201416,0.094569797,-0.008096213,-0.004134616,0.00388505,0.027083766,0.007129788
1.76966E+18,6.565189453,0.099512514,0.009944471,-0.002097557,0.002397674,0.01988817,0.010517063
1.76966E+18,6.575178467,0.070375266,-0.001560089,0.013865151,-0.000794078,0.010494925,0.013926844
1.76966E+18,6.58516626,0.046495209,-0.027667175,0.024511049,-0.003454044,0.002432737,0.018507214
1.76966E+18,6.595154297,0.062024787,-0.055671034,0.022390696,-0.005190264,-0.003648839,0.015356276
1.76966E+18,6.605142334,0.086198274,-0.068150576,0.009890403,-0.004811563,-0.007918952,0.010851272
1.76966E+18,6.615130127,0.085674542,-0.062618661,0.002043489,-0.004626363,-0.010386521,0.010926338
1.76966E+18,6.625118408,0.063198507,-0.031370121,-0.02161182,-0.005629576,-0.003231672,0.014079254
1.76966E+18,6.635106445,0.023458032,-0.005870353,-0.02281652,-0.007625725,0.003670592,0.01988578
1.76966E+18,6.645094238,-0.007258593,-0.001056231,-0.032312078,-0.007420396,0.002425831,0.024311688
1.76966E+18,6.655082275,0.004577975,0.00210311,0.000716332,-0.007000681,-0.002592896,0.0237708
1.76966E+18,6.665070557,0.01839958,0.026385903,0.013031039,-0.008015612,-0.009952541,0.026087483
1.76966E+18,6.675058594,0.010407412,0.003432897,-0.00186141,-0.005514618,-0.018950116,0.027482981
1.76966E+18,6.685046387,0.016546646,-0.00515373,0.008986732,-0.008145023,-0.027338007,0.028128264
1.76966E+18,6.695034424,0.02849252,-0.016072014,0.009879589,-0.009882057,-0.038028631,0.026406374
1.76966E+18,6.705023438,0.028866614,-0.021030513,0.007548808,-0.007424492,-0.038052067,0.028860476
1.76966E+18,6.715011475,-0.017210661,-0.018817513,-0.006273381,-0.010126114,-0.03215941,0.027582197
1.76966E+18,6.724999268,-0.01013561,-0.010583353,-0.02856237,-0.002996033,-0.036245231,0.008835407
1.76966E+18,6.734987305,0.087311788,0.12008067,0.009599895,-0.006469803,-0.03348545,-0.009871885
1.76966E+18,6.744975586,0.063889996,-0.040647652,-0.03599515,-0.010333517,-0.006171003,0.002998106
1.76966E+18,6.754963379,-0.148414784,-0.173289113,-0.102869131,-0.009330361,0.004265712,0.0161591
1.76966E+18,6.764951416,-0.1179232,-0.142277304,-0.072573653,-0.006486904,-0.000430241,0.014374515
1.76966E+18,6.774939453,0.061759998,-0.082889296,-0.065263915,-0.003830185,-0.004402913,0.008511071
1.76966E+18,6.784927246,0.108034258,-0.041686348,-0.02551438,-0.002648008,0.004635323,0.002978886
1.76966E+18,6.794915283,0.046032268,-0.040209845,0.00693506,-0.00806364,0.008046276,0.006900449
1.76966E+18,6.80490332,0.010028642,-0.033528176,-0.00221037,-0.011227475,-0.000734433,0.004717722
1.76966E+18,6.814891357,0.057353288,-0.02676175,0.018591595,-0.011366665,-0.009598562,0.006168839
1.76966E+18,6.824880615,0.099610129,-0.042296004,0.013066402,-0.010566652,-0.011598863,0.004976009
1.76966E+18,6.834868652,0.114238374,-0.056444356,0.006102409,-0.009489027,-0.013808906,0.000836462
1.76966E+18,6.844856689,0.120378192,-0.035410336,0.026178105,-0.009720189,-0.017585801,0.003372057
1.76966E+18,6.854844727,0.070147892,-0.053557987,0.005046177,-0.008613971,-0.016344758,0.013266374
1.76966E+18,6.86483252,0.004760342,-0.057716276,-0.000850772,-0.004549721,-0.009641316,0.020377815
1.76966E+18,6.874820557,0.00125263,-0.04573007,0.00010346,-0.003577774,-0.003404796,0.023295013
1.76966E+18,6.884808594,-0.002298345,-0.023950784,0.008074001,0.000330415,0.001545487,0.02050828
1.76966E+18,6.894796387,0.014256489,-0.034651627,0.017032676,0.002655726,0.002876029,0.015700299
1.76966E+18,6.904784424,0.014406711,-0.035717795,0.00504004,0.003368388,0.002685879,0.010991299
1.76966E+18,6.914772705,-0.003438742,-0.038321255,0.008709961,-7.59191E-06,0.002488255,0.008959725
1.76966E+18,6.924760742,-0.00464636,-0.047874681,0.024965222,-0.000566856,-0.001511813,0.006388176
1.76966E+18,6.934748535,0.02752572,-0.013293197,0.032408816,-2.42668E-06,-0.008329079,-0.005994286
1.76966E+18,6.944736572,0.090503278,0.017281974,0.042234337,-0.007621997,-0.008419359,-0.010079043
1.76966E+18,6.954725586,0.037519286,-0.049973114,0.015842297,-0.005051142,-0.009041182,-0.001124073
1.76966E+18,6.964713623,-0.028323013,-0.11737258,0.007777064,-0.000310981,-0.00669467,0.006695235
1.76966E+18,6.974701416,0.011854104,-0.140579853,-0.020912732,-0.000314068,0.000653906,0.007077629
1.76966E+18,6.984689453,0.033023153,-0.108418289,-0.03075725,-0.000392632,-0.003773067,0.00326265
1.76966E+18,6.994677734,0.018832711,-0.076827219,-0.005657587,-0.000417291,-0.002898413,0.002958279
1.76966E+18,7.004665527,-0.006422727,-0.073525255,-0.022884617,-0.000173079,-0.002625972,0.004730347
1.76966E+18,7.014653564,-0.058682495,-0.065101125,-0.033165772,0.000839888,-0.003832098,0.006913713
1.76966E+18,7.024641602,-0.064552255,-0.033788872,-0.012902736,-6.74508E-05,-0.005520276,0.007059654
1.76966E+18,7.034629395,-0.03111468,-0.018743279,-0.011305238,0.001462215,-0.00267539,0.005309545
1.76966E+18,7.044617676,-0.021362517,-0.004397358,0.000344868,0.001720541,0.003823522,0.003856524
1.76966E+18,7.054605713,-0.000749357,0.000194646,0.022976386,0.002745635,0.0075032,-0.008028761
1.76966E+18,7.06459375,0.049018595,0.026090135,0.049575055,-0.003646484,0.002801922,-0.014364952
1.76966E+18,7.074582764,0.018151163,-0.051424482,0.026747137,-0.004855665,-0.005122873,-0.014492876
1.76966E+18,7.084570557,-0.007636778,-0.114751584,-0.019049861,-0.005717198,-0.005571615,-0.014730695
1.76966E+18,7.094558594,0.042002579,-0.083018475,-0.062853639,-0.002529591,-0.010355368,-0.015123894
1.76966E+18,7.104546631,0.069997665,-0.068613517,-0.052109834,-0.003469687,-0.010337792,-0.011047126
1.76966E+18,7.114534424,0.040429041,-0.067131755,-0.009803017,-0.005840076,-0.003589184,-0.005229427
1.76966E+18,7.124522705,-0.003940262,-0.107311789,0.004529752,-0.007273389,0.008327397,-0.001335352
1.76966E+18,7.134510742,-0.003584877,-0.096015319,0.015114859,-0.006246418,0.008423749,-0.010748212
1.76966E+18,7.144498535,0.027867077,-0.057741995,0.018105273,-0.005674105,0.004587732,-0.020310558
1.76966E+18,7.154486572,0.021234511,-0.079740476,0.00095657,-0.005169599,-0.00028272,-0.024215333
1.76966E+18,7.164474609,-0.044656299,-0.064808865,0.01905366,-0.005024723,-0.00185505,-0.022673097
1.76966E+18,7.174462646,-0.049360535,-0.009487959,0.005163374,-0.005271963,-0.002777727,-0.015272456
1.76966E+18,7.184450439,-0.053546297,-0.002906827,-0.014662147,-0.001969111,0.002110772,-0.007497092
1.76966E+18,7.194438477,-0.043818099,-0.005671031,0.001073182,-0.002250985,0.007635915,-0.002233848
1.76966E+18,7.204427734,-0.012409402,0.007884616,0.023069325,-0.004858486,0.010777646,-0.004175825
1.76966E+18,7.214415771,0.014281621,0.020390462,0.04484978,-0.009797473,0.013245981,-0.004881867
1.76966E+18,7.224403564,0.020538346,-0.011873978,0.04881956,-0.011330921,0.010738349,-0.003970534
1.76966E+18,7.234391602,0.03767653,-0.029633506,0.054016545,-0.012256697,-0.005603112,-0.004810449
1.76966E+18,7.244379639,0.063833882,-0.064134911,0.031940614,-0.01193765,-0.02224707,-0.007309825
1.76966E+18,7.254367432,0.098583124,-0.071058573,0.001073474,-0.007883305,-0.038856484,-0.020267177
1.76966E+18,7.264355469,0.109715928,-0.026494624,0.00414163,-0.008688911,-0.043835796,-0.017518528
1.76966E+18,7.274343506,-0.016886835,-0.108680739,-0.014018296,-0.009097386,-0.037974011,-0.011734795
1.76966E+18,7.284331543,-0.077201898,-0.079967855,-0.021896775,-0.00947955,-0.0287917,-0.01094277
1.76966E+18,7.29431958,-0.030173604,-0.022628011,-0.005355682,-0.006945923,-0.024912298,-0.010919693
1.76966E+18,7.304307617,-0.020130349,-0.028886487,0.000192892,-0.001347958,-0.020021936,-0.011229685
1.76966E+18,7.314295654,-0.039722354,-0.048801148,0.014436229,-0.004559042,-0.006474284,-0.012321278
1.76966E+18,7.324284424,-0.040914194,-0.031252047,0.002729425,-0.006007269,-0.005733127,-0.016252635
1.76966E+18,7.334272461,0.004104515,0.028049452,-0.001727554,-0.008333594,-0.013519846,-0.02466624
1.76966E+18,7.344260498,0.045893736,0.074108608,0.01016542,-0.010775979,-0.024643337,-0.026235642
1.76966E+18,7.354248535,-0.020109891,0.013477321,-0.016700667,-0.011828344,-0.02397339,-0.02732045
1.76966E+18,7.364236328,-0.044877253,0.011196517,-0.0189993,-0.00766396,-0.02690926,-0.025931612
1.76966E+18,7.374224609,0.005662265,0.000303367,-0.023712299,-0.008277552,-0.033362098,-0.025351577
1.76966E+18,7.384212646,0.014135494,-0.042309448,-0.054470426,-0.005868457,-0.026736686,-0.027599018
1.76966E+18,7.394200684,0.011510406,-0.053716977,-0.057301265,-0.004241004,-0.013251282,-0.025990667
1.76966E+18,7.404188477,-0.005756371,-0.073684245,-0.048610886,-0.000562113,-0.012183089,-0.021162091
1.76966E+18,7.414176758,0.010440731,-0.127962363,-0.082086163,0.002377114,0.000236004,-0.019421808
1.76966E+18,7.424164795,0.014285715,-0.1120055,-0.054947396,0.004226413,0.004615572,-0.014223849
1.76966E+18,7.434152588,0.004546412,-0.086731358,-0.04241963,0.004889746,0.009360533,-0.009407274
1.76966E+18,7.444140625,-0.014124387,-0.05230711,-0.000918868,0.004567238,0.016706597,-0.005969133
1.76966E+18,7.454129639,-0.00103928,-0.02181085,0.012393618,0.002712879,0.014252228,-0.003755247
1.76966E+18,7.464117676,-0.005151976,-0.003397826,0.019257366,-0.001479203,0.006964222,-0.002914754
1.76966E+18,7.474105469,0.0192372,-0.010386369,0.021318682,-0.002384885,-0.000536579,-0.008262098
1.76966E+18,7.484093506,0.035003509,0.011899112,0.028308395,-0.005886142,-0.012160213,-0.01720153
1.76966E+18,7.494081543,0.052567223,0.044059506,0.020862171,-0.008164959,-0.020701379,-0.026156463
1.76966E+18,7.504069824,0.011669395,0.007837269,0.032869712,-0.01024542,-0.018977782,-0.025443269
1.76966E+18,7.514057617,-0.052645549,-0.04403028,0.00512918,-0.009539047,-0.021086223,-0.021626003
1.76966E+18,7.524045654,-0.050973816,-0.076036361,-0.003579904,-0.007654062,-0.016331149,-0.022691535
1.76966E+18,7.534033447,-0.024007483,-0.115289344,-0.005771861,-0.007464686,0.000442198,-0.020450817
1.76966E+18,7.544021484,-0.035725978,-0.149766199,-0.039206513,-0.005931239,0.008664175,-0.013907164
1.76966E+18,7.554009521,-0.029886604,-0.111927174,-0.039971945,-0.005191383,0.013633264,-0.009017592
1.76966E+18,7.563997559,0.018003275,-0.056741293,-0.043701779,-0.00516635,0.019311391,-0.008301467
1.76966E+18,7.573986572,0.015623101,-0.023700025,-0.018255203,-0.005798307,0.021485241,-0.008272964
1.76966E+18,7.583974609,0.023023148,-0.042170332,-0.001694821,-0.006977022,0.020313984,-0.00905753
1.76966E+18,7.593962646,0.03713935,-0.046377136,0.009206512,-0.006045139,0.013151446,-0.007763159
1.76966E+18,7.603950684,0.055779755,-0.040279988,0.023303426,-0.005982555,0.004436251,-0.007552768
1.76966E+18,7.613938477,0.061682252,-0.034295068,0.036105333,-0.005861799,0.001985505,-0.004456414
1.76966E+18,7.623926514,0.048737435,-0.024478608,0.053995502,-0.006947303,-0.007644218,-0.007240483
1.76966E+18,7.633914551,0.032487727,-0.019959669,0.048692135,-0.008025089,-0.013912546,-0.006830023
1.76966E+18,7.643902588,0.024428339,-0.040717795,0.039700434,-0.01234447,-0.018686261,-0.007420446
1.76966E+18,7.653890381,0.039518356,-0.043583706,0.000942249,-0.014942162,-0.021336451,-0.010096404
1.76966E+18,7.663878418,0.029523032,-0.040189387,-0.013811375,-0.015169329,-0.023877906,-0.010154727
1.76966E+18,7.673866699,0.014372223,-0.049154199,-0.027738486,-0.01868551,-0.021334678,-0.007819801
1.76966E+18,7.683854736,0.010666355,-0.032763621,-0.032708384,-0.012377281,-0.014990229,-0.003789905
1.76966E+18,7.693842529,0.014798922,-0.030141456,-0.01725304,-0.010661131,-0.013577597,-0.00476582
1.76966E+18,7.703831543,0.041681087,-0.005554712,-0.040400107,-0.007988648,-0.012622856,-0.011804288
1.76966E+18,7.71381958,0.065782093,-0.025590953,-0.001813479,-0.010384544,-0.004428116,-0.011199133
1.76966E+18,7.723807617,-0.023963057,-0.07037059,-0.010378478,-0.010394397,0.003250577,-0.00920256
1.76966E+18,7.73379541,-0.034964928,-0.071295304,0.017091712,-0.009199439,0.000334593,-0.008414246
1.76966E+18,7.743783447,0.008398411,-0.074495561,-0.008031915,-0.010673765,0.002950083,-0.012888091
1.76966E+18,7.753771729,0.018805236,-0.085671035,0.009607202,-0.011138435,0.004714551,-0.01446234
1.76966E+18,7.763759521,0.008038345,-0.102825584,0.010472294,-0.010495015,0.005539066,-0.013931305
1.76966E+18,7.773747559,-0.004146598,-0.080859836,-0.000498889,-0.007785085,0.002148348,-0.006979014
1.76966E+18,7.783735596,-0.003722238,-0.074845105,0.013212533,-0.003774364,0.002649555,-0.007371297
1.76966E+18,7.793723633,0.011843583,-0.044642859,-0.011923662,-0.005308935,-0.002643514,-0.014152195
1.76966E+18,7.80371167,0.059506666,0.023557986,0.005612579,-0.006324931,-0.008976244,-0.024851976
1.76966E+18,7.813699707,0.049826984,0.038175125,0.02094605,-0.00661756,-0.000615836,-0.022167157
1.76966E+18,7.823688477,-0.064248303,-0.047232876,0.011911387,-0.009613882,0.015203873,-0.013178458
1.76966E+18,7.833676514,-0.094355862,-0.080077745,-0.025962124,-0.004843987,0.009337571,-0.010461257
1.76966E+18,7.843664551,-0.02015666,-0.139920512,-0.009367256,0.002130033,0.025232648,-0.011116394
1.76966E+18,7.853652344,0.020058449,-0.175165428,-0.035257776,0.001023873,0.044238146,-0.011452794
1.76966E+18,7.863640381,-0.00155249,-0.13372458,-0.026008886,0.003510999,0.041013326,-0.012629911
1.76966E+18,7.873628662,0.022213001,-0.092869422,-0.021582886,0.0027826,0.041815508,-0.011855666
1.76966E+18,7.883616699,0.027513445,-0.079599022,-0.024202421,0.002705102,0.045193464,-0.00960423
1.76966E+18,7.893604492,-0.012172084,-0.07437515,0.005864508,0.002493274,0.045241594,-0.014061323
1.76966E+18,7.903592529,0.041626142,-0.082644381,0.017892507,0.002650134,0.041226082,-0.017658986
1.76966E+18,7.913580322,0.06598901,-0.094413145,0.035911564,-0.000639482,0.038175631,-0.020988096
1.76966E+18,7.923568359,0.040737669,-0.085867435,0.054477732,-0.001390494,0.036619015,-0.024227565
1.76966E+18,7.933556396,0.035188218,-0.038444589,0.023440789,-0.001351408,0.033369742,-0.020413464
1.76966E+18,7.94354541,0.018013805,-0.006502806,0.005585983,-0.004305121,0.026637802,-0.011811453
1.76966E+18,7.953533447,-0.002034136,-0.002979308,-0.004387421,6.4367E-05,0.021649202,-0.005291423
1.76966E+18,7.963521484,-0.019478607,0.053304889,0.02999211,0.000849733,0.014040285,-3.75386E-05
1.76966E+18,7.973509521,0.006064999,0.060012278,0.025870647,-0.001981848,0.008008109,0.006568202
1.76966E+18,7.983497559,0.029815293,0.019288638,0.002421674,-0.000804199,0.007587329,0.013751013
1.76966E+18,7.993485352,0.053231249,0.004937456,-0.010944588,-0.001199252,0.005903075,0.014740882
1.76966E+18,8.003473389,0.082175604,-0.039953825,-0.020543314,-0.00242617,-0.000991316,0.012450297
1.76966E+18,8.013461426,0.107584761,-0.065966218,-0.011502514,0.002192147,-0.005788171,0.014203687
1.76966E+18,8.023449463,0.073567934,-0.096767014,-0.010393676,0.00158974,-0.007744795,0.017596554
1.76966E+18,8.033437256,0.021020576,-0.097982235,-0.015014322,-0.001054161,-0.006465523,0.012385042
1.76966E+18,8.043425293,0.003981763,-0.099627664,-0.019376901,4.99859E-05,-0.007402423,0.006410507
1.76966E+18,8.053413574,0.026820202,-0.069645199,-0.035837037,0.000959933,-0.003782601,0.001394094
1.76966E+18,8.063401367,0.009975446,-0.021558921,-0.040908933,0.001469662,0.008132648,0.004835963
1.76966E+18,8.073390381,-0.005818331,0.00415069,-0.050045011,0.004343538,0.019539759,0.010134339
1.76966E+18,8.083378418,-0.033192651,0.022266777,-0.055091188,0.006479393,0.02600245,0.014269697
1.76966E+18,8.093366455,-0.031056817,0.025674539,-0.032571021,0.008038886,0.030594103,0.013639445
1.76966E+18,8.103354492,-0.014256489,-0.004219664,-0.007225567,0.010250375,0.03339069,0.011123824
1.76966E+18,8.113342285,-0.011836568,-0.017750176,0.008114333,0.010033268,0.028904025,0.002399884
1.76966E+18,8.123330322,0.014354689,-0.021079613,0.041796238,0.011914527,0.016786909,-0.000139706
1.76966E+18,8.133318604,0.025168339,-0.05109072,0.057935764,0.008596068,0.009936576,-0.001419389
1.76966E+18,8.143306396,0.028189153,-0.093635731,0.053709086,0.006815745,0.003151373,0.000491429
1.76966E+18,8.153294434,0.045740007,-0.11726269,0.055684478,0.00505465,-0.004685075,-0.001996082
1.76966E+18,8.163282471,0.105036255,-0.124309101,0.028402503,0.004059959,-0.013122236,-0.003935397
1.76966E+18,8.173270508,0.111516255,-0.130402157,0.001059154,0.002797524,-0.010517335,-0.004202468
1.76966E+18,8.183258545,0.068350483,-0.114672089,0.026518881,0.004828717,-0.014046823,-0.003739877
1.76966E+18,8.193247314,0.043830954,-0.04055296,0.059528002,0.004614324,-0.011407985,0.000478968
1.76966E+18,8.203235352,0.001028754,-0.049649874,0.011178397,0.004291016,-0.003460048,0.002278199
1.76966E+18,8.213223389,-0.030814834,-0.060460022,0.021283611,0.006187032,0.00417109,-0.000235064
1.76966E+18,8.223211426,-0.005503858,-0.076467154,-0.00790712,0.00816363,0.007633999,-0.007360351
1.76966E+18,8.233199463,0.011582895,-0.084811204,-5.52373E-05,0.006561745,0.009787743,-0.012865972
1.76966E+18,8.2431875,-0.013498949,-0.088514734,0.00585954,0.008561779,0.016970821,-0.014195954
1.76966E+18,8.253175537,-0.02292846,-0.054174073,-0.008210487,0.010310026,0.019168032,-0.016995898
1.76966E+18,8.263163574,-0.006551326,-0.037339258,-0.006124328,0.00720052,0.016594354,-0.014988937
1.76966E+18,8.273151611,-0.010612579,-0.038653848,-0.016353753,0.007687504,0.014397441,-0.01349014
1.76966E+18,8.283139404,0.002905092,-0.036150925,-0.023856676,0.005285067,0.010735861,-0.012491453
1.76966E+18,8.293127197,0.012891046,-0.03878595,-0.020920331,0.003224701,0.008064918,-0.009897172
1.76966E+18,8.303115479,0.004469254,-0.036510406,-0.024643735,0.005131258,0.009750432,-0.010275608
1.76966E+18,8.313104492,0.026301156,-0.021763504,-0.018321254,0.006033954,0.012893911,-0.008669148
1.76966E+18,8.323092285,0.001974533,-0.018507132,0.003934417,0.007621199,0.018083345,-0.007284838
1.76966E+18,8.333080566,-0.013343457,-0.019168811,0.008899638,0.006231932,0.021937765,-0.006647983
1.76966E+18,8.343068604,-0.02600537,-0.031510406,0.015382278,0.006085191,0.022622997,-0.006645852
1.76966E+18,8.353056641,-0.019587329,-0.027004911,0.021576164,0.004137039,0.020810859,-0.006421028
1.76966E+18,8.363044434,-0.003731588,-0.046499885,0.033751755,0.001794523,0.015821427,-0.00638108
1.76966E+18,8.373032227,0.004915838,-0.040680385,0.024239246,-0.001551945,0.006420949,-0.004388957
1.76966E+18,8.383020508,0.030569308,-0.03433014,0.016383564,-0.002628927,-0.001959753,-0.003845406
1.76966E+18,8.393008301,0.045268873,-0.043420624,0.007844576,-0.004786045,-0.002913619,-0.002018197
1.76966E+18,8.402996338,0.037678281,-0.03582067,-0.001127835,-0.005516017,-0.003209497,0.001743252
1.76966E+18,8.412984375,0.019836335,-0.038752048,0.005149053,-0.007126637,-0.002069716,0.003587038
1.76966E+18,8.422972656,0.018518804,-0.023407179,-0.000292553,-0.006087472,-0.00077755,0.000642913
1.76966E+18,8.432961426,0.018749124,-0.032595279,-0.015021336,-0.006257872,0.000690151,-0.002790356
1.76966E+18,8.442949463,-0.005023381,-0.032494156,0.003595686,-0.007638988,0.000204923,-0.004271607
1.76966E+18,8.4529375,-0.02682371,-0.033704701,0.009106267,-0.00655359,-0.001160817,-0.003894797
1.76966E+18,8.462925537,-0.038282677,-0.019959669,0.028547757,-0.005959439,-0.004517465,-0.002707294
1.76966E+18,8.47291333,-0.038967745,-0.019859131,0.039227264,-0.005875868,-0.006925086,0.000248072
1.76966E+18,8.482901367,-0.011949975,-0.036098903,0.031117607,-0.005976003,-0.009001287,0.001286172
1.76966E+18,8.492889404,-0.003787693,-0.039346506,0.017832302,-0.009179998,-0.013763118,0.004791838
1.76966E+18,8.502877197,0.022545018,-0.048508887,0.008480828,-0.010474027,-0.018020179,0.005575339
1.76966E+18,8.512865479,0.073625208,-0.031667642,-0.014856501,-0.010232155,-0.016590912,0.00704948
1.76966E+18,8.522853516,0.067668939,-0.042760114,-0.029491175,-0.009006302,-0.011625716,0.012193909
1.76966E+18,8.532841553,0.009233108,-0.044622401,0.001774901,-0.012240548,-0.01325613,0.015769642
1.76966E+18,8.542829346,0.012476026,-0.018133038,0.018428514,-0.013181709,-0.019239452,0.010718691
1.76966E+18,8.552818359,0.05329087,-0.011843583,-0.016985622,-0.014686279,-0.017215066,0.005712705
1.76966E+18,8.562806396,0.027000235,-0.060067223,-0.030877661,-0.015023435,-0.009928392,0.004353427
1.76966E+18,8.572794434,-0.024715928,-0.071279522,-0.022513153,-0.019394549,-0.011008563,0.003855671
1.76966E+18,8.582782227,-0.034906487,-0.064953826,-0.000153145,-0.01468821,-0.009177641,-0.000941481
1.76966E+18,8.592770508,-0.003104994,-0.06757073,-0.012586802,-0.01405496,0.001415492,-0.00552526
1.76966E+18,8.602758545,0.0009738,-0.048116088,-0.023548633,-0.012057855,0.008351961,-0.006792924
1.76966E+18,8.612746338,-0.029952075,-0.061084876,-0.024459903,-0.011270899,0.007218163,-0.004282231
1.76966E+18,8.622734375,-0.066799152,-0.083446345,-0.001672902,-0.011701533,0.004175767,-0.002236924
1.76966E+18,8.632722656,-0.070362412,-0.074070029,0.00521978,-0.009575156,0.003268766,-0.00793393
1.76966E+18,8.642710693,-0.027130008,-0.062146367,0.007171791,-0.009120023,0.006179069,-0.012035998
1.76966E+18,8.652698486,-0.028415947,-0.064074705,0.038898178,-0.008460354,0.006610813,-0.015168207
1.76966E+18,8.662686279,-0.023346973,-0.050125675,0.052482467,-0.008482192,0.010153615,-0.015595112
1.76966E+18,8.672675537,-0.024086987,-0.035722471,0.037926703,-0.006939641,0.017985519,-0.013181479
1.76966E+18,8.682663574,-0.024825823,-0.023646833,0.027682957,-0.00315023,0.020092079,-0.006005857
1.76966E+18,8.692651367,-0.01730067,-0.022546178,0.008198504,-0.001463164,0.016714312,0.000564417
1.76966E+18,8.702639404,-0.010347206,0.00997662,0.018328561,-0.004759092,0.009827112,-0.000303773
1.76966E+18,8.712627686,0.032716859,0.014876667,0.020602643,-0.007941557,0.001040636,0.000512616
1.76966E+18,8.722615479,0.054171142,0.007107202,-0.000367664,-0.008436106,-0.001772195,0.003647157
1.76966E+18,8.732603516,0.066879816,-0.018450433,-0.013308394,-0.009211844,0.000279582,0.004762771
1.76966E+18,8.742591553,0.052958852,-0.060924132,-0.017257424,-0.010063522,0.004349957,0.007711689
1.76966E+18,8.752579346,0.054150099,-0.064908233,-0.018299627,-0.006405247,0.003754403,0.011605736
1.76966E+18,8.762567383,0.030195223,-0.05673954,0.006309329,-0.006497392,0.011088482,0.01338819
1.76966E+18,8.77255542,-0.020464111,-0.077140523,-0.000979074,-0.004640478,0.013342245,0.013086161
1.76966E+18,8.782543457,-0.027267937,-0.064913494,-0.011874562,-0.005566193,0.015102327,0.010911157
1.76966E+18,8.792532715,-0.029693712,-0.04267945,-0.014476561,-0.006761658,0.014539785,0.006783784
1.76966E+18,8.802520508,-0.003837962,-0.029515433,0.00620733,-0.010839757,0.017260469,0.003577871
1.76966E+18,8.812508545,-0.005139107,-0.028318917,0.000780629,-0.012707725,0.016950294,0.00575794
1.76966E+18,8.822496582,0.027159216,-0.033685412,-0.025802842,-0.011146846,0.019391349,0.00787249
1.76966E+18,8.832484375,0.021414553,-0.039191024,-0.057947454,-0.012622641,0.020598769,0.007392146
1.76966E+18,8.842472412,0.028861362,-0.017793431,-0.045869479,-0.013408008,0.019954816,0.006819832
1.76966E+18,8.852460205,0.016011214,0.002436872,-0.042998015,-0.011642353,0.01525047,0.00377551
1.76966E+18,8.862448242,0.005743503,0.001767594,-0.01855214,-0.011073502,0.010340933,0.000422857
1.76966E+18,8.872436279,0.010656985,-0.02687164,-0.011343524,-0.01081532,0.009784229,-0.001704585
1.76966E+18,8.882424561,-0.007779986,-0.039914077,-0.000629238,-0.008663752,0.007090441,-0.003049748
1.76966E+18,8.892412354,-7.83168E-05,-0.057702247,0.010428163,-0.00599038,0.00224582,-0.004683901
1.76966E+18,8.902400391,0.030492169,-0.057144029,0.02843962,-0.004819389,0.002303611,-0.007391538
1.76966E+18,8.912389404,0.046956972,-0.076269001,0.015150515,-0.003423285,0.005548712,-0.006685324
1.76966E+18,8.922377441,0.053585451,-0.096934188,0.027119478,-0.004639816,0.005370013,-0.008110914
1.76966E+18,8.932365234,0.045945759,-0.09471242,0.022795477,-0.004896457,0.005594719,-0.007557012
1.76966E+18,8.942353271,0.029876083,-0.091956399,0.001270458,-0.00708744,-0.001674646,-0.005235801
1.76966E+18,8.952341309,0.006835399,-0.072611647,0.004483283,-0.008361877,-0.005485791,-0.003418891
1.76966E+18,8.962329102,0.017680618,-0.058821607,0.000850479,-0.009981344,-0.008980923,-0.001176509
1.76966E+18,8.972317383,0.008147057,-0.012426935,0.005928221,-0.007835256,-0.011741661,0.002996296
1.76966E+18,8.98230542,0.016785131,-0.006551321,-0.01048077,-0.007924471,-0.013347547,0.003043967
1.76966E+18,8.992293457,0.027322882,0.01232289,-0.004240122,-0.009473524,-0.010962615,0.001818407
1.76966E+18,9.00228125,0.016667048,-0.006454291,-0.014146307,-0.00954676,-0.007110885,-0.001236772
1.76966E+18,9.012269531,0.011274249,-0.021655367,-0.026103579,-0.007897099,-0.003204047,-0.002077107
1.76966E+18,9.022257568,-0.000962132,-0.050157239,-0.031961657,-0.006776175,0.000432233,-0.006134965
1.76966E+18,9.032245361,-0.011816704,-0.064421911,-0.044902095,-0.007580495,0.003105436,-0.006458285
1.76966E+18,9.042234131,-0.001426243,-0.073749711,-0.043769291,-0.004947161,0.002599968,-0.00799413
1.76966E+18,9.052222412,-0.011865794,-0.053119011,-0.02475947,-0.005142089,0.001716956,-0.008619311
1.76966E+18,9.062210449,-0.010388132,-0.051799161,-0.02383651,-0.004230755,0.001459694,-0.006917552
1.76966E+18,9.072198242,-0.018617022,-0.033229485,-0.006860826,-0.00354368,-0.000759655,-0.007226807
1.76966E+18,9.082186279,0.005406827,-0.010287001,0.001049509,-0.00300146,0.002505913,-0.006512547
1.76966E+18,9.092174561,-0.00157704,0.009655717,-0.00689239,-0.002326137,7.56101E-05,-0.00249931
1.76966E+18,9.102162598,0.013615853,-0.020649989,0.006033727,-0.000704272,-0.00259128,-0.001564807
1.76966E+18,9.112150391,0.013873024,-0.024444121,-0.005795827,-0.001169846,0.001140706,-0.00515889
1.76966E+18,9.122138428,0.027931963,-0.041161447,0.002790215,0.003163649,0.003425964,-0.006480882
1.76966E+18,9.132126221,0.008605313,-0.051149757,0.008848785,-0.000837914,0.006581525,-0.006880468
1.76966E+18,9.142114258,0.009243629,-0.035125674,-0.007771511,0.001575709,0.01050516,-0.005874592
1.76966E+18,9.152103271,0.026939445,-0.042693479,-0.002974924,0.001687884,0.008987905,-0.006125378
1.76966E+18,9.162091309,0.029618893,-0.04739245,-0.012610768,0.001459917,0.008323712,-0.002838505
1.76966E+18,9.17207959,0.032276121,-0.033066988,0.003277414,0.004644808,0.004958412,-0.000905783
1.76966E+18,9.182067383,0.033898753,-0.036641339,0.000903086,0.005025374,0.000185761,0.001990138
1.76966E+18,9.19205542,0.038861344,-0.045599137,-0.002232581,0.004722713,-0.000307709,0.002261219
1.76966E+18,9.202043457,0.039537061,-0.047464931,-0.003277414,0.006107557,-0.002074716,0.002057487
1.76966E+18,9.21203125,0.019440029,-0.052782327,0.009920506,0.004134915,-0.002617723,0.002672002
1.76966E+18,9.222019287,0.011555989,-0.061596917,-0.000684767,0.004874208,-0.000610232,0.0016861
1.76966E+18,9.232007324,0.003859004,-0.068460373,0.015487492,0.002954801,0.002796446,0.001136741
1.76966E+18,9.241995361,0.011093047,-0.066485858,0.003962182,0.005579613,0.00125847,-0.002987697
1.76966E+18,9.251983154,-0.010928221,-0.070642977,0.009040508,0.003892163,0.00198465,-0.004511456
1.76966E+18,9.261971436,-0.013379706,-0.055176528,-0.002981062,0.005229602,0.005153812,-0.007183139
1.76966E+18,9.271959473,-0.014282208,-0.048698857,0.009272563,0.004482888,0.006156302,-0.008687806
1.76966E+18,9.281948486,-0.0203063,-0.043553311,0.004433599,0.005455208,0.009867417,-0.008543995
1.76966E+18,9.291936279,-0.013859014,-0.040917117,0.022253917,0.006394129,0.009808224,-0.009607155
1.76966E+18,9.301924316,-0.00046412,-0.05261983,0.015166589,0.007524109,0.009031646,-0.009462012
1.76966E+18,9.311912354,-0.002266785,-0.044543491,0.011151801,0.006653085,0.010820471,-0.0093239
1.76966E+18,9.321900391,0.000280561,-0.03816811,0.016556583,0.004580347,0.010060671,-0.009963857
1.76966E+18,9.331888184,0.029939202,-0.048764908,0.007157763,0.002732005,0.007261352,-0.011693607
1.76966E+18,9.341876465,0.055310968,-0.057310618,0.002364391,0.003056644,0.004330543,-0.012838767
1.76966E+18,9.351864502,0.068626377,-0.043684243,-0.006686346,0.004950466,0.001690852,-0.01154653
1.76966E+18,9.361852295,0.054140756,-0.019814123,-0.006494623,0.006317467,-0.001282301,-0.00871692
1.76966E+18,9.371840332,0.020693235,-0.022279636,-0.010056991,0.00482706,-0.003669496,-0.00649047
1.76966E+18,9.381828369,-0.01475568,-0.047978726,-0.00229571,0.003954342,-0.007051444,-0.008164
1.76966E+18,9.391816406,0.005819491,-0.042858899,-0.001992635,0.003870186,-0.007943336,-0.013162486
1.76966E+18,9.401805176,-0.003341136,-0.071207626,-6.42974E-06,0.005236387,-0.003138728,-0.01906858
1.76966E+18,9.411793213,-0.011900875,-0.07917992,0.003436112,0.006722115,-0.000821369,-0.023452887
1.76966E+18,9.421781494,-0.008662624,-0.067262687,0.00603665,0.004235256,0.009090651,-0.028721685
1.76966E+18,9.431769531,-0.012466683,-0.056428574,-0.029401743,0.005186449,0.022584422,-0.029786648
1.76966E+18,9.441757324,-0.025164818,-0.015173604,-0.026931554,0.006657845,0.024392441,-0.028801279
1.76966E+18,9.451745361,0.002203648,0.042846624,-0.027628596,0.005751666,0.028082497,-0.024936337
1.76966E+18,9.461733398,0.005758691,0.027069793,-0.036803252,0.005762052,0.023536215,-0.019993775
1.76966E+18,9.471721436,-0.002028309,0.018895255,-0.027065702,0.004065346,0.01378101,-0.01846239
1.76966E+18,9.481709473,0.045395157,-0.002920271,-0.023714053,0.00222883,0.00682217,-0.017963845
1.76966E+18,9.49169751,0.047789341,-0.049664487,-0.024938042,0.000783381,0.004296012,-0.014610968
1.76966E+18,9.501685303,0.02242226,-0.066987378,-0.00164163,0.00013863,-0.002734999,-0.009674
1.76966E+18,9.511674316,0.022277289,-0.080905428,0.010058453,-0.000725847,-0.00436792,-0.007085475
1.76966E+18,9.521662354,0.027221166,-0.07541443,0.023659693,-0.001387909,-0.002192916,-0.007687349
1.76966E+18,9.531650391,0.022481872,-0.06517536,0.017616028,-0.001979115,-0.00191661,-0.005745571
1.76966E+18,9.541638184,-0.003421791,-0.039246553,0.021950551,-0.002321065,-0.002008755,-0.005607619
1.76966E+18,9.551626465,0.009527707,-0.006443185,0.007450608,-0.003548744,-0.00207184,-0.004398199
1.76966E+18,9.561614502,0.002138181,0.009754501,-0.00960691,-0.001964696,-0.002689427,-0.00299205
1.76966E+18,9.571602539,-0.005347206,-0.006902619,-0.028027532,-0.001515929,-0.00156326,-0.002546772
1.76966E+18,9.581590332,-0.011040449,-0.018878888,-0.038177463,-0.001199811,0.005507433,-0.001169651
1.76966E+18,9.591578125,-0.022089091,-0.02665186,-0.02964695,0.001584715,0.013031622,-0.003930226
1.76966E+18,9.601566406,-0.014445883,-0.004237784,-0.034396775,0.002906974,0.019896451,-0.004589892
1.76966E+18,9.611554199,-0.028061736,-0.00061784,-0.031359015,0.004555307,0.02737752,-0.002899693
1.76966E+18,9.621542236,-0.000307477,0.020853987,-0.009439444,0.005739881,0.030705405,0.00126336
1.76966E+18,9.631531494,0.007454992,0.018649171,-0.008241174,0.004896663,0.023891158,0.000178686
1.76966E+18,9.641519531,0.071905545,0.032435704,0.019182547,0.005983233,0.014100045,-0.000584576
1.76966E+18,9.651507324,0.082194299,-0.035310383,0.011674656,0.005298547,0.006702789,0.005093775
1.76966E+18,9.661495361,0.021740707,-0.088180388,0.039372225,0.002757625,-0.006027654,0.006613641
1.76966E+18,9.671483398,0.006856433,-0.089676764,0.013002397,0.000641961,-0.020065565,-0.001457015
1.76966E+18,9.681471436,0.045997187,-0.03552724,0.011682839,0.001553561,-0.01638481,-0.003114566
1.76966E+18,9.691459229,-0.024525388,-0.029954993,0.001401976,0.002814206,-0.004116407,0.000890665
1.76966E+18,9.701447266,-0.091420411,-0.016133389,-0.01132102,0.002257606,0.000655179,0.003711752
1.76966E+18,9.711435303,-0.047224702,0.000569909,-0.036113808,0.005039639,0.005360965,0.007188671
1.76966E+18,9.72142334,-0.021954642,-0.029403789,-0.048582245,0.008327577,0.018696211,0.006197709
1.76966E+18,9.731411377,-0.015943419,-0.025778584,-0.040731531,0.007810507,0.024881521,0.003999227
1.76966E+18,9.741399414,0.00783842,-0.042185529,-0.023352526,0.006983863,0.020434042,0.002699338
1.76966E+18,9.751388428,0.033823935,-0.080359485,-0.014178747,0.004636373,0.014523533,0.000211237
1.76966E+18,9.761376465,0.033143551,-0.103106154,-0.001511281,0.001677868,0.014599167,-0.002164569
1.76966E+18,9.771364258,0.018343466,-0.107441553,0.022000819,-0.00100439,0.01313722,-0.005588514
1.76966E+18,9.781352295,0.038094461,-0.101526192,0.054683192,-0.004218826,0.00512004,-0.008825054
1.76966E+18,9.791340332,0.042428097,-0.079116207,0.059527125,-0.007173126,0.000946698,-0.007539425
1.76966E+18,9.801328369,0.020294618,-0.05347557,0.058829498,-0.006288956,-0.001443489,-0.004453887
1.76966E+18,9.811316406,0.012306542,-0.042696401,0.055839961,-0.008837836,-0.009854564,-0.002500311
1.76966E+18,9.821304443,0.001228665,-0.068179802,0.035315936,-0.008836504,-0.010679345,-0.004326174
1.76966E+18,9.83129248,0.016041637,-0.078800565,0.02291735,-0.009591458,-0.008984385,-0.008221103
1.76966E+18,9.841280273,0.019272856,-0.083174542,0.012879648,-0.010919044,-0.004151813,-0.012501068
1.76966E+18,9.851268555,0.005016367,-0.088134795,-0.002257716,-0.010506413,0.000398003,-0.01422597
1.76966E+18,9.861256592,0.006702128,-0.05567571,-0.010378186,-0.01138712,0.006381593,-0.01252714
1.76966E+18,9.871245361,0.020739997,-0.047745502,-0.024208559,-0.012236396,0.009287458,-0.011034568
1.76966E+18,9.881233643,0.030129747,-0.042878188,-0.004945932,-0.014910742,0.011173243,-0.011021253
1.76966E+18,9.891221436,0.037277262,-0.04046119,0.013113456,-0.012549904,0.008245194,-0.010114326
1.76966E+18,9.901209473,0.025828817,-0.031156186,0.013793548,-0.014272969,0.002324987,-0.010347086
1.76966E+18,9.91119751,0.024922844,-0.031007133,0.023964521,-0.015111285,-0.007444519,-0.010231165
1.76966E+18,9.921185303,0.034187498,-0.003454524,-0.006930092,-0.01395281,-0.012587883,-0.009412509
1.76966E+18,9.931173584,0.044388592,0.007955343,-0.001366612,-0.011892477,-0.013123016,-0.010445384
1.76966E+18,9.941161621,0.02199554,-0.005133856,0.005436054,-0.012347346,-0.014591216,-0.009573199
1.76966E+18,9.951149414,0.015058435,-0.032895138,0.00208762,-0.011424138,-0.012378247,-0.011803293
1.76966E+18,9.961137451,0.02585691,-0.060024553,-0.007313538,-0.011294442,-0.004962142,-0.011977197
1.76966E+18,9.971125488,0.002899229,-0.093791798,-0.019259704,-0.01247096,-0.001843808,-0.012821736
1.76966E+18,9.981113525,-0.001987374,-0.103864864,-0.005292846,-0.011258156,-0.000680273,-0.014039867
1.76966E+18,9.991102295,0.01370702,-0.074992405,-0.014166765,-0.010016009,0.001099907,-0.01473527
1.76966E+18,10.00109033,0.004115016,-0.02890753,0.013159926,-0.009727322,0.000780061,-0.013564011
1.76966E+18,10.01107861,-0.016648371,-0.017669512,0.002422843,-0.008547389,-0.001669098,-0.009649392
1.76966E+18,10.02106665,-0.015902503,0.008126023,0.014145722,-0.00668797,-0.004249435,-0.004632529
1.76966E+18,10.03105444,0.002900416,0.004765022,-0.000851648,-0.006674438,-0.011738634,-0.002015121
1.76966E+18,10.04104248,0.016145664,-0.011705635,-0.008238836,-0.004341242,-0.014457456,0.000388648
1.76966E+18,10.05103052,-0.00254267,-0.009887188,0.000587152,-0.004925692,-0.012404573,0.001552675
1.76966E+18,10.06101831,0.002504074,-0.039193946,-0.002708674,-0.004713704,-0.009794942,0.003225673
1.76966E+18,10.07100635,0.002629161,-0.061754153,-0.013363924,-0.003284234,-0.006042665,0.003696295
1.76966E+18,10.08099438,-0.004389759,-0.051364861,-0.021096272,-0.001818164,-0.002085208,0.002844616
1.76966E+18,10.09098242,0.002108973,-0.042298342,-0.017656068,-0.002104448,0.002864323,0.001725755
1.76966E+18,10.10097046,0.02054125,0.001215806,-0.017279344,2.15534E-05,0.00607503,0.003270122
1.76966E+18,10.1109585,0.018216022,0.007352701,-0.010703765,0.000818958,-0.001110809,0.00464659
1.76966E+18,10.12094751,0.024666805,-0.00141805,-0.026750352,0.002433899,-0.009600967,0.009884762
1.76966E+18,10.1309353,-0.006373627,-0.033539282,-0.035311552,0.002280329,-0.01148868,0.007278817
1.76966E+18,10.14092334,-0.001609773,-0.053673138,-0.031634032,0.000956206,-0.010888137,0.001091761
1.76966E+18,10.15091138,0.014224925,-0.058882982,-0.026330081,0.000530695,-0.008372521,-0.002123991
1.76966E+18,10.16089941,0.010535423,-0.045946343,-0.022304771,0.001615401,0.003852187,-0.005319252
1.76966E+18,10.17088721,-0.021389994,-0.026857612,-0.024737843,0.003043388,0.016922714,0.000287235
1.76966E+18,10.18087549,-0.015791462,-0.001269582,-0.027790216,0.006855969,0.025612609,0.006306779
1.76966E+18,10.19086353,0.017273791,0.022797523,-0.02924626,0.007911592,0.023771398,0.015096395
1.76966E+18,10.20085156,0.041186581,0.007513444,-0.006794775,0.009269271,0.018800074,0.01647458
1.76966E+18,10.21083936,0.005524883,0.007305939,0.030997488,0.007033805,0.00767889,0.015432618
1.76966E+18,10.22082837,0.010685042,-0.021418051,0.023505963,0.004798614,-0.004408932,0.014578808
1.76966E+18,10.23081641,0.051081368,-0.06182488,0.005111352,0.005790547,-0.012834311,0.012008366
1.76966E+18,10.24080444,0.042097266,-0.069783146,0.002627426,0.002719657,-0.013975741,0.015638255
1.76966E+18,10.25079224,0.032604613,-0.063132456,0.004606909,0.004541889,-0.014282024,0.020750884
1.76966E+18,10.26078052,0.040274709,-0.039421325,0.009856793,0.004806607,-0.012371472,0.0241086
1.76966E+18,10.27076855,0.037492403,-0.040235564,0.022999183,0.004740409,-0.008777686,0.024956776
1.76966E+18,10.28075635,0.006000683,-0.067343936,0.022137598,0.004256512,-0.011315945,0.018953744
1.76966E+18,10.29074438,-0.020215105,-0.085772158,0.010373218,0.001822748,-0.014158888,0.007931612
1.76966E+18,10.30073267,-0.025249008,-0.074537647,-0.00264993,0.004834783,-0.018243378,0.001714197
1.76966E+18,10.3107207,-0.019879589,-0.043989948,-0.047400926,0.004020014,-0.012254801,0.001103506
1.76966E+18,10.3207085,-0.014216751,-0.015665187,-0.080384327,0.005958262,-0.000356329,0.009351316
1.76966E+18,10.33069653,-0.015755221,-0.015721301,-0.07954057,0.007887032,0.012092423,0.014909094
1.76966E+18,10.34068433,0.023877701,-0.03229425,-0.072943948,0.010701993,0.019818254,0.01343184
1.76966E+18,10.35067358,0.084815295,-0.021104163,-0.049782853,0.011079205,0.020214869,0.013210824
1.76966E+18,10.36066138,0.08233811,-0.015591537,-0.008396072,0.010971347,0.012554286,0.010437674
1.76966E+18,10.37064941,0.059179352,-0.030666941,0.029015374,0.008614721,-0.004447289,0.008827461
1.76966E+18,10.38063745,0.059922846,-0.047032385,0.047193128,0.00510281,-0.017860301,0.00627482
1.76966E+18,10.39062549,0.05662733,-0.09078794,0.040483109,0.001699454,-0.02906877,0.004692809
1.76966E+18,10.40061353,0.054090487,-0.099552261,0.022301264,0.005595126,-0.032871764,0.003558302
1.76966E+18,10.41060156,0.041690439,-0.076346742,0.005971183,0.006929644,-0.022964228,0.005151602
1.76966E+18,10.42058936,0.019839842,-0.060101125,-0.017414368,0.008308629,-0.007173547,0.006927132
1.76966E+18,10.43057739,-0.009202722,-0.038846156,-0.038108781,0.010455547,0.006911484,0.006357858
1.76966E+18,10.44056543,-0.038480254,-0.047914428,-0.033333238,0.010370059,0.015416288,0.002858997
1.76966E+18,10.45055347,-0.026208774,-0.08582418,-0.03552461,0.010215123,0.013899034,-0.000863757
1.76966E+18,10.46054126,-0.021487006,-0.079537063,-0.025576632,0.012238326,0.006386789,-0.003966339
1.76966E+18,10.47053052,-0.028014974,-0.064417819,-0.015192308,0.011121022,0.001373849,-0.004762384
1.76966E+18,10.48051855,-0.017866523,-0.039614802,-0.015777999,0.009495694,-0.001713021,-0.002016133
1.76966E+18,10.49050659,-0.021241535,-0.025633038,-0.011758242,0.010506739,0.001205342,-0.004761825
1.76966E+18,10.50049438,0.001142138,0.008255787,0.034302667,0.010105134,0.00243226,-0.003748759
1.76966E+18,10.51048242,0.026534947,-0.010981413,0.022918811,0.01094045,0.008994128,-0.006647238
1.76966E+18,10.52047046,0.032822073,-0.032438627,0.012537118,0.011914369,0.01286876,-0.008832628
1.76966E+18,10.5304585,0.049547583,-0.060159577,0.001659458,0.010093889,0.010862282,-0.011268008
1.76966E+18,10.54044629,0.03862053,-0.084476273,-0.005980243,0.010809481,0.004169759,-0.010452813
1.76966E+18,10.55043433,0.024283377,-0.076424484,0.006599252,0.012120818,0.001565941,-0.007976275
1.76966E+18,10.56042261,0.000426701,-0.052351534,-0.000463234,0.01216183,-0.000825045,-0.004683543
1.76966E+18,10.5704104,-0.021062662,-0.044852118,-0.030829438,0.013101896,0.004285308,0.002700721
1.76966E+18,10.58039941,-0.027122966,-0.017345687,-0.012242519,0.01573736,0.006294663,0.005907433
1.76966E+18,10.5903877,-0.042153381,-0.021239187,0.006436755,0.016344268,0.01348679,0.005965886
1.76966E+18,10.60037549,-0.028184476,-0.031726095,0.020211013,0.017387163,0.017756371,0.007212778
1.76966E+18,10.61036328,-0.018124836,-0.046968672,0.0324132,0.017824095,0.015420666,0.004542873
1.76966E+18,10.62035132,-0.002198953,-0.05116437,0.022836101,0.014914592,0.010381965,0.002852564
1.76966E+18,10.63033936,0.022447979,-0.064859133,0.02076251,0.012251371,-0.000216299,0.003156352
1.76966E+18,10.64032764,0.026032258,-0.03940379,0.028840018,0.011680922,-0.01013391,0.002815734
1.76966E+18,10.65031543,0.021415695,-0.034978959,0.00838029,0.011322639,-0.015085726,0.004258404
1.76966E+18,10.66030347,0.014572131,-0.031335049,0.009841887,0.009595046,-0.016723569,0.003163845
1.76966E+18,10.6702915,0.004519542,-0.041953474,-0.012369944,0.008200915,-0.013560236,0.004537587
1.76966E+18,10.68027954,-0.012248081,-0.033693595,-0.018626375,0.008899994,-0.00773324,0.004059017
1.76966E+18,10.69026758,-0.014803611,-0.053855509,-0.022651392,0.008962154,-0.003185022,0.002850767
1.76966E+18,10.70025635,-0.012854787,-0.036924248,-0.017791093,0.008414876,3.28759E-05,0.002662748
1.76966E+18,10.71024438,-0.028032501,-0.020422026,-0.003692425,0.007371251,0.00486704,0.000495744
1.76966E+18,10.72023242,-0.024230752,-0.007865911,0.003522913,0.006430356,0.006448691,0.000532762
1.76966E+18,10.73022046,-0.012725051,-0.006408698,-0.007753975,0.005722159,0.007165399,0.00181473
1.76966E+18,10.7402085,-0.00276477,-0.010981997,0.018932664,0.004308819,0.00390862,0.005396149
1.76966E+18,10.75019629,0.000801982,-0.02847966,0.014023265,0.004548118,0.002140651,0.006161382
1.76966E+18,10.76018433,0.000942249,-0.058608256,0.019126725,0.001544339,-0.003327617,0.010632829
1.76966E+18,10.77017261,0.001689287,-0.061891516,0.019058336,0.000337853,-0.00806842,0.010856702
1.76966E+18,10.78016064,0.010558785,-0.052663084,0.014485621,-0.001378022,-0.013218706,0.014230661
1.76966E+18,10.79014844,0.024102176,-0.056646016,0.017045827,-0.002200968,-0.016369943,0.014900186
1.76966E+18,10.80013623,0.031382971,-0.03490414,0.014997955,-0.001347425,-0.01402636,0.014396316
1.76966E+18,10.81012451,0.048717561,-0.022692893,0.003111702,-0.001446549,-0.008694615,0.014278725
1.76966E+18,10.82011353,0.026760563,-0.018111411,0.000203998,-0.002522466,-0.003683078,0.018969882
1.76966E+18,10.83010132,0.004416647,-0.04408581,-0.017593817,-0.002915066,-0.004194795,0.017510524
1.76966E+18,10.84008887,-0.001676391,-0.063901687,-0.0126964,-0.001170695,-0.002422461,0.01381086
1.76966E+18,10.85007715,-0.017267927,-0.065160747,-0.004338614,-0.002592801,0.002007046,0.004193182
1.76966E+18,10.86006494,-0.027681769,-0.05326105,0.016494039,-0.003887896,0.004023059,-0.001815442
1.76966E+18,10.87005298,-0.038421793,-0.052988078,0.022121815,-0.002202458,0.003256561,-0.006954486
1.76966E+18,10.88004102,-0.030419688,-0.05749708,0.023257834,-0.001578746,0.008000183,-0.010246951
1.76966E+18,10.8900293,-0.018481413,-0.054274611,0.025728608,-0.004150402,0.009461922,-0.00882565
1.76966E+18,10.90001709,-0.01334932,-0.050199909,0.023811376,-0.002353301,0.002799225,-0.006600845
1.76966E+18,10.91000488,0.033040684,-0.043006783,0.02597966,-0.004705516,-0.005413281,-0.006226367
1.76966E+18,10.91999292,0.045215106,-0.034759763,0.022430735,-0.004344923,-0.01349411,-0.003658813
1.76966E+18,10.92998218,0.036176078,-0.017422259,0.040057285,-0.005925967,-0.021778855,-0.002841609
1.76966E+18,10.93996997,0.0272364,-0.045257192,0.052685004,-0.004197309,-0.026241779,-0.001939596
1.76966E+18,10.94995801,0.027108947,-0.063047116,0.039975744,-0.005284696,-0.030152502,-0.005699245
1.76966E+18,10.95994604,0.047830257,-0.058769584,0.017811551,-0.002049488,-0.028285094,-0.002528219
1.76966E+18,10.96993384,0.037277317,-0.074239541,0.015235563,-8.16742E-05,-0.02706106,-0.000258739
1.76966E+18,10.97992212,0.011795633,-0.079157123,0.016335049,0.000143097,-0.029432604,0.003536798
1.76966E+18,10.98990991,-0.004826963,-0.057281976,0.018913667,0.0002259,-0.028318057,0.005449324
1.76966E+18,10.99989771,-0.029226076,-0.073394322,0.001086918,0.000176631,-0.028883979,0.004204562
1.76966E+18,11.00988574,-0.052407064,-0.048017304,-0.006804127,0.003057784,-0.025633175,0.001408555
1.76966E+18,11.01987402,-0.046884501,-0.031110593,-0.028899054,0.002438333,-0.02307521,-0.001928119
1.76966E+18,11.02986206,-0.050654676,-0.000979074,-0.037506724,0.004268857,-0.011340821,-0.0028506
1.76966E+18,11.03984985,-0.041325716,-0.005764555,-0.071034023,0.008116858,-9.80203E-05,-0.003291619
1.76966E+18,11.04983887,-0.0220891,-0.011694529,-0.078196462,0.009433581,0.012847172,-0.003159805
1.76966E+18,11.05982715,-0.026513895,-0.015151392,-0.073875091,0.012049071,0.023758676,-0.00354836
1.76966E+18,11.06981494,-0.001768763,-0.013639234,-0.053168696,0.011831367,0.025228089,-0.000805256
1.76966E+18,11.07980273,-0.002988076,-0.007514613,-0.031051849,0.009317609,0.023714615,-0.000746134
1.76966E+18,11.08979077,0.009274024,-0.033799978,-0.013813421,0.009169403,0.018327365,0.000162187
1.76966E+18,11.09977905,0.034841003,-0.048181555,0.002391571,0.008401347,0.008356488,0.000353934
1.76966E+18,11.10976685,0.028839141,-0.066786302,0.00565145,0.008176545,-0.00112706,-0.001789464
1.76966E+18,11.11975488,0.031667058,-0.061316931,0.026901159,0.007285985,-0.006924495,0.001113382
1.76966E+18,11.12974292,0.027011926,-0.042283729,0.024041093,0.007303617,-0.006443359,0.002385453
1.76966E+18,11.13973096,0.014434184,-0.024618893,0.000133563,0.006721982,-0.00318871,0.003356708
1.76966E+18,11.14971899,0.008771354,-0.005133856,0.012383973,0.005708099,0.001627259,0.005266067
1.76966E+18,11.15970776,-0.017644359,-0.021577626,0.020176527,0.003701673,0.003779892,0.008048272
1.76966E+18,11.1696958,-0.014469255,-0.026269583,0.009285422,0.003857653,0.001270994,0.010895221
1.76966E+18,11.17968408,0.002356792,-0.04228899,-0.008606793,0.00466459,-0.001469132,0.01014208
1.76966E+18,11.18967188,0.012569559,-0.069648706,-0.0147621,0.004140817,-0.003357204,0.009843109
1.76966E+18,11.19965991,0.030943411,-0.064570964,-0.008259879,0.001326388,-0.003289826,0.009532852
1.76966E+18,11.20964795,0.002782324,-0.074964932,-0.003545418,0.000697957,-0.001384828,0.005826207
1.76966E+18,11.21963574,-0.024053076,-0.084226097,-0.005843173,0.000639367,-0.000169361,0.002114027
1.76966E+18,11.22962402,-0.030010532,-0.075361823,0.009328093,0.000202431,0.004250621,-8.97748E-05
1.76966E+18,11.23961206,-0.035922377,-0.060596215,-0.00902531,0.001836014,0.005523879,-0.003767068
1.76966E+18,11.2496001,-0.025226796,-0.05139701,-0.017270284,0.000367874,0.007495898,-0.00369322
1.76966E+18,11.25958789,-0.017065701,-0.042039983,-0.00846943,0.00288243,0.009033607,-0.003838095
1.76966E+18,11.26957617,-0.021115269,-0.027267946,-0.011259937,0.002299771,0.009821022,-0.003087367
1.76966E+18,11.27956494,0.008173954,-0.024936288,-0.008011457,0.001405748,0.010024754,-0.003488705
1.76966E+18,11.28955298,0.010715446,-0.033392567,0.00199848,0.000418419,0.008879241,-0.001388133
1.76966E+18,11.29954077,0.008767801,-0.061052727,0.003002397,-0.00077521,0.006633397,-0.005432409
1.76966E+18,11.30952905,0.014153595,-0.070067808,-0.010350129,-0.003649839,-0.0011192,-0.009665573
1.76966E+18,11.31951709,0.012826739,-0.073746789,-0.016240064,-0.002753152,-0.006752052,-0.011813679
1.76966E+18,11.32950488,0.006242694,-0.045406829,-0.000277063,-0.00265355,-0.010875424,-0.009665573
1.76966E+18,11.33949292,-0.00817747,-0.023666122,-0.002246025,-0.002819199,-0.00911321,-0.003993573
1.76966E+18,11.3494812,-0.026268414,0.002654314,-0.007820318,-0.004523335,-0.004366477,6.37537E-05
1.76966E+18,11.35946899,-0.031692777,0.001697452,-0.008198504,-0.007308735,0.000323882,0.003265939
1.76966E+18,11.36945679,-0.016510387,-0.020845804,0.017708967,-0.00836295,0.00677582,0.004783558
1.76966E+18,11.37944482,-0.004069423,-0.044261167,0.004200959,-0.006198599,0.013246768,0.002491109
1.76966E+18,11.38943408,0.013310723,-0.044149523,0.011872224,-0.007100011,0.016411245,-0.000426013
1.76966E+18,11.39942212,0.019501979,-0.055855158,0.023434067,-0.006429427,0.017791828,-0.001493408
1.76966E+18,11.40940991,0.006594567,-0.056831894,0.0189502,-0.007705014,0.018857352,-0.000711492
1.76966E+18,11.41939795,0.015065458,-0.072954762,0.012440964,-0.006111111,0.013160584,0.002955148
1.76966E+18,11.42938623,0.035389275,-0.077082655,-0.003123393,-0.006139239,0.00765053,0.005529986
1.76966E+18,11.43937402,0.037356794,-0.055168345,0.016296763,-0.006749103,0.003865645,0.008505536
1.76966E+18,11.44936182,0.026254385,-0.052644379,-0.00589315,-0.002108709,-7.28776E-05,0.007684577
1.76966E+18,11.45934985,0.012431602,-0.059009823,0.018233868,-0.002741742,-0.000505907,0.003653617
1.76966E+18,11.46933789,0.008095619,-0.053216626,0.018337328,-0.000718513,0.001936882,0.000835252
1.76966E+18,11.47932593,-0.021393519,-0.020734745,0.010080957,-0.001449284,0.008135656,0.002088269
1.76966E+18,11.48931396,-0.04908349,-0.015202245,0.009043723,0.001125864,0.012395751,0.006308961
1.76966E+18,11.499302,-0.042028302,-0.027279052,-0.009174656,0.000566334,0.017301826,0.006843723
1.76966E+18,11.50929102,-0.020438392,-0.040806642,-0.00685878,0.001792638,0.017778598,0.009223555
1.76966E+18,11.51927905,0.011925416,-0.038000353,-0.000855156,0.003400654,0.017264875,0.005311638
1.76966E+18,11.52926709,0.050085343,-0.048483753,0.006435294,0.003098375,0.009148046,0.000275405
1.76966E+18,11.53925488,0.042967062,-0.0704571,0.007957389,0.003535399,-0.001377832,-0.003788845
1.76966E+18,11.54924268,0.019883097,-0.100701431,0.007631226,0.002238973,-0.004188266,-0.008620618
1.76966E+18,11.55923096,-0.005985486,-0.098232411,0.006122867,0.001944959,-0.004451919,-0.013306716
1.76966E+18,11.56921899,0.002905065,-0.086468323,0.015349837,0.00116584,-0.001670662,-0.015470581
1.76966E+18,11.57920703,-0.014749834,-0.092853056,0.018114626,0.000445988,0.004287628,-0.01633025
1.76966E+18,11.58919482,-0.034830499,-0.094774379,0.028294074,2.57669E-05,0.014813537,-0.016615916
1.76966E+18,11.59918286,-0.05789103,-0.078840312,0.011722002,0.002366952,0.02103335,-0.01329815
1.76966E+18,11.60917114,-0.033171617,-0.040522565,-0.00342676,0.004853169,0.024463963,-0.008481849
1.76966E+18,11.61915991,-0.012726211,0.00299509,-0.001974807,0.005983415,0.019550964,-0.000999698
1.76966E+18,11.62914771,-0.036259071,0.002609306,0.008584288,0.005237182,0.016328022,0.00172775
1.76966E+18,11.63913599,-0.033613516,-0.014898294,0.040391339,0.002596391,0.008867442,0.000258218
1.76966E+18,11.64912402,0.033085108,-0.03829086,0.02953063,0.000373439,0.003805258,-0.006352475
1.76966E+18,11.65911182,0.052580082,-0.084649291,0.028443127,-0.003005047,0.003945873,-0.009689415
1.76966E+18,11.66909985,0.052070361,-0.098458036,0.018552433,-0.00433111,-0.001456344,-0.009068105
1.76966E+18,11.67908789,0.062285465,-0.096148006,0.000670739,-0.004246422,-0.003925893,-0.002702085
1.76966E+18,11.68907617,0.032920264,-0.099058925,-0.014868776,-0.000928646,0.004425027,-0.000180407
1.76966E+18,11.69906396,0.022108956,-0.077156305,-0.01641279,-0.003350791,0.013213192,-0.000297054
1.76966E+18,11.709052,0.008225365,-0.072443305,-0.015304537,-0.003264128,0.016857535,-0.002355386
1.76966E+18,11.71904004,0.005707253,-0.049473933,-0.009836919,-0.00319675,0.020360922,-0.005625214
1.76966E+18,11.72902905,-0.007394202,-0.055361822,-0.020574001,-0.002700925,0.01995169,-0.007058408
1.76966E+18,11.73901685,-0.021821389,-0.040453006,-0.02291735,-0.003450339,0.018315446,-0.007424327
1.76966E+18,11.74900488,-0.023087455,-0.027314708,-0.032212417,-0.002598061,0.01541388,-0.007639169
1.76966E+18,11.75899292,-0.006442609,-0.032761867,-0.009855916,-0.002159438,0.018667731,-0.009633344
1.76966E+18,11.76898096,-0.00016952,-0.037595279,0.001703881,-0.003206903,0.021968596,-0.010960881
1.76966E+18,11.77896899,-0.006471826,-0.025823008,-0.002136428,-0.001267323,0.015595386,-0.011812294
1.76966E+18,11.78895703,0.016239178,-0.050552376,-0.004518646,-0.002309892,0.014471328,-0.011369235
1.76966E+18,11.79894507,0.01525719,-0.072599372,-0.013309271,-0.002498976,0.01527427,-0.009556155
1.76966E+18,11.80893311,0.01272738,-0.078076927,0.001940905,-0.003046788,0.01265372,-0.011888551
1.76966E+18,11.81892114,0.025452403,-0.085669282,0.013649171,-0.002660097,0.010616136,-0.010740195
1.76966E+18,11.82890894,0.04619124,-0.069589085,0.013458909,-0.002999542,0.010820204,-0.010892767
1.76966E+18,11.83889746,0.02435352,-0.050180035,0.002997428,-0.001878351,0.0098873,-0.010253343
1.76966E+18,11.84888672,0.025972646,-0.018623452,0.023438451,-0.00152524,0.008743219,-0.005887246
1.76966E+18,11.85887476,-0.005316829,-0.009706571,0.022280513,-0.002640571,0.005763675,-0.005886979
1.76966E+18,11.86886255,0.003791209,-0.025208091,0.005172726,-0.003740059,-6.00633E-06,-0.005719818
1.76966E+18,11.87885059,0.016425047,-0.039510757,0.000630991,-0.003227933,-0.006583481,-0.008256212
1.76966E+18,11.88883862,0.010747038,-0.029393268,-0.003541618,-0.001779167,-0.007262542,-0.007859735
1.76966E+18,11.89882642,0.008332944,-0.033419455,-0.01747399,-0.000942668,-0.005218832,-0.006607782
1.76966E+18,11.90881445,0.008040683,-0.035956864,-0.011321897,-0.000754421,0.004694175,-0.005803793
1.76966E+18,11.91880249,0.002443301,-0.034029111,-0.019770284,-0.00053178,0.009015154,-0.003440503
1.76966E+18,11.92879077,-0.0017629,-0.032527474,0.006296178,0.001531361,0.009148533,-0.007845835
1.76966E+18,11.93877856,0.018558588,-0.015436639,0.000420856,-0.001641795,0.007499503,-0.006964595
1.76966E+18,11.9487666,0.009675025,-0.034271687,-0.008419453,0.000686436,0.000727064,-0.006971889
1.76966E+18,11.95875562,0.012645547,-0.03050269,-0.022835224,9.33498E-05,-0.004601655,-0.004621649
1.76966E+18,11.96874365,0.01112579,-0.019123218,-0.011487024,-5.36876E-05,-0.010315497,-0.000807024
1.76966E+18,11.97873145,0.004504307,-0.019115035,-0.009288345,0.000261897,-0.011634295,0.003277999
1.76966E+18,11.98871948,-0.006664755,-0.028802316,-0.020199031,0.001948965,-0.005383979,0.00757932
1.76966E+18,11.99870752,-0.005429076,-0.036387657,-0.016162323,0.002451237,0.001495499,0.007845636
1.76966E+18,12.00869531,0.007934264,-0.021048049,-0.013534897,0.002464299,0.003815958,0.006230356
1.76966E+18,12.01868359,0.016834212,-0.03898761,-0.00221563,-9.97927E-05,0.005990962,0.003968534
1.76966E+18,12.02867163,0.015775077,-0.05187924,-0.012031506,-0.000330359,0.00434417,0.001787248
1.76966E+18,12.03865967,-0.000140304,-0.050233811,-0.013974165,0.000886972,-0.00144714,-0.000279365
1.76966E+18,12.04864746,-0.006536142,-0.044961424,-0.017056933,0.00162679,-0.004081363,0.001048884
1.76966E+18,12.05863574,-0.002615169,-0.031427404,-0.001080781,0.003573028,-0.001765212,0.004099535
1.76966E+18,12.06862378,-0.001835417,-0.044139586,-0.020644436,0.004989496,0.003068095,0.004302566
1.76966E+18,12.07861255,0.002521646,-0.016873393,-0.01077946,0.00564197,0.007670304,0.002493748
1.76966E+18,12.08860034,0.008954875,-0.020548283,-0.01012275,0.007110089,0.00879172,0.00125837
1.76966E+18,12.09858862,0.020251345,-0.028695933,-0.016086627,0.006148422,0.009505448,0.001806981
1.76966E+18,12.10857666,0.022619828,-0.041969841,-0.000407996,0.003910896,0.007803103,0.000187324
1.76966E+18,12.11856445,0.032735546,-0.065030983,0.011537293,0.003443245,0.002029637,-0.001508577
1.76966E+18,12.12855249,0.03631282,-0.074450553,0.012794015,0.002934856,-0.000653452,-0.004447444
1.76966E+18,12.13854077,0.03170096,-0.070288173,0.008156711,0.002864283,-0.007159555,-0.004985403
1.76966E+18,12.14852881,0.01839726,-0.058668462,0.004025895,0.00335922,-0.007950396,-0.003207524
1.76966E+18,12.1585166,0.007071564,-0.04311375,-0.018031624,0.003309419,-0.003168956,0.000950736
1.76966E+18,12.16850464,-0.026292945,-0.028610593,-0.014203297,0.005972857,-0.000302169,0.003702871
1.76966E+18,12.17849243,-0.039701896,-0.028541035,-0.010734745,0.006504423,0.006533633,0.005100764
1.76966E+18,12.18848169,-0.03077157,-0.021819618,0.001106208,0.009164827,0.008699913,0.004741544
1.76966E+18,12.19846948,-0.017804537,-0.028335283,0.006171382,0.00881835,0.010353203,0.00180461
1.76966E+18,12.20845752,-0.027988077,-0.046242111,0.02400836,0.008306718,0.008493707,0.001655722
