time,seconds_elapsed,z,y,x
1769666736275412000,0.054411865234375,-0.05041033681035041,-0.02750000134408474,-0.053332069475948804
1769666736285400800,0.06440087890625,-0.07790040128231047,-0.03934650648236274,-0.0026066753670573235
1769666736295390000,0.074389892578125,-0.05205985758304596,-0.051772272813320155,0.06127046125978231
1769666736305377800,0.084377685546875,-0.05650397751033306,0.006351414853334426,0.09350596669316291
1769666736315366700,0.09436669921875,0.015199322697520255,0.018393150302767752,0.06089256785809993
1769666736325354800,0.104354736328125,0.05586451056301593,0.004862637600302696,0.02165975088328123
1769666736335343900,0.11434375,0.09357727836370468,0.021750644037127495,-0.00686930124759674
1769666736345332700,0.124332763671875,-0.043480829808115955,-0.004352349990606308,-0.01733458116054535
1769666736355320600,0.134320556640625,-0.17111059989929198,-0.012371990317106247,-0.007914426386356354
1769666736365309700,0.144309814453125,-0.20351824702918528,-0.008660276317596435,0.021920155385136603
1769666736375297800,0.1542978515625,-0.1911860042005777,0.013435820156335829,0.02633972539305687
1769666736385287000,0.164286865234375,-0.011254968985915183,0.012564882540702819,0.03315817323625087
1769666736395275800,0.17427587890625,0.15818623639643192,-0.020890227815508842,-0.002377250525355339
1769666736405264000,0.184263916015625,0.11813771912455558,-0.04131809881627559,-0.030977614326775073
1769666736415252700,0.194252685546875,0.01568798299729824,-0.08925766159892082,-0.06582856295555829
1769666736425240800,0.20424072265625,-0.014608955588936805,-0.07912088298797607,-0.06334989788234234
1769666736435229700,0.214229736328125,0.031214053431153296,-0.001727262184023857,-0.05354337413907051
1769666736445218800,0.22421875,0.011720248410105705,0.021300562182068824,-0.08351473403275013
1769666736455207000,0.23420703125,0.05318915387392044,0.08683481836616992,-0.08573504043072462
1769666736465195800,0.24419580078125,0.19194705170094967,0.07722352493405342,-0.10119301406443118
1769666736475183600,0.25418359375,0.09658639705181121,0.08136077086925506,-0.06966273429095744
1769666736485172700,0.2641728515625,0.015431962409615516,0.04989303493797779,-0.06225567290484905
1769666736495161900,0.274161865234375,-0.015451251631975173,0.03542553364634514,-0.09966711967140436
1769666736505150000,0.28414990234375,-0.029638182416558263,0.02218377475738525,-0.09388239879012107
1769666736515138800,0.294138916015625,-0.09760580322742461,-0.02518763274848461,-0.0367471376389265
1769666736525126700,0.304126708984375,-0.2015869867056608,-0.05513619628846645,0.007313537883758545
1769666736535115800,0.31411572265625,-0.2525853525370359,0.03707563894093036,-0.05803454807847738
1769666736545104600,0.324104736328125,-0.04666530506312847,0.1709130315005779,-0.09918576589524745
1769666736555092700,0.3340927734375,0.2458814709842205,0.1249906537592411,-0.05073854585140943
1769666736565081900,0.344081787109375,0.3117465665578842,0.0048012628018856045,-0.006403729562461376
1769666736575070000,0.354070068359375,0.11892273202240466,-0.06360650299191474,-0.023186814320087432
1769666736585058800,0.364058837890625,-0.10219546910524367,-0.02368307340443134,0.01215221008658409
1769666736595047700,0.374047607421875,-0.17474866414070128,-0.024450550645589826,0.01391162097454071
1769666736605035800,0.384035888671875,-0.19949381381869316,-0.00007949497699737548,0.044592005920410155
1769666736615025000,0.39402490234375,-0.012490063738822936,-0.0062134676873683925,-0.0018710545688867567
1769666736625013000,0.404012939453125,0.06692483375966549,0.014630582898855209,0.006370996336638927
1769666736635001900,0.414001953125,-0.002412321838736534,-0.008283844220638275,0.019394728560745714
1769666736644990700,0.42399072265625,-0.08733283101618289,0.028397242444753647,-0.02454495093077421
1769666736654978800,0.433978759765625,-0.1493774915188551,0.05575052879452705,0.003090367230772972
1769666736664967700,0.4439677734375,-0.2062456261664629,0.0692985771536827,-0.004575052830576897
1769666736674955800,0.453955810546875,-0.1652928535312414,0.03492342934310436,-0.007563713252544403
1769666736684945000,0.46394482421875,-0.06548281825780868,-0.01492635097503662,0.039250644892454147
1769666736694934000,0.47393408203125,-0.12211539058387279,-0.0011064999371767042,0.04866553896963596
1769666736704921600,0.483921630859375,-0.1919014589935541,0.04833645314574241,0.009970482133328915
1769666736714910700,0.49391064453125,-0.2901251018583774,0.03852466870546341,-0.09827683435678482
1769666736724898800,0.50389892578125,-0.3646656713187694,0.035687983974814416,-0.1345905490145087
1769666736734888000,0.513887939453125,-0.508404280167818,0.004273439535498619,-0.13540420348495244
1769666736744876800,0.523876708984375,-0.5131950215756893,-0.04522796573638916,-0.07839958297610282
1769666736754864600,0.53386474609375,-0.38665538480877876,0.08834639197289944,-0.007932254303991795
1769666736764853800,0.543853759765625,-0.22667758882045744,0.13666764754951,-0.0328019071444869
1769666736774841900,0.553841796875,-0.03455693411827087,0.1839759266912937,-0.1190849368467927
1769666736784830700,0.563830810546875,-0.030940497186779974,0.1720870437160134,0.0858186270609498
1769666736794819800,0.57381982421875,-0.19417408010065554,0.2807473249211907,-0.10396452460438012
1769666736804808000,0.583807861328125,-0.03694119890630245,0.19444062208235263,-0.1128539335027337
1769666736814796800,0.593796875,-0.2045195330262184,0.12357961791753769,-0.024590835899114608
1769666736824784600,0.60378466796875,-0.399271705275774,0.19416034383624792,0.004943593882024288
1769666736834773800,0.613773681640625,-0.22590485088229179,0.14475772276371718,-0.020661387495696543
1769666736844763000,0.623762939453125,-0.6481862603455781,0.18685002082288263,0.11273965947329997
1769666736854751000,0.6337509765625,-0.8065215498238801,0.38224838202148675,0.15165449654012916
1769666736864739800,0.64373974609375,-0.7163292377233504,0.1922720458716154,0.2166331646680832
1769666736874727700,0.653727783203125,-0.6154623868733644,-0.01917845546156168,0.4414645410999655
1769666736884716800,0.663716796875,-1.1882973458975552,-0.006476502537727356,0.3897776084825396
1769666736894705700,0.67370556640625,-0.10791209318637847,0.11653846723437308,-0.09148907391279935
1769666736904693800,0.68369384765625,0.13891454969346523,0.3897840382233262,-0.1385316878557205
1769666736914683000,0.693682861328125,-0.027108956199884415,0.669078241726756,-0.08558627960979938
1769666736924670700,0.703670654296875,-0.135102882450819,0.2723997678145766,-0.28043635927587746
1769666736934659800,0.713659912109375,0.44414428170323367,-0.2277311895266175,-0.12533932106643914
1769666736944648700,0.723648681640625,0.8859352782785892,-0.3067603025779128,-0.26390812606215475
1769666736954636800,0.73363671875,1.4428186349332333,-0.1718985354065895,-0.07987813109606504
1769666736964626000,0.7436259765625,2.8307103324145078,-0.4433298965804279,-0.03537000406682491
1769666736974614000,0.753614013671875,2.254089425110817,-0.3919578751310706,-0.4681666700646281
1769666736984602600,0.7636025390625,0.21355507239699362,0.16724077272862195,-0.17991554538458585
1769666736994591700,0.773591796875,-0.5064560687094927,0.52287295050323,0.17230302455425262
1769666737004579800,0.783579833984375,-0.08805003937482833,0.5066932384662329,0.20701456471234558
1769666737014568700,0.793568603515625,0.1676151589989662,0.3014763708256185,0.09461655828356742
1769666737024556800,0.803556884765625,-0.14783786086142062,0.03537614154666662,0.2269324403643608
1769666737034546000,0.8135458984375,-0.28495792835354805,-0.07814151656180619,0.16842063016295433
1769666737044534800,0.82353466796875,-0.23083763110935687,-0.032197219249606134,0.20739567298442124
1769666737054523000,0.83352294921875,-0.006588146218657494,-0.008886486288905144,0.03375263199806213
1769666737064511700,0.84351171875,0.11025018074512481,0.06508022880628704,-0.1192395428866148
1769666737074499800,0.853499755859375,0.15021511138677596,0.09794541044533252,-0.2778521880015731
1769666737084489000,0.863489013671875,-0.06523498097658156,0.03607128420397639,-0.14579992529302835
1769666737094477800,0.873477783203125,0.0717079763829708,-0.2034421130530536,-0.21305150678902862
1769666737104465700,0.883465576171875,0.08659808700084685,-0.29086364526599645,-0.1604363534107804
1769666737114454800,0.893454833984375,0.1911526864528656,-0.0037767420597374438,-0.26362609425038097
1769666737124443000,0.90344287109375,-0.031197102296352384,0.23489684337228536,-0.2367164600148797
1769666737134431700,0.913431640625,0.0048538697719573975,0.139134549119696,-0.18035364454090594
1769666737144420900,0.9234208984375,-0.1506020648777485,-0.1066532522317022,-0.03275631443709135
1769666737154408700,0.93340869140625,0.32320904081463814,-0.19107618715055286,-0.046100364656746384
1769666737164397800,0.943397705078125,-0.22034137153625488,0.20102920669242738,-0.21958090855777262
1769666737174385700,0.9533857421875,0.10864625267982482,0.0563544129718095,0.2563546419426799
1769666737184374800,0.963374755859375,0.18832593859434127,-0.2685711494371295,0.05189940632432699
1769666737194364000,0.973364013671875,-0.23617256239652631,0.1249724605154246,0.01064560491591692
1769666737204352000,0.98335205078125,0.08993687603473663,-0.03957498147599399,-0.042379882828891276
1769666737214340600,0.993340576171875,0.22836451899409294,0.12423830102197825,0.04052168774157762
1769666737224328700,1.00332861328125,-0.04789397007524967,0.025532573728635904,0.10005436542332172
1769666737234317800,1.01331787109375,0.18225626329183578,-0.31219189917258916,0.1284498543024063
1769666737244306700,1.023306640625,0.42012569273412226,-0.2226983829911798,-0.14510814363658428
1769666737254294800,1.033294677734375,-0.3713964408785105,0.35929223465211685,-0.42393589867204423
1769666737264283600,1.04328369140625,-0.19542378790080547,-0.003860109494253993,0.1751996227785945
1769666737274271700,1.053271728515625,0.3154313925504684,0.07545227747783065,0.3976569635555148
1769666737284260900,1.0632607421875,-0.12327332844734191,0.1848851504907012,0.11208207234740257
1769666737294249700,1.073249755859375,-0.011655366480350494,-0.16984467161670327,-0.03874006502181292
1769666737304237800,1.08323779296875,0.05575754305720329,-0.13444441854208708,-0.10218202510178089
1769666737314227000,1.09322705078125,-0.10008066890835761,0.0645992403563112,-0.013661153344810007
1769666737324214800,1.10321484375,-0.1515945830464363,0.1308721130132675,-0.03286152837723493
1769666737334203600,1.11320361328125,0.04898059626817703,0.00778626996204257,-0.02762888842076063
1769666737344192800,1.12319287109375,0.14447043025493622,-0.010880655780807137,-0.0289700738966465
1769666737354180900,1.133180908203125,-0.0012590601503849029,0.04424677267931401,-0.05486848526298999
1769666737364169700,1.143169677734375,-0.11836568266153334,0.06190042972639203,0.04911591308563947
1769666737374157600,1.153157470703125,-0.18074118255376814,0.1017554702527821,0.048562663117051125
1769666737384146700,1.163146728515625,-0.12178513571619987,0.11399565088376402,0.0434177014440298
1769666737394135800,1.1731357421875,-0.08135141851902007,0.1535956206705421,0.04529810836315155
1769666737404124000,1.1831240234375,-0.11508183868527412,0.01017689142562449,0.061468906441330906
1769666737414112800,1.19311279296875,-0.2803846290886402,-0.08082103796936571,0.0652946022093296
1769666737424100600,1.2031005859375,-0.12070377022027969,-0.05967252454385161,0.12882803996503353
1769666737434089700,1.21308984375,0.09552256721258164,-0.024373905212804674,0.02262742687165737
1769666737444078600,1.22307861328125,-0.16698270631432532,0.19455211963281036,0.006122282272577285
1769666737454066700,1.233066650390625,-0.28680852465629575,0.1601317444410175,0.03179652949422598
1769666737464055800,1.243055908203125,0.0822831464111805,0.03342646878361702,0.02467909870445728
1769666737474044000,1.2530439453125,-0.052448564639687535,-0.08478636140376329,-0.052452948553860186
1769666737484032800,1.26303271484375,-0.048311903226375574,0.021021891371160745,-0.13272417062073946
1769666737494021600,1.273021728515625,0.26434885556697846,-0.24870646527707577,-0.09342091875821351
1769666737504009700,1.283009765625,0.22810616031885145,-0.08410371290184557,-0.2642640998929739
1769666737513998800,1.292998779296875,0.21549977672398088,-0.1441625333495438,-0.11886486435532569
1769666737523987000,1.302987060546875,0.26579496272206304,-0.23106785966865717,-0.07213058570921421
1769666737533975800,1.312975830078125,0.4105857109725475,-0.1566319926917553,-0.08712064957022667
1769666737543965000,1.32296484375,0.4692752158284187,-0.03273359114862978,-0.15074907213300465
1769666737553952800,1.332952880859375,0.4899456634134054,-0.03581928220428526,-0.049565994940698146
1769666737563941600,1.342941650390625,0.28564591061770916,-0.030658319244533775,-0.028285306502878665
1769666737573929700,1.3529296875,0.04851297875642776,0.022115824087709186,0.0026850013002753257
1769666737583918800,1.3629189453125,-0.05938391686081886,0.006709799836948514,0.03696194943338632
1769666737593907700,1.37290771484375,-0.09671148473620414,-0.008317746490240096,0.07650017909556626
1769666737603895600,1.3828955078125,-0.05300619852244853,-0.028566826857998967,0.0908028452143073
1769666737613884700,1.392884765625,-0.03666413553059101,-0.01174370235092938,0.07491875512301921
1769666737623872800,1.402872802734375,0.03348082931935787,-0.03058846887871623,0.0759454678222537
1769666737633862000,1.41286181640625,0.06758709706068039,-0.006368292922899126,0.0449123239159584
1769666737643850800,1.422850830078125,0.01301145726442337,-0.01952938779108226,0.06847323224544524
1769666737653838600,1.432838623046875,0.02613397368788719,-0.03509579023532569,0.08191986605674027
1769666737663827700,1.44282763671875,0.059526540201902386,-0.02160750923939049,0.08418868777155876
1769666737673815800,1.45281591796875,0.0917114844918251,0.0012215776842087506,0.06963759984970093
1769666737683804700,1.4628046875,0.13605097695589063,-0.010108210103586316,0.024837504136562345
1769666737693793800,1.472793701171875,0.16479425635933875,-0.03850158009082079,-0.01350508600026369
1769666737703782000,1.482781982421875,0.1572375573694706,-0.041682329018786546,-0.022174130146205423
1769666737713770800,1.492770751953125,0.26159108129143716,-0.052851007960736746,-0.05051262814104557
1769666737723758600,1.502758544921875,0.24484336010813712,-0.049475394047796724,-0.05265957704186439
1769666737733747700,1.512747802734375,0.15387538745999335,-0.03386697909273207,-0.026432664373517035
1769666737743736800,1.52273681640625,0.07513911987543105,-0.0161379917871207,0.005054360780119896
1769666737753725000,1.532724853515625,-0.027887539356946944,0.01236599896773696,0.01315174251794815
1769666737763713800,1.5427138671875,-0.06318330914378166,0.03118146633580327,0.014385083705186843
1769666737773701600,1.55270166015625,-0.02284428449273109,0.037503362833708524,-0.007764204260706901
1769666737783690800,1.562690673828125,0.033111996006965634,0.011266805554181338,-0.014692249958217144
1769666737793678800,1.572678955078125,-0.0006675239980220794,-0.01507905731871724,-0.01927723966091871
1769666737803667700,1.582667724609375,-0.06170563780665397,-0.013085399283468722,0.0006306991189718247
1769666737813656800,1.59265673828125,-0.12154080556631087,0.015053484486043453,-0.018999007241427897
1769666737823644700,1.602644775390625,-0.12456629086732864,0.029712855087965725,-0.008547755853831768
1769666737833633500,1.612633544921875,-0.057223523956537244,0.00828866652622819,-0.001211129355430603
1769666737843622700,1.62262255859375,0.03429039213657379,-0.007483341492712498,-0.014780512763559817
1769666737853610800,1.63261083984375,0.09334346960783005,-0.07633782814070582,-0.04392272835671902
1769666737863599900,1.642599853515625,0.15325988591015338,-0.09101268857270478,-0.08596125040203333
1769666737873588000,1.652587890625,0.1584866806477308,-0.0825005885541439,-0.12705401602983474
1769666737883576800,1.662576904296875,0.11741057389378547,-0.04582695454284549,-0.10664689555615187
1769666737893564700,1.672564697265625,0.10020224946141243,-0.0014719722487032412,-0.039053661015629765
1769666737903553800,1.6825537109375,0.1358387955099344,-0.03217734550535679,-0.03159428492039442
1769666737913542700,1.692542724609375,0.14584522573947906,-0.05861366314068436,-0.03802957866489887
1769666737923530800,1.70253076171875,0.09121639445126056,-0.06820610574185848,-0.017765666054189205
1769666737933520000,1.712519775390625,-0.03977613007128238,-0.016511574339866636,-0.019407880303263663
1769666737943507700,1.7225078125,-0.13159049041569232,-0.005394844780862331,-0.002618658065795898
1769666737953496600,1.73249658203125,0.0005804302364587784,-0.04037336531206965,0.005105798706412315
1769666737963485700,1.742485595703125,0.042863574692606925,-0.04014043333902955,0.005038286428153515
1769666737973473800,1.752473876953125,0.07307400403916835,-0.02971855417639017,0.01144201599061489
1769666737983463000,1.762462890625,0.20988193684220313,-0.0748633716739714,-0.027171207781136034
1769666737993450800,1.77245068359375,0.23875965628027915,-0.10581731286421417,-0.051551908060908314
1769666738003439600,1.782439697265625,0.27677462189793584,-0.0726429191455245,-0.06484247452765703
1769666738013428700,1.7924287109375,0.19807225658297536,-0.051168607831746336,-0.1297939623877406
1769666738023416800,1.802416748046875,0.042351533517241476,-0.06774360279664397,-0.0848518278554082
1769666738033405700,1.81240576171875,-0.024921675288677215,-0.04695493565946817,-0.015756664319336415
1769666738043393800,1.822393798828125,-0.011824877828359602,-0.06515738569572567,0.02783843951821327
1769666738053382700,1.832382568359375,-0.016267244189977645,-0.05247793686464428,0.017710428735613824
1769666738063371800,1.842371826171875,-0.12378653866648673,-0.040002340042591095,-0.008762275387346745
1769666738073359600,1.852359619140625,-0.10667466034591197,-0.053241614713519805,-0.00965220996439457
1769666738083348700,1.8623486328125,-0.12564181114435194,-0.03128857997208834,-0.020215689554810522
1769666738093336800,1.8723369140625,-0.09669687168896197,0.005435907443612813,-0.00038140053302049634
1769666738103326000,1.882325927734375,-0.08565116153955459,-0.014485767600685357,0.0633645109295845
1769666738113314800,1.892314697265625,-0.1653062975347042,0.0022056933507323263,0.1092341355703771
1769666738123302700,1.902302734375,-0.193209034460783,0.026900135754793882,0.16786387306302786
1769666738133291800,1.912291748046875,-0.1349894852042198,0.05958104686811566,0.15679419751614332
1769666738143279900,1.92227978515625,-0.08292144431471825,0.07112038575336337,0.07150164015591144
1769666738153268700,1.932268798828125,-0.020743512821197508,0.05932707210704684,0.07050123094171286
1769666738163257900,1.9422578125,-0.019973112970590592,0.05697393310964107,0.11331453675180674
1769666738173245700,1.95224560546875,-0.044153614503145214,0.12503668485805391,0.14158756829500196
1769666738183234800,1.96223486328125,-0.053764323413372034,0.0986838077224791,0.12829261791408061
1769666738193222700,1.97222265625,0.05087444719076156,0.07131868480443954,0.06530863073468209
1769666738203211800,1.982211669921875,0.19775427667498588,0.05399754764735698,-0.017343056727945803
1769666738213201000,1.992200927734375,0.23624913476407527,0.01698605998381972,-0.08087532543987035
1769666738223188700,2.002188720703125,0.24509353547692297,0.045634354580193756,-0.10790683248937129
1769666738233177600,2.012177490234375,0.450266563975811,-0.011725362976640463,-0.11305208642333746
1769666738243165700,2.022165771484375,0.42699382493793964,-0.07513210561275482,-0.16516162836700676
1769666738253154800,2.03215478515625,0.23362112434804438,-0.06671937431544066,-0.1472714591503143
1769666738263143400,2.042143310546875,0.09123334558606147,-0.0528966006681323,-0.0935153190433979
1769666738273131500,2.052131591796875,-0.0963338835954666,-0.027567952013760805,-0.04409808492362499
1769666738283120600,2.06212060546875,-0.21028174981474876,-0.03698416126519442,-0.03127747405618429
1769666738293108700,2.072108642578125,-0.08773439755439758,-0.061706806850433345,-0.034788697047531604
1769666738303097600,2.08209765625,-0.04565174410641193,-0.04517798911482095,-0.0001458382114768028
1769666738313086500,2.09208642578125,-0.05894318735599517,-0.05842793131023645,-0.00279635272026062
1769666738323074600,2.102074462890625,-0.16567045467197894,-0.05133958048447966,0.004442366361618042
1769666738333063700,2.112063720703125,-0.20911738221049309,-0.012953443466871975,0.04054273052960634
1769666738343051800,2.1220517578125,-0.14370938275456427,-0.0023905483983457086,0.09632131637483834
1769666738353040600,2.13204052734375,-0.1293523561000824,0.02523293319493532,0.0846419844970107
1769666738363029800,2.14202978515625,-0.06220365045666694,0.04722556929439306,0.049959378172457214
1769666738373017600,2.152017578125,0.04561258113980293,0.037817104957997796,0.051370998536050316
1769666738383006500,2.16200634765625,0.1283931556791067,0.02709258958697319,-0.006174889242649078
1769666738392994600,2.17199462890625,0.17263269490003585,0.013226269058883189,-0.0037882863670587537
1769666738402983700,2.181983642578125,0.16970073310136793,0.0005022504337131977,-0.011355214489996433
1769666738412971800,2.1919716796875,0.1684954489648342,0.0209824361436069,-0.043128363108634944
1769666738422960600,2.201960693359375,0.22313947782218455,0.027128537683188913,-0.052042906448245045
1769666738432949500,2.211949462890625,0.23417700466513633,0.023502017749100924,-0.04678659335523844
1769666738442937600,2.2219375,0.10482932474017143,0.02365457796230912,-0.04989449624270201
1769666738452926700,2.2319267578125,-0.01673719978928566,0.004038607866317033,-0.02892828058153391
1769666738462914800,2.241914794921875,-0.0952145241767168,-0.0052127662122249604,-0.015365326914191246
1769666738472903700,2.251903564453125,-0.05975567278265953,-0.017516659729182718,-0.01378565650731325
1769666738482892500,2.261892578125,-0.027236381971836088,0.005087240136414766,0.01590367157459259
1769666738492880600,2.271880615234375,-0.08528641988039017,-0.00321092487052083,0.01373597214668989
1769666738502869500,2.281869384765625,-0.11437164458930492,0.014524492175877094,0.020681845761835575
1769666738512857600,2.291857666015625,-0.06177753399908542,0.0017890753738582133,0.008697101196646689
1769666738522846700,2.3018466796875,-0.03132043641507625,0.007188157938420772,0.025569910064339636
1769666738532835800,2.3118359375,-0.009040215545892715,0.00531841854378581,0.016825462594628332
1769666738542823700,2.32182373046875,0.047454409614205356,-0.010104922167956828,-0.013259879067540168
1769666738552812500,2.3318125,0.09400164125561714,-0.023082477162778375,-0.036110885562002655
1769666738562800600,2.341800537109375,0.11562544404268264,-0.027263708370178937,-0.035574002206325527
1769666738572789800,2.351789794921875,0.1630184788584709,-0.017108809580653906,-0.02831511711925268
1769666738582778600,2.361778564453125,0.1836801586151123,-0.00636953503191471,-0.0186547238484025
1769666738592766500,2.371766357421875,0.14567103821635247,-0.013051058622449636,-0.01103723458200693
1769666738602755600,2.381755615234375,0.0934627120733261,0.012063216628879308,-0.024999124439060688
1769666738612743700,2.39174365234375,0.07115384963154793,0.015469956332445144,-0.03239566443115473
1769666738622732500,2.401732666015625,0.03281038271188736,0.025844196961075067,-0.020009645588696
1769666738632721700,2.4117216796875,0.021669980016350746,-0.0057183776468038554,0.013833587302267551
1769666738642709800,2.421709716796875,0.027673604345321654,0.009393559028208254,0.01359656367599964
1769666738652698600,2.43169873046875,-0.02242225968837738,-0.016358721865713594,0.02567570852637291
1769666738662686500,2.4416865234375,-0.09256254836320876,0.02115560075342655,0.03331774771213531
1769666738672675600,2.451675537109375,-0.06424304732978343,0.02620119370520115,0.018679273767769334
1769666738682664700,2.461664794921875,-0.050149640047550195,0.007300970663130283,0.017745207788050173
1769666738692652800,2.47165283203125,0.05731354032754898,-0.004630290149152279,0.019000468546152113
1769666738702641700,2.4816416015625,0.1297486619412899,-0.029129648372530934,0.012640578125417232
1769666738712629500,2.49162939453125,0.08129588893949985,-0.03317512437105179,0.011487024176120757
1769666738722618600,2.50161865234375,0.03788753984570503,-0.024249913506954907,0.04445405875444412
1769666738732607500,2.511607421875,0.057795186364650725,0.01722571395859122,0.02700023512840271
1769666738742595600,2.521595703125,-0.021885668593645095,0.05188873879984021,0.007176759761571884
1769666738752584700,2.531584716796875,-0.0633510669261217,0.006720540426671504,0.005999240414798259
1769666738762572500,2.541572509765625,-0.027810382467508315,0.02402837971076369,0.019446166487038133
1769666738772561700,2.551561767578125,0.020648820275068282,0.006605389614403248,0.0319938056319952
1769666738782550500,2.561550537109375,0.07439853064119815,-0.020144962406158446,0.01288724636286497
1769666738792538600,2.57153857421875,0.10931845285296439,-0.020688421633094548,-0.028943185889720915
1769666738802527700,2.58152783203125,0.11997194881439208,-0.022754706513136623,-0.036599545861780644
1769666738812515800,2.591515869140625,0.07994856598377227,0.005635667799413204,-0.009026187020540238
1769666738822504400,2.60150439453125,0.02253331884741783,0.043403380657732485,-0.008357786239683628
1769666738832493600,2.61149365234375,0.017891045999526976,0.03597293839603662,-0.011288871255517006
1769666738842481700,2.621481689453125,0.04368775055706501,0.013924772717058657,-0.012227321149408816
1769666738852470500,2.631470458984375,0.02388005728125572,0.009477584049850702,-0.03429477605074644
1769666738862458600,2.641458740234375,-0.01492459740936756,-0.038104689727723594,-0.019803893883526325
1769666738872447700,2.65144775390625,0.02360825460255146,-0.028339520908147096,-0.03058832274824381
1769666738882436600,2.6614365234375,0.03599661153256893,0.009353811539709567,-0.022378420546650884
1769666738892424700,2.6714248046875,-0.030447160711884497,0.007344079152494669,-0.0019672084197402
1769666738902413600,2.68141357421875,-0.07442834125757217,0.003537964867800474,0.009821429051458835
1769666738912401700,2.691401611328125,-0.002305354332923889,-0.032018209420889614,0.0005111643925309181
1769666738922390800,2.701390869140625,0.016004209339618682,-0.02968669773340225,-0.007544716291129588
1769666738932379600,2.711379638671875,-0.004443535405397415,-0.0257904209472239,-0.010839666183292865
1769666738942367500,2.721367431640625,-0.01513502528965473,-0.0034191607937216757,0.015721008484065532
1769666738952356600,2.731356689453125,-0.056472413328289985,0.01840177200064063,0.03726590081602335
1769666738962344700,2.7413447265625,-0.07894318833351134,0.012980769865214825,0.04575958839505911
1769666738972333600,2.75133349609375,-0.01609305666685104,0.002682224821299314,0.005476677845418453
1769666738982322700,2.76132275390625,0.06495733307898044,0.002289718372374773,-0.007684709283709526
1769666738992310500,2.771310546875,0.10681202298998832,0.029484014768153426,-0.012862988704442977
1769666739002299600,2.781299560546875,0.09311550607085227,0.027863720089942215,-0.03946574894785881
1769666739012287700,2.791287841796875,0.03984042747914791,0.01777954844906926,0.014343582651019095
1769666739022276600,2.801276611328125,0.04658054938912391,0.01150412144139409,0.022554069374501703
1769666739032265700,2.811265625,0.06751929252147675,-0.013687749090790747,0.004079670529067516
1769666739042253800,2.82125390625,0.08739479033648967,-0.009572861117869615,-0.021275720001757144
1769666739052242400,2.831242431640625,0.05599602798819542,-0.009980419005453586,-0.014209434877336025
1769666739062230500,2.84123046875,0.004908814829587936,-0.001993219643831253,-0.019611293920874594
1769666739072219600,2.8512197265625,0.02899520833790302,-0.0010543313585221767,-0.031172260116040705
1769666739082208500,2.86120849609375,0.040762218499183656,0.007904197253286838,-0.03261047622561455
1769666739092196600,2.871196533203125,0.019510171633958816,0.007369505854696035,-0.003996376159787178
1769666739102185700,2.881185791015625,-0.005817161846160888,-0.022782032911479472,0.013862228874862194
1769666739112173600,2.891173583984375,0.00782441001534462,-0.017912965570390224,0.013898176971077918
1769666739122162700,2.90116259765625,0.015468787288665771,-0.009873159238696097,0.012491232782602309
1769666739132150500,2.911150634765625,-0.004588496834039688,0.001152092644572258,-0.003779518538713455
1769666739142139600,2.9211396484375,0.010671616140007972,0.00005611410140991211,-0.02638882523179054
1769666739152128800,2.931128662109375,0.04412088127732277,0.004176847293227911,-0.03734656483680009
1769666739162116600,2.94111669921875,0.07439268542230129,-0.013674158956855535,-0.03129179484248161
1769666739172105500,2.95110546875,0.08258826683759689,-0.027789485809952018,-0.018649755412340163
1769666739182094600,2.961094482421875,0.08714870662093162,-0.022796792089194058,-0.011887421670556068
1769666739192082700,2.971082763671875,0.06602291648387909,-0.0029798925936222074,-0.015049392832815646
1769666739202071600,2.981071533203125,0.039592590197920795,-0.0006163783326745033,-0.007189326982200145
1769666739212059600,2.9910595703125,-0.01851122372448444,-0.002320259641110897,-0.01725216357409954
1769666739222048500,3.001048583984375,0.0034381577551364896,-0.005178571681678294,-0.014131693466007709
1769666739232036600,3.01103662109375,0.022069208467006683,0.009510901797562837,0.0014928689062595367
1769666739242025700,3.021025634765625,0.015436054062843322,-0.001175181259214878,0.001889174747467041
1769666739252014600,3.0310146484375,0.020981997752189636,-0.009465601351112126,0.004356149382889271
1769666739262002700,3.041002685546875,0.004797171148657798,0.008548340375721454,-0.002960311110317707
1769666739271992300,3.050992431640625,0.01717033050954342,-0.00530249032229185,-0.012216215233504772
1769666739281981200,3.060981201171875,0.0436357281088829,0.0015223872616887092,-0.014266425761580466
1769666739291969300,3.07096923828125,0.057176762205362316,0.01185308100953698,-0.004895663087069988
1769666739301958400,3.08095849609375,0.0700046795964241,-0.005384031125903129,-0.008000935626029968
1769666739311946200,3.0909462890625,0.051069092980027195,-0.021334610582143067,-0.011499299135804176
1769666739321935000,3.10093505859375,0.026408698976039886,-0.00650616702362895,-0.01439998901337385
1769666739331923200,3.110923095703125,0.013344634741544723,0.010314327134937048,0.001550152051448822
1769666739341912300,3.120912353515625,0.004918751701712608,0.014660247384756802,-0.0010085925206542014
1769666739351901200,3.130901123046875,0.0028945523977279663,0.00006838906109333039,-0.023546587543189525
1769666739361889300,3.14088916015625,0.015060206487774848,0.001432078629732132,-0.027269991980493066
1769666739371878100,3.150878173828125,0.019291560447216034,-0.0003124269500374794,-0.012360592140257358
1769666739381866200,3.1608662109375,0.03850128782987594,-0.005650865368545055,0.0022948329389095305
1769666739391855400,3.17085546875,0.024728783065080643,-0.015569471184164284,0.009566869768500328
1769666739401844200,3.18084423828125,0.021469489008188247,-0.014903846882283687,0.004160919071733951
1769666739411832300,3.190832275390625,0.00030278233885765074,0.015148177032172678,-0.009203297153115271
1769666739421821400,3.200821533203125,-0.03378068904876709,0.0024501696310937405,0.0028919220492243766
1769666739431809300,3.210809326171875,0.005118073666095733,0.002781885803490877,0.000493044213950634
1769666739441798100,3.220798095703125,0.07626023285984992,-0.01201280161589384,-0.04027998794019222
1769666739451787300,3.230787353515625,0.1593067648589611,-0.019532967987656594,-0.04293108697086572
1769666739461775400,3.240775390625,0.11515724200904369,0.027657091601938008,-0.01616115346699953
1769666739471764200,3.25076416015625,0.00040098201632499694,0.014964198767393827,0.024136954651772975
1769666739481752000,3.260751953125,-0.016537293303012846,-0.0035810733571648595,0.010338438662886619
1769666739491741200,3.2707412109375,0.02647650351524353,0.004542319604754447,-0.032277591009438035
1769666739501730300,3.280730224609375,0.04880991587638855,0.00040785014852881427,-0.023890870936214923
1769666739511718400,3.290718505859375,0.033138884013891215,-0.010361819538474083,-0.015295184287428855
1769666739521707300,3.300707275390625,-0.003893500307202339,-0.012733517105877399,0.0030897827088832855
1769666739531695400,3.3106953125,0.0012006079614162444,-0.0009295359350740909,0.006678454850614071
1769666739541684200,3.320684326171875,0.02551262691915035,0.007539017202705145,0.011131927128136158
1769666739551673000,3.330673095703125,0.03903554083704948,0.0032036183468997477,0.005542436558008194
1769666739561661200,3.3406611328125,-0.0036252047598361965,0.005606587835401296,-0.006036357554793357
1769666739571650300,3.350650390625,0.022308862441778182,-0.006343085416406393,-0.00804740511626005
1769666739581638400,3.360638427734375,0.0419932215988636,0.002927577884495258,-0.01564882003068924
1769666739591627300,3.370627197265625,0.026415128716826438,-0.0013024609006941318,-0.010650865612924098
1769666739601616100,3.3806162109375,0.035657004314661025,0.006662526629120111,-0.004636427628993987
1769666739611604200,3.390604248046875,0.013134206861257552,0.0030539807431399823,0.004957914668321609
1769666739621593300,3.40059326171875,-0.005800795233249664,-0.01599704894647002,-0.015776245802640913
1769666739631581200,3.410581298828125,0.013739187017083166,-0.010156213963776826,-0.015775953541696072
1769666739641570300,3.4205703125,0.05681202054619789,0.001802811638265848,-0.007348901458084583
1769666739651559400,3.430559326171875,0.043882980868220324,-0.004462386236339808,-0.019384207166731355
1769666739661547300,3.44054736328125,0.033058804515004155,-0.012824410259723662,-0.01994037974476814
1769666739671536000,3.4505361328125,0.02136778219938278,-0.005482961455732583,-0.008503332190215587
1769666739681524200,3.460524169921875,0.030910102048516273,-0.0051107671424746514,-0.00658697717487812
1769666739691513300,3.470513427734375,0.04158931697309017,-0.017138327936083077,-0.0077770637422800055
1769666739701502200,3.480502197265625,0.014043722921609878,-0.004124532584100961,-0.011561258456110954
1769666739711490000,3.490489990234375,0.04038812448978424,0.007458353181928396,-0.019504618676006794
1769666739721479200,3.500479248046875,0.06192191090583801,0.012569558715820313,-0.02253419563025236
1769666739731467300,3.51046728515625,0.05149111778438091,-0.0006740998692810536,-0.009854454538226127
1769666739741456400,3.520456298828125,-0.009164134186506271,-0.006495061107724904,-0.00585281768143177
1769666739751445200,3.5304453125,-0.05039747732877731,-0.003816781809180975,0.002370528523623943
1769666739761433300,3.540433349609375,0.03402209658920765,-0.007060586035996675,-0.006649813278019428
1769666739771422200,3.550422119140625,0.06908581118583679,0.0023642449133098125,-0.04202887743413448
1769666739781410300,3.560410400390625,0.0621311697423458,-0.0031377135038375852,-0.01601385395079851
1769666739791399200,3.570399169921875,0.05801964277029037,-0.0186297355376184,-0.017217384521663187
1769666739801388300,3.58038818359375,0.04269581691026687,0.007442278829962015,-0.008296995963156223
1769666739811376400,3.59037646484375,0.01362403620481491,0.0009016250148415565,0.0015118658676743506
1769666739821365200,3.600365234375,0.0006815525233745574,-0.0029720015481114388,0.014795418071746825
1769666739831353000,3.61035302734375,0.014526538002490997,-0.0004068272352218628,0.007438625568151474
1769666739841342200,3.62034228515625,0.02459200494289398,0.009844225405156611,-0.01662964776158333
1769666739851331300,3.630331298828125,0.04471241742968559,-0.009327069663256407,-0.005256605353951454
1769666739861319400,3.6403193359375,0.0445464132130146,-0.0017881985910236835,-0.003961304846405982
1769666739871308300,3.650308349609375,0.011024082839488983,-0.00042363223955035206,-0.0017374913170933723
1769666739881296100,3.660296142578125,0.01326981593966484,0.00587502951323986,-0.0014510755911469459
1769666739891285200,3.67028515625,0.026987375646829605,-0.002746376098692417,-0.001604220326244831
1769666739901274000,3.680274169921875,0.041266076368093485,-0.006196078161150216,-0.02152063467353582
1769666739911262200,3.69026220703125,0.08025953162908554,-0.012204963187128305,-0.021094810476899147
1769666739921251300,3.700251220703125,0.08276596149206161,-0.003919949922710657,-0.02211333986967802
1769666739931239400,3.710239501953125,0.06520575488209725,0.00460997801348567,-0.011916647765040396
1769666739941228000,3.72022802734375,0.026401684713363648,0.007502776845544576,-0.004446458014845848
1769666739951217200,3.730217041015625,-0.00030278233885765074,0.001928337714076042,0.004110650189220905
1769666739961205200,3.740205322265625,-0.0026537293791770934,-0.0007774141132831573,0.0046247371912002564
1769666739971194400,3.7501943359375,0.032114217141270635,-0.004483282893896103,-0.008802022875845432
1769666739981182500,3.760182373046875,0.03234977946281433,-0.012511983309686184,-0.016799159109592437
1769666739991171300,3.77017138671875,0.03994271880984306,-0.007812719577550888,-0.011685469357669353
1769666740001160200,3.78016015625,0.05921674360036849,-0.01156798045784235,-0.01009615433961153
1769666740011148300,3.790148193359375,0.05586743317246437,-0.00003609422668814659,-0.0071682841941714285
1769666740021137200,3.80013720703125,0.011614449948072432,-0.0016679332122206687,-0.0002916764229536056
1769666740031125200,3.810125244140625,-0.006167874979972839,0.005195668946951627,-0.010841127488017082
1769666740041114400,3.8201142578125,0.0009048398852348328,-0.003834901987761259,0.0004126724541187286
1769666740051103200,3.830103271484375,0.019774375528097153,-0.003886339914053678,-0.01856529199928045
1769666740061091000,3.840091064453125,0.040486324167251585,-0.006040156947076321,0.00592383709102869
1769666740071080200,3.850080078125,0.05660276170969009,-0.005603957486897707,0.0020747604474425315
1769666740081068300,3.860068359375,0.04236731560826301,-0.008070932122319937,-0.01054798976033926
1769666740091057400,3.870057373046875,0.01569675082564354,0.005149345587193966,-0.011112345644831656
1769666740101046300,3.88004638671875,-0.0007166238367557525,0.014578414320200682,-0.00886047506481409
1769666740111034000,3.8900341796875,-0.0011047463715076445,0.009110212042182684,0.0011824877828359604
1769666740121023200,3.900023193359375,0.0300637143522501,-0.0003219254307448864,-0.006826338888704776
1769666740131011300,3.91001123046875,0.04792553425729274,0.000163519998639822,-0.012760112851858138
1769666740141000200,3.920000244140625,0.04220715661048889,-0.005295476059615611,-0.016746844400465487
1769666740150989300,3.9299892578125,0.02979308071732521,-0.0029207097522914406,0.0032134090885519977
1769666740160977400,3.939977294921875,0.005725976431369781,-0.001388677879422903,-0.001948211458325386
1769666740170966300,3.94996630859375,0.002951251021027565,-0.007653437362611293,-0.0008119009047746658
1769666740180954000,3.9599541015625,0.057610477447509766,-0.014239099363237619,-0.021773732651770114
1769666740190943200,3.969943115234375,0.05888999586403369,0.003277852626889944,-0.018575521132349965
1769666740200932400,3.979932373046875,0.04279752371907234,0.015920184317976236,0.0030891981869935986
1769666740210920400,3.98992041015625,0.02428863808214664,0.0033272447265684604,-0.014721768313646315
1769666740220909300,3.999909423828125,0.005178279420733452,-0.011822393610328436,-0.014222002097964285
1769666740230897200,4.009897216796875,0.013272738549113273,-0.005834259111434221,-0.02113075857311487
1769666740240886300,4.01988623046875,0.02779752298593521,-0.015258797799795866,-0.023192367278039454
1769666740250875100,4.029875244140625,0.02182487831711769,-0.005731821650266647,-0.006937398047745227
1769666740260863200,4.03986328125,0.02738134340047836,0.005725684170424938,-0.008921849863231182
1769666740270851300,4.049851318359375,0.04911386725902557,0.005679360810667276,0.00426554848998785
1769666740280839400,4.05983935546875,0.03300093684792518,0.007658259668201208,-0.0022150457009673117
1769666740290828500,4.06982861328125,0.038891163930296895,0.005604834269732237,-0.015702011522650716
1769666740300817400,4.0798173828125,0.0214367557823658,0.004529606253653764,-0.011199147145450115
1769666740310805200,4.08980517578125,0.002054594442248344,0.005955255142599344,0.00194324302226305
1769666740320794400,4.09979443359375,0.03728548229932785,0.0005868599772453308,-0.008751461732387542
1769666740330782500,4.109782470703125,0.03833236100375652,-0.009847294145077467,-0.010679214924573898
1769666740340771300,4.119771240234375,0.04642389752268791,-0.011446546035259962,-0.011515081226825713
1769666740350760400,4.129760498046875,0.01518120251893997,0.00242708101645112,0.00682400080114603
1769666740360748500,4.13974853515625,0.02148936275243759,-0.001072305406630039,-0.008467676354944706
1769666740370737400,4.1497373046875,0.020389877077937126,-0.005210866516083479,-0.0190861010029912
1769666740380725500,4.1597255859375,-0.005313303977251053,-0.0054724400617182254,-0.01922404816895723
1769666740390714400,4.16971435546875,0.02002981159389019,-0.008769581910967826,-0.008920096297562121
1769666740400703500,4.179703369140625,0.0389911171734333,-0.008017009977996349,-0.023125147260725495
1769666740410691600,4.189691650390625,0.03633621875047684,-0.003097381493449211,-0.003553893089294433
1769666740420680400,4.199680419921875,0.022484219008684157,-0.007992460058629513,-0.01663520071953535
1769666740430668300,4.209668212890625,0.0020762217521667478,-0.0036950551256537435,-0.012380465884506702
1769666740440657400,4.219657470703125,0.04044891476631164,0.0029141338810324668,-0.012823825737833977
1769666740450646500,4.229646484375,0.07683364883363246,0.006174743112176657,-0.027503508475422857
1769666740460634400,4.23963427734375,0.058066989043354986,-0.0034394729293882845,-0.025035072535276412
1769666740470623500,4.24962353515625,0.04492167626619339,-0.010403028331696986,-0.02541998019963503
1769666740480611300,4.259611328125,0.018302549409866333,-0.015397329487651585,-0.005716331820189952
1769666740490600400,4.269600341796875,0.011678747355937958,-0.008205518287420272,0.011787176166474818
1769666740500589300,4.27958935546875,0.05221884753704071,0.007837561757862568,-0.00846183113604784
1769666740510577400,4.289577392578125,0.03389467081725597,0.005307458758354187,-0.028012627041339874
1769666740520566500,4.29956640625,0.04929506904482841,0.005008037420362234,-0.028051790007948874
1769666740530554600,4.3095546875,0.020506196933984755,-0.00015738251879811286,-0.022599662081897256
1769666740540543200,4.319543212890625,-0.004838672202825546,0.00863411896303296,0.0022626842349767686
1769666740550532400,4.329532470703125,0.0033750293910503387,-0.002622457458078861,0.00817687671482563
1769666740560520400,4.3395205078125,-0.00106616792678833,0.0026132512383162973,0.00930792657136917
1769666740570509300,4.34950927734375,0.04630348601341247,-0.0025606442682445047,-0.009461655828356742
1769666740580497400,4.359497314453125,0.041428573453426355,0.019317279410362244,-0.0155938749730587
1769666740590486500,4.369486572265625,0.04161328237056732,0.010352028796821832,-0.0211599846675992
1769666740600475400,4.379475341796875,0.050233811199665065,-0.0020639467924833295,-0.023146482309699058
1769666740610463500,4.38946337890625,0.029088147318363188,-0.007142272970080375,-0.026587854935228823
1769666740620452400,4.399452392578125,0.03351531611084938,-0.018189882815629242,-0.018477905976772308
1769666740630440400,4.4094404296875,0.042374329870939254,-0.010200637627393006,-0.003233575093746185
1769666740640429600,4.4194296875,0.03392214334607124,0.003729980308562517,-0.008882102374732494
1769666740650418400,4.42941845703125,0.010828852528333663,0.012207885796576737,0.009159165750443935
1769666740660406300,4.43940625,0.016875146955251694,-0.0024748656809329985,-0.005462941581010818
1769666740670395400,4.4493955078125,0.010275894820690154,0.003869973301142454,-0.02157294938266277
1769666740680383500,4.459383544921875,0.022015432453155515,-0.014910130492597817,-0.029289515109360217
1769666740690372400,4.469372314453125,0.018310732716321942,-0.014197890570014714,-0.018759937788546083
1769666740700361500,4.479361572265625,0.017278467059135435,0.006349222896248102,-0.0035711364850401876
1769666740710349300,4.489349365234375,0.029497312641143796,0.005893588083237409,0.00737169781178236
1769666740720338400,4.49933837890625,0.03295768222808838,0.0031781916446983814,0.0019344751939177512
1769666740730326500,4.509326416015625,0.03337853798866272,0.005097323139011859,-0.00530775101929903
1769666740740315400,4.5193154296875,0.031051556345820425,-0.004054682218283414,-0.01542261005938053
1769666740750304500,4.529304443359375,0.04316226537823677,-0.009063158030062914,-0.0264168822824955
1769666740760292600,4.539292724609375,0.025007015484571456,0.006449906791746616,-0.026230127538740634
1769666740770281200,4.54928125,0.008506547060608863,0.012239888370037078,-0.010526362450420856
1769666740780269300,4.559269287109375,0.0219943896651268,0.014838234300166368,-0.006244155086576939
1769666740790258400,4.569258544921875,0.029678514426946637,-0.0012584756284952164,-0.021226035641133786
1769666740800247600,4.57924755859375,0.0409825832515955,-0.006153700324147939,-0.01906505821496248
1769666740810235400,4.5892353515625,0.03160743666291237,0.017814035240560768,-0.02322130111157894
1769666740820224500,4.599224609375,0.041025253349542615,-0.0004139876283705234,-0.030123043324053286
1769666740830212400,4.60921240234375,0.03081950115561485,0.000014613047242164611,-0.00943476782143116
1769666740840201500,4.619201416015625,0.02451835518479347,0.001900280663371086,-0.009370762674510478
1769666740850190300,4.6291904296875,0.00582885228395462,0.0027358547046780583,-0.003072247052192688
1769666740860178400,4.639178466796875,0.005713116949796676,0.002909896097332239,-0.00601794511526823
1769666740870167600,4.64916748046875,0.021390578553080557,0.0071533788859844205,-0.003936462666094303
1769666740880155400,4.6591552734375,0.015936989322304723,0.0005782382793724537,-0.02906885809600353
1769666740890144300,4.669144287109375,0.016195932519435883,0.006317658714205026,-0.007408230429887771
1769666740900133400,4.67913330078125,0.009332476490736007,-0.010627776998281479,0.0028115502893924713
1769666740910121500,4.68912158203125,0.029359365475177764,-0.010201076018810271,-0.023543957194685935
1769666740920110600,4.699110595703125,0.047695817154645916,-0.008724719855934381,-0.014732289707660674
1769666740930098400,4.709098388671875,0.07391863816976547,0.0005589490570127964,-0.005077741655707359
1769666740940087300,4.71908740234375,0.08211948028206825,0.0029848610296845436,-0.003286474324762821
1769666740950076400,4.729076416015625,0.051723172974586486,0.01059241342395544,-0.012342179700732231
1769666740960064500,4.739064453125,0.01788403173685074,-0.009115326608717441,-0.004312017980217933
1769666740970053400,4.749053466796875,-0.00509469279050827,0.003063040832430124,-0.0202756030485034
1769666740980041500,4.75904150390625,0.024562778848409652,0.00018880057036876677,-0.016352584385871886
1769666740990030600,4.769030517578125,0.042405894052982326,-0.008476590313762427,-0.017622165930271147
1769666741000019200,4.779019287109375,0.009572714987397193,-0.007840045975893736,-0.011228665500879286
1769666741010007300,4.78900732421875,-0.006905541604757309,0.004614654188603163,0.015585399405658245
1769666741019996400,4.798996337890625,-0.005813654714822769,0.0027691724523901937,0.012931085504591464
1769666741029984500,4.808984619140625,0.04883329675197601,0.014236469014734028,-0.013187398353219032
1769666741039973400,4.818973388671875,0.04136193795800209,0.0009841887317597867,-0.012899521322548388
1769666741049962500,4.82896240234375,0.017458499801158905,0.004334375942498445,-0.016711773087084294
1769666741059950300,4.838950439453125,0.034570378121733664,0.006010930852591991,-0.01637596526145935
1769666741069939500,4.848939453125,0.0613385580599308,-0.0001860240913927555,-0.03763794899880886
1769666741079927600,4.858927490234375,0.06608955197930336,-0.006219166775792837,-0.0345686245560646
1769666741089916400,4.86891650390625,0.04725391860604286,0.0005222703084349631,-0.006444353833794593
1769666741099905500,4.878905517578125,-0.003719312784075737,-0.0029519816733896732,-0.007485679580271244
1769666741109893400,4.888893310546875,-0.012169745743274687,-0.015157529382407664,0.004403203395009041
1769666741119882200,4.89888232421875,0.017367314386367797,-0.0001423310801386833,-0.015357435868680476
1769666741129870300,4.908870361328125,0.04209726649522781,-0.009393559028208254,-0.01633709455579519
1769666741139859500,4.918859375,0.04019640130996704,-0.0013949614897370338,-0.010917699855566024
1769666741149848600,4.9288486328125,0.017953005319833754,-0.003774257841706276,-0.008940554563701152
1769666741159836400,4.93883642578125,-0.00853285054564476,-0.004681581944972276,-0.00782441001534462
1769666741169825300,4.9488251953125,0.0014554595053195953,0.012518120789527892,-0.012144903562963008
1769666741179813400,4.9588134765625,0.006309913799166679,0.016186434038728475,-0.015305705681443214
1769666741189802500,4.968802490234375,0.02461947747170925,-0.006862579245865344,-0.021090426562726496
1769666741199791400,4.978791259765625,0.06435702909827232,0.00009907646030187607,-0.013566460798680782
1769666741209779500,4.988779541015625,0.06297054317593574,-0.0021590777300298214,-0.026201778227090834
1769666741219768600,4.9987685546875,0.027409400451183317,-0.00739478642642498,-0.02325958729535341
1769666741229756400,5.00875634765625,-0.028908699098229407,-0.0035927637949585913,0.0013254033848643302
1769666741239745300,5.018745361328125,0.021878654330968854,0.0017168869204819202,-0.006149462540447711
1769666741249734400,5.028734375,0.035627778220176695,0.021329203754663465,-0.019148060323297977
1769666741259722500,5.038722412109375,0.054397945141792296,0.003829933551698923,-0.029298575198650357
1769666741269712000,5.0487119140625,0.03496376135349274,-0.011557751324772833,-0.023582243378460405
1769666741279699700,5.05869970703125,0.00720481681227684,-0.004510901553183793,-0.010735621286928653
1769666741289688800,5.068688720703125,-0.003991699984669685,0.0069270227842032905,0.005992810674011707
1769666741299678000,5.078677978515625,0.011035773277282715,-0.013293635206669568,-0.0029331308424472807
1769666741309665800,5.088665771484375,0.028415947145223615,0.0011870178274810312,-0.005717793124914169
1769666741319655000,5.098655029296875,0.04123217409849167,0.0027915304146707057,-0.014219956271350384
1769666741329643000,5.10864306640625,0.03775426885485649,-0.0023014088101685048,-0.02107669029831886
1769666741339632000,5.118632080078125,0.033681904849410055,-0.010297814391553401,-0.01807312456816435
1769666741349620700,5.128620849609375,0.02154080067873001,-0.0020626316182315346,-0.022251287035644052
1769666741359608800,5.13860888671875,0.02315466561615467,-0.005830459719151258,-0.01249473991394043
1769666741369598000,5.148597900390625,0.027752514800429343,-0.012731617409735918,-0.013835633128881454
1769666741379586000,5.1585859375,0.0341635508865118,0.001967646811157465,-0.015391922660171985
1769666741389575000,5.168574951171875,0.013961305335164069,0.012543401361256838,-0.004498480463027954
1769666741399564000,5.17856396484375,0.015787936240434647,-0.0001049216791987419,-0.011021452490985392
1769666741409552000,5.1885517578125,0.019099837267398834,-0.00578267505466938,-0.016564473570883274
1769666741419541000,5.198541015625,0.024026772275567054,0.011900281152129173,-0.015768354757130145
1769666741429528800,5.20852880859375,0.04689969834089279,-0.0024500235006213187,-0.02301730297207832
1769666741439518000,5.21851806640625,0.029371055912971494,-0.011266659423708915,-0.021283611047267913
1769666741449507000,5.228507080078125,0.012457330513000488,-0.0019805062927305698,-0.012242810979485512
1769666741459495000,5.238494873046875,0.021927754169702527,0.009183277278393506,-0.0037511692270636556
1769666741469483800,5.24848388671875,0.0265910698056221,0.004361994601786137,-0.013865736006200313
1769666741479471900,5.258471923828125,0.017381342911720273,0.000445551810413599,-0.00011398176848888397
1769666741489461000,5.2684609375,0.03761281455755233,-0.010799772564321755,-0.013118132509291171
1769666741499449900,5.278449951171875,0.03569441371560097,-0.004368424342572689,-0.017070961788296698
1769666741509438000,5.28843798828125,0.023458616998791693,0.009888941329717635,-0.013197627486288548
1769666741519426800,5.2984267578125,0.01685176607966423,-0.0028619653023779393,-0.002140226899087429
1769666741529415000,5.308414794921875,0.02809387558400631,-0.010916092420369386,-0.00954582698047161
1769666741539404000,5.318404052734375,0.0488075777888298,-0.010406097071617841,-0.013942016112804411
1769666741549393000,5.328392822265625,0.021515666237473488,0.0017968202888965605,-0.014648995338380336
1769666741559381000,5.338381103515625,0.003032499563694,-0.007423574129492044,-0.0117661333784461
1769666741569370000,5.3483701171875,0.017324644288420676,-0.001183072304725647,-0.01550415086299181
1769666741579358000,5.35835791015625,0.006435586005449295,0.005781506010890006,-0.006602759265899658
1769666741589346800,5.368346923828125,0.027703999483585356,0.0021351123325526714,-0.01375000067204237
1769666741599336000,5.3783359375,0.028602994149923323,-0.0012989537693560123,-0.02765899129807949
1769666741609324000,5.388323974609375,0.02697100903391838,-0.0032867665857076642,-0.022025661586225032
1769666741619313000,5.39831298828125,0.02866144633889198,-0.007026976027339696,0.0022878186762332916
1769666741629300700,5.40830078125,0.028569676402211187,-0.002531564304232597,-0.004104804970324039
1769666741639289900,5.418289794921875,0.015326163947582244,0.0023472937785089013,-0.007263853523135185
1769666741649279000,5.428279052734375,0.015963292807340622,-0.008331190493702888,-0.01539864466190338
1769666741659267000,5.43826708984375,0.08863339222073555,-0.011680062530189751,-0.04036678944081068
1769666741669256000,5.448255859375,0.08971826484799385,-0.016628624848276374,-0.01776975770741701
1769666741679243800,5.458243896484375,0.05500117173194885,0.015036679481714964,-0.008528758892416954
1769666741689233000,5.46823291015625,-0.0241337397813797,-0.0034632921963930127,0.003842354641854763
1769666741699221800,5.4782216796875,-0.007765373304486275,-0.00754398563876748,-0.010326748225092887
1769666741709209900,5.4882099609375,0.02592529937326908,0.0012885785058140754,-0.02751081499904394
1769666741719199000,5.498198974609375,0.02928279310762882,-0.012238134804368018,-0.011436463032662868
1769666741729187000,5.50818701171875,0.00021978023052215574,-0.005290507623553276,-0.01668400829732418
1769666741739176000,5.518176025390625,-0.004231938481330871,0.0020689152285456656,-0.0004664484679698944
1769666741749164800,5.528164794921875,0.01441664788722992,0.0012479542344808578,0.0004731704697012901
1769666741759153000,5.53815283203125,0.05248188238739967,0.011036942321062088,-0.021531448328495024
1769666741769142000,5.54814208984375,0.06776245362758636,0.01667436368614435,-0.03280073810070753
1769666741779129900,5.5581298828125,0.045318566629290576,0.0059882806293666355,-0.02138356429040432
1769666741789119000,5.568118896484375,0.03871054666638374,0.007080752041190862,-0.02832680755704641
1769666741799108000,5.578108154296875,0.02965980972647667,-0.003598609013855457,-0.026429157242178914
1769666741809096000,5.588095947265625,0.0384159476339817,-0.011964286299049854,-0.025248715285956857
1769666741819084800,5.598084716796875,0.0493044213950634,-0.014132424118369817,-0.013582827411592006
1769666741829073000,5.608072998046875,0.02597790634334087,-0.01016980409771204,-0.006756196261942386
1769666741839062000,5.61806201171875,0.0038426469027996062,-0.009744564422965049,-0.013394026841223238
1769666741849051000,5.62805078125,0.0037748423635959624,-0.00688172233775258,-0.0180228556856513
1769666741859038700,5.638038818359375,0.025794366469979284,-0.010106383472681045,-0.025220073713362216
1769666741869027800,5.64802783203125,0.04423661661148071,-0.004531944341212511,-0.005149637848138809
1769666741879016000,5.658015869140625,0.03221066325306892,-0.016739537876844405,-0.00395838223695755
1769666741889005000,5.668005126953125,0.02608253576159477,-0.009061550594866276,-0.008035130156576633
1769666741898994000,5.677993896484375,0.015748188751935958,-0.004532382732629776,-0.011422726768255233
1769666741908982000,5.68798193359375,0.0332616336107254,0.0020895196251571177,-0.013418576760590075
1769666741918971000,5.697970947265625,0.03129296388626098,-0.0012488310173153876,-0.01988251207768917
1769666741928959700,5.707959716796875,0.046773441612720484,-0.006787175922095775,-0.029732290440797803
1769666741938947800,5.71794775390625,0.07437339619994163,-0.007367021636664867,-0.0258045956030488
1769666741948937000,5.72793701171875,0.041328035688400266,-0.0019457272402942179,-0.00587678307890892
1769666741958925000,5.737925048828125,-0.008099135303497314,-0.0129360539406538,0.007372866855561733
1769666741968914000,5.747913818359375,0.01327507663667202,-0.0030843758814036843,0.005903086563944816
1769666741978901800,5.75790185546875,0.035461774003505704,-0.0076852938055992125,-0.01773877804726362
1769666741988891000,5.767890869140625,0.03002045973241329,-0.0004316694155335426,-0.024765900205075738
1769666741998880000,5.7778798828125,0.013654431343078612,-0.0039162966609001156,-0.020110475614666938
1769666742008868000,5.7878681640625,0.06525017854571342,-0.006676555154472589,-0.028467969593405723
1769666742018857000,5.79785693359375,0.051513329616189,-0.014173048389703034,-0.01805208178013563
1769666742028844800,5.8078447265625,0.008089782953262329,0.0007974339880049228,-0.0008194996893405913
1769666742038834000,5.817833984375,0.008956044393777847,-0.006490677193552255,-0.004672960247099399
1769666742048822800,5.82782275390625,0.02848842785954475,-0.005386076952517032,-0.018301672627031803
1769666742058811000,5.837810791015625,0.02939034513533115,0.003924333836883306,-0.017450024233758448
1769666742068800000,5.847800048828125,0.027313538861274717,-0.0019299451492726801,-0.01934475193917751
1769666742078789000,5.8577890625,0.03527063534557819,-0.000263034850358963,-0.031064123566448686
1769666742088776700,5.867776611328125,0.028575521621108053,-0.01771115938797593,-0.0034431261911988258
1769666742098765800,5.877765869140625,0.03052665568888187,-0.017622019799798726,-0.015796119546890256
1769666742108754000,5.88775390625,0.02079261265993118,-0.016192425388097762,-0.02356032380759716
1769666742118743000,5.897742919921875,0.02243395012617111,-0.0035338732145726677,-0.02158990051746368
1769666742128732000,5.90773193359375,0.018851415464282036,0.007877309246361255,-0.008820727576315402
1769666742138720000,5.917719970703125,0.001654196947813034,0.003989069636166095,-0.008190612979233264
1769666742148708900,5.927708984375,0.002070961055159569,-0.010024404277652502,-0.018450433447957038
1769666742158697000,5.937697021484375,0.021969839745759962,-0.0032779987573623654,-0.018011749769747256
1769666742168685800,5.947685791015625,0.04077390893697738,-0.014990940643846987,-0.0230617266356945
1769666742178675000,5.957675048828125,0.04224807314276695,-0.006186433549970388,-0.024943594859540463
1769666742188663000,5.9676630859375,0.03612228373885155,-0.010515402664989232,-0.026403438279032704
1769666742198652000,5.97765185546875,0.039870238095521926,-0.0061040159635245795,-0.02739098801165819
1769666742208639700,5.9876396484375,0.040678047347068785,-0.0038990532651543616,-0.024071488200128076
1769666742218628900,5.99762890625,0.02370411619246006,-0.005797141971439123,-0.010153437484800815
1769666742228618000,6.007617919921875,0.02352232988476753,0.001912701753526926,-0.0113718733638525
1769666742238606000,6.017606201171875,0.03591653203368187,-0.018520429944247005,-0.014073825798928737
1769666742248595000,6.027594970703125,0.02793780823945999,-0.01708352900892496,-0.002547346395254135
1769666742258582800,6.037582763671875,0.026489362996816635,-0.0008554477855563164,-0.019635551579296587
1769666742268571600,6.047571533203125,0.022165070056915284,0.0008563245683908462,-0.02695668824762106
1769666742278560500,6.057560546875,0.03531213639974594,-0.0034345044933259484,-0.022893968853354454
1769666742288548600,6.067548583984375,0.0374140771150589,-0.014069149623811244,-0.01906067430078983
1769666742298537700,6.077537841796875,0.03224281195700168,-0.018775866010040044,-0.009676175361871719
1769666742308525600,6.087525634765625,0.02470306410193443,-0.0046925417304039,-0.0027834932386875152
1769666742318514700,6.0975146484375,0.012670096480846405,-0.0040229719057679175,-0.022061609682440756
1769666742328503600,6.107503662109375,0.01731003124117851,-0.0036038697108626365,-0.026187749701738355
1769666742338491600,6.11749169921875,0.022229367464780807,0.008609569043666124,-0.021788053438067435
1769666742348480800,6.127480712890625,0.025613164684176442,0.011702712753415107,-0.020807225707173346
1769666742358468600,6.137468505859375,0.026793314379453658,-0.00508227170035243,-0.02050210528075695
1769666742368457500,6.14745751953125,0.02366144609451294,0.0007953881613910198,-0.006387070688605308
1769666742378446600,6.157446533203125,0.009894786548614502,-0.018010872986912726,-0.01945814918577671
1769666742388434700,6.1674345703125,0.04439326847791671,-0.011886252626776695,-0.028889994397759435
1769666742398423600,6.177423583984375,0.1047737951606512,-0.015763678582012653,-0.0334513109639287
1769666742408411600,6.18741162109375,0.09325462228059768,-0.010259089816361665,-0.02207534594684839
1769666742418400500,6.197400390625,0.028664368948340416,-0.0057172086030244824,-0.006306991189718246
1769666742428389600,6.2073896484375,-0.007522796720266341,-0.009213087894767522,-0.009465747481584548
1769666742438377700,6.217377685546875,0.009724106156826019,-0.0005853986725211143,-0.014039631268382072
1769666742448366600,6.22736669921875,0.03326864787340164,-0.007776917611807584,-0.022893092070519924
1769666742458354700,6.237354736328125,0.023915128594636917,-0.01557706996873021,-0.01679039128124714
1769666742468343800,6.24734375,-0.01622515861392021,0.000990618472546339,-0.009679682493209838
1769666742478332400,6.25733251953125,-0.016328034466505048,-0.001202361527085304,-0.00045008185505867004
1769666742488320500,6.267320556640625,-0.0031049802780151363,-0.003528027995675802,-0.005173018723726272
1769666742498309600,6.2773095703125,0.026132804644107818,-0.007425473825633525,-0.021744506557285784
1769666742508297700,6.287297607421875,0.03053893064856529,-0.008278875784575939,-0.027112463331222532
1769666742518286600,6.29728662109375,0.01459784967303276,-0.010426847598701714,-0.012542086187005043
1769666742528275700,6.307275634765625,0.016565350353717805,-0.0003891454480588436,-0.012839607828855513
1769666742538263600,6.317263671875,0.04061374993920326,0.005003507375717163,-0.027122692464292046
1769666742548252700,6.327252685546875,0.036380057892203325,-0.0012825871564447879,-0.028762568625807762
1769666742558240800,6.33724072265625,0.02543430098593235,-0.022171792058646677,-0.023641572350263595
1769666742568229600,6.347229736328125,0.026617957812547683,-0.005631430015712976,-0.019005729243159294
1769666742578218800,6.35721875,0.021794483178853987,-0.01581920816153288,-0.0296735459908843
1769666742588206600,6.36720654296875,0.027142858469486233,-0.016361352214217185,-0.014355857610702514
1769666742598195500,6.377195556640625,0.050313890698552126,-0.00982990461885929,-0.033228023602068425
1769666742608183600,6.38718359375,0.045479310148954386,-0.009115618869662284,-0.021040449941158293
1769666742618172700,6.397172607421875,0.029865561431646346,-0.005947217966616154,-0.024924305637180805
1769666742628161800,6.407161865234375,0.0035778584867715833,-0.004166472029685974,-0.015381109005212782
1769666742638149600,6.417149658203125,0.012897475495934486,-0.002840922514349222,-0.017160393637418746
1769666742648138500,6.427138427734375,0.04515548502206802,-0.01771291295364499,-0.020684768371284006
1769666742658126600,6.437126708984375,0.03237082225084305,-0.007453677006810903,-0.02122194398790598
1769666742668115700,6.44711572265625,0.01911737292408943,-0.0024224048413336277,-0.006710895815491676
1769666742678104600,6.4571044921875,0.0334229616522789,-0.008957944089919328,-0.01637684204429388
1769666742688092700,6.4670927734375,0.044459903973340986,0.010263473730534314,-0.02438596097677946
1769666742698081800,6.477081787109375,-0.020480477970838545,-0.002905366052687168,-0.02003507229089737
1769666742708069600,6.487069580078125,-0.014641688814759253,-0.007387041511386632,-0.009319032487273216
1769666742718058500,6.49705859375,0.03095511023402214,-0.00892345729842782,-0.021150632317364214
1769666742728047600,6.507047607421875,0.03674538407325744,0.009790449391305446,-0.03423135542571545
1769666742738035700,6.51703564453125,0.03302431772351265,-0.022631226263940332,-0.01386105983108282
1769666742748024600,6.527024658203125,0.027067455145716665,-0.01602452147528529,-0.006795943750441074
1769666742758012400,6.537012451171875,0.007368482941389084,-0.00234627086520195,-0.00659136108905077
1769666742768001500,6.54700146484375,0.0021896189987659453,0.0002601122409105301,-0.010255436554551123
1769666742777990700,6.55699072265625,0.01958791304528713,0.0067328153863549225,-0.03374707904011011
1769666742787978800,6.566978759765625,0.042947161322832106,-0.00435337290391326,-0.019936288091540334
1769666742797967600,6.576967529296875,0.06177344234585762,0.004326338766515255,-0.011720248410105705
1769666742807955700,6.586955810546875,0.04878887308835983,0.011875438971817493,-0.0204781398832798
1769666742817944600,6.596944580078125,0.043588966357707974,-0.006126666186749935,-0.023670798444747922
1769666742827933400,6.606933349609375,0.0357364992916584,-0.0023686288274824617,-0.018836510156095027
1769666742837921500,6.616921630859375,0.0028781857848167417,-0.00882847249135375,-0.026275427985191342
1769666742847910700,6.62691064453125,0.012765373548865318,-0.005192161815613508,-0.02636573661714792
1769666742857898800,6.636898681640625,0.02665244460403919,0.006594283698499202,-0.02670738966166973
1769666742867887600,6.6468876953125,0.028100305324792862,-0.006737199300527573,-0.028519992041587828
1769666742877876500,6.65687646484375,0.017720365607738493,-0.007762596825510263,-0.02105798559784889
1769666742887864600,6.666864501953125,0.01969254246354103,-0.0016084581099450588,-0.015424071364104747
1769666742897853700,6.676853759765625,0.032468437406420705,-0.016029489911347627,-0.015563187573850154
1769666742907841800,6.686841796875,0.03385083167552948,-0.0008987024053931236,-0.0175327340811491
1769666742917830700,6.69683056640625,0.02141571299433708,0.002202040088921785,-0.0229921685308218
1769666742927819800,6.70681982421875,0.017509353205561635,0.0037454701386392115,-0.013969488641619681
1769666742937807600,6.7168076171875,0.05806055930256843,-0.006801350577920675,-0.0307671864464879
1769666742947796500,6.72679638671875,0.03220949420928955,-0.017478811936825513,-0.018104981011152266
1769666742957784600,6.73678466796875,0.041535540959239,-0.0036712358586490153,-0.009992401704192161
1769666742967773700,6.746773681640625,0.03845218799114227,-0.008694616978615522,-0.013282967682182787
1769666742977762800,6.7567626953125,0.01824994243979454,-0.011297639083862304,-0.026410744802653787
1769666742987750700,6.766750732421875,0.017787001103162763,-0.0011295885518193243,-0.018456278666853905
1769666742997739500,6.776739501953125,0.01895838297009468,0.0067987202294170854,-0.016522972516715525
1769666743007727600,6.7867275390625,0.0406686949968338,-0.0026813480384647844,-0.01575900240689516
1769666743017716700,6.796716796875,0.039054830059409136,-0.008624035960435867,-0.019744857172667978
1769666743027705600,6.80670556640625,0.01336392396390438,-0.01919189946502447,-0.017167115639150143
1769666743037693700,6.816693603515625,0.022832009533047676,-0.01366392982378602,-0.026465397599339482
1769666743047682600,6.8266826171875,0.03124970926642418,-0.0061757660254836075,-0.03194704388082027
1769666743057670700,6.836670654296875,0.018708207601308823,0.0015915069751441478,-0.012106617379188537
1769666743067659500,6.846659423828125,0.023064064723253248,0.010754325987398623,-0.017499416333436966
1769666743077648600,6.856648681640625,0.021870471024513245,-0.006999503498524427,-0.00017915595918893812
1769666743087636700,6.86663671875,0.02200432653725147,-0.016774024668335913,-0.016346154645085334
1769666743097625900,6.8766259765625,0.026656536257266997,-0.008974456833302974,-0.030206337693333623
1769666743107613400,6.886613525390625,0.04856675477027893,-0.024193653275072575,-0.0279547593742609
1769666743117602600,6.8966025390625,0.05527414345443248,-0.013249065412580967,-0.023572598767280576
1769666743127591700,6.906591796875,0.010438391906023026,-0.0003023439474403858,-0.004942424838244914
1769666743137579800,6.916579833984375,-0.009117372435331344,-0.0006796528272330761,-0.020141455274820325
1769666743147568600,6.926568603515625,0.03323766821324825,-0.00368234177455306,-0.022931378254294393
1769666743157557800,6.936557861328125,0.09605272856652736,-0.0047141690403223035,-0.03731704648137092
1769666743167545600,6.946545654296875,0.04878711952269077,0.011840075397491455,-0.01153787758052349
1769666743177534500,6.956534423828125,0.022507015362381935,-0.012357961791753767,-0.013646832558512687
1769666743187522600,6.9665224609375,0.0009895955592393875,-0.019071487955749034,-0.033810791926085944
1769666743197511700,6.97651171875,0.021639584878087044,-0.023444442342966793,-0.030382571043074128
1769666743207500800,6.986500732421875,0.04838379941880703,-0.016113514932990073,-0.027149288210272786
1769666743217488600,6.996488525390625,0.011076689809560775,-0.004361702340841293,-0.02502162853181362
1769666743227477500,7.0064775390625,-0.01913432405889034,-0.01519537717476487,-0.013259879067540168
1769666743237465600,7.016465576171875,0.0023731588721275327,-0.00727320587337017,0.0016083119794726372
1769666743247454700,7.026454833984375,0.025128596037626266,-0.011221505107730626,-0.014726152227818964
1769666743257443600,7.036443603515625,0.030355390775203703,-0.002118015067279339,-0.01929243723005056
1769666743267431700,7.046431640625,0.00935936449766159,-0.0016948212191462515,-0.014330430908501147
1769666743277420500,7.056420654296875,0.009755670338869094,-0.01424801332205534,-0.019395605343580244
1769666743287408600,7.06640869140625,0.029709494087100028,0.00619724720492959,-0.0209770293161273
1769666743297397500,7.0763974609375,0.01682078641951084,0.0027693185828626156,-0.022834347620606422
1769666743307386600,7.08638671875,0.02158171721100807,0.0019885434687137602,-0.02354249588996172
1769666743317374700,7.096374755859375,0.03072539313137531,-0.020290362226217985,-0.029019758257269858
1769666743327363800,7.10636376953125,0.02670095992088318,-0.005160743764042854,-0.04392418966144323
1769666743337351700,7.1163515625,0.020841712498664854,-0.006837737065553665,-0.030925299617648123
1769666743347340500,7.126340576171875,0.047886371290683745,-0.011407967590540647,-0.017556991739571093
1769666743357329700,7.13632958984375,0.045485155367851256,-0.014818214425444603,-0.03342588426172733
1769666743367317800,7.14631787109375,0.035081834775209424,-0.017738339655846355,-0.011350830575823784
1769666743377306600,7.156306640625,0.015517887127399444,-0.00008256371691823005,-0.018109657186269758
1769666743387294500,7.16629443359375,0.02629530172944069,-0.02408610124737024,-0.0250835878521204
1769666743397283600,7.17628369140625,0.017175591206550597,-0.0008713760070502757,-0.019355565594136714
1769666743407272700,7.186272705078125,0.012679448831081389,-0.012699760966747999,-0.02753565717935562
1769666743417260500,7.196260498046875,0.0180512049973011,-0.01599617216363549,-0.012175006440281867
1769666743427249700,7.206249755859375,0.03908931685090065,-0.013694763353466987,-0.010848434011638163
1769666743437237800,7.21623779296875,0.03993570454716682,0.0032696693204343316,-0.02415419804751873
1769666743447226600,7.2262265625,0.03949322147667408,-0.008716536549478768,-0.015385785180330276
1769666743457215500,7.236215576171875,-0.007701660418510436,-0.009048983374238014,-0.016898527830839154
1769666743467203600,7.24620361328125,0.0013759645283222197,-0.014453472766280173,-0.009096037386357784
1769666743477192700,7.256192626953125,0.03764554778337478,-0.02015577606111765,-0.015572832185029983
1769666743487180800,7.266180908203125,0.04455342747569084,-0.011973346388339995,-0.03234656459242105
1769666743497169700,7.276169677734375,0.04287818773984909,-0.01620031643360853,-0.029020635040104388
1769666743507158500,7.286158447265625,0.006669979283213615,0.0012364099271595477,-0.018420622831583022
1769666743517146600,7.296146728515625,0.029172318470478055,0.0006102408528327941,-0.011068506503105162
1769666743527135500,7.306135498046875,0.04495499401390552,-0.00728913409486413,-0.023388766632974147
1769666743537123600,7.31612353515625,0.02784545378088951,-0.00834916454181075,-0.031600422400236125
1769666743547112700,7.32611279296875,0.024024434188008308,-0.013269962070137262,-0.025451836642622946
1769666743557101800,7.336101806640625,0.016568857485055922,-0.007392594469338655,-0.027070085494220256
1769666743567089700,7.346089599609375,0.03710486503541469,-0.003691255733370781,-0.021433833172917364
1769666743577078500,7.35607861328125,0.046098903352022165,0.0081814067594707,-0.02839052044302225
1769666743587066600,7.366066650390625,0.029809447330236435,-0.012924948024749755,-0.033490181669592854
1769666743597055700,7.3760556640625,0.004372223734855652,-0.00784136115014553,-0.02667991713285446
1769666743607044600,7.386044677734375,0.0280026901692152,-0.014951485416293143,-0.004389174869656563
1769666743617032400,7.396032470703125,0.03844575825035572,-0.0038867783054709433,-0.011756488767266272
1769666743627021600,7.406021484375,0.01955751790702343,-0.00502542694658041,-0.01692804618626833
1769666743637009700,7.416009765625,0.005219780474901199,-0.011835983744263649,-0.024286007733643054
1769666743646998500,7.42599853515625,0.026805004817247388,-0.011791267819702625,-0.030274726754426953
1769666743656987600,7.435987548828125,0.028057050704956052,-0.004342266988009214,-0.026369828270375727
1769666743666975700,7.445975830078125,0.02357376781105995,-0.004656739764660596,-0.02628507259637117
1769666743676964600,7.455964599609375,0.035081834775209424,-0.0169271694034338,-0.033441081830859185
1769666743686952700,7.46595263671875,0.019944471397995947,-0.009167349056899548,-0.02941489505469799
1769666743696941600,7.475941650390625,0.00992751977443695,-0.011323504177480936,-0.017001695944368837
1769666743706930700,7.4859306640625,0.008037175983190536,-0.009697656541317701,-0.009799509480595587
1769666743716918800,7.495918701171875,0.01618424208164215,-0.018259587050974368,-0.013341419871151446
1769666743726907600,7.50590771484375,0.031817864543199535,-0.01196852408275008,-0.02200871045142412
1769666743736896500,7.515896484375,0.02766074486374855,-0.018583266047388313,-0.03321662542521953
1769666743746884600,7.525884521484375,0.025070143848657606,-0.003406301312148571,-0.031100363923609254
1769666743756873700,7.535873779296875,0.01677811632156372,-0.0031289456754922864,-0.011415127983689308
1769666743766861600,7.545861572265625,0.034845687931776045,-0.011720540671050548,-0.023398411244153976
1769666743776850700,7.5558505859375,0.04282558076977729,-0.022229367464780807,-0.009786942259967327
1769666743786839800,7.56583984375,0.026581717455387115,-0.019068126954883337,-0.017188742949068546
1769666743796827600,7.57582763671875,0.01900631376504898,-0.013062456799298523,-0.02208411377519369
1769666743806816500,7.58581640625,0.02470540218949318,-0.0016927753925323485,-0.027358254785835742
1769666743816804600,7.5958046875,0.0335404505521059,-0.002740238618850708,-0.02816138786226511
1769666743826793700,7.605793701171875,0.025293431210517883,-0.0013747954845428467,-0.03142652713805437
1769666743836782600,7.615782470703125,0.032576573956012725,-0.0015315934814512729,-0.02897738042026758
1769666743846770400,7.6257705078125,0.02896072154641151,-0.0008067863382399082,-0.021961071917414664
1769666743856759600,7.635759521484375,0.006958148574829101,-0.0037231121763586996,-0.013343757958710192
1769666743866747600,7.64574755859375,0.009364625194668769,-0.010086655858904123,-0.005713116949796676
1769666743876736800,7.65573681640625,0.006234510475397109,-0.009015519496053457,-0.012849544700980186
1769666743886725600,7.6657255859375,0.026577041280269623,-0.0010325579181313515,-0.017343348988890648
1769666743896713700,7.675713623046875,0.041807343637943264,-0.0024172902747988697,-0.031092472878098486
1769666743906702600,7.68570263671875,0.018875380861759185,-0.017489625591784713,-0.028209026396274563
1769666743916690700,7.695690673828125,0.016667641684412954,-0.015523147824406622,-0.018132453539967536
1769666743926679600,7.705679443359375,0.006993219888210296,-0.0026442308984696863,-0.020282325050234792
1769666743936668700,7.715668701171875,0.004162964898347854,-0.012314999432861804,-0.012287819164991378
1769666743946656800,7.72565673828125,0.035169513058662415,-0.020544190856814384,-0.03437544007152319
1769666743956645600,7.735645751953125,0.09103577718734741,-0.0170784144423902,-0.03887012114226818
1769666743966633500,7.745633544921875,0.06198854640126228,0.010086655858904123,-0.029981881287693975
1769666743976622600,7.75562255859375,0.03651274436116218,0.015033318480849265,-0.012675649438798427
1769666743986611700,7.76561181640625,0.0036976854741573332,-0.003468260632455349,-0.026798282815515995
1769666743996599600,7.775599609375,-0.03471358598470688,-0.0038385552495718,-0.018284429231286047
1769666744006588700,7.785588623046875,0.023254618859291077,-0.012644377517700195,-0.01034925231784582
1769666744016576500,7.795576416015625,0.03874561797976494,-0.012414222023636103,-0.025965046861767767
1769666744026565600,7.805565673828125,0.010887304717302322,-0.007470628141611814,-0.02822539300918579
1769666744036554500,7.815554443359375,-0.004968436062335968,-0.010550327847898005,-0.010149638092517852
1769666744046542600,7.82554248046875,0.017013094121217726,0.004959083712100983,-0.01292816289514303
1769666744056531700,7.83553173828125,0.055908934226632116,-0.005239654219150543,-0.02442950785756111
1769666744066519800,7.845519775390625,0.02169160732626915,-0.004203881430625916,-0.014706278483569622
1769666744076508400,7.85550830078125,-0.006818447843194008,-0.008913374295830726,-0.015864216347038745
1769666744086497500,7.86549755859375,0.011297054561972617,-0.0025501228742301463,-0.028521453346312044
1769666744096485600,7.875485595703125,0.049831660139560696,-0.0003527589604258537,-0.03664484630823135
1769666744106474800,7.885474853515625,0.048799979004263874,-0.02154606137573719,-0.038111996251344676
1769666744116462600,7.895462646484375,0.0467161584675312,-0.017599661837518214,-0.037492987570166586
1769666744126451700,7.90545166015625,0.03223755125999451,-0.007382949858158827,-0.021685762107372282
1769666744136440600,7.915440673828125,0.015825345641374586,-0.012148995216190814,-0.02537847914546728
1769666744146428700,7.9254287109375,0.022657237488031386,-0.011738076327741145,-0.030734453220665453
1769666744156417500,7.93541748046875,0.026074352455139158,-0.012009148354083298,-0.02653086405098438
1769666744166405600,7.945405517578125,0.023672552010416983,-0.02362505960687995,-0.02637362766265869
1769666744176394800,7.955394775390625,0.017190788775682447,-0.012277590031921862,-0.014493804776668548
1769666744186383600,7.965383544921875,0.035224458116292955,-0.01100873913988471,-0.03145253836214542
1769666744196371500,7.975371337890625,0.04770400046110153,-0.005873860469460487,-0.0374073551133275
1769666744206360600,7.985360595703125,0.029962007543444632,-0.004213087650388479,-0.030717794346809386
1769666744216348700,7.9953486328125,0.00717559071779251,-0.01820142712295055,-0.032463176709413524
1769666744226337800,8.005337890625,0.006704466074705123,-0.010998802267760038,-0.010904840373992919
1769666744236326700,8.01532666015625,0.04243921180069447,-0.016546791783720254,-0.023055004633963108
1769666744246314500,8.025314453125,0.03259352509081363,-0.011040449452400207,-0.018109949447214602
1769666744256303600,8.0353037109375,-0.011831892091035842,-0.006263736569881439,-0.006314882235229015
1769666744266291700,8.045291748046875,0.014030863440036774,-0.0011900865674018858,-0.013285305769741535
1769666744276280300,8.0552802734375,0.04854688102602958,-0.003435819667577743,-0.028111411240696906
1769666744286269400,8.06526953125,0.04730418748855591,-0.010836012921482324,-0.030533669951558113
1769666744296257500,8.075257568359374,0.04554594564437866,-0.022905074769258498,-0.027208617182075977
1769666744306246400,8.085246337890625,0.008799392527341842,-0.019243191260844467,-0.0289525382399559
1769666744316234200,8.095234130859374,0.0051852936834096905,-0.006719955904781818,-0.009974866047501564
1769666744326223400,8.105223388671876,0.0012847791135311127,0.002381049917638302,-0.012868833923339843
1769666744336212500,8.11521240234375,0.021658289578557012,-0.0012424012765288352,-0.0348825128108263
1769666744346200600,8.12520068359375,0.03628770343363285,-0.012524258269369601,-0.0416881011724472
1769666744356189400,8.135189453125,0.03696867143511772,-0.02342281503304839,-0.04047814086079597
1769666744366178300,8.14517822265625,0.02328618304133415,-0.01974851043447852,-0.0344490898296237
1769666744376166400,8.15516650390625,0.017069208222627637,-0.01205547171384096,-0.01598901177048683
1769666744386155300,8.1651552734375,0.015972645157575606,-0.004838233811408281,-0.025638299125432966
1769666744396143400,8.175143310546876,0.01879354779720306,-0.021889321855455637,-0.023161972139775753
1769666744406132500,8.185132568359375,0.05972761573195457,-0.01836465486064553,-0.04331950176656246
1769666744416121600,8.19512158203125,0.05335983426570892,-0.017930208966135976,-0.03147796506434679
1769666744426109400,8.205109375,0.038486674782633776,-0.008833294796943664,-0.02173807681649923
1769666744436098300,8.215098388671874,0.030365327647328376,-0.00003419453054666519,-0.02855038717985153
1769666744446086400,8.22508642578125,0.01696983950138092,-0.0021441724218428135,-0.013178046002984046
1769666744456075500,8.235075439453125,0.010043255108594894,-0.00795665809288621,-0.0388277433052659
1769666744466064400,8.245064453125,0.01588496687412262,-0.010460457607358694,-0.009309095615148543
1769666744476052200,8.25505224609375,0.0340285263299942,-0.018809914410114287,-0.03513064235299825
1769666744486041300,8.265041259765624,0.04211714023947716,-0.024776275468617676,-0.038759646505117415
1769666744496029400,8.275029541015625,0.03304068433642387,-0.015652911683917043,-0.040086803455650806
1769666744506018300,8.285018310546874,0.020074819779396055,-0.0024751579418778417,-0.02262742687165737
1769666744516007400,8.29500732421875,0.006201777249574661,-0.003722381523996591,-0.01308773737102747
1769666744525995500,8.30499560546875,0.006518588113784789,-0.013463146554678678,-0.03002572042942047
1769666744535984400,8.314984375,0.00265606746673584,-0.015050123485177754,-0.03237432938218117
1769666744545972200,8.32497216796875,0.03364858710169792,-0.01782835602685809,-0.03228665109872818
1769666744555961300,8.33496142578125,0.040109307548403736,-0.015806494810432194,-0.02550005969852209
1769666744565950500,8.344950439453125,0.023205519020557404,-0.009214256938546895,-0.03161415866464376
1769666744575938600,8.3549384765625,0.03087795334458351,-0.008319061664491891,-0.02863748094141483
1769666744585927400,8.364927490234376,0.016838906598091126,-0.011308891130238771,-0.02749854003936052
1769666744595915300,8.374915283203125,0.015644143855571745,-0.015090601626038551,-0.02242313647121191
1769666744605904400,8.384904296875,0.01923427730202675,-0.013132599426060914,-0.022045535330474375
1769666744615893200,8.394893310546875,0.019222586864233015,-0.0115973526827991,-0.03380933062136173
1769666744625881300,8.40488134765625,0.014145429730415344,-0.00888181011378765,-0.0250835878521204
1769666744635870500,8.414870361328125,0.0006944120049476623,-0.012513152353465557,-0.025654373477399347
1769666744645858300,8.4248583984375,0.0032458500534296034,-0.013942746765166521,-0.028967735809087753
1769666744655847400,8.434847412109375,0.01999064862728119,-0.0199400874838233,-0.029249475359916684
1769666744665836300,8.444836181640625,0.032353871116042134,-0.016077420706301925,-0.028706162263453006
1769666744675824400,8.454824462890626,0.03037117286622524,-0.018021248250454664,-0.040057577361166476
1769666744685813500,8.4648134765625,0.018120763102173806,-0.00946224035024643,-0.0309393281430006
1769666744695801600,8.474801513671874,0.007713350856304168,-0.008005319540202617,-0.011592530377209186
1769666744705790200,8.484790283203125,0.044809448063373565,-0.024198913972079752,-0.03702157066613435
1769666744715779300,8.494779296875,0.06418167253136635,-0.009595365210622549,-0.03364683353602886
1769666744725767400,8.504767333984375,0.10959610075056553,-0.006581278086453676,-0.045858080333471295
1769666744735756300,8.51475634765625,0.03488075924515724,0.00035042087286710737,-0.025941373725235462
1769666744745744400,8.524744384765626,-0.039048400318622584,-0.003705138128250837,-0.01573328344374895
1769666744755733500,8.5347333984375,0.009072948771715163,-0.007819587709754706,-0.04037175787687301
1769666744765722400,8.544722412109374,0.0480582207262516,-0.011159107396006583,-0.03734042735695839
1769666744775710500,8.55471044921875,0.020321488016843796,-0.02127279739230871,-0.03629530221819877
1769666744785699300,8.56469921875,0.0147398884922266,0.005764554876089096,-0.03011544453948736
1769666744795687400,8.5746875,-0.004485620981454849,-0.009247866947203875,-0.01953530607521534
1769666744805676500,8.584676513671875,0.006973930665850639,-0.015039602091163395,-0.03206891669481993
1769666744815665400,8.59466552734375,0.036842414706945416,-0.011163637440651655,-0.03863338977694511
1769666744825653200,8.6046533203125,0.0541360793352127,0.0021036942809820173,-0.04096972377002239
1769666744835642400,8.614642333984374,0.04767126723527908,-0.012342471961677074,-0.03393850995898247
1769666744845631500,8.624631591796875,0.022664251750707624,-0.008764613474905491,-0.024212942497432232
1769666744855619300,8.634619384765625,0.03609598025381565,-0.011924246549606322,-0.03272475025504827
1769666744865608400,8.6446083984375,0.03674246146380901,-0.01641249787956476,-0.04166501255780458
1769666744875596300,8.65459619140625,0.037546763584017755,-0.011923223636299371,-0.03628682665079832
1769666744885585400,8.66458544921875,0.0198550395488739,-0.00657455608472228,-0.029388007047772405
1769666744895574300,8.67457421875,0.016934183666110037,-0.011102993294596672,-0.020012860459089277
1769666744905562400,8.684562255859374,0.013604162460565566,-0.014182693000882863,-0.026095102982223034
1769666744915551500,8.694551513671875,0.021760580909252165,-0.0190348092071712,-0.046047757686674594
1769666744925539600,8.70453955078125,0.043082185879349706,-0.020576339560747146,-0.03614741818010807
1769666744935528200,8.714528076171876,0.038549218624830246,-0.022202917849272488,-0.022437749518454075
1769666744945517300,8.724517333984375,0.04153028026223182,-0.010086948119848966,-0.02703852131217718
1769666744955505400,8.73450537109375,0.023160510835051534,-0.013248188629746437,-0.023710838194191456
1769666744965494300,8.744494384765625,0.027796353942155835,-0.0031719080343842504,-0.03432078727483749
1769666744975482400,8.754482421875,0.024334230789542197,-0.020254414130002257,-0.03103577425479889
1769666744985471500,8.764471435546875,0.0279635272026062,-0.012279781989008188,-0.02914250785410404
1769666744995460400,8.77446044921875,0.03483984271287918,-0.00036620296388864516,-0.029245091445744036
1769666745005448400,8.784448486328126,0.035793197914958,-0.012610913639515638,-0.02184153719097376
1769666745015437300,8.794437255859375,-0.025851065093278884,-0.009310118528455496,-0.012694354139268397
1769666745025425400,8.80442529296875,0.0042728550136089324,0.0025743805326521397,-0.018800854320824144
1769666745035414500,8.81441455078125,0.058792380708456035,-0.00669876698628068,-0.03321984029561281
1769666745045403400,8.8244033203125,0.04190905044674873,-0.017123130366951227,-0.029520985777676104
1769666745055391200,8.83439111328125,0.005527238988876342,-0.017976824586838483,-0.026573241887986657
1769666745065380400,8.84438037109375,0.031684593552350995,-0.015802987679094074,-0.04031798186302185
1769666745075368400,8.854368408203126,0.03703998310565948,-0.013880787444859743,-0.01731879906952381
1769666745085357300,8.864357421875,0.0009960253000259398,-0.009724106156826019,-0.007850713500380515
1769666745095346400,8.874346435546874,0.00772854842543602,-0.01267155778557062,-0.02003536455184221
1769666745105334300,8.884334228515625,0.033897008904814716,-0.023220862720161675,-0.04168284047544002
1769666745115323400,8.894323486328124,0.04266308368444442,-0.01675955775156617,-0.03679565295577049
1769666745125311500,8.9043115234375,0.01509936945438385,-0.010376870977133511,-0.03019435499459505
1769666745135300400,8.91430029296875,0.030627777975797653,-0.022389234201610087,-0.031002456507086752
1769666745145289500,8.92428955078125,0.022325229054689404,-0.027831425255537032,-0.024612755469977855
1769666745155277600,8.934277587890625,0.02330488774180412,-0.005212327820807695,-0.03103606651574373
1769666745165266200,8.94426611328125,0.036408699464797974,-0.011455752255022525,-0.02352759058177471
1769666745175254300,8.954254150390625,0.02125321590900421,-0.020039602335542438,-0.041654491163790226
1769666745185243400,8.964243408203124,0.012892799320816993,-0.003952975409477949,-0.016642799504101274
1769666745195232500,8.974232421875,0.02160918973982334,-0.010407119984924792,-0.023640987828373906
1769666745205220400,8.984220458984375,-0.000623100334405899,-0.021528087327629328,-0.01545183615386486
1769666745215209500,8.99420947265625,0.02471358549594879,-0.010793196693062782,-0.025188217270374298
1769666745225197300,9.004197265625,0.040406829190254206,-0.015142624074220656,-0.0394683792963624
1769666745235186400,9.0141865234375,0.028653263032436368,-0.012343202614039182,-0.035199031414091586
1769666745245175300,9.02417529296875,0.05524783996939659,-0.009425415471196174,-0.03874240310937166
1769666745255163400,9.034163330078124,0.027125322812795637,-0.011679478008300066,-0.02741846054047346
1769666745265152500,9.044152587890625,0.012053425887227057,-0.006976268753409385,-0.030023674602806565
1769666745275140600,9.054140625,0.010776245558261871,-0.00696954675167799,-0.021940613651275632
1769666745285129500,9.06412939453125,0.03550619766712188,-0.007835223670303822,-0.03047258741408586
1769666745295118600,9.07411865234375,0.02964695024490356,-0.009373685283958912,-0.03678016312569379
1769666745305106400,9.0841064453125,0.03502455163002014,-0.009681436058878898,-0.038542496623098846
1769666745315095600,9.094095458984375,0.02620937701165676,-0.0051939153812825675,-0.024132570737600324
1769666745325083400,9.10408349609375,0.02403086392879486,-0.007682225065678358,-0.027926994584500788
1769666745335072500,9.114072509765625,0.029649872854351996,-0.014424100541323422,-0.02302168688625097
1769666745345061600,9.1240615234375,0.021612112349271774,-0.017736439959704874,-0.01234656361490488
1769666745355049700,9.1340498046875,0.03795651342868805,-0.02317877714410424,-0.029245968228578566
1769666745365038300,9.144038330078125,0.034518355673551555,0.0012923778980970383,-0.023512100751698017
1769666745375027500,9.15402734375,0.02313420735001564,-0.0039472763210535045,-0.03380523896813392
1769666745385015600,9.164015625,0.03121463795304298,-0.018706746296584604,-0.04066021942943334
1769666745395004400,9.17400439453125,0.023460370564460754,-0.022458500045537948,-0.037733810588717456
1769666745404992500,9.183992431640625,0.017676526466012,-0.01405365979373455,-0.026250878065824507
1769666745414981600,9.193981689453125,0.017400047612190245,-0.018084084353595972,-0.03200724963545799
1769666745424970500,9.203970458984376,0.026342063480615616,-0.009838526316732167,-0.03570990354567766
1769666745434958300,9.213958251953125,0.030994857722520825,-0.01810615005493164,-0.019670915153622626
1769666745444947500,9.223947509765624,0.03076689418554306,-0.002186111867427826,-0.018209318168461323
1769666745454935600,9.233935546875,-0.0014729951620101928,-0.012007248657941817,-0.02532265730500221
1769666745464924700,9.243924560546875,0.01172784719467163,-0.018904460825771092,-0.03697247082740068
1769666745474913500,9.25391357421875,0.033678397718071934,-0.022097850039601324,-0.044853287205100054
1769666745484901400,9.2639013671875,0.07944353907108306,-0.022983108441531657,-0.04117810582369566
1769666745494890500,9.273890380859376,0.050307460957765573,0.0011990005262196063,-0.027518998305499552
1769666745504878600,9.283878662109375,0.03231237006187439,-0.014447335286438464,-0.014772037196159361
1769666745514867500,9.293867431640624,-0.015064298141002654,-0.02780921342372894,-0.0301616217687726
1769666745524856600,9.303856689453125,0.01875146222114563,-0.025942396638542413,-0.037383097454905506
1769666745534844400,9.313844482421874,0.05073883811235427,-0.023317601092904806,-0.04044014693796635
1769666745544833500,9.32383349609375,0.03976502415537834,-0.01604044969677925,-0.04152385052144527
1769666745554821400,9.3338212890625,0.009543488892912864,-0.007567512644827365,-0.027837270474433896
1769666745564810500,9.343810546875,-0.011186579924821853,-0.0014110358417034148,-0.008594809865951538
1769666745574799600,9.353799560546875,0.008199673068523407,-0.015602496670931576,-0.011302315258979796
1769666745584787700,9.36378759765625,0.014093991804122925,-0.002892068179696798,-0.02906973487883806
1769666745594776300,9.3737763671875,0.03118716542422771,-0.005159866981208324,-0.030243747094273566
1769666745604764400,9.383764404296874,0.04303776221573353,-0.004554010042548179,-0.029314941811561582
1769666745614753500,9.39375341796875,0.03448679149150848,-0.00895107595771551,-0.03607172259539366
1769666745624742400,9.403742431640625,0.03941314197778702,-0.018174977507442236,-0.038249943417310715
1769666745634730500,9.41373046875,0.030271219623088836,-0.013266601069271564,-0.034192484720051285
1769666745644719600,9.4237197265625,0.022359715846180916,-0.03284092398062348,-0.01375730719566345
1769666745654707500,9.43370751953125,0.011704466319084167,-0.02242766651585698,-0.01792787087857723
1769666745664696600,9.443696533203125,0.02062660844326019,-0.02217018462345004,-0.03040507513582706
1769666745674685400,9.453685546875,0.021284780091047287,-0.010806494566053152,-0.03938566944897175
1769666745684673500,9.463673583984376,0.03514788574874401,-0.010942834296822548,-0.039025311703979965
1769666745694662700,9.47366259765625,0.030635961282253262,-0.02511924368739128,-0.03421381976902485
1769666745704650500,9.483650390625,0.003395487657189369,-0.015517887127399444,-0.027191666047275066
1769666745714639400,9.493639404296875,-0.01257481941282749,-0.011001140355318784,-0.022256547732651233
1769666745724628500,9.50362841796875,0.03909866920113563,-0.030526217297464606,-0.02856646153181791
1769666745734616600,9.513616455078125,0.05065115982890129,-0.023212971674650907,-0.03647562722116709
1769666745744605400,9.52360546875,0.03657704176902771,-0.029108313323557376,-0.03847703017145395
1769666745754593500,9.533593505859375,0.037602877685427666,-0.006143325060606003,-0.04001052334904671
1769666745764582400,9.54358251953125,0.03771101423501968,-0.009966244349628686,-0.02305705046057701
1769666745774571500,9.553571533203124,0.01884732381105423,-0.007443301743268967,-0.02556932554244995
1769666745784559600,9.5635595703125,-0.017447393885254858,-0.00663490796983242,-0.012228782454133034
1769666745794548500,9.573548583984374,-0.004224924218654632,-0.005570785869657993,-0.009277531433105468
1769666745804537600,9.58353759765625,0.04588146120905876,-0.009696049106121063,-0.04335720342844725
1769666745814525700,9.593525634765625,0.05221650944948196,-0.023070056072622535,-0.05665507641881704
1769666745824514300,9.603514404296876,0.04091828584372997,-0.018651655108481643,-0.041295010201632974
1769666745834502400,9.61350244140625,0.018715806385874747,-0.008792524395138024,-0.027800737856328486
1769666745844491500,9.623491455078126,-0.006261398482322693,-0.016546207261830568,-0.00021218144595623015
1769666745854480400,9.63348046875,-0.000353051221370697,-0.020285393790155648,-0.01927723966091871
1769666745864468500,9.643468505859374,0.01634849273264408,-0.01728065901622176,-0.03490121751129627
1769666745874457600,9.65345751953125,0.03451251045465469,-0.0158726919144392,-0.05091302563548088
1769666745884445400,9.663445556640625,0.05281272177696228,-0.015453151328116654,-0.04838730655014515
1769666745894434600,9.6734345703125,0.04594809670448303,-0.01828968992829323,-0.03844692729413509
1769666745904423400,9.68342333984375,0.02738309696614742,-0.008515753280371427,-0.041378304570913314
1769666745914411500,9.69341162109375,-0.004632335975766182,-0.010827245093137025,-0.023065526027977467
1769666745924400600,9.703400634765625,0.015729484051465986,-0.020968992140144107,-0.023247604596614835
1769666745934388500,9.713388427734374,0.028341128343343732,-0.027853052565455436,-0.03613543548136949
1769666745944377300,9.72337744140625,0.008172785061597824,-0.015174188256263732,-0.03964344360232353
1769666745954366500,9.733366455078125,0.017184943556785584,-0.013510492827743291,-0.028156419426202773
1769666745964354600,9.7433544921875,0.047620998352766036,-0.01818696020618081,-0.04257189826965332
1769666745974343400,9.753343505859375,0.03243161252737045,-0.023349019144475458,-0.03196867119073868
1769666745984331500,9.76333154296875,0.007348024675250053,-0.020366788463294504,-0.025435762290656565
1769666745994320400,9.7733203125,0.015353051954507826,-0.02008943282663822,-0.033359248766303064
1769666746004309500,9.7833095703125,0.03140519208908081,-0.016572949138283728,-0.032740824607014656
1769666746014297600,9.793297607421875,0.04196516454815864,-0.012387041755765675,-0.03792816411703825
1769666746024286500,9.803286376953125,0.02994505640864372,-0.021963702265918254,-0.03572948502898216
1769666746034274600,9.813274658203126,0.03637830432653427,-0.009218786983191967,-0.027673896606266495
1769666746044263700,9.823263671875,0.0053904608666896815,-0.02479877956137061,-0.026642799992859362
1769666746054252300,9.833252197265624,-0.012771218767762183,-0.013401479495316743,-0.01876782883405685
1769666746064240400,9.843240478515625,0.007590601259469985,-0.011543430538475513,-0.02506663671731949
1769666746074229500,9.8532294921875,0.03793196350932121,-0.013069617192447185,-0.04876432316899299
1769666746084217600,9.863217529296875,0.04764963992536068,-0.03155994425937533,-0.03858078280687332
1769666746094206500,9.87320654296875,0.044677346116304396,-0.010530015712231397,-0.02859276501685381
1769666746104195600,9.883195556640626,0.009101590344309806,-0.018936609529703854,-0.02855214074552059
1769666746114183400,9.893183349609375,0.021416882038116453,-0.021932430344820023,-0.024806232215464113
1769666746124172500,9.903172607421874,0.014722937357425688,-0.017081483182311057,-0.03167085728794336
1769666746134160600,9.91316064453125,0.0023199673801660536,-0.016814502809196708,-0.0317737331405282
1769666746144149500,9.9231494140625,0.023965981999039647,-0.018116379188001155,-0.030710487823188304
1769666746154138600,9.933138671875,0.030323826593160626,-0.015385492919385433,-0.036760289381444454
1769666746164126500,9.94312646484375,0.02974456540048122,-0.013134352991729974,-0.044049569606781004
1769666746174115300,9.953115234375,0.03760755386054516,-0.027302140684425828,-0.033007074327766894
1769666746184103400,9.963103515625,0.07491115633845329,-0.020262743566930294,-0.041973932376503945
1769666746194092500,9.973092529296874,0.07422142050862311,-0.0177406777434051,-0.05016454535573721
1769666746204081400,9.983081298828125,0.01403144796192646,-0.015665478904545307,-0.01067132387906313
1769666746214069500,9.993069580078124,0.0010194061756134032,-0.004070756570249795,-0.011996435002982616
1769666746224058400,10.003058349609375,-0.01948211458325386,-0.0031321605458855626,-0.021143618054687976
1769666746234046500,10.01304638671875,-0.01628477984666824,-0.011610212164372205,-0.02445698038637638
1769666746244035600,10.02303564453125,0.03624152620434761,-0.015841712254285812,-0.038617899946868414
1769666746254024400,10.0330244140625,0.03324585151970386,-0.02393880173116922,-0.04209025223255157
1769666746264012500,10.043012451171874,0.04378711927831173,-0.013685995525121689,-0.022103402997553347
1769666746274002000,10.053001953125,0.06771627639830112,-0.015088994190841913,-0.042371991783380504
1769666746283990800,10.06299072265625,0.015007014995813368,-0.016154723726212978,-0.0407666024133563
1769666746293978600,10.072978515625,0.005554126995801926,0.007652852840721607,-0.02939092965722084
1769666746303967700,10.0829677734375,0.0019078794479370116,-0.007281389179825782,-0.01544832902252674
1769666746313955800,10.092955810546876,-0.020786767441034314,-0.004986117849498987,0.002453238371014595
1769666746323944700,10.10294482421875,-0.027087913411855697,-0.019947686268389223,-0.006317512583732605
1769666746333933800,10.112933837890624,-0.0033960721790790554,-0.037625966300070285,-0.037163901746273036
1769666746343922000,10.122921875,-0.06109364338815212,-0.02597162273302674,-0.04233575142621994
1769666746353910800,10.132910888671875,0.06608487580418586,-0.04476999283581972,-0.04786299041509628
1769666746363899000,10.14289892578125,0.12173369778990745,-0.014323416645824908,-0.07539747855067253
1769666746373887700,10.1528876953125,0.07516425431668758,-0.02663388603404164,-0.05598316850662231
1769666746383876900,10.162876953125,0.04331541011333465,-0.03957870780304074,-0.033247020563483234
1769666746393865000,10.172864990234375,0.009143091398477554,-0.009648118311166763,-0.020271511395275593
1769666746403853800,10.182853759765624,-0.038380291798710824,-0.023133038306236267,-0.013227730363607406
1769666746413841700,10.192841552734375,-0.06466565665602683,-0.006240501824766397,0.0018798223972320556
1769666746423830800,10.202830810546875,-0.09792495217919349,0.005782236663252115,0.006335048240423202
1769666746433819600,10.212819580078126,-0.04847556935548782,-0.009037731327861547,-0.009151859226822852
1769666746443807700,10.222807861328125,0.0077250412940979,-0.018294804494827985,-0.02918693151772022
1769666746453796900,10.232796875,0.023954876083135603,-0.016686054123938084,-0.0484133177742362
1769666746463784700,10.24278466796875,-0.028708792611956593,-0.014796440985053777,-0.012243103240430354
1769666746473773800,10.25277392578125,-0.07073416291475296,-0.011877484798431396,-0.012594400896131992
1769666746483762700,10.2627626953125,-0.06597966186404228,0.0009312895007431507,-0.005464695146679878
1769666746493750800,10.272750732421875,0.06331950274407863,0.0075793492130935185,-0.020828560756146905
1769666746503740000,10.282739990234376,0.16268588590323924,-0.0041477673292160035,-0.0925613793194294
1769666746513728000,10.29272802734375,0.19207798460423944,-0.007770634001493453,-0.12418342902958393
1769666746523716600,10.302716552734376,0.1347416479229927,-0.014704817178845404,-0.08865355822592973
1769666746533705700,10.312705810546875,0.08574117791056632,-0.017664689897745847,-0.04120324026495218
1769666746543693800,10.32269384765625,0.09288578896820544,-0.004821867198497057,-0.039211774186789984
1769666746553682700,10.3326826171875,0.09924363356232642,-0.028306495421379804,-0.049879298673570154
1769666746563670800,10.3426708984375,0.08117313934266566,-0.02198299148827791,-0.04360854784101247
1769666746573660000,10.352659912109376,0.13093991755247114,-0.003679419165104627,-0.05885375550687313
1769666746583648800,10.362648681640625,0.03415712114572525,-0.026708558705449102,-0.037113925124704836
1769666746593636900,10.372636962890626,-0.028194997870922087,-0.0071608315400779245,-0.02957739214003086
1769666746603625700,10.382625732421875,-0.0802870041579008,-0.01751227581501007,-0.00357756622582674
1769666746613613800,10.39261376953125,-0.11908289102017879,-0.02372822772040963,0.01574292805492878
1769666746623603000,10.40260302734375,-0.0492389549434185,-0.019676029720157383,-0.01608311979472637
1769666746633591800,10.412591796875,-0.005697334858775139,-0.025435031638294456,-0.03725245681256056
1769666746643579600,10.42257958984375,0.03822773158550262,-0.02373626489639282,-0.04943623108118772
1769666746653568800,10.43256884765625,0.04814472996592521,-0.02080751796811819,-0.03188274647295475
1769666746663556900,10.442556884765626,0.09258592923879623,-0.019511194547265766,-0.03537351119816303
1769666746673545700,10.452545654296875,0.05764671780467033,-0.010640636479854583,-0.049878714151680464
1769666746683534800,10.462534912109374,0.02310147412419319,-0.01411415780931711,-0.042490649726986886
1769666746693522700,10.472522705078125,0.03971709336042404,-0.022570289856940505,-0.03637187458574772
1769666746703511800,10.48251171875,0.03687514793276787,-0.029985242288559675,-0.0487576011672616
1769666746713500000,10.4925,0.020059622210264205,-0.02144946913346648,-0.04303425508439541
1769666746723488800,10.50248876953125,0.002026537391543388,-0.004186930295825004,-0.03145516871064901
1769666746733478000,10.512477783203124,0.0007984569013118743,-0.01371463709771633,-0.03223316734582186
1769666746743466000,10.522466064453125,-0.004433014011383057,-0.015447159978747366,-0.015444237369298935
1769666746753454600,10.53245458984375,-0.0007049333989620208,0.003670651336759329,-0.014021511089801788
1769666746763443700,10.542443603515625,-0.001911386579275131,-0.021388824987411497,-0.025025720185041424
1769666746773431800,10.552431884765625,0.05775543887615203,-0.033782004223018886,-0.02699965060651302
1769666746783421000,10.5624208984375,0.062304188221693035,-0.029725130047649144,-0.04492547565847635
1769666746793408800,10.57240869140625,0.027435703936219212,-0.0312802505351603,-0.03534107023328543
1769666746803398000,10.58239794921875,0.005588029265403747,-0.01920344377234578,-0.04100654864907265
1769666746813385700,10.5923857421875,0.037973464563488955,-0.01210866320580244,-0.03592208499163389
1769666746823374800,10.602374755859374,0.03191489517688751,-0.026175913133472204,-0.035462650786340234
1769666746833363700,10.61236376953125,0.013840893825888633,-0.03012158201932907,-0.03645458443313837
1769666746843351800,10.622351806640625,0.02698269947171211,-0.02640460732281208,-0.03552811723798513
1769666746853341000,10.6323408203125,0.035436639562249184,-0.021133535052090882,-0.03772708858698606
1769666746863329800,10.642329833984375,0.027568974927067755,-0.013559592666476964,-0.03185819655358791
1769666746873317600,10.652317626953124,0.030925299617648123,-0.003097819884866476,-0.03344605026692152
1769666746883306800,10.662306640625,0.01756546730697155,-0.03142623487710953,-0.025998656870424745
1769666746893294800,10.672294921875,0.010341945794224738,-0.032241789043694735,-0.03127513596862554
1769666746903283700,10.68228369140625,0.024832827961444853,-0.020447306353598833,-0.02181318787932396
1769666746913272800,10.69227294921875,0.010597381860017775,-0.03229278857856989,-0.030824469591677187
1769666746923260700,10.7022607421875,0.0247872352540493,-0.02441182607039809,-0.04683569319397211
1769666746933249800,10.712249755859375,0.016539046868681906,-0.016273235539346932,-0.026858196309208868
1769666746943238000,10.72223779296875,0.019982465320825576,-0.015280132848769425,-0.03396715153157711
1769666746953226800,10.732226806640625,0.006882160729169845,-0.021972908485680818,-0.03587999941557646
1769666746963216000,10.7422158203125,0.0030775077491998672,-0.028959260241687296,-0.02462736851722002
1769666746973204000,10.752203857421875,0.03996843777298927,-0.024284400298446415,-0.0315711963057518
1769666746983192600,10.762192626953125,0.0464157142162323,-0.012080606155097484,-0.04709609769582748
1769666746993180700,10.7721806640625,0.041942952716350554,-0.013186229309439659,-0.03806406545639038
1769666747003169800,10.782169677734375,0.030171850901842115,-0.022482611573487517,-0.03788374045342207
1769666747013159000,10.792158935546874,0.02738134340047836,-0.029997955639660356,-0.02895429180562496
1769666747023146800,10.802146728515625,0.033325931018590924,-0.03402560372054576,-0.04143646449893713
1769666747033135900,10.812135986328125,0.02277647995352745,-0.03388224972710013,-0.030543022301793097
1769666747043123700,10.822123779296875,0.017258008792996406,-0.02994125701636076,-0.04561959540247917
1769666747053112800,10.83211279296875,0.0410346056997776,-0.022498247534036633,-0.05163257208168506
1769666747063101700,10.842101806640626,0.004070610439777374,-0.01876125296279788,-0.036192718626558776
1769666747073089800,10.85208984375,-0.007088496956229209,-0.013029869703948496,-0.016336510033905505
1769666747083079000,10.862078857421874,-0.0081955814152956,-0.01667056429386139,-0.019029694640636443
1769666747093066800,10.872066650390625,-0.0008528174370527267,-0.020797581095993518,-0.04848813657611608
1769666747103055600,10.8820556640625,0.032978725016117094,-0.025326602827757595,-0.041647184640169144
1769666747113044700,10.892044677734376,0.07491992416679859,-0.02534925305098295,-0.04913491004705429
1769666747123032800,10.90203271484375,0.05530161598324775,-0.021788199568539855,-0.03516308331787586
1769666747133022000,10.91202197265625,0.08195815224051475,-0.0034381577551364896,-0.03717179279178381
1769666747143009800,10.922009765625,0.03169628399014473,-0.01641512822806835,-0.04244681058526039
1769666747152998700,10.93199853515625,0.0012988076388835907,-0.02244622508585453,-0.04572276351600885
1769666747162987800,10.94198779296875,0.022471359527111053,-0.013484335473179817,-0.05318973839581012
1769666747172975900,10.951975830078124,0.021309330010414122,-0.03744549516662955,-0.04754997894316911
1769666747182964700,10.96196484375,-0.023800562304258345,-0.026796675380319355,-0.026112930899858472
1769666747192952800,10.971952880859375,-0.03455927220582962,-0.007755290301889181,-0.009330722925066948
1769666747202942000,10.98194189453125,-0.01210778642296791,-0.014512071085721253,-0.0165633045271039
1769666747212930600,10.9919306640625,0.024276363122463226,-0.024351766446232794,-0.027374329137802123
1769666747222918700,11.001918701171874,0.022643208962678907,-0.025929244896024464,-0.023386136284470557
1769666747232907800,11.01190771484375,0.02835048069357872,-0.021986937011033294,-0.03854980314671993
1769666747242896000,11.021895751953124,0.007355623459815978,-0.01768646333813667,-0.03804389945119619
1769666747252885000,11.031885009765626,0.03579845861196518,-0.01257744976133108,-0.057335459898412225
1769666747262873900,11.041873779296875,0.032357378247380254,-0.016867255909740923,-0.05330518146902322
1769666747272862000,11.051862060546876,0.026738953843712804,-0.02341930790171027,-0.028331775993108748
1769666747282851000,11.06185107421875,0.03791442785263061,-0.039240123498439784,-0.03001081512123346
1769666747292839700,11.071839599609374,0.042220016092061996,-0.02621814484000206,-0.04489683408588171
1769666747302827800,11.081827880859375,0.023785364735126494,-0.02255363098308444,-0.037592356291413304
1769666747312817000,11.09181689453125,0.035242578294873234,-0.023172201272845267,-0.05357026214599609
1769666747322805000,11.101804931640626,0.01657470270395279,-0.010853840839117765,-0.03887479731738567
1769666747332793900,11.1117939453125,0.028946108499169346,-0.02544847564175725,-0.033519700025022026
1769666747342783000,11.121782958984374,0.017357962036132813,-0.029911446399986743,-0.02817395508289337
1769666747352770800,11.131770751953125,0.017840777117013932,-0.02572641580030322,-0.031087212181091308
1769666747362760000,11.141760009765624,0.039833997738361354,-0.023313217178732155,-0.03919920696616173
1769666747372747800,11.151747802734375,0.04731003270745277,-0.01979468766376376,-0.0481932452827692
1769666747382737000,11.16173681640625,0.02026712748110294,-0.017460253366827962,-0.04019757035374641
1769666747392726000,11.17172607421875,0.06825579010248184,-0.021568127077072858,-0.027208324921131132
1769666747402713900,11.1817138671875,0.0290004690349102,-0.025157383740693328,-0.028759646016359327
1769666747412702700,11.19170263671875,-0.024272855991125105,-0.026636662513017655,-0.02274286994487047
1769666747422690800,11.20169091796875,0.0292401230096817,-0.024947394251823424,-0.031230712305009362
1769666747432680000,11.211679931640624,0.05900047050118446,-0.012079144850373267,-0.044295068800449366
1769666747442668800,11.221668701171875,0.036679917621612546,-0.01208192132934928,-0.04968085349202156
1769666747452657000,11.231656982421875,0.04058920001983642,-0.027737463361769913,-0.03738923493474722
1769666747462645800,11.241645751953126,0.040709027007222176,-0.018119155666977166,-0.038023733446002
1769666747472633900,11.2516337890625,0.03759644794464111,-0.013429244285076856,-0.02857698292583227
1769666747482623000,11.261623046875,0.019337153154611587,-0.0274362884581089,-0.036518005058169364
1769666747492611800,11.27161181640625,0.007310030752420425,-0.018099428053200244,-0.03445551957041025
1769666747502600000,11.281599853515624,0.030422026270627973,-0.007840338236838579,-0.03372866660058498
1769666747512589000,11.291589111328125,0.022527473628520964,-0.009613046997785568,-0.037706922581791875
1769666747522577000,11.301576904296875,5.845218896865844e-7,-0.013433482068777083,-0.03676730364412069
1769666747532565800,11.311565673828126,0.004879004213213921,-0.03589066694006324,-0.02974193505197763
1769666747542555000,11.321554931640625,0.027847791868448254,-0.023532412887364625,-0.040298400379717346
1769666747552543000,11.33154296875,0.023591303467750548,-0.02190218133702874,-0.03973404449522495
1769666747562531800,11.34153173828125,0.03712123164832592,-0.0218256089694798,-0.03836217162013054
1769666747572519700,11.351519775390624,0.0387777666836977,-0.011741437328606844,-0.03979804964214563
1769666747582508800,11.3615087890625,0.029654549029469488,-0.01775368335545063,-0.03583557575196027
1769666747592498000,11.371497802734375,0.005141454541683197,-0.014639935249090194,-0.028508301603794098
1769666747602486000,11.381486083984376,0.013711714488267898,-0.02957753827050328,-0.02177899334877729
1769666747612475000,11.391474853515625,0.016451953107118604,-0.0333500425465405,-0.04220569530576467
1769666747622463000,11.401462890625,0.03232113789021969,-0.019507687415927646,-0.03869038066118955
1769666747632451800,11.411451904296875,0.02171732628941536,-0.02401318214163184,-0.03966185604184866
1769666747642440700,11.421440673828124,0.02771335183382034,-0.02033537041172385,-0.03388619524985552
1769666747652428800,11.4314287109375,0.021158523362874982,-0.0306692790299654,-0.03909866920113563
1769666747662418000,11.44141796875,0.008756137907505035,-0.026285218726843595,-0.03385200071930885
1769666747672406000,11.451406005859376,0.014920505756139754,-0.023197189583629367,-0.03243219704926014
1769666747682395000,11.461394775390625,0.024091069683432578,-0.02155848246589303,-0.0343903453797102
1769666747692383700,11.4713837890625,0.010491583397984503,-0.011263882944732904,-0.0360740606829524
1769666747702371800,11.481371826171875,0.009610124388337134,-0.007705752071738243,-0.023846739533543587
1769666747712361000,11.49136083984375,0.03153261786103249,-0.018686288030445575,-0.03860299463868141
1769666747722349800,11.501349853515626,0.03597966039776802,-0.028596856670081612,-0.026376842533051965
1769666747732338000,11.511337890625,0.039250644892454147,-0.02127703517600894,-0.024760347247123716
1769666747742327000,11.5213271484375,0.04551496598422527,-0.026268559852987525,-0.036628479695320126
1769666747752315000,11.53131494140625,0.032787001836299894,-0.022485680313408373,-0.04294745358377695
1769666747762303700,11.5413037109375,0.020934066957235334,-0.02932619385793805,-0.03041910366117954
1769666747772292900,11.55129296875,0.0030360066950321195,-0.021256576909869908,-0.025156945349276063
1769666747782281000,11.561281005859374,-0.01575111136138439,-0.014287468549609184,-0.018560031302273274
1769666747792269800,11.571269775390626,-0.015372925698757171,-0.0025840251438319682,-0.03732201491743326
1769666747802257700,11.581257568359375,0.0231271930873394,-0.017002280466258526,-0.025180033963918685
1769666747812246800,11.591246826171876,0.025791443860530852,-0.03485913193523884,-0.04378448892980814
1769666747822236000,11.60123583984375,0.03444879756867886,-0.033695056591928,-0.04776245265007019
1769666747832224000,11.61122412109375,0.03968319109082222,-0.030189532689005136,-0.04100917899757624
1769666747842212900,11.621212890625,0.02129062530994415,-0.012352554964274167,-0.04785246902108192
1769666747852201000,11.631200927734374,-0.009218494722247124,-0.009959960739314556,-0.037053719370067115
1769666747862189800,11.64118994140625,0.026747137150168417,-0.017237258265912533,-0.03811374981701374
1769666747872178700,11.6511787109375,0.064601943770051,-0.02225976260304451,-0.05235504113733768
1769666747882166800,11.661166748046876,0.10802724399864673,-0.010073796377331018,-0.05645926158577203
1769666747892156000,11.671156005859375,0.054854456737637516,0.002502338209748268,-0.0269461668536067
1769666747902144000,11.68114404296875,-0.010143792873620987,-0.031698768208175895,-0.02275982107967138
1769666747912132900,11.6911328125,-0.00004793079495429992,-0.027033845137059687,-0.04971387897878885
1769666747922121700,11.701121826171875,0.006481178712844848,-0.014622399592399596,-0.03734305770546198
1769666747932109800,11.71110986328125,0.017882862693071364,-0.026777386157959698,-0.033812545491755004
1769666747942099000,11.721098876953125,0.019816461104154585,-0.03801905727088451,-0.0586915506824851
1769666747952087000,11.731087158203126,-0.02168985376060009,-0.022572627944499254,-0.024628245300054547
1769666747962076000,11.741075927734375,-0.012071546065807341,-0.021825901230424643,-0.01493073488920927
1769666747972065000,11.75106494140625,0.04216624007821083,-0.019922113435715434,-0.02938742252588272
1769666747982052900,11.761052978515625,0.03904489318728447,-0.023060119200497865,-0.04675765952169895
1769666747992041700,11.771041748046875,0.048425300472974775,-0.013887217185646296,-0.056333297118544574
1769666748002029800,11.78102978515625,0.0344774391412735,-0.005425093788653612,-0.03786211314350366
1769666748012019000,11.79101904296875,0.008664367970824241,-0.015723638832569123,-0.025709903056919572
1769666748022008000,11.801008056640624,0.04708849891126156,-0.02550195939466357,-0.04427782540470362
1769666748031995600,11.81099560546875,0.03329553588032722,-0.025920330937206745,-0.03650368427187204
1769666748041984800,11.82098486328125,0.00488251134455204,-0.035395576899498696,-0.031841245418787
1769666748051972900,11.830972900390625,0.008007949888706206,-0.028009266040474174,-0.026567688930034635
1769666748061962000,11.8409619140625,0.02394669277667999,-0.020078473041206597,-0.04350158033519983
1769666748071950800,11.850950927734376,0.04388005825877189,-0.024769991858303544,-0.04677139578610658
1769666748081939000,11.86093896484375,0.03541618129611015,-0.02639671627730131,-0.042485389029979705
1769666748091927800,11.870927734375,0.036411037552356716,-0.016003624817728997,-0.03649287061691284
1769666748101916000,11.880916015625,0.02193418391048908,-0.016483809550106525,-0.03757862002700567
1769666748111904800,11.89090478515625,0.027250410497188567,-0.022497370751202107,-0.03658259472697973
1769666748121894000,11.900893798828125,0.02025017634630203,-0.020916385170072316,-0.041975685942173005
1769666748131882000,11.910882080078125,0.03560322830080986,-0.010548135890811682,-0.053075172105431556
1769666748141870800,11.920870849609376,0.02006079125404358,-0.02497457451969385,-0.03977934494167566
1769666748151859700,11.930859619140625,0.02771685896515846,-0.021196078894287346,-0.0462435725197196
1769666748161847800,11.940847900390626,0.04200725012421608,-0.018415508265048265,-0.039786066943407056
