time,seconds_elapsed,acc_z,acc_y,acc_x,gyro_z,gyro_y,gyro_x
1.77E+18,0.054411865,-0.050410337,-0.027500001,-0.053332069,0.036594607,-0.050671224,-0.165563434
1.77E+18,0.064400879,-0.077900401,-0.039346506,-0.002606675,0.023440722,-0.068991907,-0.179354876
1.77E+18,0.074389893,-0.052059858,-0.051772273,0.061270461,0.010156903,-0.072923705,-0.194238767
1.77E+18,0.084377686,-0.056503978,0.006351415,0.093505967,-0.000725571,-0.075062491,-0.201570451
1.77E+18,0.094366699,0.015199323,0.01839315,0.060892568,-0.010138946,-0.072770484,-0.192780927
1.77E+18,0.104354736,0.055864511,0.004862638,0.021659751,-0.015758481,-0.098469727,-0.193665355
1.77E+18,0.11434375,0.093577278,0.021750644,-0.006869301,-0.018823262,-0.111510873,-0.216087222
1.77E+18,0.124332764,-0.04348083,-0.00435235,-0.017334581,-0.022801492,-0.119437769,-0.254855394
1.77E+18,0.134320557,-0.1711106,-0.01237199,-0.007914426,-0.031176388,-0.124083564,-0.302118391
1.77E+18,0.144309814,-0.203518247,-0.008660276,0.021920155,-0.033410247,-0.119862989,-0.327509224
1.77E+18,0.154297852,-0.191186004,0.01343582,0.026339725,-0.035322469,-0.12072292,-0.320107788
1.77E+18,0.164286865,-0.011254969,0.012564883,0.033158173,-0.036836207,-0.138125077,-0.301523209
1.77E+18,0.174275879,0.158186236,-0.020890228,-0.002377251,-0.033849884,-0.154666066,-0.284338981
1.77E+18,0.184263916,0.118137719,-0.041318099,-0.030977614,-0.027882272,-0.172535613,-0.275661081
1.77E+18,0.194252686,0.015687983,-0.089257662,-0.065828563,-0.018565264,-0.175116301,-0.270678252
1.77E+18,0.204240723,-0.014608956,-0.079120883,-0.063349898,-0.013515646,-0.172867805,-0.268852144
1.77E+18,0.214229736,0.031214053,-0.001727262,-0.053543374,0.000694091,-0.167577609,-0.256843597
1.77E+18,0.22421875,0.011720248,0.021300562,-0.083514734,0.020566599,-0.152435929,-0.225844681
1.77E+18,0.234207031,0.053189154,0.086834818,-0.08573504,0.031757046,-0.149497136,-0.20233658
1.77E+18,0.244195801,0.191947052,0.077223525,-0.101193014,0.039481279,-0.150338963,-0.187286258
1.77E+18,0.254183594,0.096586397,0.081360771,-0.069662734,0.049423944,-0.154326588,-0.1832546
1.77E+18,0.264172852,0.015431962,0.049893035,-0.062255673,0.060241174,-0.14008081,-0.19401297
1.77E+18,0.274161865,-0.015451252,0.035425534,-0.09966712,0.070020251,-0.14616552,-0.210312724
1.77E+18,0.284149902,-0.029638182,0.022183775,-0.093882399,0.070754223,-0.166595161,-0.237229824
1.77E+18,0.294138916,-0.097605803,-0.025187633,-0.036747138,0.070699438,-0.179647669,-0.288053125
1.77E+18,0.304126709,-0.201586987,-0.055136196,0.007313538,0.07977283,-0.168077558,-0.322770089
1.77E+18,0.314115723,-0.252585353,0.037075639,-0.058034548,0.090885043,-0.146943331,-0.325558424
1.77E+18,0.324104736,-0.046665305,0.170913032,-0.099185766,0.096963704,-0.143740624,-0.290025204
1.77E+18,0.334092773,0.245881471,0.124990654,-0.050738546,0.093156129,-0.146997318,-0.249063805
1.77E+18,0.344081787,0.311746567,0.004801263,-0.00640373,0.08431071,-0.157004669,-0.233370602
1.77E+18,0.354070068,0.118922732,-0.063606503,-0.023186814,0.077505685,-0.168390751,-0.24640739
1.77E+18,0.364058838,-0.102195469,-0.023683073,0.01215221,0.066258885,-0.18476972,-0.284388602
1.77E+18,0.374047607,-0.174748664,-0.024450551,0.013911621,0.058332965,-0.168225005,-0.328334719
1.77E+18,0.384035889,-0.199493814,-7.95E-05,0.044592006,0.053445265,-0.1600824,-0.347478569
1.77E+18,0.394024902,-0.012490064,-0.006213468,-0.001871055,0.045917854,-0.171846479,-0.351166725
1.77E+18,0.404012939,0.066924834,0.014630583,0.006370996,0.035671078,-0.183885023,-0.362003118
1.77E+18,0.414001953,-0.002412322,-0.008283844,0.019394729,0.023083724,-0.188200936,-0.398743689
1.77E+18,0.423990723,-0.087332831,0.028397242,-0.024544951,0.00679796,-0.202751651,-0.453963518
1.77E+18,0.43397876,-0.149377492,0.055750529,0.003090367,-0.002953917,-0.216218293,-0.51913017
1.77E+18,0.443967773,-0.206245626,0.069298577,-0.004575053,-0.006988073,-0.213543415,-0.573583245
1.77E+18,0.453955811,-0.165292854,0.034923429,-0.007563713,-0.025515582,-0.236366615,-0.621945441
1.77E+18,0.463944824,-0.065482818,-0.014926351,0.039250645,-0.049457133,-0.253110677,-0.679051876
1.77E+18,0.473934082,-0.122115391,-0.0011065,0.048665539,-0.065840028,-0.267436922,-0.763325214
1.77E+18,0.483921631,-0.191901459,0.048336453,0.009970482,-0.066794507,-0.293483704,-0.868396759
1.77E+18,0.493910645,-0.290125102,0.038524669,-0.098276834,-0.056170061,-0.341472447,-1.000287771
1.77E+18,0.503898926,-0.364665671,0.035687984,-0.134590549,-0.041853175,-0.397450745,-1.143407702
1.77E+18,0.513887939,-0.50840428,0.00427344,-0.135404203,-0.035503175,-0.450343519,-1.284949303
1.77E+18,0.523876709,-0.513195022,-0.045227966,-0.078399583,-0.032818709,-0.46970576,-1.41673851
1.77E+18,0.533864746,-0.386655385,0.088346392,-0.007932254,-0.0281137,-0.466446847,-1.514540434
1.77E+18,0.54385376,-0.226677589,0.136667648,-0.032801907,-0.02670702,-0.456548661,-1.591577649
1.77E+18,0.553841797,-0.034556934,0.183975927,-0.119084937,-0.032182436,-0.435383737,-1.674515128
1.77E+18,0.563830811,-0.030940497,0.172087044,0.085818627,-0.013536582,-0.393653333,-1.715167999
1.77E+18,0.573819824,-0.19417408,0.280747325,-0.103964525,-0.002299335,-0.402899027,-1.752078652
1.77E+18,0.583807861,-0.036941199,0.194440622,-0.112853934,0.008574085,-0.441265345,-1.798706889
1.77E+18,0.593796875,-0.204519533,0.123579618,-0.024590836,0.01034959,-0.475260139,-1.843966007
1.77E+18,0.603784668,-0.399271705,0.194160344,0.004943594,-0.017700687,-0.638483644,-1.914069653
1.77E+18,0.613773682,-0.225904851,0.144757723,-0.020661387,-0.059556015,-0.751947761,-2.009196758
1.77E+18,0.623762939,-0.64818626,0.186850021,0.112739659,-0.098828323,-0.903079212,-2.147809267
1.77E+18,0.633750977,-0.80652155,0.382248382,0.151654497,-0.194795802,-0.972229958,-2.316564798
1.77E+18,0.643739746,-0.716329238,0.192272046,0.216633165,-0.319048256,-0.914983988,-2.560966015
1.77E+18,0.653727783,-0.615462387,-0.019178455,0.441464541,-0.394961894,-0.736306131,-2.58333993
1.77E+18,0.663716797,-1.188297346,-0.006476503,0.389777608,-0.493477017,-0.685858369,-2.632942915
1.77E+18,0.673705566,-0.107912093,0.116538467,-0.091489074,-0.564886987,-0.728368819,-2.638796568
1.77E+18,0.683693848,0.13891455,0.389784038,-0.138531688,-0.589030147,-0.741963506,-2.564799547
1.77E+18,0.693682861,-0.027108956,0.669078242,-0.08558628,-0.571683347,-0.86947149,-2.33750248
1.77E+18,0.703670654,-0.135102882,0.272399768,-0.280436359,-0.4646267,-1.068763494,-2.02554059
1.77E+18,0.713659912,0.444144282,-0.22773119,-0.125339321,-0.356287867,-1.086918831,-1.732426763
1.77E+18,0.723648682,0.885935278,-0.306760303,-0.263908126,-0.222428903,-0.28083545,-1.443459868
1.77E+18,0.733636719,1.442818635,-0.171898535,-0.079878131,-0.045992047,0.5924474,-1.171469212
1.77E+18,0.743625977,2.830710332,-0.443329897,-0.035370004,0.062783703,0.706841588,-0.841114402
1.77E+18,0.753614014,2.254089425,-0.391957875,-0.46816667,0.09873271,0.382330984,-0.4193483
1.77E+18,0.763602539,0.213555072,0.167240773,-0.179915545,0.089721374,-0.033789001,-0.094878361
1.77E+18,0.773591797,-0.506456069,0.522872951,0.172303025,0.036959145,-0.200535998,0.012211047
1.77E+18,0.783579834,-0.088050039,0.506693238,0.207014565,-0.041458696,-0.130242661,-0.040942986
1.77E+18,0.793568604,0.167615159,0.301476371,0.094616558,-0.111091197,-0.004453839,-0.113018237
1.77E+18,0.803556885,-0.147837861,0.035376142,0.22693244,-0.182392538,0.067194246,-0.18022418
1.77E+18,0.813545898,-0.284957928,-0.078141517,0.16842063,-0.223690361,0.121111274,-0.23084709
1.77E+18,0.823534668,-0.230837631,-0.032197219,0.207395673,-0.246152535,0.143158779,-0.272681087
1.77E+18,0.833522949,-0.006588146,-0.008886486,0.033752632,-0.243499041,0.15976581,-0.288845003
1.77E+18,0.843511719,0.110250181,0.065080229,-0.119239543,-0.242222592,0.137624294,-0.289641023
1.77E+18,0.853499756,0.150215111,0.09794541,-0.277852188,-0.203809023,0.133495778,-0.239563733
1.77E+18,0.863489014,-0.065234981,0.036071284,-0.145799925,-0.164172664,0.010525382,-0.206088334
1.77E+18,0.873477783,0.071707976,-0.203442113,-0.213051507,-0.100519568,-0.050330866,-0.165919662
1.77E+18,0.883465576,0.086598087,-0.290863645,-0.160436353,-0.071082845,-0.023727752,-0.150665075
1.77E+18,0.893454834,0.191152686,-0.003776742,-0.263626094,-0.034708638,-0.088523,-0.113763675
1.77E+18,0.903442871,-0.031197102,0.234896843,-0.23671646,0.001073592,-0.143205956,-0.099192992
1.77E+18,0.913431641,0.00485387,0.139134549,-0.180353645,0.031199535,-0.070559442,-0.071044445
1.77E+18,0.923420898,-0.150602065,-0.106653252,-0.032756314,0.037267551,-0.211475819,-0.065665394
1.77E+18,0.933408691,0.323209041,-0.191076187,-0.046100365,-0.002746621,-0.213720158,-0.037299588
1.77E+18,0.943397705,-0.220341372,0.201029207,-0.219580909,-0.028408041,-0.06925831,-0.033964779
1.77E+18,0.953385742,0.108646253,0.056354413,0.256354642,-0.072268873,-0.235147431,-0.043075163
1.77E+18,0.963374756,0.188325939,-0.268571149,0.051899406,-0.063463397,-0.150349721,-0.083692096
1.77E+18,0.973364014,-0.236172562,0.124972461,0.010645605,-0.054274403,-0.000348578,-0.143414661
1.77E+18,0.983352051,0.089936876,-0.039574981,-0.042379883,-0.052031223,-0.00027614,-0.152917087
1.77E+18,0.993340576,0.228364519,0.124238301,0.040521688,-0.059562571,-0.085509449,-0.106716514
1.77E+18,1.003328613,-0.04789397,0.025532574,0.100054365,-0.034883857,-0.04268289,-0.067572042
1.77E+18,1.013317871,0.182256263,-0.312191899,0.128449854,-0.009927756,-0.071380049,-0.024241447
1.77E+18,1.023306641,0.420125693,-0.222698383,-0.145108144,-0.013055639,-0.137680516,0.011920551
1.77E+18,1.033294678,-0.371396441,0.359292235,-0.423935899,-0.011602974,-0.112097032,0.007016397
1.77E+18,1.043283691,-0.195423788,-0.003860109,0.175199623,-0.052668385,-0.046626944,-0.033664454
1.77E+18,1.053271729,0.315431393,0.075452277,0.397656964,-0.085829183,-0.043005932,-0.009484872
1.77E+18,1.063260742,-0.123273328,0.18488515,0.112082072,-0.076633818,-0.067042023,-0.00922042
1.77E+18,1.073249756,-0.011655366,-0.169844672,-0.038740065,-0.048280664,-0.061783619,-0.032890826
1.77E+18,1.083237793,0.055757543,-0.134444419,-0.102182025,-0.041769765,-0.046824642,-0.042905912
1.77E+18,1.093227051,-0.100080669,0.06459924,-0.013661153,-0.049487773,-0.05398206,-0.047010355
1.77E+18,1.103214844,-0.151594583,0.130872113,-0.032861528,-0.044985168,-0.045285244,-0.058309615
1.77E+18,1.113203613,0.048980596,0.00778627,-0.027628888,-0.032939661,-0.082767814,-0.031121947
1.77E+18,1.123192871,0.14447043,-0.010880656,-0.028970074,-0.027565137,-0.095200509,-0.001700408
1.77E+18,1.133180908,-0.00125906,0.044246773,-0.054868485,-0.028762929,-0.08568576,0.003621048
1.77E+18,1.143169678,-0.118365683,0.06190043,0.049115913,-0.028547479,-0.110895507,0.006426422
1.77E+18,1.153157471,-0.180741183,0.10175547,0.048562663,-0.029417636,-0.082839727,-0.005052357
1.77E+18,1.163146729,-0.121785136,0.113995651,0.043417701,-0.031616874,-0.012467025,-0.057437003
1.77E+18,1.173135742,-0.081351419,0.153595621,0.045298108,-0.039280664,0.015764173,-0.101576045
1.77E+18,1.183124023,-0.115081839,0.010176891,0.061468906,-0.042432781,-0.061550058,-0.145019919
1.77E+18,1.193112793,-0.280384629,-0.080821038,0.065294602,-0.034419701,0.001745469,-0.151578248
1.77E+18,1.203100586,-0.12070377,-0.059672525,0.12882804,-0.048202891,-0.031305425,-0.136925802
1.77E+18,1.213089844,0.095522567,-0.024373905,0.022627427,-0.062945336,-0.078089267,-0.091161966
1.77E+18,1.223078613,-0.166982706,0.19455212,0.006122282,-0.061207891,-0.062138528,-0.060977429
1.77E+18,1.23306665,-0.286808525,0.160131744,0.031796529,-0.053930171,-0.003255151,-0.05419274
1.77E+18,1.243055908,0.082283146,0.033426469,0.024679099,-0.05499943,-0.052951068,-0.022228945
1.77E+18,1.253043945,-0.052448565,-0.084786361,-0.052452949,-0.045621712,-0.08648932,0.010330823
1.77E+18,1.263032715,-0.048311903,0.021021891,-0.132724171,-0.00076396,-0.057166312,0.03137539
1.77E+18,1.273021729,0.264348856,-0.248706465,-0.093420919,0.027468754,-0.148656651,0.05921296
1.77E+18,1.283009766,0.22810616,-0.084103713,-0.2642641,0.05657737,-0.114285082,0.056770042
1.77E+18,1.292998779,0.215499777,-0.144162533,-0.118864864,0.068130799,-0.106864363,0.025939178
1.77E+18,1.302987061,0.265794963,-0.23106786,-0.072130586,0.07883431,-0.100044541,0.006819813
1.77E+18,1.31297583,0.410585711,-0.156631993,-0.08712065,0.082556777,-0.143163338,0.02582038
1.77E+18,1.322964844,0.469275216,-0.032733591,-0.150749072,0.080345288,-0.153036207,0.051578477
1.77E+18,1.332952881,0.489945663,-0.035819282,-0.049565995,0.073740281,-0.168771401,0.070856892
1.77E+18,1.34294165,0.285645911,-0.030658319,-0.028285307,0.06840118,-0.166519701,0.070754625
1.77E+18,1.352929688,0.048512979,0.022115824,0.002685001,0.060835805,-0.159547627,0.058251455
1.77E+18,1.362918945,-0.059383917,0.0067098,0.036961949,0.054683104,-0.135272115,0.043705005
1.77E+18,1.372907715,-0.096711485,-0.008317746,0.076500179,0.047891244,-0.124620549,0.039974347
1.77E+18,1.382895508,-0.053006199,-0.028566827,0.090802845,0.041146256,-0.123716943,0.047444779
1.77E+18,1.392884766,-0.036664136,-0.011743702,0.074918755,0.034371957,-0.108675055,0.055423442
1.77E+18,1.402872803,0.033480829,-0.030588469,0.075945468,0.035980504,-0.099851467,0.060920473
1.77E+18,1.412861816,0.067587097,-0.006368293,0.044912324,0.030746367,-0.086062416,0.059543412
1.77E+18,1.42285083,0.013011457,-0.019529388,0.068473232,0.021614922,-0.076126426,0.053160347
1.77E+18,1.432838623,0.026133974,-0.03509579,0.081919866,0.014266892,-0.057732329,0.054283917
1.77E+18,1.442827637,0.05952654,-0.021607509,0.084188688,0.006801252,-0.046174742,0.069088429
1.77E+18,1.452815918,0.091711484,0.001221578,0.0696376,-0.00045492,-0.037279159,0.080050081
1.77E+18,1.462804688,0.136050977,-0.01010821,0.024837504,-0.001577176,-0.039231256,0.088531449
1.77E+18,1.472793701,0.164794256,-0.03850158,-0.013505086,-0.00174053,-0.033794239,0.090667285
1.77E+18,1.482781982,0.157237557,-0.041682329,-0.02217413,-0.000729061,-0.0399528,0.10195829
1.77E+18,1.492770752,0.261591081,-0.052851008,-0.050512628,0.001613639,-0.038407635,0.102402918
1.77E+18,1.502758545,0.24484336,-0.049475394,-0.052659577,0.002963063,-0.031255983,0.093188643
1.77E+18,1.512747803,0.153875387,-0.033866979,-0.026432664,0.003714933,-0.019002063,0.086072378
1.77E+18,1.522736816,0.07513912,-0.016137992,0.005054361,0.000166803,-0.020595964,0.08230374
1.77E+18,1.532724854,-0.027887539,0.012365999,0.013151743,-0.001545926,-0.023586441,0.088423267
1.77E+18,1.542713867,-0.063183309,0.031181466,0.014385084,-0.005569963,-0.033026014,0.101295926
1.77E+18,1.55270166,-0.022844284,0.037503363,-0.007764204,-0.007871898,-0.045361586,0.119907983
1.77E+18,1.562690674,0.033111996,0.011266806,-0.01469225,-0.009839707,-0.053218976,0.13036941
1.77E+18,1.572678955,-0.000667524,-0.015079057,-0.01927724,-0.010285,-0.060001161,0.132826909
1.77E+18,1.582667725,-0.061705638,-0.013085399,0.000630699,-0.015124496,-0.068225801,0.127520293
1.77E+18,1.592656738,-0.121540806,0.015053484,-0.018999007,-0.016542401,-0.079813585,0.132432416
1.77E+18,1.602644775,-0.124566291,0.029712855,-0.008547756,-0.019406365,-0.088670187,0.153881252
1.77E+18,1.612633545,-0.057223524,0.008288667,-0.001211129,-0.024034262,-0.106073327,0.183406204
1.77E+18,1.622622559,0.034290392,-0.007483341,-0.014780513,-0.018411528,-0.113694489,0.191677704
1.77E+18,1.63261084,0.09334347,-0.076337828,-0.043922728,-0.009634354,-0.118399754,0.178276122
1.77E+18,1.642599854,0.153259886,-0.091012689,-0.08596125,-0.000399044,-0.137448028,0.168884218
1.77E+18,1.652587891,0.158486681,-0.082500589,-0.127054016,0.005434897,-0.155062869,0.167594597
1.77E+18,1.662576904,0.117410574,-0.045826955,-0.106646896,0.007891929,-0.155331582,0.16312474
1.77E+18,1.672564697,0.100202249,-0.001471972,-0.039053661,0.008273222,-0.153182417,0.162625894
1.77E+18,1.682553711,0.135838796,-0.032177346,-0.031594285,0.008580551,-0.149300069,0.167006537
1.77E+18,1.692542725,0.145845226,-0.058613663,-0.038029579,0.011331498,-0.14046298,0.171172336
1.77E+18,1.702530762,0.091216394,-0.068206106,-0.017765666,0.010308045,-0.14105846,0.170655414
1.77E+18,1.712519775,-0.03977613,-0.016511574,-0.01940788,0.010119733,-0.14242661,0.167811692
1.77E+18,1.722507813,-0.13159049,-0.005394845,-0.002618658,0.010482988,-0.130509228,0.155198693
1.77E+18,1.732496582,0.00058043,-0.040373365,0.005105799,0.007751396,-0.123675384,0.156505585
1.77E+18,1.742485596,0.042863575,-0.040140433,0.005038286,0.000869255,-0.118501134,0.162742183
1.77E+18,1.752473877,0.073074004,-0.029718554,0.011442016,0.00512091,-0.110466383,0.162836596
1.77E+18,1.762462891,0.209881937,-0.074863372,-0.027171208,0.00897477,-0.100209489,0.155617833
1.77E+18,1.772450684,0.238759656,-0.105817313,-0.051551908,0.006759266,-0.101655394,0.134970456
1.77E+18,1.782439697,0.276774622,-0.072642919,-0.064842475,0.012221409,-0.106902622,0.115216978
1.77E+18,1.792428711,0.198072257,-0.051168608,-0.129793962,0.018943505,-0.111267373,0.102396078
1.77E+18,1.802416748,0.042351534,-0.067743603,-0.084851828,0.021324636,-0.104415327,0.094202325
1.77E+18,1.812405762,-0.024921675,-0.046954936,-0.015756664,0.019238561,-0.085466757,0.07908953
1.77E+18,1.822393799,-0.011824878,-0.065157386,0.02783844,0.01917278,-0.059691347,0.064875171
1.77E+18,1.832382568,-0.016267244,-0.052477937,0.017710429,0.020250285,-0.053651739,0.060959179
1.77E+18,1.842371826,-0.123786539,-0.04000234,-0.008762275,0.022339534,-0.051153429,0.053316973
1.77E+18,1.852359619,-0.10667466,-0.053241615,-0.00965221,0.024778431,-0.05449738,0.046336669
1.77E+18,1.862348633,-0.125641811,-0.03128858,-0.02021569,0.027982481,-0.052581768,0.035477899
1.77E+18,1.872336914,-0.096696872,0.005435907,-0.000381401,0.025645645,-0.02402878,0.018948302
1.77E+18,1.882325928,-0.085651162,-0.014485768,0.063364511,0.021324933,-0.005155223,0.017385557
1.77E+18,1.892314697,-0.165306298,0.002205693,0.109234136,0.00992517,0.031337451,0.009084299
1.77E+18,1.902302734,-0.193209034,0.026900136,0.167863873,-0.005642605,0.059259631,-0.006659511
1.77E+18,1.912291748,-0.134989485,0.059581047,0.156794198,-0.015307786,0.071587935,-0.020413207
1.77E+18,1.922279785,-0.082921444,0.071120386,0.07150164,-0.017682526,0.088597015,-0.036739185
1.77E+18,1.932268799,-0.020743513,0.059327072,0.070501231,-0.024453012,0.12198133,-0.052545637
1.77E+18,1.942257813,-0.019973113,0.056973933,0.113314537,-0.032764737,0.140445828,-0.057910841
1.77E+18,1.952245605,-0.044153615,0.125036685,0.141587568,-0.040438771,0.161877781,-0.065301105
1.77E+18,1.962234863,-0.053764323,0.098683808,0.128292618,-0.048761148,0.169028372,-0.065104298
1.77E+18,1.972222656,0.050874447,0.071318685,0.065308631,-0.049915485,0.164016411,-0.061581384
1.77E+18,1.98221167,0.197754277,0.053997548,-0.017343057,-0.046013422,0.148950905,-0.049044285
1.77E+18,1.992200928,0.236249135,0.01698606,-0.080875325,-0.041695084,0.115809545,-0.028223004
1.77E+18,2.002188721,0.245093535,0.045634355,-0.107906832,-0.035022534,0.102363244,-0.017439332
1.77E+18,2.01217749,0.450266564,-0.011725363,-0.113052086,-0.026124269,0.075960129,-0.004898937
1.77E+18,2.022165771,0.426993825,-0.075132106,-0.165161628,-0.013066789,0.050909378,-0.000435479
1.77E+18,2.032154785,0.233621124,-0.066719374,-0.147271459,-0.008352524,0.03718815,-0.005271737
1.77E+18,2.042143311,0.091233346,-0.052896601,-0.093515319,-0.008366639,0.006441422,0.002855697
1.77E+18,2.052131592,-0.096333884,-0.027567952,-0.044098085,-0.007725056,-0.009758496,0.000389064
1.77E+18,2.062120605,-0.21028175,-0.036984161,-0.031277474,-0.002932431,-0.00330326,-0.016901243
1.77E+18,2.072108643,-0.087734398,-0.061706807,-0.034788697,0.002251666,-0.00201793,-0.011741978
1.77E+18,2.082097656,-0.045651744,-0.045177989,-0.000145838,0.008739925,0.003876179,-0.007963751
1.77E+18,2.092086426,-0.058943187,-0.058427931,-0.002796353,0.013366025,-0.008951204,0.002825647
1.77E+18,2.102074463,-0.165670455,-0.05133958,0.004442366,0.015047546,-0.013989107,0.000822151
1.77E+18,2.112063721,-0.209117382,-0.012953443,0.040542731,0.01063348,-0.002649192,-0.017050941
1.77E+18,2.122051758,-0.143709383,-0.002390548,0.096321316,0.005645379,0.004355988,-0.022762356
1.77E+18,2.132040527,-0.129352356,0.025232933,0.084641984,0.003198405,0.010004731,-0.026545603
1.77E+18,2.142029785,-0.06220365,0.047225569,0.049959378,0.000630851,0.020047512,-0.029740594
1.77E+18,2.152017578,0.045612581,0.037817105,0.051370999,-0.000308631,0.033704907,-0.032520816
1.77E+18,2.162006348,0.128393156,0.02709259,-0.006174889,0.000253829,0.032378118,-0.03025979
1.77E+18,2.171994629,0.172632695,0.013226269,-0.003788286,-0.004131383,0.034295682,-0.029959794
1.77E+18,2.181983643,0.169700733,0.00050225,-0.011355214,-0.005017683,0.027991179,-0.031347834
1.77E+18,2.19197168,0.168495449,0.020982436,-0.043128363,-0.005128972,0.022103027,-0.033258673
1.77E+18,2.201960693,0.223139478,0.027128538,-0.052042906,-0.003871161,0.020337084,-0.029432775
1.77E+18,2.211949463,0.234177005,0.023502018,-0.046786593,-0.000792138,0.022979299,-0.029034814
1.77E+18,2.2219375,0.104829325,0.023654578,-0.049894496,0.001805243,0.028991917,-0.032356311
1.77E+18,2.231926758,-0.0167372,0.004038608,-0.028928281,0.00516772,0.022874543,-0.027348217
1.77E+18,2.241914795,-0.095214524,-0.005212766,-0.015365327,0.00658905,0.013188093,-0.020684989
1.77E+18,2.251903564,-0.059755673,-0.01751666,-0.013785657,0.006518845,0.011021435,-0.018096376
1.77E+18,2.261892578,-0.027236382,0.00508724,0.015903672,0.004702302,0.002225547,-0.01925192
1.77E+18,2.271880615,-0.08528642,-0.003210925,0.013735972,0.002414917,0.005914562,-0.030439232
1.77E+18,2.281869385,-0.114371645,0.014524492,0.020681846,0.002909999,0.006549992,-0.034979124
1.77E+18,2.291857666,-0.061777534,0.001789075,0.008697101,-0.000401738,-0.001339275,-0.024702817
1.77E+18,2.30184668,-0.031320436,0.007188158,0.02556991,-0.001988982,-0.003672737,-0.017170066
1.77E+18,2.311835938,-0.009040216,0.005318419,0.016825463,-0.001009113,-0.003074144,-0.016899817
1.77E+18,2.32182373,0.04745441,-0.010104922,-0.013259879,0.00059917,-0.007525884,-0.014092846
1.77E+18,2.3318125,0.094001641,-0.023082477,-0.036110886,0.001682713,-0.010326282,-0.013178776
1.77E+18,2.341800537,0.115625444,-0.027263708,-0.035574002,0.006709962,-0.005238579,-0.011021882
1.77E+18,2.351789795,0.163018479,-0.01710881,-0.028315117,0.007644984,-0.004546868,-0.000577308
1.77E+18,2.361778564,0.183680159,-0.006369535,-0.018654724,0.007164817,0.005519881,-0.002430335
1.77E+18,2.371766357,0.145671038,-0.013051059,-0.011037235,0.00517413,0.010707809,-0.009884369
1.77E+18,2.381755615,0.093462712,0.012063217,-0.024999124,0.003673438,0.003664013,-0.012352586
1.77E+18,2.391743652,0.07115385,0.015469956,-0.032395664,0.001590796,0.000275229,-0.013549555
1.77E+18,2.401732666,0.032810383,0.025844197,-0.020009646,0.000616079,-0.000335167,-0.00847783
1.77E+18,2.41172168,0.02166998,-0.005718378,0.013833587,-0.00145827,0.000196489,0.001006407
1.77E+18,2.421709717,0.027673604,0.009393559,0.013596564,-0.001278773,0.001114481,0.001365667
1.77E+18,2.43169873,-0.02242226,-0.016358722,0.025675709,-0.002582859,0.001966514,-0.000735878
1.77E+18,2.441686523,-0.092562548,0.021155601,0.033317748,-0.003916304,0.008020945,-0.009000732
1.77E+18,2.451675537,-0.064243047,0.026201194,0.018679274,-0.005505266,0.005213168,-0.004472218
1.77E+18,2.461664795,-0.05014964,0.007300971,0.017745208,-0.003687392,0.012867626,-0.002389359
1.77E+18,2.471652832,0.05731354,-0.00463029,0.019000469,-0.003953218,0.020868024,0.00412121
1.77E+18,2.481641602,0.129748662,-0.029129648,0.012640578,-0.004671738,0.029178418,0.005816578
1.77E+18,2.491629395,0.081295889,-0.033175124,0.011487024,-0.009173613,0.036102116,0.006489345
1.77E+18,2.501618652,0.03788754,-0.024249914,0.044454059,-0.012972079,0.038421195,-0.000242593
1.77E+18,2.511607422,0.057795186,0.017225714,0.027000235,-0.014936799,0.03699258,-0.008914492
1.77E+18,2.521595703,-0.021885669,0.051888739,0.00717676,-0.015979961,0.041398779,-0.01651622
1.77E+18,2.531584717,-0.063351067,0.00672054,0.00599924,-0.015428402,0.040754214,-0.012836359
1.77E+18,2.54157251,-0.027810382,0.02402838,0.019446166,-0.018484645,0.046293322,-0.007027473
1.77E+18,2.551561768,0.02064882,0.00660539,0.031993806,-0.024267143,0.049745668,-0.002879611
1.77E+18,2.561550537,0.074398531,-0.020144962,0.012887246,-0.023726521,0.050487358,-0.002700912
1.77E+18,2.571538574,0.109318453,-0.020688422,-0.028943186,-0.020635083,0.051197089,-0.00572097
1.77E+18,2.581527832,0.119971949,-0.022754707,-0.036599546,-0.022714749,0.05056379,-0.010063786
1.77E+18,2.591515869,0.079948566,0.005635668,-0.009026187,-0.022015514,0.049704287,-0.014006168
1.77E+18,2.601504395,0.022533319,0.043403381,-0.008357786,-0.022757204,0.053024717,-0.021772478
1.77E+18,2.611493652,0.017891046,0.035972938,-0.011288871,-0.02503984,0.050199732,-0.021630859
1.77E+18,2.621481689,0.043687751,0.013924773,-0.012227321,-0.019992352,0.040576134,-0.011079415
1.77E+18,2.631470459,0.023880057,0.009477584,-0.034294776,-0.014499909,0.032530636,-0.004552763
1.77E+18,2.64145874,-0.014924597,-0.03810469,-0.019803894,-0.009537109,0.023130743,0.001958399
1.77E+18,2.651447754,0.023608255,-0.028339521,-0.030588323,-0.003979599,0.022020562,-0.006913401
1.77E+18,2.661436523,0.035996612,0.009353812,-0.022378421,-0.003334847,0.019768592,-0.009341937
1.77E+18,2.671424805,-0.030447161,0.007344079,-0.001967208,-0.004835412,0.014027527,-0.008524702
1.77E+18,2.681413574,-0.074428341,0.003537965,0.009821429,-0.004369092,0.018264882,-0.007826155
1.77E+18,2.691401611,-0.002305354,-0.032018209,0.000511164,-0.004107507,0.011851279,-0.006825915
1.77E+18,2.701390869,0.016004209,-0.029686698,-0.007544716,-0.004998601,0.011078164,-0.007435779
1.77E+18,2.711379639,-0.004443535,-0.025790421,-0.010839666,-0.005418797,0.0127564,-0.01041811
1.77E+18,2.721367432,-0.015135025,-0.003419161,0.015721008,-0.008911001,0.017856885,-0.015524188
1.77E+18,2.731356689,-0.056472413,0.018401772,0.037265901,-0.012906164,0.02015562,-0.018595509
1.77E+18,2.741344727,-0.078943188,0.01298077,0.045759588,-0.014440411,0.019291691,-0.019512968
1.77E+18,2.751333496,-0.016093057,0.002682225,0.005476678,-0.011543564,0.018927915,-0.025627406
1.77E+18,2.761322754,0.064957333,0.002289718,-0.007684709,-0.009906786,0.011238838,-0.021789258
1.77E+18,2.771310547,0.106812023,0.029484015,-0.012862989,-0.01052347,0.00774992,-0.018854167
1.77E+18,2.781299561,0.093115506,0.02786372,-0.039465749,-0.009325581,0.019769032,-0.020807862
1.77E+18,2.791287842,0.039840427,0.017779548,0.014343583,-0.012733679,0.022333212,-0.018931543
1.77E+18,2.801276611,0.046580549,0.011504121,0.022554069,-0.014386703,0.025564693,-0.012988964
1.77E+18,2.811265625,0.067519293,-0.013687749,0.004079671,-0.013693431,0.02655237,-0.0069778
1.77E+18,2.821253906,0.08739479,-0.009572861,-0.02127572,-0.012761857,0.024169106,-0.007293119
1.77E+18,2.831242432,0.055996028,-0.009980419,-0.014209435,-0.012939361,0.022585774,-0.012980027
1.77E+18,2.841230469,0.004908815,-0.00199322,-0.019611294,-0.011238666,0.021718914,-0.017567588
1.77E+18,2.851219727,0.028995208,-0.001054331,-0.03117226,-0.009837974,0.020044403,-0.020111978
1.77E+18,2.861208496,0.040762218,0.007904197,-0.032610476,-0.006818215,0.017727718,-0.016836025
1.77E+18,2.871196533,0.019510172,0.007369506,-0.003996376,-0.009018213,0.020827642,-0.014662288
1.77E+18,2.881185791,-0.005817162,-0.022782033,0.013862229,-0.010343134,0.023292132,-0.01008538
1.77E+18,2.891173584,0.00782441,-0.017912966,0.013898177,-0.010528265,0.024311852,-0.011333667
1.77E+18,2.901162598,0.015468787,-0.009873159,0.012491233,-0.011499254,0.02094828,-0.012501996
1.77E+18,2.911150635,-0.004588497,0.001152093,-0.003779519,-0.008265326,0.016455971,-0.015654236
1.77E+18,2.921139648,0.010671616,5.61E-05,-0.026388825,-0.005617344,0.011793842,-0.013699476
1.77E+18,2.931128662,0.044120881,0.004176847,-0.037346565,-0.004146338,0.006560022,-0.008086246
1.77E+18,2.941116699,0.074392685,-0.013674159,-0.031291795,-0.002148968,0.003986344,-0.003847026
1.77E+18,2.951105469,0.082588267,-0.027789486,-0.018649755,0.001199784,0.007468508,-0.001229737
1.77E+18,2.961094482,0.087148707,-0.022796792,-0.011887422,-6.84E-05,0.009491445,0.000333805
1.77E+18,2.971082764,0.066022916,-0.002979893,-0.015049393,-0.001714635,0.009851596,0.002952307
1.77E+18,2.981071533,0.03959259,-0.000616378,-0.007189327,-0.00291652,0.005443533,-0.001325529
1.77E+18,2.99105957,-0.018511224,-0.00232026,-0.017252164,-0.001835267,0.006734009,-0.006718614
1.77E+18,3.001048584,0.003438158,-0.005178572,-0.014131693,-0.003057125,0.006334002,-0.008165776
1.77E+18,3.011036621,0.022069208,0.009510902,0.001492869,-0.002170251,0.00602721,-0.006199769
1.77E+18,3.021025635,0.015436054,-0.001175181,0.001889175,-0.002757744,0.007905005,-0.004106524
1.77E+18,3.031014648,0.020981998,-0.009465601,0.004356149,-0.002808242,0.008597249,-0.00441543
1.77E+18,3.041002686,0.004797171,0.00854834,-0.002960311,-0.003247397,0.007673932,-0.008142523
1.77E+18,3.050992432,0.017170331,-0.00530249,-0.012216215,-0.000916508,0.00783763,-0.007315671
1.77E+18,3.060981201,0.043635728,0.001522387,-0.014266426,-0.00257832,0.007689292,-0.005591274
1.77E+18,3.070969238,0.057176762,0.011853081,-0.004895663,-0.002396354,0.010865374,-0.002082255
1.77E+18,3.080958496,0.07000468,-0.005384031,-0.008000936,-0.000384069,0.008167326,0.0007628
1.77E+18,3.090946289,0.051069093,-0.021334611,-0.011499299,-0.000279735,0.007914239,-1.54E-07
1.77E+18,3.100935059,0.026408699,-0.006506167,-0.014399989,-0.000649382,0.007099311,-0.002859324
1.77E+18,3.110923096,0.013344635,0.010314327,0.001550152,-0.000888494,0.00585535,-0.003196149
1.77E+18,3.120912354,0.004918752,0.014660247,-0.001008593,-0.00086852,0.005833512,-0.005728549
1.77E+18,3.130901123,0.002894552,6.84E-05,-0.023546588,-0.001203565,0.004751552,-0.002873542
1.77E+18,3.14088916,0.015060206,0.001432079,-0.027269992,-0.000874931,0.002150443,-0.002697507
1.77E+18,3.150878174,0.01929156,-0.000312427,-0.012360592,-9.04E-05,0.002950996,-0.002289155
1.77E+18,3.160866211,0.038501288,-0.005650865,0.002294833,-0.003334885,0.004117727,0.000927411
1.77E+18,3.170855469,0.024728783,-0.015569471,0.00956687,-0.001966315,0.005193287,0.000125014
1.77E+18,3.180844238,0.021469489,-0.014903847,0.004160919,-0.00071889,0.011049045,-0.006318769
1.77E+18,3.190832275,0.000302782,0.015148177,-0.009203297,-0.002017693,0.013402564,-0.009937577
1.77E+18,3.200821533,-0.033780689,0.00245017,0.002891922,-0.005102965,0.016050279,-0.016475104
1.77E+18,3.210809326,0.005118074,0.002781886,0.000493044,-0.002828568,0.007393593,-0.009871297
1.77E+18,3.220798096,0.076260233,-0.012012802,-0.040279988,8.68E-05,-0.001481391,0.002768598
1.77E+18,3.230787354,0.159306765,-0.019532968,-0.042931087,0.002151527,0.001044435,0.006075007
1.77E+18,3.240775391,0.115157242,0.027657092,-0.016161153,-0.00238144,0.006903922,-0.001602087
1.77E+18,3.25076416,0.000400982,0.014964199,0.024136955,-0.002201812,0.00702874,-0.000155719
1.77E+18,3.260751953,-0.016537293,-0.003581073,0.010338439,0.001140455,0.00580262,-0.004674304
1.77E+18,3.270741211,0.026476504,0.00454232,-0.032277591,-0.001148867,0.00512555,-0.005233615
1.77E+18,3.280730225,0.048809916,0.00040785,-0.023890871,0.001153968,0.002817655,-0.002870592
1.77E+18,3.290718506,0.033138884,-0.01036182,-0.015295184,0.001766106,0.003062492,-0.002875036
1.77E+18,3.300707275,-0.0038935,-0.012733517,0.003089783,0.001798596,0.006201826,-0.004878266
1.77E+18,3.310695313,0.001200608,-0.000929536,0.006678455,-0.000866378,0.009042265,-0.002990474
1.77E+18,3.320684326,0.025512627,0.007539017,0.011131927,-0.004413975,0.010209528,-0.001979272
1.77E+18,3.330673096,0.039035541,0.003203618,0.005542437,-0.00334024,0.008475632,-0.004286245
1.77E+18,3.340661133,-0.003625205,0.005606588,-0.006036358,-0.003731991,0.010699372,-0.008103088
1.77E+18,3.350650391,0.022308862,-0.006343085,-0.008047405,-0.002097609,0.011693796,-0.008503893
1.77E+18,3.360638428,0.041993222,0.002927578,-0.01564882,-0.003783123,0.008003455,-0.002567708
1.77E+18,3.370627197,0.026415129,-0.001302461,-0.010650866,-0.00279188,0.005762052,-0.003976079
1.77E+18,3.380616211,0.035657004,0.006662527,-0.004636428,-0.003390824,0.006434234,-0.004277282
1.77E+18,3.390604248,0.013134207,0.003053981,0.004957915,-0.004448381,0.006721143,-0.009404042
1.77E+18,3.400593262,-0.005800795,-0.015997049,-0.015776246,-0.002550346,0.006250828,-0.005953118
1.77E+18,3.410581299,0.013739187,-0.010156214,-0.015775954,-0.002537865,0.005599954,-0.00282414
1.77E+18,3.420570313,0.056812021,0.001802812,-0.007348901,-0.001160211,0.004496606,-0.001354874
1.77E+18,3.430559326,0.043882981,-0.004462386,-0.019384207,-0.000438,0.003828419,-0.00203671
1.77E+18,3.440547363,0.033058805,-0.01282441,-0.01994038,-0.000498987,0.003649721,0.000856016
1.77E+18,3.450536133,0.021367782,-0.005482961,-0.008503332,-0.002258822,0.003206388,0.002451613
1.77E+18,3.46052417,0.030910102,-0.005110767,-0.006586977,-0.000775974,0.002679881,0.003326994
1.77E+18,3.470513428,0.041589317,-0.017138328,-0.007777064,-0.000990697,0.001931802,-0.002457165
1.77E+18,3.480502197,0.014043723,-0.004124533,-0.011561258,-0.001185374,3.06E-05,-0.003229216
1.77E+18,3.49048999,0.040388124,0.007458353,-0.019504619,-6.23E-05,0.001439029,-0.00018641
1.77E+18,3.500479248,0.061921911,0.012569559,-0.022534196,0.001090881,0.000292272,0.000500686
1.77E+18,3.510467285,0.051491118,-0.0006741,-0.009854455,0.000270802,0.003564584,-0.000328564
1.77E+18,3.520456299,-0.009164134,-0.006495061,-0.005852818,-0.001512717,0.004819199,-0.002911563
1.77E+18,3.530445313,-0.050397477,-0.003816782,0.002370529,-0.002442852,0.003130574,-0.004266785
1.77E+18,3.54043335,0.034022097,-0.007060586,-0.006649813,-0.002133126,0.001886878,0.000322374
1.77E+18,3.550422119,0.069085811,0.002364245,-0.042028877,-0.000862542,0.00092655,0.003921991
1.77E+18,3.5604104,0.06213117,-0.003137714,-0.016013854,-0.000273184,0.000660234,0.00385195
1.77E+18,3.57039917,0.058019643,-0.018629736,-0.017217385,0.001226844,0.001333037,0.000560571
1.77E+18,3.580388184,0.042695817,0.007442279,-0.008296996,0.00114615,0.003526683,0.001133151
1.77E+18,3.590376465,0.013624036,0.000901625,0.001511866,-9.45E-05,0.004135924,-0.001531163
1.77E+18,3.600365234,0.000681553,-0.002972002,0.014795418,-0.002150184,0.00364031,-0.00356422
1.77E+18,3.610353027,0.014526538,-0.000406827,0.007438626,-0.001700277,0.004193623,-0.004080691
1.77E+18,3.620342285,0.024592005,0.009844225,-0.016629648,-0.000816907,0.002246586,-0.003574158
1.77E+18,3.630331299,0.044712417,-0.00932707,-0.005256605,-0.000322375,0.004144713,-0.000245223
1.77E+18,3.640319336,0.044546413,-0.001788199,-0.003961305,-0.000216114,0.007039303,-0.003798146
1.77E+18,3.65030835,0.011024083,-0.000423632,-0.001737491,-0.001126239,0.006964823,-0.005245185
1.77E+18,3.660296143,0.013269816,0.00587503,-0.001451076,-0.00220189,0.007843932,-0.002795876
1.77E+18,3.670285156,0.026987376,-0.002746376,-0.00160422,-0.00378842,0.005309668,-0.006610855
1.77E+18,3.68027417,0.041266076,-0.006196078,-0.021520635,-0.001264009,0.003584739,-0.001055766
1.77E+18,3.690262207,0.080259532,-0.012204963,-0.02109481,0.000303532,0.00242298,0.00291009
1.77E+18,3.700251221,0.082765961,-0.00391995,-0.02211334,-0.000464789,0.001714845,0.004709322
1.77E+18,3.710239502,0.065205755,0.004609978,-0.011916648,0.000669914,0.002279787,0.003122238
1.77E+18,3.720228027,0.026401685,0.007502777,-0.004446458,-0.002261161,0.004044664,4.92E-05
1.77E+18,3.730217041,-0.000302782,0.001928338,0.00411065,-0.000427988,0.003589533,-0.003214259
1.77E+18,3.740205322,-0.002653729,-0.000777414,0.004624737,0.000590671,0.000828367,0.00087689
1.77E+18,3.750194336,0.032114217,-0.004483283,-0.008802023,-0.001082712,0.000552812,0.004813672
1.77E+18,3.760182373,0.032349779,-0.012511983,-0.016799159,0.001062731,0.001629795,0.003162512
1.77E+18,3.770171387,0.039942719,-0.00781272,-0.011685469,0.000705415,0.003045619,0.004190615
1.77E+18,3.780160156,0.059216744,-0.01156798,-0.010096154,-0.000389411,0.003957219,0.003182875
1.77E+18,3.790148193,0.055867433,-3.61E-05,-0.007168284,-0.000500778,0.002618012,0.000742199
1.77E+18,3.800137207,0.01161445,-0.001667933,-0.000291676,-0.001474164,0.001124246,-0.001638401
1.77E+18,3.810125244,-0.006167875,0.005195669,-0.010841127,-0.000689854,0.003416961,-0.00269977
1.77E+18,3.820114258,0.00090484,-0.003834902,0.000412672,-8.66E-05,0.002133317,0.000499485
1.77E+18,3.830103271,0.019774376,-0.00388634,-0.018565292,-0.001089347,0.00010532,0.001247401
1.77E+18,3.840091064,0.040486324,-0.006040157,0.005923837,-0.000137,0.001180438,0.003155289
1.77E+18,3.850080078,0.056602762,-0.005603957,0.00207476,0.00047857,0.002018712,0.002902234
1.77E+18,3.860068359,0.042367316,-0.008070932,-0.01054799,0.001048752,0.003319933,0.003483336
1.77E+18,3.870057373,0.015696751,0.005149346,-0.011112346,-0.001120658,0.003385979,-0.001381062
1.77E+18,3.880046387,-0.000716624,0.014578414,-0.008860475,-0.001422927,0.005213972,-0.004786179
1.77E+18,3.89003418,-0.001104746,0.009110212,0.001182488,-0.002136794,0.003737244,-0.005498067
1.77E+18,3.900023193,0.030063714,-0.000321925,-0.006826339,-0.000942899,0.002909267,-0.002585368
1.77E+18,3.91001123,0.047925534,0.00016352,-0.012760113,-0.000269399,0.000909062,0.001031252
1.77E+18,3.920000244,0.042207157,-0.005295476,-0.016746844,-0.000298161,0.005945632,0.00245125
1.77E+18,3.929989258,0.029793081,-0.00292071,0.003213409,-0.00136478,0.006736057,-0.000544173
1.77E+18,3.939977295,0.005725976,-0.001388678,-0.001948211,-0.00094693,0.005369856,-0.000432054
1.77E+18,3.949966309,0.002951251,-0.007653437,-0.000811901,0.000342061,0.000194713,-0.000271955
1.77E+18,3.959954102,0.057610477,-0.014239099,-0.021773733,0.001520243,0.001759054,-0.001183289
1.77E+18,3.969943115,0.058889996,0.003277853,-0.018575521,-6.37E-05,0.004848232,-0.003045426
1.77E+18,3.979932373,0.042797524,0.015920184,0.003089198,-0.001759914,0.005352102,-0.003913616
1.77E+18,3.98992041,0.024288638,0.003327245,-0.014721768,-0.001958215,0.00358536,-0.004858905
1.77E+18,3.999909424,0.005178279,-0.011822394,-0.014222002,0.000613866,0.002595996,-0.002515056
1.77E+18,4.009897217,0.013272739,-0.005834259,-0.021130759,0.001406831,0.00129013,-0.000216669
1.77E+18,4.01988623,0.027797523,-0.015258798,-0.023192367,-0.000398526,-0.000441191,0.0001109
1.77E+18,4.029875244,0.021824878,-0.005731822,-0.006937398,5.02E-05,0.002099287,-0.003190333
1.77E+18,4.039863281,0.027381343,0.005725684,-0.00892185,-0.000293108,0.002626327,-0.004087552
1.77E+18,4.049851318,0.049113867,0.005679361,0.004265548,-6.09E-05,0.003333886,-0.003999114
1.77E+18,4.059839355,0.033000937,0.00765826,-0.002215046,-0.00130037,0.004952555,-0.006573591
1.77E+18,4.069828613,0.038891164,0.005604834,-0.015702012,-0.001429561,0.003563358,-0.003666304
1.77E+18,4.079817383,0.021436756,0.004529606,-0.011199147,-0.001514515,0.002682917,-2.60E-05
1.77E+18,4.089805176,0.002054594,0.005955255,0.001943243,-0.002104797,0.003262009,-0.000263144
1.77E+18,4.099794434,0.037285482,0.00058686,-0.008751462,-0.000111688,-0.000109553,0.001285484
1.77E+18,4.109782471,0.038332361,-0.009847294,-0.010679215,0.000390692,-0.000692258,0.003826542
1.77E+18,4.11977124,0.046423898,-0.011446546,-0.011515081,-0.001743565,7.89E-06,0.001439018
1.77E+18,4.129760498,0.015181203,0.002427081,0.006824001,-0.001179654,0.000764203,0.000510194
1.77E+18,4.139748535,0.021489363,-0.001072305,-0.008467676,-0.001255021,0.000666199,-0.002016614
1.77E+18,4.149737305,0.020389877,-0.005210867,-0.019086101,-0.002505478,-0.001328331,-0.004007016
1.77E+18,4.159725586,-0.005313304,-0.00547244,-0.019224048,-0.001006385,-0.002202114,-0.005104239
1.77E+18,4.169714355,0.020029812,-0.008769582,-0.008920096,0.00076384,-0.001661413,-0.001304838
1.77E+18,4.179703369,0.038991117,-0.00801701,-0.023125147,-0.00056055,-0.001428119,0.001677636
1.77E+18,4.18969165,0.036336219,-0.003097381,-0.003553893,-0.0009772,0.002685407,-0.000618886
1.77E+18,4.19968042,0.022484219,-0.00799246,-0.016635201,-0.000696769,0.00562314,-0.005598198
1.77E+18,4.209668213,0.002076222,-0.003695055,-0.012380466,0.001607291,0.004850375,-0.003416807
1.77E+18,4.219657471,0.040448915,0.002914134,-0.012823826,-0.000931234,0.003555279,-0.000207697
1.77E+18,4.229646484,0.076833649,0.006174743,-0.027503508,0.000554037,-0.002002563,-0.001721889
1.77E+18,4.239634277,0.058066989,-0.003439473,-0.025035073,0.000698647,-0.002080861,-0.003982913
1.77E+18,4.249623535,0.044921676,-0.010403028,-0.02541998,0.000684845,-0.000629341,-0.001403331
1.77E+18,4.259611328,0.018302549,-0.015397329,-0.005716332,-0.001477376,0.004804839,-0.004332275
1.77E+18,4.269600342,0.011678747,-0.008205518,0.011787176,-0.001519395,0.006629194,-0.002534087
1.77E+18,4.279589355,0.052218848,0.007837562,-0.008461831,0.001836188,0.004500795,-0.000783592
1.77E+18,4.289577393,0.033894671,0.005307459,-0.028012627,0.000992847,0.002369646,-0.001982503
1.77E+18,4.299566406,0.049295069,0.005008037,-0.02805179,0.000399761,-0.000338523,-0.004167893
1.77E+18,4.309554688,0.020506197,-0.000157383,-0.022599662,-0.000989313,0.001550455,-0.007157789
1.77E+18,4.319543213,-0.004838672,0.008634119,0.002262684,-0.000707284,0.00130651,-0.006638206
1.77E+18,4.329532471,0.003375029,-0.002622457,0.008176877,-0.001668138,0.002893398,-0.003950298
1.77E+18,4.339520508,-0.001066168,0.002613251,0.009307927,-0.002442053,0.004261198,-0.004292514
1.77E+18,4.349509277,0.046303486,-0.002560644,-0.009461656,-0.001741012,0.004906484,-0.003747668
1.77E+18,4.359497314,0.041428573,0.019317279,-0.015593875,-0.00044858,0.00551981,-0.004231565
1.77E+18,4.369486572,0.041613282,0.010352029,-0.021159985,-0.003454758,0.003560168,-0.009239761
1.77E+18,4.379475342,0.050233811,-0.002063947,-0.023146482,-0.002581507,0.000295132,-0.007845596
1.77E+18,4.389463379,0.029088147,-0.007142273,-0.026587855,-0.001450856,0.000387892,-0.005963874
1.77E+18,4.399452393,0.033515316,-0.018189883,-0.018477906,-0.000454301,-0.000999615,0.000382971
1.77E+18,4.40944043,0.04237433,-0.010200638,-0.003233575,0.000292181,0.00397642,-0.002474733
1.77E+18,4.419429688,0.033922143,0.00372998,-0.008882102,-0.002315054,0.004235546,-0.001308535
1.77E+18,4.429418457,0.010828853,0.012207886,0.009159166,-0.003536652,0.005447901,-0.00525195
1.77E+18,4.43940625,0.016875147,-0.002474866,-0.005462942,-0.001508122,0.000995894,-0.000887028
1.77E+18,4.449395508,0.010275895,0.003869973,-0.021572949,-0.001931935,-0.000283129,-0.002747297
1.77E+18,4.459383545,0.022015432,-0.01491013,-0.029289515,-0.000625388,-0.002636298,-0.0029473
1.77E+18,4.469372314,0.018310733,-0.014197891,-0.018759938,-0.000235167,-0.00079774,-0.002712797
1.77E+18,4.479361572,0.017278467,0.006349223,-0.003571136,0.001332902,0.004112063,-0.003164203
1.77E+18,4.489349365,0.029497313,0.005893588,0.007371698,-0.000870268,0.005700903,-0.003108042
1.77E+18,4.499338379,0.032957682,0.003178192,0.001934475,-0.000379714,0.007882831,-0.003223623
1.77E+18,4.509326416,0.033378538,0.005097323,-0.005307751,-0.000682699,0.005167651,-0.003331006
1.77E+18,4.51931543,0.031051556,-0.004054682,-0.01542261,0.001215069,0.002503425,-0.002883861
1.77E+18,4.529304443,0.043162265,-0.009063158,-0.026416882,-0.000663558,-0.00171378,-0.002905785
1.77E+18,4.539292725,0.025007015,0.006449907,-0.026230128,0.001552192,0.001385074,-0.00457319
1.77E+18,4.54928125,0.008506547,0.012239888,-0.010526362,0.000373125,0.001283874,-0.005663323
1.77E+18,4.559269287,0.02199439,0.014838234,-0.006244155,0.000152881,0.003588307,-0.002566067
1.77E+18,4.569258545,0.029678514,-0.001258476,-0.021226036,0.000292668,0.003556971,-0.001472184
1.77E+18,4.579247559,0.040982583,-0.0061537,-0.019065058,-0.000851693,0.004227821,-0.003603778
1.77E+18,4.589235352,0.031607437,0.017814035,-0.023221301,0.000544201,0.002343813,-0.003594448
1.77E+18,4.599224609,0.041025253,-0.000413988,-0.030123043,0.001388956,0.001540871,-0.001489219
1.77E+18,4.609212402,0.030819501,1.46E-05,-0.009434768,0.000399106,0.000484482,-0.004574335
1.77E+18,4.619201416,0.024518355,0.001900281,-0.009370763,-0.000216084,0.003154567,-0.006615382
1.77E+18,4.62919043,0.005828852,0.002735855,-0.003072247,-0.001322145,0.004061729,-0.00505438
1.77E+18,4.639178467,0.005713117,0.002909896,-0.006017945,-0.002872638,0.002708843,-0.004882607
1.77E+18,4.64916748,0.021390579,0.007153379,-0.003936463,-0.001406782,-0.000187344,-0.004382666
1.77E+18,4.659155273,0.015936989,0.000578238,-0.029068858,-0.002119444,6.22E-05,-0.006782706
1.77E+18,4.669144287,0.016195933,0.006317659,-0.00740823,-0.001415233,0.002043408,-0.006049815
1.77E+18,4.679133301,0.009332476,-0.010627777,0.00281155,-0.000713757,0.003398691,-0.00577391
1.77E+18,4.689121582,0.029359365,-0.010201076,-0.023543957,0.000375078,0.000453856,-0.00118503
1.77E+18,4.699110596,0.047695817,-0.00872472,-0.01473229,0.001601464,-0.003456463,-0.00161593
1.77E+18,4.709098389,0.073918638,0.000558949,-0.005077742,0.002380812,-0.003876531,0.001223044
1.77E+18,4.719087402,0.08211948,0.002984861,-0.003286474,0.000290764,-0.000730273,0.000557253
1.77E+18,4.729076416,0.051723173,0.010592413,-0.01234218,0.000277451,0.000192511,-0.000495992
1.77E+18,4.739064453,0.017884032,-0.009115327,-0.004312018,0.000295827,-6.77E-05,-0.004657181
1.77E+18,4.749053467,-0.005094693,0.003063041,-0.020275603,0.00055981,-0.001559848,-0.002669965
1.77E+18,4.759041504,0.024562779,0.000188801,-0.016352584,0.001066343,-0.002347877,-0.002236403
1.77E+18,4.769030518,0.042405894,-0.00847659,-0.017622166,0.002561501,-0.001203073,-0.00573362
1.77E+18,4.779019287,0.009572715,-0.007840046,-0.011228666,0.000771856,0.002508574,-0.007552293
1.77E+18,4.789007324,-0.006905542,0.004614654,0.015585399,-0.00093903,0.004085519,-0.008494796
1.77E+18,4.798996338,-0.005813655,0.002769172,0.012931086,-0.002318015,0.004798181,-0.006151747
1.77E+18,4.808984619,0.048833297,0.014236469,-0.013187398,-0.002915509,0.002788295,-0.004315899
1.77E+18,4.818973389,0.041361938,0.000984189,-0.012899521,-0.002447592,0.003377653,-0.004677289
1.77E+18,4.828962402,0.0174585,0.004334376,-0.016711773,-0.00080283,0.004119431,-0.003956316
1.77E+18,4.838950439,0.034570378,0.006010931,-0.016375965,-0.001975419,0.002120463,-0.001507273
1.77E+18,4.848939453,0.061338558,-0.000186024,-0.037637949,0.002310968,-0.000104253,-0.000880875
1.77E+18,4.85892749,0.066089552,-0.006219167,-0.034568625,0.000772727,0.000126377,-0.002433232
1.77E+18,4.868916504,0.047253919,0.00052227,-0.006444354,-0.000785665,0.002730499,-0.002684273
1.77E+18,4.878905518,-0.003719313,-0.002951982,-0.00748568,-0.001001114,0.004182455,-0.00379854
1.77E+18,4.888893311,-0.012169746,-0.015157529,0.004403203,-0.000663978,0.003021673,-0.001416588
1.77E+18,4.898882324,0.017367314,-0.000142331,-0.015357436,-0.000928164,0.002700229,-0.001335095
1.77E+18,4.908870361,0.042097266,-0.009393559,-0.016337095,-0.001112908,0.001427064,-0.001038866
1.77E+18,4.918859375,0.040196401,-0.001394961,-0.0109177,0.00132202,0.001519742,-0.000266549
1.77E+18,4.928848633,0.017953005,-0.003774258,-0.008940555,0.00094632,0.000260245,-0.000700634
1.77E+18,4.938836426,-0.008532851,-0.004681582,-0.00782441,0.001598794,0.001544421,-0.002906797
1.77E+18,4.948825195,0.00145546,0.012518121,-0.012144904,0.001020707,-0.000266,-0.004614512
1.77E+18,4.958813477,0.006309914,0.016186434,-0.015305706,0.000767174,0.00019739,-0.005178303
1.77E+18,4.96880249,0.024619477,-0.006862579,-0.021090427,0.001131737,-0.000940756,-0.004586692
1.77E+18,4.97879126,0.064357029,9.91E-05,-0.013566461,0.001275814,-0.002246771,-0.001212999
1.77E+18,4.988779541,0.062970543,-0.002159078,-0.026201778,0.001299481,0.001217115,-0.002023256
1.77E+18,4.998768555,0.0274094,-0.007394786,-0.023259587,-0.001197499,0.003057359,-0.003146843
1.77E+18,5.008756348,-0.028908699,-0.003592764,0.001325403,0.001110962,0.005483147,-0.003548176
1.77E+18,5.018745361,0.021878654,0.001716887,-0.006149463,0.000863555,0.00166737,-0.002191561
1.77E+18,5.028734375,0.035627778,0.021329204,-0.01914806,0.001858462,-0.00079712,-0.002541867
1.77E+18,5.038722412,0.054397945,0.003829934,-0.029298575,0.001856864,-0.004619555,0.000868045
1.77E+18,5.048711914,0.034963761,-0.011557751,-0.023582243,0.000640359,-0.004411119,-0.000659465
1.77E+18,5.058699707,0.007204817,-0.004510902,-0.010735621,-0.00112079,0.000261663,-0.002670684
1.77E+18,5.068688721,-0.0039917,0.006927023,0.005992811,0.00047905,0.002481676,0.000825644
1.77E+18,5.078677979,0.011035773,-0.013293635,-0.002933131,-0.002178518,0.001927206,0.000711661
1.77E+18,5.088665771,0.028415947,0.001187018,-0.005717793,0.000799843,-0.001731003,-0.000136708
1.77E+18,5.098655029,0.041232174,0.00279153,-0.014219956,0.000509825,-0.00105456,-0.000495436
1.77E+18,5.108643066,0.037754269,-0.002301409,-0.02107669,-0.000801755,-0.002125148,-0.000948675
1.77E+18,5.11863208,0.033681905,-0.010297814,-0.018073125,0.000861921,-0.001517415,0.001800506
1.77E+18,5.12862085,0.021540801,-0.002062632,-0.022251287,0.001192121,-0.001800065,0.001852149
1.77E+18,5.138608887,0.023154666,-0.00583046,-0.01249474,5.81E-05,-0.00197104,-0.001204894
1.77E+18,5.1485979,0.027752515,-0.012731617,-0.013835633,0.001057344,-0.001794744,0.001018652
1.77E+18,5.158585938,0.034163551,0.001967647,-0.015391923,-0.000556531,0.000472671,-0.002038923
1.77E+18,5.168574951,0.013961305,0.012543401,-0.00449848,6.01E-05,0.002373533,-0.001507556
1.77E+18,5.178563965,0.015787936,-0.000104922,-0.011021452,-0.000923625,0.001484304,-0.002429276
1.77E+18,5.188551758,0.019099837,-0.005782675,-0.016564474,-0.000453064,0.001176017,-0.002125481
1.77E+18,5.198541016,0.024026772,0.011900281,-0.015768355,6.39E-05,-4.08E-05,-0.000507877
1.77E+18,5.208528809,0.046899698,-0.002450024,-0.023017303,0.001258549,-0.000372882,0.000630097
1.77E+18,5.218518066,0.029371056,-0.011266659,-0.021283611,0.000387429,-0.000613099,0.000709459
1.77E+18,5.22850708,0.012457331,-0.001980506,-0.012242811,0.000651694,0.002184821,-0.0030222
1.77E+18,5.238494873,0.021927754,0.009183277,-0.003751169,-0.001046338,0.001918772,-0.002510873
1.77E+18,5.248483887,0.02659107,0.004361995,-0.013865736,-0.000472191,0.002890292,-0.002884414
1.77E+18,5.258471924,0.017381343,0.000445552,-0.000113982,-0.001649841,0.002069239,-0.001639652
1.77E+18,5.268460938,0.037612815,-0.010799773,-0.013118133,7.00E-05,0.000858745,0.000320909
1.77E+18,5.278449951,0.035694414,-0.004368424,-0.017070962,-0.000165201,0.001901373,0.000855139
1.77E+18,5.288437988,0.023458617,0.009888941,-0.013197627,7.49E-05,-0.000349886,-0.00152505
1.77E+18,5.298426758,0.016851766,-0.002861965,-0.002140227,5.94E-05,-9.61E-05,-0.000910126
1.77E+18,5.308414795,0.028093876,-0.010916092,-0.009545827,0.000109664,0.001557998,-0.000525059
1.77E+18,5.318404053,0.048807578,-0.010406097,-0.013942016,-0.000540946,0.003395047,-0.000823334
1.77E+18,5.328392822,0.021515666,0.00179682,-0.014648995,-0.001474043,0.002995578,-0.000726667
1.77E+18,5.338381104,0.0030325,-0.007423574,-0.011766133,-0.001662328,0.004469371,-0.002672639
1.77E+18,5.348370117,0.017324644,-0.001183072,-0.015504151,-0.001617737,0.004184677,-0.005198046
1.77E+18,5.35835791,0.006435586,0.005781506,-0.006602759,-0.002222541,0.002969743,-0.003671521
1.77E+18,5.368346924,0.027703999,0.002135112,-0.013750001,-9.75E-05,0.001067624,-0.000617531
1.77E+18,5.378335938,0.028602994,-0.001298954,-0.027658991,0.000191717,0.000609827,-0.000253743
1.77E+18,5.388323975,0.026971009,-0.003286767,-0.022025662,-0.000307691,0.00091192,-0.000100476
1.77E+18,5.398312988,0.028661446,-0.007026976,0.002287819,0.000624415,0.002558019,-0.003128223
1.77E+18,5.408300781,0.028569676,-0.002531564,-0.004104805,-0.001419043,0.004682508,-0.004810153
1.77E+18,5.418289795,0.015326164,0.002347294,-0.007263854,-0.000862709,0.006280139,-0.00656198
1.77E+18,5.428279053,0.015963293,-0.00833119,-0.015398645,0.001889081,-0.000739255,-0.001291776
1.77E+18,5.43826709,0.088633392,-0.011680063,-0.040366789,0.002268848,-0.005755052,0.00457357
1.77E+18,5.448255859,0.089718265,-0.016628625,-0.017769758,8.60E-06,0.000255363,-0.001967503
1.77E+18,5.458243896,0.055001172,0.015036679,-0.008528759,-0.00302687,0.00176644,-0.002212514
1.77E+18,5.46823291,-0.02413374,-0.003463292,0.003842355,-0.001392711,0.001914512,-0.003690932
1.77E+18,5.47822168,-0.007765373,-0.007543986,-0.010326748,-0.00056793,-0.003275723,-0.002978004
1.77E+18,5.488209961,0.025925299,0.001288579,-0.027510815,-0.001094774,-0.001999006,-0.002251967
1.77E+18,5.498198975,0.029282793,-0.012238135,-0.011436463,-0.000536309,0.000836995,-0.004518583
1.77E+18,5.508187012,0.00021978,-0.005290508,-0.016684008,-0.001689441,0.001927473,-0.005351021
1.77E+18,5.518176025,-0.004231938,0.002068915,-0.000466448,-0.000838028,0.005958433,-0.003577356
1.77E+18,5.528164795,0.014416648,0.001247954,0.00047317,-0.002105866,0.004780871,-0.002245632
1.77E+18,5.538152832,0.052481882,0.011036942,-0.021531448,-0.001374829,0.002013314,-0.003604377
1.77E+18,5.54814209,0.067762454,0.016674364,-0.032800738,-0.000837191,0.002880528,-0.005010403
1.77E+18,5.558129883,0.045318567,0.005988281,-0.021383564,-0.002718981,0.001523381,-0.00335658
1.77E+18,5.568118896,0.038710547,0.007080752,-0.028326808,-0.000809518,0.000605124,-0.00286632
1.77E+18,5.578108154,0.02965981,-0.003598609,-0.026429157,-0.001576509,-8.01E-05,-0.005163829
1.77E+18,5.588095947,0.038415948,-0.011964286,-0.025248715,-0.000562833,-0.00014429,-0.001259534
1.77E+18,5.598084717,0.049304421,-0.014132424,-0.013582827,-0.00014738,0.001749217,-0.001233435
1.77E+18,5.608072998,0.025977906,-0.010169804,-0.006756196,0.000384543,0.001788624,-0.000883418
1.77E+18,5.618062012,0.003842647,-0.009744564,-0.013394027,6.50E-05,-0.000517673,-0.001257326
1.77E+18,5.628050781,0.003774842,-0.006881722,-0.018022856,-0.00122642,-0.002943804,-0.002617781
1.77E+18,5.638038818,0.025794366,-0.010106383,-0.025220074,0.002036751,-0.004990177,-0.001937077
1.77E+18,5.648027832,0.044236617,-0.004531944,-0.005149638,0.000431025,-0.001582398,-0.003800888
1.77E+18,5.658015869,0.032210663,-0.016739538,-0.003958382,-0.000939437,0.001259461,-0.004289844
1.77E+18,5.668005127,0.026082536,-0.009061551,-0.00803513,-0.000909762,0.003182709,-0.006640607
1.77E+18,5.677993896,0.015748189,-0.004532383,-0.011422727,-0.000322003,0.004012018,-0.007987901
1.77E+18,5.687981934,0.033261634,0.00208952,-0.013418577,6.19E-05,0.002747016,-0.005245178
1.77E+18,5.697970947,0.031292964,-0.001248831,-0.019882512,0.002235076,-0.000230398,-0.001635263
1.77E+18,5.707959717,0.046773442,-0.006787176,-0.02973229,0.001678823,-0.006454917,0.002436235
1.77E+18,5.717947754,0.074373396,-0.007367022,-0.025804596,0.001484944,-0.001936864,0.00220747
1.77E+18,5.727937012,0.041328036,-0.001945727,-0.005876783,0.00128677,0.002281759,-0.000890873
1.77E+18,5.737925049,-0.008099135,-0.012936054,0.007372867,-0.000129232,0.005940943,-0.001690621
1.77E+18,5.747913818,0.013275077,-0.003084376,0.005903087,-0.000660185,0.003601001,-0.000265419
1.77E+18,5.757901855,0.035461774,-0.007685294,-0.017738778,-0.000847671,-0.000201194,-1.51E-05
1.77E+18,5.767890869,0.03002046,-0.000431669,-0.0247659,0.00011454,-0.002363767,-0.001719663
1.77E+18,5.777879883,0.013654431,-0.003916297,-0.020110476,0.000203223,-0.001672145,0.000730179
1.77E+18,5.787868164,0.065250179,-0.006676555,-0.02846797,0.000227518,0.000130454,0.002034649
1.77E+18,5.797856934,0.05151333,-0.014173048,-0.018052082,-0.000523493,0.003137962,-0.000570722
1.77E+18,5.807844727,0.008089783,0.000797434,-0.0008195,-0.003118412,0.005491049,-0.001590478
1.77E+18,5.817833984,0.008956044,-0.006490677,-0.00467296,-0.001163652,0.00375014,-0.001910323
1.77E+18,5.827822754,0.028488428,-0.005386077,-0.018301673,-0.001226006,0.001226972,-0.001016787
1.77E+18,5.837810791,0.029390345,0.003924334,-0.017450024,-0.001663563,0.000553459,-0.001142489
1.77E+18,5.847800049,0.027313539,-0.001929945,-0.019344752,0.000714391,-0.000760103,0.001798555
1.77E+18,5.857789063,0.035270635,-0.000263035,-0.031064124,-0.001484582,-0.000457834,0.004350396
1.77E+18,5.867776611,0.028575522,-0.017711159,-0.003443126,0.001513226,-0.001542715,0.004865636
1.77E+18,5.877765869,0.030526656,-0.01762202,-0.01579612,-0.001749146,0.001088488,0.00047861
1.77E+18,5.887753906,0.020792613,-0.016192425,-0.023560324,-0.000582581,-0.001016389,-0.001380117
1.77E+18,5.89774292,0.02243395,-0.003533873,-0.021589901,-0.000452086,0.000849422,-0.000897818
1.77E+18,5.907731934,0.018851415,0.007877309,-0.008820728,-0.000756603,0.001533768,-0.002203591
1.77E+18,5.917719971,0.001654197,0.00398907,-0.008190613,-0.001284974,0.002291171,-0.003318124
1.77E+18,5.927708984,0.002070961,-0.010024404,-0.018450433,-0.00055997,0.001020133,-0.002017347
1.77E+18,5.937697021,0.02196984,-0.003277999,-0.01801175,0.000143105,-5.61E-05,-0.002918827
1.77E+18,5.947685791,0.040773909,-0.014990941,-0.023061727,-0.001828743,-0.000954157,0.000747024
1.77E+18,5.957675049,0.042248073,-0.006186434,-0.024943595,0.001103664,-0.000685444,-0.001757146
1.77E+18,5.967663086,0.036122284,-0.010515403,-0.026403438,0.000207423,0.000545824,-0.001135308
1.77E+18,5.977651855,0.039870238,-0.006104016,-0.027390988,0.001386404,-0.000127956,0.000676973
1.77E+18,5.987639648,0.040678047,-0.003899053,-0.024071488,0.000641924,0.002524376,-0.000379416
1.77E+18,5.997628906,0.023704116,-0.005797142,-0.010153437,-0.000146905,0.003058872,0.000316734
1.77E+18,6.00761792,0.02352233,0.001912702,-0.011371873,0.000274953,0.004456143,1.27E-05
1.77E+18,6.017606201,0.035916532,-0.01852043,-0.014073826,-0.001128533,0.004331241,0.000702705
1.77E+18,6.027594971,0.027937808,-0.017083529,-0.002547346,-0.001056206,0.001865946,0.002217587
1.77E+18,6.037582764,0.026489363,-0.000855448,-0.019635552,6.68E-05,-0.000434759,0.002292688
1.77E+18,6.047571533,0.02216507,0.000856325,-0.026956688,-0.001197159,0.000627938,-0.001681467
1.77E+18,6.057560547,0.035312136,-0.003434504,-0.022893969,0.000547478,0.000500373,-0.001574674
1.77E+18,6.067548584,0.037414077,-0.01406915,-0.019060674,-0.000575937,0.00116261,-0.000879544
1.77E+18,6.077537842,0.032242812,-0.018775866,-0.009676175,-0.002093939,0.003072363,-4.97E-05
1.77E+18,6.087525635,0.024703064,-0.004692542,-0.002783493,-0.001065401,0.004049914,0.000489708
1.77E+18,6.097514648,0.012670096,-0.004022972,-0.02206161,-0.001614545,0.001340414,-0.001152397
1.77E+18,6.107503662,0.017310031,-0.00360387,-0.02618775,-0.000980363,-0.000904356,6.14E-05
1.77E+18,6.117491699,0.022229367,0.008609569,-0.021788053,0.000151481,-0.00232462,0.001683259
1.77E+18,6.127480713,0.025613165,0.011702713,-0.020807226,0.000198571,-0.001375107,-0.00036094
1.77E+18,6.137468506,0.026793314,-0.005082272,-0.020502105,-0.000999585,0.001292581,-0.002008372
1.77E+18,6.14745752,0.023661446,0.000795388,-0.006387071,-0.001723201,0.002686775,-0.002872696
1.77E+18,6.157446533,0.009894787,-0.018010873,-0.019458149,1.48E-05,-0.001266688,-0.001320872
1.77E+18,6.16743457,0.044393268,-0.011886253,-0.028889994,0.001351055,-0.003780645,0.004700297
1.77E+18,6.177423584,0.104773795,-0.015763679,-0.033451311,0.001634415,-0.005436865,0.007386095
1.77E+18,6.187411621,0.093254622,-0.01025909,-0.022075346,0.000978231,-0.001539862,0.003786933
1.77E+18,6.197400391,0.028664369,-0.005717209,-0.006306991,0.000178217,0.002272719,0.001917927
1.77E+18,6.207389648,-0.007522797,-0.009213088,-0.009465747,1.24E-07,-0.007477113,0.003648949
1.77E+18,6.217377686,0.009724106,-0.000585399,-0.014039631,0.002828402,-0.004576398,0.003146411
1.77E+18,6.227366699,0.033268648,-0.007776918,-0.022893092,0.001112705,-0.005231625,0.002768619
1.77E+18,6.237354736,0.023915129,-0.01557707,-0.016790391,-0.001119557,-0.001517315,9.53E-05
1.77E+18,6.24734375,-0.016225159,0.000990618,-0.009679682,-0.001418447,-7.34E-05,-0.001324945
1.77E+18,6.25733252,-0.016328034,-0.001202362,-0.000450082,-0.000156375,0.00184963,-0.00136649
1.77E+18,6.267320557,-0.00310498,-0.003528028,-0.005173019,0.000255044,0.002447776,0.000791733
1.77E+18,6.27730957,0.026132805,-0.007425474,-0.021744507,-0.000793709,0.00118677,0.001687354
1.77E+18,6.287297607,0.030538931,-0.008278876,-0.027112463,0.000377785,0.000236555,0.000907514
1.77E+18,6.297286621,0.01459785,-0.010426848,-0.012542086,-0.001069643,0.001301287,-0.000564415
1.77E+18,6.307275635,0.01656535,-0.000389145,-0.012839608,-0.001302127,0.001452908,-0.001269697
1.77E+18,6.317263672,0.04061375,0.005003507,-0.027122692,-0.000379075,-0.002537041,-0.000942661
1.77E+18,6.327252686,0.036380058,-0.001282587,-0.028762569,0.000101437,-0.001885096,0.0013643
1.77E+18,6.337240723,0.025434301,-0.022171792,-0.023641572,0.000695588,-0.001036081,0.001671895
1.77E+18,6.347229736,0.026617958,-0.00563143,-0.019005729,-0.0008828,-0.001744215,0.002242145
1.77E+18,6.35721875,0.021794483,-0.015819208,-0.029673546,0.000790197,-0.002824393,0.002535359
1.77E+18,6.367206543,0.027142858,-0.016361352,-0.014355858,-0.000892633,-0.002335348,0.002900101
1.77E+18,6.377195557,0.050313891,-0.009829905,-0.033228024,0.000645609,-0.003569724,0.006568871
1.77E+18,6.387183594,0.04547931,-0.009115619,-0.02104045,-0.000462096,-0.006263067,0.009628355
1.77E+18,6.397172607,0.029865561,-0.005947218,-0.024924306,0.002716653,-0.006755219,0.008557231
1.77E+18,6.407161865,0.003577858,-0.004166472,-0.015381109,0.003173452,-0.005422129,0.005924675
1.77E+18,6.417149658,0.012897475,-0.002840923,-0.017160394,0.000259154,-0.005446364,0.005773674
1.77E+18,6.427138428,0.045155485,-0.017712913,-0.020684768,0.002838604,-0.005870784,0.007092161
1.77E+18,6.437126709,0.032370822,-0.007453677,-0.021221944,0.001174394,-0.005174899,0.006858069
1.77E+18,6.447115723,0.019117373,-0.002422405,-0.006710896,0.000735057,-0.006641591,0.007268606
1.77E+18,6.457104492,0.033422962,-0.008957944,-0.016376842,0.002120167,-0.004911868,0.00727553
1.77E+18,6.467092773,0.044459904,0.010263474,-0.024385961,0.001047385,-0.002444273,0.00400072
1.77E+18,6.477081787,-0.020480478,-0.002905366,-0.020035072,0.000265214,-0.000127855,0.00312454
1.77E+18,6.48706958,-0.014641689,-0.007387042,-0.009319032,-0.000593194,-0.001455796,0.003142794
1.77E+18,6.497058594,0.03095511,-0.008923457,-0.021150632,-0.000541262,-0.004072618,0.004235489
1.77E+18,6.507047607,0.036745384,0.009790449,-0.034231355,0.001853541,-0.001142077,0.004464723
1.77E+18,6.517035645,0.033024318,-0.022631226,-0.01386106,0.001137683,-0.001192944,0.002816759
1.77E+18,6.527024658,0.027067455,-0.016024521,-0.006795944,0.001579294,0.001191208,0.000699466
1.77E+18,6.537012451,0.007368483,-0.002346271,-0.006591361,-0.001811709,0.002369657,-0.000817205
1.77E+18,6.547001465,0.002189619,0.000260112,-0.010255437,-0.001236862,0.000901458,0.000575161
1.77E+18,6.556990723,0.019587913,0.006732815,-0.033747079,6.83E-06,0.000607711,0.000115766
1.77E+18,6.56697876,0.042947161,-0.004353373,-0.019936288,0.000271253,-0.001471154,0.002100025
1.77E+18,6.576967529,0.061773442,0.004326339,-0.011720248,-0.001463263,-0.001640265,0.000950604
1.77E+18,6.586955811,0.048788873,0.011875439,-0.02047814,-0.000115332,0.001084237,0.000366261
1.77E+18,6.59694458,0.043588966,-0.006126666,-0.023670798,0.00049826,0.00113537,0.001813423
1.77E+18,6.60693335,0.035736499,-0.002368629,-0.01883651,0.000207225,0.003506381,-0.000250159
1.77E+18,6.616921631,0.002878186,-0.008828472,-0.026275428,-0.001052717,0.001272521,3.80E-05
1.77E+18,6.626910645,0.012765374,-0.005192162,-0.026365737,0.001284008,-0.000546769,-0.001750578
1.77E+18,6.636898682,0.026652445,0.006594284,-0.02670739,-0.001262773,-0.001020279,-0.000369196
1.77E+18,6.646887695,0.028100305,-0.006737199,-0.028519992,0.000651428,-0.003173979,0.000712249
1.77E+18,6.656876465,0.017720366,-0.007762597,-0.021057986,-0.000330213,-0.000592577,-0.000966608
1.77E+18,6.666864502,0.019692542,-0.001608458,-0.015424071,-0.000184772,0.001888069,-0.000218382
1.77E+18,6.67685376,0.032468437,-0.01602949,-0.015563188,0.0011532,0.00163427,0.001570996
1.77E+18,6.686841797,0.033850832,-0.000898702,-0.017532734,3.25E-05,-0.000778739,-0.000916831
1.77E+18,6.696830566,0.021415713,0.00220204,-0.022992169,-0.001666375,0.000355502,-0.003916349
1.77E+18,6.706819824,0.017509353,0.00374547,-0.013969489,4.24E-05,9.17E-05,2.39E-05
1.77E+18,6.716807617,0.058060559,-0.006801351,-0.030767186,0.000997155,-0.000563992,0.000948061
1.77E+18,6.726796387,0.032209494,-0.017478812,-0.018104981,0.000308102,0.001897567,0.000261764
1.77E+18,6.736784668,0.041535541,-0.003671236,-0.009992402,-0.000478329,0.001620066,0.00077176
1.77E+18,6.746773682,0.038452188,-0.008694617,-0.013282968,-0.000473006,0.001190321,-0.000363156
1.77E+18,6.756762695,0.018249942,-0.011297639,-0.026410745,-0.000191776,8.99E-05,-0.000747983
1.77E+18,6.766750732,0.017787001,-0.001129589,-0.018456279,6.60E-05,0.000527901,-0.001973224
1.77E+18,6.776739502,0.018958383,0.00679872,-0.016522973,-0.000479911,-5.26E-06,-0.000795841
1.77E+18,6.786727539,0.040668695,-0.002681348,-0.015759002,0.001792706,7.46E-05,0.00085435
1.77E+18,6.796716797,0.03905483,-0.008624036,-0.019744857,0.001758617,0.00183312,0.000266856
1.77E+18,6.806705566,0.013363924,-0.019191899,-0.017167116,0.000356667,0.002902289,-0.001097103
1.77E+18,6.816693604,0.02283201,-0.01366393,-0.026465398,0.000130564,-2.95E-06,0.002159677
1.77E+18,6.826682617,0.031249709,-0.006175766,-0.031947044,0.000989205,0.001245978,0.000914032
1.77E+18,6.836670654,0.018708208,0.001591507,-0.012106617,-0.002010313,0.000784985,-0.000820485
1.77E+18,6.846659424,0.023064065,0.010754326,-0.017499416,-0.000321033,0.000599632,-0.001645937
1.77E+18,6.856648682,0.021870471,-0.006999503,-0.000179156,0.000440631,0.000894444,-0.000817162
1.77E+18,6.866636719,0.022004327,-0.016774025,-0.016346155,0.000419138,0.001266045,0.000528889
1.77E+18,6.876625977,0.026656536,-0.008974457,-0.030206338,0.001293987,0.000573623,0.001254866
1.77E+18,6.886613525,0.048566755,-0.024193653,-0.027954759,0.001212609,0.00312422,0.002598088
1.77E+18,6.896602539,0.055274143,-0.013249065,-0.023572599,-7.40E-05,0.0021266,0.000609772
1.77E+18,6.906591797,0.010438392,-0.000302344,-0.004942425,0.000481596,0.000917968,-0.001946651
1.77E+18,6.916579834,-0.009117372,-0.000679653,-0.020141455,0.00134233,-0.005591064,-0.003631899
1.77E+18,6.926568604,0.033237668,-0.003682342,-0.022931378,-0.000257428,-0.004818392,0.004071683
1.77E+18,6.936557861,0.096052729,-0.004714169,-0.037317046,0.000759367,-0.001960288,0.004911111
1.77E+18,6.946545654,0.04878712,0.011840075,-0.011537878,0.002664955,0.0019835,0.002899734
1.77E+18,6.956534424,0.022507015,-0.012357962,-0.013646833,-5.13E-06,-0.00038112,0.000605953
1.77E+18,6.966522461,0.000989596,-0.019071488,-0.033810792,0.001564502,-0.000834568,0.003215341
1.77E+18,6.976511719,0.021639585,-0.023444442,-0.030382571,0.001770897,-0.002717689,0.003461683
1.77E+18,6.986500732,0.048383799,-0.016113515,-0.027149288,0.001305167,-0.002745564,-0.000212291
1.77E+18,6.996488525,0.01107669,-0.004361702,-0.025021629,0.00134618,0.000191104,-0.00351541
1.77E+18,7.006477539,-0.019134324,-0.015195377,-0.013259879,-0.00062037,0.004108703,-0.005227068
1.77E+18,7.016465576,0.002373159,-0.007273206,0.001608312,-0.000123158,0.006895168,-0.001706369
1.77E+18,7.026454834,0.025128596,-0.011221505,-0.014726152,-0.001455237,0.004868236,-0.000972236
1.77E+18,7.036443604,0.030355391,-0.002118015,-0.019292437,-0.001049105,0.005630699,-0.001919256
1.77E+18,7.046431641,0.009359364,-0.001694821,-0.014330431,0.000885757,0.003226398,-0.001323074
1.77E+18,7.056420654,0.00975567,-0.014248013,-0.019395605,-0.001617881,0.005842953,-0.003094342
1.77E+18,7.066408691,0.029709494,0.006197247,-0.020977029,-0.001861142,0.000217292,-0.002316798
1.77E+18,7.076397461,0.016820786,0.002769319,-0.022834348,-0.000367108,0.001481228,-0.003259823
1.77E+18,7.086386719,0.021581717,0.001988543,-0.023542496,0.000715175,-0.000816904,-0.001039068
1.77E+18,7.096374756,0.030725393,-0.020290362,-0.029019758,-0.000535445,0.000880062,0.000563889
1.77E+18,7.10636377,0.02670096,-0.005160744,-0.04392419,-0.000878345,0.000506511,-0.000409442
1.77E+18,7.116351563,0.020841712,-0.006837737,-0.0309253,-0.000345979,-0.000373131,0.000395898
1.77E+18,7.126340576,0.047886371,-0.011407968,-0.017556992,0.000312639,-0.00282173,0.000125214
1.77E+18,7.13632959,0.045485155,-0.014818214,-0.033425884,-0.001025333,0.001099241,-0.002291339
1.77E+18,7.146317871,0.035081835,-0.01773834,-0.011350831,-0.000117284,-0.001801386,-0.000865348
1.77E+18,7.156306641,0.015517887,-8.26E-05,-0.018109657,0.002307525,0.001434622,0.00099993
1.77E+18,7.166294434,0.026295302,-0.024086101,-0.025083588,-1.05E-05,-0.001055791,0.001686317
1.77E+18,7.176283691,0.017175591,-0.000871376,-0.019355566,0.000975984,-0.001597478,0.003594739
1.77E+18,7.186272705,0.012679449,-0.012699761,-0.027535657,0.002417464,-0.000312947,-0.001162214
1.77E+18,7.196260498,0.018051205,-0.015996172,-0.012175006,0.001566584,-0.002047197,0.001209331
1.77E+18,7.206249756,0.039089317,-0.013694763,-0.010848434,0.000551913,-0.004936458,0.002485758
1.77E+18,7.216237793,0.039935705,0.003269669,-0.024154198,0.001198795,-0.001878616,0.00257737
1.77E+18,7.226226563,0.039493221,-0.008716537,-0.015385785,-0.000571326,0.000719206,0.000638072
1.77E+18,7.236215576,-0.00770166,-0.009048983,-0.016898528,-0.000661607,0.003741627,0.000191193
1.77E+18,7.246203613,0.001375965,-0.014453473,-0.009096037,-0.000189848,0.002125003,0.001494185
1.77E+18,7.256192627,0.037645548,-0.020155776,-0.015572832,-2.34E-05,-0.000949883,0.001773018
1.77E+18,7.266180908,0.044553427,-0.011973346,-0.032346565,0.001221164,-0.001233424,0.001963261
1.77E+18,7.276169678,0.042878188,-0.016200316,-0.029020635,0.000898921,0.000143963,-0.001005898
1.77E+18,7.286158447,0.006669979,0.00123641,-0.018420623,-0.001084625,0.002603129,-0.002893282
1.77E+18,7.296146729,0.029172318,0.000610241,-0.011068507,-0.001175705,0.003089954,-0.002629363
1.77E+18,7.306135498,0.044954994,-0.007289134,-0.023388767,0.000553729,0.002791059,0.001517422
1.77E+18,7.316123535,0.027845454,-0.008349165,-0.031600422,-0.001029254,0.003049386,0.000482518
1.77E+18,7.326112793,0.024024434,-0.013269962,-0.025451837,-0.001025722,0.002831709,-0.001968468
1.77E+18,7.336101807,0.016568857,-0.007392594,-0.027070085,0.000180957,0.001429555,-0.000451265
1.77E+18,7.3460896,0.037104865,-0.003691256,-0.021433833,-0.000388615,4.78E-05,0.001419007
1.77E+18,7.356078613,0.046098903,0.008181407,-0.02839052,-0.000577434,0.001668626,1.29E-05
1.77E+18,7.36606665,0.029809447,-0.012924948,-0.033490182,0.000218784,0.000730837,-0.0036566
1.77E+18,7.376055664,0.004372224,-0.007841361,-0.026679917,0.000241687,0.000124435,-0.001075198
1.77E+18,7.386044678,0.02800269,-0.014951485,-0.004389175,0.00037845,-7.90E-05,-0.000224253
1.77E+18,7.396032471,0.038445758,-0.003886778,-0.011756489,0.001253831,-0.001018592,-0.003018708
1.77E+18,7.406021484,0.019557518,-0.005025427,-0.016928046,-0.000255373,0.000963509,-0.0003822
1.77E+18,7.416009766,0.00521978,-0.011835984,-0.024286008,-0.0007161,0.001357391,-0.001192334
1.77E+18,7.425998535,0.026805005,-0.011791268,-0.030274727,-0.001078699,0.001224588,0.00038125
1.77E+18,7.435987549,0.028057051,-0.004342267,-0.026369828,0.001372474,0.002064815,-0.001102663
1.77E+18,7.44597583,0.023573768,-0.00465674,-0.026285073,0.000379918,-0.000210415,-0.000291781
1.77E+18,7.4559646,0.035081835,-0.016927169,-0.033441082,-4.70E-05,-0.001017886,-0.002021771
1.77E+18,7.465952637,0.019944471,-0.009167349,-0.029414895,0.001238841,0.000842689,-0.002178711
1.77E+18,7.47594165,0.00992752,-0.011323504,-0.017001696,-0.000600871,0.001496761,-0.002477252
1.77E+18,7.485930664,0.008037176,-0.009697657,-0.009799509,-0.001297093,0.003181656,-0.003268268
1.77E+18,7.495918701,0.016184242,-0.018259587,-0.01334142,-0.000530369,0.003888725,-0.001132945
1.77E+18,7.505907715,0.031817865,-0.011968524,-0.02200871,0.000664715,0.001508569,-0.001970164
1.77E+18,7.515896484,0.027660745,-0.018583266,-0.033216625,0.000934493,0.000986855,-0.001910509
1.77E+18,7.525884521,0.025070144,-0.003406301,-0.031100364,0.00040145,-0.001429787,-0.003957069
1.77E+18,7.535873779,0.016778116,-0.003128946,-0.011415128,0.00031543,0.000145473,-0.002395658
1.77E+18,7.545861572,0.034845688,-0.011720541,-0.023398411,-0.000108864,0.001076694,-0.000329137
1.77E+18,7.555850586,0.042825581,-0.022229367,-0.009786942,-0.001206619,0.002035432,0.000671945
1.77E+18,7.565839844,0.026581717,-0.019068127,-0.017188743,-0.001521722,0.001912216,0.000419434
1.77E+18,7.575827637,0.019006314,-0.013062457,-0.022084114,0.000209599,0.002011019,-0.000508678
1.77E+18,7.585816406,0.024705402,-0.001692775,-0.027358255,-0.000152498,0.001013754,-0.001258339
1.77E+18,7.595804688,0.033540451,-0.002740239,-0.028161388,0.001566572,0.001207632,-0.001526786
1.77E+18,7.605793701,0.025293431,-0.001374795,-0.031426527,-0.000735622,-0.001292189,-0.001622669
1.77E+18,7.615782471,0.032576574,-0.001531593,-0.02897738,0.000277445,-0.000651166,-0.000981646
1.77E+18,7.625770508,0.028960722,-0.000806786,-0.021961072,-0.000808501,-0.000423732,-0.000742107
1.77E+18,7.635759521,0.006958149,-0.003723112,-0.013343758,-0.000476671,0.000652186,-0.002575428
1.77E+18,7.645747559,0.009364625,-0.010086656,-0.005713117,-0.000956634,0.001948784,-0.003262784
1.77E+18,7.655736816,0.00623451,-0.009015519,-0.012849545,0.000812238,0.001457963,-0.003488353
1.77E+18,7.665725586,0.026577041,-0.001032558,-0.017343349,-0.000989648,0.000552806,-0.00443634
1.77E+18,7.675713623,0.041807344,-0.00241729,-0.031092473,0.000129146,-0.000459196,-0.002097818
1.77E+18,7.685702637,0.018875381,-0.017489626,-0.028209026,-0.000177892,0.001630851,-0.00459416
1.77E+18,7.695690674,0.016667642,-0.015523148,-0.018132454,3.44E-05,0.004348873,-0.005387249
1.77E+18,7.705679443,0.00699322,-0.002644231,-0.020282325,-0.000390674,0.003424417,-0.004359194
1.77E+18,7.715668701,0.004162965,-0.012314999,-0.012287819,-7.80E-05,-0.001945048,-0.001547428
1.77E+18,7.725656738,0.035169513,-0.020544191,-0.03437544,0.001132225,-0.005835595,0.002207219
1.77E+18,7.735645752,0.091035777,-0.017078414,-0.038870121,0.002584713,-0.004259003,0.002716149
1.77E+18,7.745633545,0.061988546,0.010086656,-0.029981881,0.001028825,0.001235506,-0.002406225
1.77E+18,7.755622559,0.036512744,0.015033318,-0.012675649,-0.000289439,0.001672797,-0.007694197
1.77E+18,7.765611816,0.003697685,-0.003468261,-0.026798283,0.000308073,0.001633358,-0.009370947
1.77E+18,7.775599609,-0.034713586,-0.003838555,-0.018284429,-0.001944162,-0.001684941,-0.005490722
1.77E+18,7.785588623,0.023254619,-0.012644378,-0.010349252,-0.000995899,-0.002842759,-0.002228123
1.77E+18,7.795576416,0.038745618,-0.012414222,-0.025965047,0.000972444,0.000351703,-0.003571155
1.77E+18,7.805565674,0.010887305,-0.007470628,-0.028225393,8.99E-05,0.002898423,-0.004823274
1.77E+18,7.815554443,-0.004968436,-0.010550328,-0.010149638,0.000489361,0.003954633,-0.00602436
1.77E+18,7.82554248,0.017013094,0.004959084,-0.012928163,-0.00146857,-8.38E-06,-0.00393056
1.77E+18,7.835531738,0.055908934,-0.005239654,-0.024429508,-0.00176418,0.003328298,-0.004777711
1.77E+18,7.845519775,0.021691607,-0.004203881,-0.014706278,-0.001288719,0.00431573,-0.006279644
1.77E+18,7.855508301,-0.006818448,-0.008913374,-0.015864216,-0.000463939,0.004464867,-0.003489183
1.77E+18,7.865497559,0.011297055,-0.002550123,-0.028521453,-0.001522503,0.000517169,-0.002593265
1.77E+18,7.875485596,0.04983166,-0.000352759,-0.036644846,-0.00194701,-0.002184075,-0.004619398
1.77E+18,7.885474854,0.048799979,-0.021546061,-0.038111996,0.000207819,-0.004956256,-0.002639726
1.77E+18,7.895462646,0.046716158,-0.017599662,-0.037492988,0.000629397,-0.004622828,0.001480184
1.77E+18,7.90545166,0.032237551,-0.00738295,-0.021685762,0.000111586,-0.002308721,-0.00067575
1.77E+18,7.915440674,0.015825346,-0.012148995,-0.025378479,0.000464455,-0.002119903,-0.003222265
1.77E+18,7.925428711,0.022657237,-0.011738076,-0.030734453,-0.000184469,-0.00040456,0.000484953
1.77E+18,7.93541748,0.026074352,-0.012009148,-0.026530864,0.001228338,-0.001631478,0.002632526
1.77E+18,7.945405518,0.023672552,-0.02362506,-0.026373628,0.001960807,-0.002335086,0.001547723
1.77E+18,7.955394775,0.017190789,-0.01227759,-0.014493805,0.000391939,-0.003065858,0.002253727
1.77E+18,7.965383545,0.035224458,-0.011008739,-0.031452538,0.002091839,-0.004661888,0.001969064
1.77E+18,7.975371338,0.047704,-0.00587386,-0.037407355,0.000381024,-0.003609407,0.003740066
1.77E+18,7.985360596,0.029962008,-0.004213088,-0.030717794,0.00431618,-0.002577166,-0.000730948
1.77E+18,7.995348633,0.007175591,-0.018201427,-0.032463177,0.002865823,0.000357105,1.74E-05
1.77E+18,8.005337891,0.006704466,-0.010998802,-0.01090484,0.000574889,-2.23E-05,-0.001800054
1.77E+18,8.01532666,0.042439212,-0.016546792,-0.023055005,0.002080374,0.000529501,0.000522755
1.77E+18,8.025314453,0.032593525,-0.011040449,-0.018109949,0.000105429,0.001575679,-0.001092862
1.77E+18,8.035303711,-0.011831892,-0.006263737,-0.006314882,-0.00066023,0.000107479,-0.001554121
1.77E+18,8.045291748,0.014030863,-0.001190087,-0.013285306,0.001699998,-0.002080308,0.003031842
1.77E+18,8.055280273,0.048546881,-0.00343582,-0.028111411,0.001149522,-0.003125599,0.003300022
1.77E+18,8.065269531,0.047304187,-0.010836013,-0.03053367,0.001221325,-0.004165031,0.002605271
1.77E+18,8.075257568,0.045545946,-0.022905075,-0.027208617,-0.000279899,-0.004088865,-0.000745252
1.77E+18,8.085246338,0.008799393,-0.019243191,-0.028952538,-7.40E-05,-0.002815343,-0.000236786
1.77E+18,8.095234131,0.005185294,-0.006719956,-0.009974866,0.000347014,0.000913881,-0.002896219
1.77E+18,8.105223389,0.001284779,0.00238105,-0.012868834,-0.002511322,0.002198592,-0.000715126
1.77E+18,8.115212402,0.02165829,-0.001242401,-0.034882513,-0.001940606,-0.000929024,0.001044159
1.77E+18,8.125200684,0.036287703,-0.012524258,-0.041688101,-0.000130528,-0.002242317,-0.002561351
1.77E+18,8.135189453,0.036968671,-0.023422815,-0.040478141,0.000293181,-0.000956277,-0.001681975
1.77E+18,8.145178223,0.023286183,-0.01974851,-0.03444909,-0.000157348,-0.003099855,-0.002917715
1.77E+18,8.155166504,0.017069208,-0.012055472,-0.015989012,-0.000251624,-0.000814863,-0.003928917
1.77E+18,8.165155273,0.015972645,-0.004838234,-0.025638299,0.00186498,0.000448982,-0.000720559
1.77E+18,8.175143311,0.018793548,-0.021889322,-0.023161972,0.000261225,-0.001666367,-0.00100099
1.77E+18,8.185132568,0.059727616,-0.018364655,-0.043319502,0.001935607,-0.004095078,0.000138461
1.77E+18,8.195121582,0.053359834,-0.017930209,-0.031477965,-1.65E-05,-0.002736866,-0.000760355
1.77E+18,8.205109375,0.038486675,-0.008833295,-0.021738077,0.000807845,-0.000685167,-0.001813667
1.77E+18,8.215098389,0.030365328,-3.42E-05,-0.028550387,-0.0002212,-0.002749117,-0.001413927
1.77E+18,8.225086426,0.01696984,-0.002144172,-0.013178046,-2.04E-06,8.02E-05,-0.001131334
1.77E+18,8.235075439,0.010043255,-0.007956658,-0.038827743,0.000496242,-0.000692357,-0.000670607
1.77E+18,8.245064453,0.015884967,-0.010460458,-0.009309096,0.001128119,0.00016216,0.000860095
1.77E+18,8.255052246,0.034028526,-0.018809914,-0.035130642,5.19E-05,0.001045797,0.002210318
1.77E+18,8.26504126,0.04211714,-0.024776275,-0.038759647,0.001162432,-0.000135136,0.000342948
1.77E+18,8.275029541,0.033040684,-0.015652912,-0.040086803,0.00096376,0.00249953,-0.000826712
1.77E+18,8.285018311,0.02007482,-0.002475158,-0.022627427,0.000939573,0.002384215,-0.003622598
1.77E+18,8.295007324,0.006201777,-0.003722382,-0.013087737,-0.000995746,0.002490209,-0.000800447
1.77E+18,8.304995605,0.006518588,-0.013463147,-0.03002572,0.000302122,0.000791822,-0.001719992
1.77E+18,8.314984375,0.002656067,-0.015050123,-0.032374329,-0.000721863,0.001402485,-0.001776185
1.77E+18,8.324972168,0.033648587,-0.017828356,-0.032286651,0.00082307,0.000357461,0.001127559
1.77E+18,8.334961426,0.040109308,-0.015806495,-0.02550006,0.001380203,-0.000728843,0.001470042
1.77E+18,8.344950439,0.023205519,-0.009214257,-0.031614159,-0.000116346,0.00064881,0.001151994
1.77E+18,8.354938477,0.030877953,-0.008319062,-0.028637481,0.00072255,0.001439502,-0.000624867
1.77E+18,8.36492749,0.016838907,-0.011308891,-0.02749854,0.000465489,-0.000748728,5.76E-06
1.77E+18,8.374915283,0.015644144,-0.015090602,-0.022423136,6.26E-05,-0.000219558,0.00362606
1.77E+18,8.384904297,0.019234277,-0.013132599,-0.022045535,-0.000537738,-0.000871056,-0.000158581
1.77E+18,8.394893311,0.019222587,-0.011597353,-0.033809331,0.000293701,-0.001261741,0.0011224
1.77E+18,8.404881348,0.01414543,-0.00888181,-0.025083588,-0.000432565,0.001821839,-0.001717774
1.77E+18,8.414870361,0.000694412,-0.012513152,-0.025654373,-0.001099421,0.000804778,-0.0023564
1.77E+18,8.424858398,0.00324585,-0.013942747,-0.028967736,0.000483494,0.000488931,-0.00133079
1.77E+18,8.434847412,0.019990649,-0.019940087,-0.029249475,-0.001967413,-0.00214387,-0.003016837
1.77E+18,8.444836182,0.032353871,-0.016077421,-0.028706162,-0.00184008,-0.000399144,-0.002803731
1.77E+18,8.454824463,0.030371173,-0.018021248,-0.040057577,-0.000852313,0.000856004,-0.003614131
1.77E+18,8.464813477,0.018120763,-0.00946224,-0.030939328,-0.0026278,0.007098758,-0.010948877
1.77E+18,8.474801514,0.007713351,-0.00800532,-0.01159253,4.68E-05,0.003305085,-0.001342589
1.77E+18,8.484790283,0.044809448,-0.024198914,-0.037021571,-0.000715043,-0.002934079,0.001616439
1.77E+18,8.494779297,0.064181673,-0.009595365,-0.033646834,0.001082325,-0.003491212,0.001806056
1.77E+18,8.504767334,0.109596101,-0.006581278,-0.04585808,-0.001044714,-0.002284091,-0.00210665
1.77E+18,8.514756348,0.034880759,0.000350421,-0.025941374,-0.002144067,0.003008409,-0.004962357
1.77E+18,8.524744385,-0.0390484,-0.003705138,-0.015733283,-0.000953029,0.00109475,-0.003170992
1.77E+18,8.534733398,0.009072949,-0.007819588,-0.040371758,0.0008731,-0.002651518,-0.001606385
1.77E+18,8.544722412,0.048058221,-0.011159107,-0.037340427,9.16E-05,-0.001315588,-0.003238678
1.77E+18,8.554710449,0.020321488,-0.021272797,-0.036295302,-0.00072789,0.00108099,-0.003744413
1.77E+18,8.564699219,0.014739888,0.005764555,-0.030115445,-0.0009715,2.72E-05,-0.003755613
1.77E+18,8.5746875,-0.004485621,-0.009247867,-0.019535306,-0.00116884,-0.001010372,-0.002592877
1.77E+18,8.584676514,0.006973931,-0.015039602,-0.032068917,-0.001580443,-0.001892229,-0.000605101
1.77E+18,8.594665527,0.036842415,-0.011163637,-0.03863339,-0.000299463,-0.002199824,-0.002237086
1.77E+18,8.60465332,0.054136079,0.002103694,-0.040969724,-0.00044832,-0.001293381,-0.003056044
1.77E+18,8.614642334,0.047671267,-0.012342472,-0.03393851,-0.002524787,-0.000175919,-0.005391104
1.77E+18,8.624631592,0.022664252,-0.008764613,-0.024212942,-0.001819447,2.61E-05,-0.002259515
1.77E+18,8.634619385,0.03609598,-0.011924247,-0.03272475,-0.003331589,-0.003072205,-0.000957229
1.77E+18,8.644608398,0.036742461,-0.016412498,-0.041665013,-0.000673214,-0.003601572,-0.000320286
1.77E+18,8.654596191,0.037546764,-0.011923224,-0.036286827,-6.55E-05,-0.003279063,0.00119159
1.77E+18,8.664585449,0.01985504,-0.006574556,-0.029388007,0.000361804,-0.001388153,0.000425939
1.77E+18,8.674574219,0.016934184,-0.011102993,-0.02001286,-0.000365506,-0.001470978,-0.000779674
1.77E+18,8.684562256,0.013604162,-0.014182693,-0.026095103,-0.001654399,-0.001376524,-0.000412623
1.77E+18,8.694551514,0.021760581,-0.019034809,-0.046047758,0.000787719,-0.003131547,0.000131727
1.77E+18,8.704539551,0.043082186,-0.02057634,-0.036147418,0.000637433,-0.003552316,0.000785898
1.77E+18,8.714528076,0.038549219,-0.022202918,-0.02243775,0.003117102,-0.001025775,0.00138937
1.77E+18,8.724517334,0.04153028,-0.010086948,-0.027038521,0.001803189,-0.000911471,0.001465737
1.77E+18,8.734505371,0.023160511,-0.013248189,-0.023710838,0.000960831,0.000552735,0.000846552
1.77E+18,8.744494385,0.027796354,-0.003171908,-0.034320787,-0.000195076,-0.001380758,-0.001370695
1.77E+18,8.754482422,0.024334231,-0.020254414,-0.031035774,0.000806273,-0.000358371,-0.001729423
1.77E+18,8.764471436,0.027963527,-0.012279782,-0.029142508,-0.000503231,-0.003857146,-0.002078986
1.77E+18,8.774460449,0.034839843,-0.000366203,-0.029245091,-0.000353827,-0.004395904,-0.000963122
1.77E+18,8.784448486,0.035793198,-0.012610914,-0.021841537,-0.000289544,-0.000773383,-0.002316251
1.77E+18,8.794437256,-0.025851065,-0.009310119,-0.012694354,0.000176509,0.00308314,-0.005007109
1.77E+18,8.804425293,0.004272855,0.002574381,-0.018800854,-1.88E-05,0.003733573,-0.002036962
1.77E+18,8.814414551,0.058792381,-0.006698767,-0.03321984,-0.000492019,0.001285595,-0.001156521
1.77E+18,8.82440332,0.04190905,-0.01712313,-0.029520986,-0.000428808,-0.001081784,0.000390297
1.77E+18,8.834391113,0.005527239,-0.017976825,-0.026573242,0.000496374,-0.002084198,0.001885395
1.77E+18,8.844380371,0.031684594,-0.015802988,-0.040317982,-0.001149203,-0.001859625,-0.001389727
1.77E+18,8.854368408,0.037039983,-0.013880787,-0.017318799,-0.001960401,-0.000340025,-0.002529559
1.77E+18,8.864357422,0.000996025,-0.009724106,-0.007850714,-0.002251028,0.001518231,-0.002457087
1.77E+18,8.874346436,0.007728548,-0.012671558,-0.020035365,-0.001960211,0.002206391,-0.002614746
1.77E+18,8.884334229,0.033897009,-0.023220863,-0.04168284,2.19E-06,-0.000479075,-0.001226453
1.77E+18,8.894323486,0.042663084,-0.016759558,-0.036795653,-0.000764001,-0.000254837,-0.004076035
1.77E+18,8.904311523,0.015099369,-0.010376871,-0.030194355,-0.000225411,0.000667229,-0.002509231
1.77E+18,8.914300293,0.030627778,-0.022389234,-0.031002457,-0.000225411,-0.002209784,-0.001077249
1.77E+18,8.924289551,0.022325229,-0.027831425,-0.024612755,-0.003050029,-0.002683898,-0.000128986
1.77E+18,8.934277588,0.023304888,-0.005212328,-0.031036067,-0.002472123,-0.001660445,-0.001341257
1.77E+18,8.944266113,0.036408699,-0.011455752,-0.023527591,8.35E-05,-0.001054852,-0.001922537
1.77E+18,8.95425415,0.021253216,-0.020039602,-0.041654491,-0.002734127,0.000794447,-0.002301238
1.77E+18,8.964243408,0.012892799,-0.003952975,-0.0166428,-0.000457831,0.002213567,-0.001125763
1.77E+18,8.974232422,0.02160919,-0.01040712,-0.023640988,-0.000510029,0.002303582,0.001005032
1.77E+18,8.984220459,-0.0006231,-0.021528087,-0.015451836,-0.000630676,0.001775566,0.001425171
1.77E+18,8.994209473,0.024713585,-0.010793197,-0.025188217,-7.38E-05,-0.000376002,0.000392664
1.77E+18,9.004197266,0.040406829,-0.015142624,-0.039468379,-0.001125878,-0.001900531,-0.000454636
1.77E+18,9.014186523,0.028653263,-0.012343203,-0.035199031,-0.000882997,-0.001775362,-0.001118296
1.77E+18,9.024175293,0.05524784,-0.009425415,-0.038742403,0.000285323,-1.51E-05,-0.001128971
1.77E+18,9.03416333,0.027125323,-0.011679478,-0.027418461,-0.000721619,0.001812138,-0.001841899
1.77E+18,9.044152588,0.012053426,-0.006976269,-0.030023675,-0.001258581,0.003485223,-0.001777383
1.77E+18,9.054140625,0.010776246,-0.006969547,-0.021940614,-0.000751515,0.002207704,-0.001698819
1.77E+18,9.064129395,0.035506198,-0.007835224,-0.030472587,-0.000726226,0.00045425,0.000702106
1.77E+18,9.074118652,0.02964695,-0.009373685,-0.036780163,-0.001334492,-0.001003298,-0.000479538
1.77E+18,9.084106445,0.035024552,-0.009681436,-0.038542497,0.000308392,0.000350607,-0.00107012
1.77E+18,9.094095459,0.026209377,-0.005193915,-0.024132571,0.000202931,0.000919192,-0.000570777
1.77E+18,9.104083496,0.024030864,-0.007682225,-0.027926995,0.000504417,0.003116884,0.000142362
1.77E+18,9.11407251,0.029649873,-0.014424101,-0.023021687,-0.001316652,0.00252726,-0.000592137
1.77E+18,9.124061523,0.021612112,-0.01773644,-0.012346564,-0.001475471,0.000218444,-0.001180623
1.77E+18,9.134049805,0.037956513,-0.023178777,-0.029245968,-0.000797431,0.000822715,0.000223395
1.77E+18,9.14403833,0.034518356,0.001292378,-0.023512101,-0.001954113,-0.001043448,-0.000751628
1.77E+18,9.154027344,0.023134207,-0.003947276,-0.033805239,5.47E-05,-0.000236777,3.43E-05
1.77E+18,9.164015625,0.031214638,-0.018706746,-0.040660219,0.000313033,-1.42E-05,0.000314004
1.77E+18,9.174004395,0.023460371,-0.0224585,-0.037733811,-0.000282183,0.001848423,0.000623197
1.77E+18,9.183992432,0.017676526,-0.01405366,-0.026250878,-0.001395199,0.000286688,0.003162758
1.77E+18,9.193981689,0.017400048,-0.018084084,-0.03200725,-0.000264954,-0.00054848,0.000475895
1.77E+18,9.203970459,0.026342063,-0.009838526,-0.035709904,0.001298111,-0.001865895,0.001062895
1.77E+18,9.213958252,0.030994858,-0.01810615,-0.019670915,-0.000716038,0.00133336,0.001143589
1.77E+18,9.22394751,0.030766894,-0.002186112,-0.018209318,-0.001923911,0.003182005,-0.001462245
1.77E+18,9.233935547,-0.001472995,-0.012007249,-0.025322657,-0.000895398,0.004524505,-0.002021509
1.77E+18,9.243924561,0.011727847,-0.018904461,-0.036972471,0.000194958,-0.002093565,0.001207048
1.77E+18,9.253913574,0.033678398,-0.02209785,-0.044853287,0.000669,-0.00334605,0.00302652
1.77E+18,9.263901367,0.079443539,-0.022983108,-0.041178106,0.000750252,-0.001251409,0.002823635
1.77E+18,9.273890381,0.050307461,0.001199001,-0.027518998,-0.000517413,0.000810144,0.001017479
1.77E+18,9.283878662,0.03231237,-0.014447335,-0.014772037,-0.000373364,0.004129333,0.000612436
1.77E+18,9.293867432,-0.015064298,-0.027809213,-0.030161622,3.38E-05,0.000254168,0.002181837
1.77E+18,9.303856689,0.018751462,-0.025942397,-0.037383097,1.20E-05,-0.004732999,0.006583537
1.77E+18,9.313844482,0.050738838,-0.023317601,-0.040440147,-2.13E-05,-0.003590769,0.004947557
1.77E+18,9.323833496,0.039765024,-0.01604045,-0.041523851,0.000700578,-0.002963781,0.00222726
1.77E+18,9.333821289,0.009543489,-0.007567513,-0.02783727,0.001636413,0.000685282,0.001466661
1.77E+18,9.343810547,-0.01118658,-0.001411036,-0.00859481,-0.00096393,0.003009798,0.000130453
1.77E+18,9.353799561,0.008199673,-0.015602497,-0.011302315,-0.000964995,0.002023629,-0.000374749
1.77E+18,9.363787598,0.014093992,-0.002892068,-0.029069735,-0.00205522,0.001339127,0.000285118
1.77E+18,9.373776367,0.031187165,-0.005159867,-0.030243747,-0.000403527,0.001506107,0.000519742
1.77E+18,9.383764404,0.043037762,-0.00455401,-0.029314942,0.000652617,-0.000251187,0.002823695
1.77E+18,9.393753418,0.034486791,-0.008951076,-0.036071723,-0.000358319,-0.002246161,0.002415698
1.77E+18,9.403742432,0.039413142,-0.018174978,-0.038249943,0.000538313,-0.001361244,0.001886822
1.77E+18,9.413730469,0.03027122,-0.013266601,-0.034192485,-8.94E-05,-0.001096259,0.003176857
1.77E+18,9.423719727,0.022359716,-0.032840924,-0.013757307,-0.000701174,-0.002600877,0.001682589
1.77E+18,9.43370752,0.011704466,-0.022427667,-0.017927871,-0.000134719,-0.001430152,0.001310812
1.77E+18,9.443696533,0.020626608,-0.022170185,-0.030405075,0.000734243,-0.004365014,0.00126463
1.77E+18,9.453685547,0.02128478,-0.010806495,-0.039385669,-0.000869512,-0.002752736,-0.000523949
1.77E+18,9.463673584,0.035147886,-0.010942834,-0.039025312,0.001437568,-0.00093945,0.002493478
1.77E+18,9.473662598,0.030635961,-0.025119244,-0.03421382,-0.000798422,-0.000350092,0.001654316
1.77E+18,9.483650391,0.003395488,-0.015517887,-0.027191666,-0.000489935,0.000520725,0.000445221
1.77E+18,9.493639404,-0.012574819,-0.01100114,-0.022256548,0.001274143,0.001951642,0.000369054
1.77E+18,9.503628418,0.039098669,-0.030526217,-0.028566462,-0.000407076,0.001062002,0.00127886
1.77E+18,9.513616455,0.05065116,-0.023212972,-0.036475627,3.87E-05,-0.000855474,0.001817084
1.77E+18,9.523605469,0.036577042,-0.029108313,-0.03847703,0.00114771,0.000406108,0.000391247
1.77E+18,9.533593506,0.037602878,-0.006143325,-0.040010523,0.001157297,-0.001049576,-0.001855928
1.77E+18,9.54358252,0.037711014,-0.009966244,-0.02305705,0.002108041,-0.001143056,-0.000781433
1.77E+18,9.553571533,0.018847324,-0.007443302,-0.025569326,-0.000313305,0.00162317,-0.0011098
1.77E+18,9.56355957,-0.017447394,-0.006634908,-0.012228782,-0.000628356,0.00381547,-0.002446017
1.77E+18,9.573548584,-0.004224924,-0.005570786,-0.009277531,0.000574061,0.001256705,0.000233655
1.77E+18,9.583537598,0.045881461,-0.009696049,-0.043357203,-0.000387363,-0.004069496,0.003145568
1.77E+18,9.593525635,0.052216509,-0.023070056,-0.056655076,-0.000667261,-0.005885506,0.003654232
1.77E+18,9.603514404,0.040918286,-0.018651655,-0.04129501,0.001073464,-0.001754639,-5.63E-05
1.77E+18,9.613502441,0.018715806,-0.008792524,-0.027800738,0.000776255,-0.001522677,-0.001104263
1.77E+18,9.623491455,-0.006261398,-0.016546207,-0.000212181,-0.000553555,0.001611562,-0.001456067
1.77E+18,9.633480469,-0.000353051,-0.020285394,-0.01927724,-0.00158766,0.001957507,0.002071557
1.77E+18,9.643468506,0.016348493,-0.017280659,-0.034901218,-0.001177861,0.001702888,0.001243176
1.77E+18,9.65345752,0.03451251,-0.015872692,-0.050913026,-0.000584775,0.001614471,0.001533727
1.77E+18,9.663445557,0.052812722,-0.015453151,-0.048387307,-0.000433429,0.000347188,0.000279725
1.77E+18,9.67343457,0.045948097,-0.01828969,-0.038446927,8.91E-05,-6.64E-05,0.000317009
1.77E+18,9.68342334,0.027383097,-0.008515753,-0.041378305,9.01E-05,0.00079422,-0.002373043
1.77E+18,9.693411621,-0.004632336,-0.010827245,-0.023065526,-0.001527253,0.001983322,-0.005005312
1.77E+18,9.703400635,0.015729484,-0.020968992,-0.023247605,-0.000109227,0.003290111,-0.004951506
1.77E+18,9.713388428,0.028341128,-0.027853053,-0.036135435,-0.002226972,0.001330823,-0.002159182
1.77E+18,9.723377441,0.008172785,-0.015174188,-0.039643444,-0.001686502,0.001916485,-0.001901231
1.77E+18,9.733366455,0.017184944,-0.013510493,-0.028156419,-0.000730161,0.002057899,-0.001901497
1.77E+18,9.743354492,0.047620998,-0.01818696,-0.042571898,-0.000457668,0.003074125,-0.000793973
1.77E+18,9.753343506,0.032431613,-0.023349019,-0.031968671,-0.000564727,0.002050672,-0.000424061
1.77E+18,9.763331543,0.007348025,-0.020366788,-0.025435762,-0.001234689,0.003404264,-0.002307598
1.77E+18,9.773320313,0.015353052,-0.020089433,-0.033359249,-0.000106308,0.002737941,-0.000501442
1.77E+18,9.78330957,0.031405192,-0.016572949,-0.032740825,-0.000728112,0.002854592,-0.001662685
1.77E+18,9.793297607,0.041965165,-0.012387042,-0.037928164,-8.23E-05,0.003492419,-0.001588915
1.77E+18,9.803286377,0.029945056,-0.021963702,-0.035729485,-0.000423038,0.005736664,-0.000573119
1.77E+18,9.813274658,0.036378304,-0.009218787,-0.027673897,0.001569273,0.006362506,-0.001522003
1.77E+18,9.823263672,0.005390461,-0.02479878,-0.0266428,0.000269306,0.003873872,-0.001955911
1.77E+18,9.833252197,-0.012771219,-0.013401479,-0.018767829,-0.000477977,0.002391823,-0.001213155
1.77E+18,9.843240479,0.007590601,-0.011543431,-0.025066637,0.000257065,-0.000521942,-0.002337974
1.77E+18,9.853229492,0.037931964,-0.013069617,-0.048764323,0.00064775,-0.000581597,0.002295394
1.77E+18,9.863217529,0.04764964,-0.031559944,-0.038580783,0.001537945,-0.001736433,0.002986297
1.77E+18,9.873206543,0.044677346,-0.010530016,-0.028592765,0.001211442,-0.000641075,0.00158361
1.77E+18,9.883195557,0.00910159,-0.01893661,-0.028552141,0.001454464,0.001128416,0.001428709
1.77E+18,9.89318335,0.021416882,-0.02193243,-0.024806232,0.000822495,0.000292983,0.003264159
1.77E+18,9.903172607,0.014722937,-0.017081483,-0.031670857,4.89E-05,-0.000759939,0.00275045
1.77E+18,9.913160645,0.002319967,-0.016814503,-0.031773733,0.001421767,-0.003313644,0.003808524
1.77E+18,9.923149414,0.023965982,-0.018116379,-0.030710488,0.001821896,-0.005566858,0.00763741
1.77E+18,9.933138672,0.030323827,-0.015385493,-0.036760289,0.000944917,-0.00899834,0.010057424
1.77E+18,9.943126465,0.029744565,-0.013134353,-0.04404957,0.000882023,-0.008870508,0.008980504
1.77E+18,9.953115234,0.037607554,-0.027302141,-0.033007074,0.002918808,-0.004861118,0.008413783
1.77E+18,9.963103516,0.074911156,-0.020262744,-0.041973932,0.002013018,-0.00022127,0.004783817
1.77E+18,9.973092529,0.074221421,-0.017740678,-0.050164545,0.002006893,0.000521219,0.000427152
1.77E+18,9.983081299,0.014031448,-0.015665479,-0.010671324,0.000125252,0.00608039,-0.002144739
1.77E+18,9.99306958,0.001019406,-0.004070757,-0.011996435,-0.002621798,0.006628202,-0.002992424
1.77E+18,10.00305835,-0.019482115,-0.003132161,-0.021143618,-0.001030214,0.005104073,-0.001005371
1.77E+18,10.01304639,-0.01628478,-0.011610212,-0.02445698,-0.000918894,0.001514931,-0.003025112
1.77E+18,10.02303564,0.036241526,-0.015841712,-0.0386179,-0.000713771,0.000840176,-0.00538961
1.77E+18,10.03302441,0.033245852,-0.023938802,-0.042090252,-0.000873028,0.003389887,-0.005814385
1.77E+18,10.04301245,0.043787119,-0.013685996,-0.022103403,-0.002064661,0.011101868,-0.012497789
1.77E+18,10.05300195,0.067716276,-0.015088994,-0.042371992,-0.002476919,0.013169813,-0.021719785
1.77E+18,10.06299072,0.015007015,-0.016154724,-0.040766602,-0.002051283,0.00939416,-0.027668342
1.77E+18,10.07297852,0.005554127,0.007652853,-0.02939093,-0.003300306,0.014278132,-0.027340241
1.77E+18,10.08296777,0.001907879,-0.007281389,-0.015448329,-0.004027914,0.019220516,-0.031590492
1.77E+18,10.09295581,-0.020786767,-0.004986118,0.002453238,-0.005873485,0.016840715,-0.032539111
1.77E+18,10.10294482,-0.027087913,-0.019947686,-0.006317513,-0.006055652,0.017475257,-0.024015019
1.77E+18,10.11293384,-0.003396072,-0.037625966,-0.037163902,-0.003940569,-0.000109329,-0.013778359
1.77E+18,10.12292188,-0.061093643,-0.025971623,-0.042335751,-0.003485741,-0.003253991,-0.013821835
1.77E+18,10.13291089,0.066084876,-0.044769993,-0.04786299,-0.002769616,-0.005720078,-0.013246592
1.77E+18,10.14289893,0.121733698,-0.014323417,-0.075397479,0.000241114,-0.005203867,-0.018018456
1.77E+18,10.1528877,0.075164254,-0.026633886,-0.055983169,0.001133806,-0.003115948,-0.016581148
1.77E+18,10.16287695,0.04331541,-0.039578708,-0.033247021,0.002570353,-0.003913299,-0.014309138
1.77E+18,10.17286499,0.009143091,-0.009648118,-0.020271511,0.002180466,0.00411693,-0.019103361
1.77E+18,10.18285376,-0.038380292,-0.023133038,-0.01322773,0.001455135,0.01003341,-0.02460775
1.77E+18,10.19284155,-0.064665657,-0.006240502,0.001879822,0.001331831,0.01861145,-0.032454487
1.77E+18,10.20283081,-0.097924952,0.005782237,0.006335048,-0.003151373,0.020128654,-0.038665313
1.77E+18,10.21281958,-0.048475569,-0.009037731,-0.009151859,-0.001957211,0.02055902,-0.04262783
1.77E+18,10.22280786,0.007725041,-0.018294804,-0.029186932,-0.001904888,0.014697311,-0.041790884
1.77E+18,10.23279688,0.023954876,-0.016686054,-0.048413318,-0.002302498,0.021316066,-0.044909712
1.77E+18,10.24278467,-0.028708793,-0.014796441,-0.012243103,-0.003881399,0.025797546,-0.048645813
1.77E+18,10.25277393,-0.070734163,-0.011877485,-0.012594401,-0.004320821,0.02969721,-0.048245009
1.77E+18,10.2627627,-0.065979662,0.00093129,-0.005464695,-0.008724938,0.029044561,-0.047365081
1.77E+18,10.27275073,0.063319503,0.007579349,-0.020828561,-0.007431973,0.018342115,-0.039336715
1.77E+18,10.28273999,0.162685886,-0.004147767,-0.092561379,-0.002295932,0.002499854,-0.028431345
1.77E+18,10.29272803,0.192077985,-0.007770634,-0.124183429,0.002209338,-0.007333069,-0.021909796
1.77E+18,10.30271655,0.134741648,-0.014704817,-0.088653558,0.000682294,-0.010020819,-0.015040425
1.77E+18,10.31270581,0.085741178,-0.01766469,-0.04120324,0.001551816,-0.003378362,-0.013594861
1.77E+18,10.32269385,0.092885789,-0.004821867,-0.039211774,-0.000112275,0.003682746,-0.017266301
1.77E+18,10.33268262,0.099243634,-0.028306495,-0.049879299,0.000298651,0.009401351,-0.023064535
1.77E+18,10.3426709,0.081173139,-0.021982991,-0.043608548,9.48E-05,0.00397809,-0.008237286
1.77E+18,10.35265991,0.130939918,-0.003679419,-0.058853756,0.0002463,-0.001115738,-0.006750709
1.77E+18,10.36264868,0.034157121,-0.026708559,-0.037113925,0.001157457,-0.00215366,-0.004814382
1.77E+18,10.37263696,-0.028194998,-0.007160832,-0.029577392,0.000577953,-0.000878272,-0.006067399
1.77E+18,10.38262573,-0.080287004,-0.017512276,-0.003577566,-0.000750472,0.003207015,-0.007647149
1.77E+18,10.39261377,-0.119082891,-0.023728228,0.015742928,-0.002242374,-0.001698261,-0.005355233
1.77E+18,10.40260303,-0.049238955,-0.01967603,-0.01608312,-0.000542988,-0.007656998,-0.00430083
1.77E+18,10.4125918,-0.005697335,-0.025435032,-0.037252457,0.000231992,-0.011052262,-0.003439564
1.77E+18,10.42257959,0.038227732,-0.023736265,-0.049436231,-0.00080301,-0.012591653,0.001036483
1.77E+18,10.43256885,0.04814473,-0.020807518,-0.031882746,0.000288886,-0.009151381,0.005767056
1.77E+18,10.44255688,0.092585929,-0.019511195,-0.035373511,0.000338903,-0.005832728,0.003391106
1.77E+18,10.45254565,0.057646718,-0.010640636,-0.049878714,-0.000793473,-0.001265407,0.000584667
1.77E+18,10.46253491,0.023101474,-0.014114158,-0.04249065,-0.001537713,0.000578832,0.000641492
1.77E+18,10.47252271,0.039717093,-0.02257029,-0.036371875,-6.42E-05,-0.000329306,-0.000636559
1.77E+18,10.48251172,0.036875148,-0.029985242,-0.048757601,0.000761774,-0.000718394,-0.001196788
1.77E+18,10.4925,0.020059622,-0.021449469,-0.043034255,0.000288264,-0.001060877,-0.001966974
1.77E+18,10.50248877,0.002026537,-0.00418693,-0.031455169,-0.001464237,-0.00137522,-0.004717307
1.77E+18,10.51247778,0.000798457,-0.013714637,-0.032233167,-0.001035468,0.001931627,-0.004689876
1.77E+18,10.52246606,-0.004433014,-0.01544716,-0.015444237,-0.001066854,0.00187437,-0.001373111
1.77E+18,10.53245459,-0.000704933,0.003670651,-0.014021511,-0.001507873,-0.000399969,-0.002989915
1.77E+18,10.5424436,-0.001911387,-0.021388825,-0.02502572,9.53E-05,-0.000742895,-0.000488221
1.77E+18,10.55243188,0.057755439,-0.033782004,-0.026999651,0.000173635,-0.003828966,0.003555257
1.77E+18,10.5624209,0.062304188,-0.02972513,-0.044925476,-0.000305407,-0.005645954,0.004379831
1.77E+18,10.57240869,0.027435704,-0.031280251,-0.03534107,0.000923908,-0.007162091,0.000954207
1.77E+18,10.58239795,0.005588029,-0.019203444,-0.041006549,-0.001203613,-0.00555354,0.003690102
1.77E+18,10.59238574,0.037973465,-0.012108663,-0.035922085,0.00064036,-0.005707204,0.004438717
1.77E+18,10.60237476,0.031914895,-0.026175913,-0.035462651,-0.000222441,-0.004167542,0.004961716
1.77E+18,10.61236377,0.013840894,-0.030121582,-0.036454584,-0.000559863,-0.006995819,0.003577671
1.77E+18,10.62235181,0.026982699,-0.026404607,-0.035528117,-0.001208166,-0.009623206,0.004131132
1.77E+18,10.63234082,0.03543664,-0.021133535,-0.037727089,0.000635274,-0.009033849,0.001603792
1.77E+18,10.64232983,0.027568975,-0.013559593,-0.031858197,-2.83E-05,-0.01039934,0.001272773
1.77E+18,10.65231763,0.0309253,-0.00309782,-0.03344605,0.000480671,-0.009693069,0.002992377
1.77E+18,10.66230664,0.017565467,-0.031426235,-0.025998657,-8.01E-05,-0.008279645,0.003581062
1.77E+18,10.67229492,0.010341946,-0.032241789,-0.031275136,-0.000788798,-0.007854871,0.004490265
1.77E+18,10.68228369,0.024832828,-0.020447306,-0.021813188,-0.001066575,-0.00919275,0.003656181
1.77E+18,10.69227295,0.010597382,-0.032292789,-0.03082447,-3.97E-06,-0.006849701,0.001548822
1.77E+18,10.70226074,0.024787235,-0.024411826,-0.046835693,0.000140484,-0.00586513,0.000700438
1.77E+18,10.71224976,0.016539047,-0.016273236,-0.026858196,-0.000345542,-0.005945824,-0.001401063
1.77E+18,10.72223779,0.019982465,-0.015280133,-0.033967152,-0.002305083,-0.003607037,-0.002847623
1.77E+18,10.73222681,0.006882161,-0.021972908,-0.035879999,-0.001665658,-0.000737214,-0.00123428
1.77E+18,10.74221582,0.003077508,-0.02895926,-0.024627369,-0.001940431,-0.002440749,-0.000717741
1.77E+18,10.75220386,0.039968438,-0.0242844,-0.031571196,-0.001058392,-0.003149149,-0.000278319
1.77E+18,10.76219263,0.046415714,-0.012080606,-0.047096098,0.000258698,-0.004773944,0.001877876
1.77E+18,10.77218066,0.041942953,-0.013186229,-0.038064065,-0.000176996,-0.004720414,-0.000941346
1.77E+18,10.78216968,0.030171851,-0.022482612,-0.03788374,0.000821053,-0.002614919,-0.00212369
1.77E+18,10.79215894,0.027381343,-0.029997956,-0.028954292,-1.65E-05,-0.001666834,-0.002860587
1.77E+18,10.80214673,0.033325931,-0.034025604,-0.041436464,-0.000935346,-0.000875166,-0.001640881
1.77E+18,10.81213599,0.02277648,-0.03388225,-0.030543022,-0.00011882,-0.003504771,-0.000655512
1.77E+18,10.82212378,0.017258009,-0.029941257,-0.045619595,5.36E-05,-0.005983552,0.001192978
1.77E+18,10.83211279,0.041034606,-0.022498248,-0.051632572,0.001664517,-0.007253614,0.002577822
1.77E+18,10.84210181,0.00407061,-0.018761253,-0.036192719,0.002461052,-0.004267766,0.000235883
1.77E+18,10.85208984,-0.007088497,-0.01302987,-0.01633651,-0.00113528,-0.001781439,-0.00168106
1.77E+18,10.86207886,-0.008195581,-0.016670564,-0.019029695,0.000255008,-0.00257506,8.12E-05
1.77E+18,10.87206665,-0.000852817,-0.020797581,-0.048488137,0.001839589,-0.009749882,0.0015888
1.77E+18,10.88205566,0.032978725,-0.025326603,-0.041647185,0.002332828,-0.012601153,0.004448847
1.77E+18,10.89204468,0.074919924,-0.025349253,-0.04913491,0.00037434,-0.009868749,0.004500779
1.77E+18,10.90203271,0.055301616,-0.0217882,-0.035163083,0.001146666,-0.00741731,0.003219799
1.77E+18,10.91202197,0.081958152,-0.003438158,-0.037171793,-0.000791583,-0.005477729,0.002070112
1.77E+18,10.92200977,0.031696284,-0.016415128,-0.042446811,-0.000441625,-0.005827403,0.001302323
1.77E+18,10.93199854,0.001298808,-0.022446225,-0.045722764,-0.000124976,-0.008835976,0.002077835
1.77E+18,10.94198779,0.02247136,-0.013484335,-0.053189738,0.000652298,-0.011495851,0.003102974
1.77E+18,10.95197583,0.02130933,-0.037445495,-0.047549979,0.001597721,-0.009370916,0.000579096
1.77E+18,10.96196484,-0.023800562,-0.026796675,-0.026112931,0.001572509,-0.005503117,-0.000898736
1.77E+18,10.97195288,-0.034559272,-0.00775529,-0.009330723,5.53E-05,-0.004788858,-0.001329103
1.77E+18,10.98194189,-0.012107786,-0.014512071,-0.016563305,-0.00179218,-0.002955272,-0.002344332
1.77E+18,10.99193066,0.024276363,-0.024351766,-0.027374329,-0.00351418,-0.005041858,-0.001678009
1.77E+18,11.0019187,0.022643209,-0.025929245,-0.023386136,-0.002765061,-0.004594539,-0.001298893
1.77E+18,11.01190771,0.028350481,-0.021986937,-0.038549803,-0.004519551,-0.004058977,-0.006407636
1.77E+18,11.02189575,0.007355623,-0.017686463,-0.038043899,-0.004231279,-0.007294449,-0.002873326
1.77E+18,11.03188501,0.035798459,-0.01257745,-0.05733546,-0.002022453,-0.010180516,-0.004412367
1.77E+18,11.04187378,0.032357378,-0.016867256,-0.053305181,-0.003815186,-0.007457256,-0.003875495
1.77E+18,11.05186206,0.026738954,-0.023419308,-0.028331776,-0.00130782,-0.00639066,-0.002132989
1.77E+18,11.06185107,0.037914428,-0.039240123,-0.030010815,-0.000628344,-0.007563074,0.003703774
1.77E+18,11.0718396,0.042220016,-0.026218145,-0.044896834,0.000754369,-0.007999566,0.002522396
1.77E+18,11.08182788,0.023785365,-0.022553631,-0.037592356,0.000488148,-0.00810325,0.001894964
1.77E+18,11.09181689,0.035242578,-0.023172201,-0.053570262,-0.000376314,-0.007232929,0.00025712
1.77E+18,11.10180493,0.016574703,-0.010853841,-0.038874797,0.000553494,-0.00324893,0.002829912
1.77E+18,11.11179395,0.028946108,-0.025448476,-0.0335197,-0.000810311,-0.004194352,0.00557643
1.77E+18,11.12178296,0.017357962,-0.029911446,-0.028173955,0.000401664,-0.004840611,0.002323833
1.77E+18,11.13177075,0.017840777,-0.025726416,-0.031087212,0.000226694,-0.005865396,0.00408365
1.77E+18,11.14176001,0.039833998,-0.023313217,-0.039199207,-0.000335857,-0.007424765,0.004485299
1.77E+18,11.1517478,0.047310033,-0.019794688,-0.048193245,2.29E-05,-0.005961092,0.002569688
1.77E+18,11.16173682,0.020267127,-0.017460253,-0.04019757,0.000984872,-0.004405984,0.000198166
1.77E+18,11.17172607,0.06825579,-0.021568127,-0.027208325,0.000593121,-0.000728159,0.000654099
1.77E+18,11.18171387,0.029000469,-0.025157384,-0.028759646,-1.04E-05,0.007584278,-0.004448175
1.77E+18,11.19170264,-0.024272856,-0.026636663,-0.02274287,0.000400261,0.004339482,-0.000795916
1.77E+18,11.20169092,0.029240123,-0.024947394,-0.031230712,0.000359052,0.000124763,0.004639763
1.77E+18,11.21167993,0.059000471,-0.012079145,-0.044295069,0.000998743,-0.001937855,0.002107895
1.77E+18,11.2216687,0.036679918,-0.012081921,-0.049680853,0.001602778,-0.001924452,0.001669796
1.77E+18,11.23165698,0.0405892,-0.027737463,-0.037389235,0.001958842,0.001805572,0.000919583
1.77E+18,11.24164575,0.040709027,-0.018119156,-0.038023733,-0.000738969,0.005916783,-0.000328352
1.77E+18,11.25163379,0.037596448,-0.013429244,-0.028576983,-2.47E-05,0.005823306,0.001482064
1.77E+18,11.26162305,0.019337153,-0.027436288,-0.036518005,0.00191244,0.002763155,0.00120176
1.77E+18,11.27161182,0.007310031,-0.018099428,-0.03445552,0.002073828,0.002280856,0.001254491
1.77E+18,11.28159985,0.030422026,-0.007840338,-0.033728667,0.000504961,0.00014225,0.003228832
1.77E+18,11.29158911,0.022527474,-0.009613047,-0.037706923,0.000547306,0.000460498,0.001270609
1.77E+18,11.3015769,5.85E-07,-0.013433482,-0.036767304,0.000625868,0.002545843,0.000381269
1.77E+18,11.31156567,0.004879004,-0.035890667,-0.029741935,0.000869014,0.002878205,0.001577827
1.77E+18,11.32155493,0.027847792,-0.023532413,-0.0402984,0.000524771,0.00251921,0.000407703
1.77E+18,11.33154297,0.023591303,-0.021902181,-0.039734044,0.001479514,0.001949826,0.000511034
1.77E+18,11.34153174,0.037121232,-0.021825609,-0.038362172,0.001010116,0.001551596,0.000616869
1.77E+18,11.35151978,0.038777767,-0.011741437,-0.03979805,0.001680433,0.000329472,-0.002393036
1.77E+18,11.36150879,0.029654549,-0.017753683,-0.035835576,0.001726572,0.000766671,-0.001238973
1.77E+18,11.3714978,0.005141455,-0.014639935,-0.028508302,-0.000750434,0.002426086,4.39E-05
1.77E+18,11.38148608,0.013711714,-0.029577538,-0.021778993,0.000758527,-0.000811783,0.000898379
1.77E+18,11.39147485,0.016451953,-0.033350043,-0.042205695,0.000779566,3.64E-05,0.003847564
1.77E+18,11.40146289,0.032321138,-0.019507687,-0.038690381,-0.000237418,-0.002171059,0.002012478
1.77E+18,11.4114519,0.021717326,-0.024013182,-0.039661856,0.001789781,-0.000681021,0.004166975
1.77E+18,11.42144067,0.027713352,-0.02033537,-0.033886195,0.000411849,0.000758329,0.001443239
1.77E+18,11.43142871,0.021158523,-0.030669279,-0.039098669,0.00145927,-0.000355938,0.001596637
1.77E+18,11.44141797,0.008756138,-0.026285219,-0.033852001,-0.000292258,-9.99E-05,0.000245905
1.77E+18,11.45140601,0.014920506,-0.02319719,-0.032432197,0.000265941,0.000937115,0.000976144
1.77E+18,11.46139478,0.02409107,-0.021558482,-0.034390345,0.000221222,0.000793838,-0.000851752
1.77E+18,11.47138379,0.010491583,-0.011263883,-0.036074061,0.00032695,-0.000425357,-0.000740964
1.77E+18,11.48137183,0.009610124,-0.007705752,-0.02384674,-0.000759522,0.003273862,-0.001784603
1.77E+18,11.49136084,0.031532618,-0.018686288,-0.038602995,-0.00048282,0.003027787,-0.00139232
1.77E+18,11.50134985,0.03597966,-0.028596857,-0.026376843,3.66E-05,0.003670227,2.09E-05
1.77E+18,11.51133789,0.039250645,-0.021277035,-0.024760347,-0.000262477,0.004293407,0.001291775
1.77E+18,11.52132715,0.045514966,-0.02626856,-0.03662848,-0.000339422,0.005101145,0.001275792
1.77E+18,11.53131494,0.032787002,-0.02248568,-0.042947454,-0.000639027,0.004501934,0.001500296
1.77E+18,11.54130371,0.020934067,-0.029326194,-0.030419104,-0.000157897,0.003643687,9.97E-05
1.77E+18,11.55129297,0.003036007,-0.021256577,-0.025156945,-0.000492123,0.003409861,-0.00468817
1.77E+18,11.56128101,-0.015751111,-0.014287469,-0.018560031,0.000281223,0.004586622,-0.006492014
1.77E+18,11.57126978,-0.015372926,-0.002584025,-0.037322015,-0.003123095,0.00613312,-0.004401167
1.77E+18,11.58125757,0.023127193,-0.01700228,-0.025180034,-0.001392708,0.000622595,-0.002485532
1.77E+18,11.59124683,0.025791444,-0.034859132,-0.043784489,-0.001361016,-0.001360128,0.000630899
1.77E+18,11.60123584,0.034448798,-0.033695057,-0.047762453,0.000961016,-0.001315743,0.001074025
1.77E+18,11.61122412,0.039683191,-0.030189533,-0.041009179,-4.97E-05,0.000644344,-0.001197385
1.77E+18,11.62121289,0.021290625,-0.012352555,-0.047852469,-0.001132407,0.000663518,-0.004853034
1.77E+18,11.63120093,-0.009218495,-0.009959961,-0.037053719,-0.001649593,0.002849706,-0.004153688
1.77E+18,11.64118994,0.026747137,-0.017237258,-0.03811375,0.0005355,-0.00340428,-0.003212423
1.77E+18,11.65117871,0.064601944,-0.022259763,-0.052355041,0.001475063,-0.008349238,0.000529851
1.77E+18,11.66116675,0.108027244,-0.010073796,-0.056459262,-0.000346504,0.000876129,-0.00451999
1.77E+18,11.67115601,0.054854457,0.002502338,-0.026946167,-0.002100462,-0.001192348,-0.002540995
1.77E+18,11.68114404,-0.010143793,-0.031698768,-0.022759821,-0.000455468,-0.00392857,0.003275297
1.77E+18,11.69113281,-4.79E-05,-0.027033845,-0.049713879,-0.001356948,-0.003020698,-5.39E-05
1.77E+18,11.70112183,0.006481179,-0.0146224,-0.037343058,-0.0003483,-0.001778154,-0.003246845
1.77E+18,11.71110986,0.017882863,-0.026777386,-0.033812545,-0.000470007,-0.003896699,-0.002931527
1.77E+18,11.72109888,0.019816461,-0.038019057,-0.058691551,-0.001381082,-0.001608866,-0.006866136
1.77E+18,11.73108716,-0.021689854,-0.022572628,-0.024628245,-0.001107841,0.00260532,-0.005706595
1.77E+18,11.74107593,-0.012071546,-0.021825901,-0.014930735,-0.002764658,0.001251902,0.00023545
1.77E+18,11.75106494,0.04216624,-0.019922113,-0.029387423,-0.002049865,0.003066047,-0.000643393
1.77E+18,11.76105298,0.039044893,-0.023060119,-0.04675766,-0.002100977,-0.000748754,-0.001375618
1.77E+18,11.77104175,0.0484253,-0.013887217,-0.056333297,-0.002031202,-0.000994031,-0.001221155
1.77E+18,11.78102979,0.034477439,-0.005425094,-0.037862113,-0.002717256,0.00102038,-0.005954882
1.77E+18,11.79101904,0.008664368,-0.015723639,-0.025709903,-0.002241082,-0.001475002,-0.003688531
1.77E+18,11.80100806,0.047088499,-0.025501959,-0.044277825,-0.00230087,0.000363116,-0.003032371
1.77E+18,11.81099561,0.033295536,-0.025920331,-0.036503684,-0.001388204,0.000577234,-0.000988928
1.77E+18,11.82098486,0.004882511,-0.035395577,-0.031841245,-0.002359691,0.001734289,-0.002018861
1.77E+18,11.8309729,0.00800795,-0.028009266,-0.026567689,-0.001743968,-0.001824759,-0.001246279
1.77E+18,11.84096191,0.023946693,-0.020078473,-0.04350158,-0.000732162,-0.002648389,-0.00249231
1.77E+18,11.85095093,0.043880058,-0.024769992,-0.046771396,-0.001207536,-0.003822843,-0.001808411
1.77E+18,11.86093896,0.035416181,-0.026396716,-0.042485389,0.00069653,-0.003521638,-0.001701254
1.77E+18,11.87092773,0.036411038,-0.016003625,-0.036492871,-0.000258479,-0.000600151,0.00077229
1.77E+18,11.88091602,0.021934184,-0.01648381,-0.03757862,0.000725072,0.002314947,0.000725814
1.77E+18,11.89090479,0.02725041,-0.022497371,-0.036582595,-5.28E-05,0.002316279,0.000510631
1.77E+18,11.9008938,0.020250176,-0.020916385,-0.041975686,-0.000399483,0.00044816,-0.000202442
1.77E+18,11.91088208,0.035603228,-0.010548136,-0.053075172,0.000628763,-0.003002498,-0.000783011
1.77E+18,11.92087085,0.020060791,-0.024974575,-0.039779345,0.001018112,-0.004832539,-0.002715001
1.77E+18,11.93085962,0.027716859,-0.021196079,-0.046243573,0.001348877,-0.003875665,-0.00024412
1.77E+18,11.9408479,0.04200725,-0.018415508,-0.039786067,0.001880407,-0.001904476,0.001065922
1.77E+18,11.95083691,0.010461773,-0.024720892,-0.032150165,-0.000810451,0.004467935,-0.002843598
1.77E+18,11.96082495,-0.049577978,-0.021239187,-0.012619243,-0.002951845,0.003929887,-0.001418328
1.77E+18,11.97081396,0.013310732,-0.014529022,-0.039212651,-0.002869021,-0.001599368,-0.001026577
1.77E+18,11.98080298,0.014900632,-0.024289515,-0.050802259,-0.000608199,-0.002573995,-0.002774789
1.77E+18,11.99079077,0.04099895,-0.035878246,-0.053384092,-0.000155462,-0.003409429,-0.000447719
1.77E+18,12.00077979,0.044957917,-0.028220425,-0.049366088,0.000774255,-0.00445463,0.001390784
1.77E+18,12.01076782,0.039700727,-0.034809009,-0.039707741,0.000580377,0.000773421,-0.001613262
1.77E+18,12.02075684,0.019423078,-0.031199294,-0.032509354,-0.002040894,0.005042468,-0.000756482
1.77E+18,12.03074609,0.023585458,-0.021750206,-0.027390403,-0.000273355,0.004849389,0.000140737
1.77E+18,12.04073389,0.017446809,-0.015127865,-0.029287177,-0.002537615,0.004532828,0.000983015
1.77E+18,12.05072266,0.040281157,-0.013587796,-0.038465632,0.000614502,0.000404928,0.002283703
1.77E+18,12.06071045,0.042990416,-0.02218962,-0.069871701,-0.000851334,-0.002009494,0.000740577
1.77E+18,12.07069946,0.01899287,-0.024189123,-0.036042497,0.000136965,-0.000701349,-0.001637093
1.77E+18,12.08068823,-2.40E-05,-0.028734073,-0.037622751,-0.001444628,0.001925326,-0.001979381
1.77E+18,12.09067627,0.01007365,-0.027229368,-0.031779578,-0.002660095,0.002526934,-0.000979364
1.77E+18,12.10066528,0.013889409,-0.019260142,-0.03130027,-0.002479184,0.002684949,0.000127712
1.77E+18,12.11065332,0.019215573,-0.021818156,-0.043219256,-0.001412056,0.003418916,-0.001849952
1.77E+18,12.12064258,0.021373043,-0.02748948,-0.039046939,-0.000741532,0.002749486,-0.001515227
1.77E+18,12.13063135,0.029331893,-0.027840631,-0.050581894,-0.000867766,0.000488196,-0.000887786
1.77E+18,12.14061938,0.008458032,-0.018353987,-0.030190556,-0.000603255,0.004356081,-0.00230075
1.77E+18,12.15060864,0.032322891,-0.021635785,-0.036248248,-0.000242131,0.003640756,-0.003911164
1.77E+18,12.16059644,0.042149873,-0.016159546,-0.050727148,-0.000558487,0.007077389,-0.00889728
1.77E+18,12.17058521,0.028385552,-0.005621201,-0.030111937,0.00063381,0.010814603,-0.009223517
1.77E+18,12.18057446,0.042638534,-0.021974954,-0.036451954,5.97E-05,0.008925001,-0.007114482
1.77E+18,12.1905625,0.02037351,-0.019595658,-0.039573301,-0.000562406,0.008993179,-0.009806672
1.77E+18,12.20055127,0.004601356,-0.019761808,-0.037028,-0.000580228,0.006355493,-0.008955078
1.77E+18,12.21053931,-0.00494564,-0.033560617,-0.030260406,-0.000404193,0.003497922,-0.009097291
1.77E+18,12.22052832,-0.000583353,-0.036322482,-0.043503918,3.30E-05,0.00347644,-0.00579169
1.77E+18,12.23051733,0.038939679,-0.040901773,-0.045246086,-0.000276967,0.00352997,-0.00587265
1.77E+18,12.24050562,0.042159226,-0.020793051,-0.038184477,0.00016316,0.004495454,-0.005235197
1.77E+18,12.25049438,0.030534254,-0.015863924,-0.039696927,-0.000802768,0.002534568,-3.88E-05
1.77E+18,12.26048218,0.02269114,-0.014839549,-0.047501464,0.000554081,0.002658317,0.002108811
1.77E+18,12.27047144,0.023362171,-0.020709026,-0.040695291,-9.23E-05,0.001299306,0.000431819
1.77E+18,12.28046021,-0.00248188,-0.012240765,-0.038482875,-0.000662066,0.000728321,0.001753951
1.77E+18,12.29044824,0.020264205,-0.020504297,-0.03676555,-0.001128919,-0.003392122,0.002197367
1.77E+18,12.3004375,0.031890345,-0.025806203,-0.040449207,0.000337188,-0.003154656,0.004153169
1.77E+18,12.31042554,0.016771102,-0.025087826,-0.026850013,-0.000573081,-0.002765834,0.004099107
1.77E+18,12.32041406,0.023970658,-0.013435528,-0.025803719,0.000375172,-0.00178712,0.006443448
1.77E+18,12.33040332,0.033442835,-0.01869944,-0.048826867,-0.000648015,5.74E-05,0.004868189
1.77E+18,12.34039136,0.02915186,-0.018256226,-0.050215399,-0.001197851,-0.002152772,0.005039764
1.77E+18,12.35038037,0.010003508,-0.015880437,-0.02938713,-0.001675356,-0.002777816,0.003673829
1.77E+18,12.36036938,-0.000335516,-0.02252119,-0.034895957,-0.000557983,-0.003886845,0.006626187
1.77E+18,12.37035742,0.014796003,-0.03098799,-0.031996728,-0.000779025,-0.003500154,0.008191327
1.77E+18,12.38034668,0.042536827,-0.015719547,-0.040733285,-0.000205652,-0.000989948,0.01120038
1.77E+18,12.39033447,0.051798576,-0.033662908,-0.031189796,-0.000589148,0.002727026,0.006574469
1.77E+18,12.40032324,0.028896424,-0.044549482,-0.037341596,-0.001996511,0.001109599,0.005351321
1.77E+18,12.4103125,-0.018294366,-0.045445992,-0.048318333,-0.000843895,0.001319989,0.001285207
1.77E+18,12.42030054,0.022694647,-0.022499124,-0.049746612,-0.002337822,-0.000915025,0.002717966
1.77E+18,12.43028931,0.080834701,-0.037835371,-0.034981589,-0.000223272,0.00358332,0.003917453
1.77E+18,12.4402771,0.108419458,-0.037111295,-0.044426002,6.22E-05,0.008280422,0.000399152
1.77E+18,12.45026636,0.03835165,-0.017515929,-0.036470951,-0.000673358,0.012054654,0.000122982
1.77E+18,12.46025537,0.012896891,-0.035056408,-0.032647593,-0.001312601,0.008468536,-0.001515751
1.77E+18,12.47024341,-0.027126492,-0.034491029,-0.028017888,-0.001072118,0.006046125,0.001927983
1.77E+18,12.48023242,0.002038812,-0.013320962,-0.029338615,-0.001968631,0.002697553,-0.000555858
1.77E+18,12.49022021,0.027408816,-0.018823651,-0.053980597,0.001039942,0.003296498,-0.001679446
1.77E+18,12.50020923,0.012069793,-0.021496962,-0.037653439,0.000632213,0.002702968,-0.001064665
1.77E+18,12.51019824,0.036240942,-0.01468772,-0.03579729,-0.000108412,0.004700872,-0.001609281
1.77E+18,12.52018628,0.036527942,-0.026889322,-0.042048751,-0.000404766,0.004830125,-0.000257742
1.77E+18,12.53017554,0.025336686,-0.031774756,-0.035895782,-0.001300654,0.007954812,-0.00081887
1.77E+18,12.54016357,0.036778117,-0.017958704,-0.035241994,-0.001099141,0.007756318,-0.004051636
1.77E+18,12.55015234,0.023078093,-0.025911125,-0.027079438,-0.001561466,0.009598959,-0.002705674
1.77E+18,12.56014136,-0.014387422,-0.002434826,-0.030797874,-0.000707831,0.010183522,-0.002639861
1.77E+18,12.57012939,0.019364041,-0.005688275,-0.035055531,0.000254902,0.009005606,-0.00674832
1.77E+18,12.58011841,0.0298188,-0.025864071,-0.03645137,-0.001521467,0.006195971,-0.00493444
1.77E+18,12.59010645,0.010286416,-0.028037469,-0.042425768,-0.001888184,0.003340796,-0.004194348
