time,seconds_elapsed,z,y,x
1769666736275412000,0.054411865234375,0.036594606935977936,-0.05067122355103493,-0.1655634343624115
1769666736285400800,0.06440087890625,0.02344072237610817,-0.06899190694093704,-0.17935487627983093
1769666736295390000,0.074389892578125,0.01015690341591835,-0.0729237049818039,-0.19423876702785492
1769666736305377800,0.084377685546875,-0.0007255709497258067,-0.07506249099969864,-0.20157045125961304
1769666736315366700,0.09436669921875,-0.010138945654034615,-0.07277048379182816,-0.19278092682361603
1769666736325354800,0.104354736328125,-0.01575848087668419,-0.09846972674131393,-0.19366535544395447
1769666736335343900,0.11434375,-0.01882326230406761,-0.11151087284088135,-0.2160872220993042
1769666736345332700,0.124332763671875,-0.022801492363214493,-0.11943776905536652,-0.2548553943634033
1769666736355320600,0.134320556640625,-0.031176388263702393,-0.12408356368541718,-0.3021183907985687
1769666736365309700,0.144309814453125,-0.033410247415304184,-0.11986298859119415,-0.32750922441482544
1769666736375297800,0.1542978515625,-0.03532246872782707,-0.12072291970252991,-0.3201077878475189
1769666736385287000,0.164286865234375,-0.036836206912994385,-0.13812507688999176,-0.30152320861816406
1769666736395275800,0.17427587890625,-0.03384988382458687,-0.15466606616973877,-0.28433898091316223
1769666736405264000,0.184263916015625,-0.027882272377610207,-0.17253561317920685,-0.27566108107566833
1769666736415252700,0.194252685546875,-0.018565263599157333,-0.17511630058288574,-0.27067825198173523
1769666736425240800,0.20424072265625,-0.013515645638108253,-0.1728678047657013,-0.2688521444797516
1769666736435229700,0.214229736328125,0.0006940913153812289,-0.1675776094198227,-0.25684359669685364
1769666736445218800,0.22421875,0.020566599443554878,-0.15243592858314514,-0.22584468126296997
1769666736455207000,0.23420703125,0.03175704553723335,-0.1494971364736557,-0.20233657956123352
1769666736465195800,0.24419580078125,0.039481278508901596,-0.15033896267414093,-0.18728625774383545
1769666736475183600,0.25418359375,0.0494239442050457,-0.15432658791542053,-0.18325459957122803
1769666736485172700,0.2641728515625,0.06024117395281792,-0.14008080959320068,-0.19401296973228455
1769666736495161900,0.274161865234375,0.07002025097608566,-0.14616551995277405,-0.21031272411346436
1769666736505150000,0.28414990234375,0.07075422257184982,-0.16659516096115112,-0.2372298240661621
1769666736515138800,0.294138916015625,0.07069943845272064,-0.17964766919612885,-0.28805312514305115
1769666736525126700,0.304126708984375,0.07977283000946045,-0.16807755827903748,-0.3227700889110565
1769666736535115800,0.31411572265625,0.09088504314422607,-0.1469433307647705,-0.3255584239959717
1769666736545104600,0.324104736328125,0.09696370363235474,-0.14374062418937683,-0.2900252044200897
1769666736555092700,0.3340927734375,0.0931561291217804,-0.14699731767177582,-0.24906380474567413
1769666736565081900,0.344081787109375,0.08431071043014526,-0.15700466930866241,-0.2333706021308899
1769666736575070000,0.354070068359375,0.0775056853890419,-0.16839075088500977,-0.2464073896408081
1769666736585058800,0.364058837890625,0.06625888496637344,-0.18476971983909607,-0.28438860177993774
1769666736595047700,0.374047607421875,0.05833296477794647,-0.1682250052690506,-0.3283347189426422
1769666736605035800,0.384035888671875,0.05344526469707489,-0.1600823998451233,-0.34747856855392456
1769666736615025000,0.39402490234375,0.045917853713035583,-0.17184647917747498,-0.3511667251586914
1769666736625013000,0.404012939453125,0.03567107766866684,-0.18388502299785614,-0.3620031177997589
1769666736635001900,0.414001953125,0.023083724081516266,-0.1882009357213974,-0.3987436890602112
1769666736644990700,0.42399072265625,0.006797960493713617,-0.20275165140628815,-0.4539635181427002
1769666736654978800,0.433978759765625,-0.00295391702093184,-0.21621829271316528,-0.5191301703453064
1769666736664967700,0.4439677734375,-0.006988073233515024,-0.21354341506958008,-0.5735832452774048
1769666736674955800,0.453955810546875,-0.025515582412481308,-0.2363666146993637,-0.6219454407691956
1769666736684945000,0.46394482421875,-0.0494571328163147,-0.2531106770038605,-0.6790518760681152
1769666736694934000,0.47393408203125,-0.06584002822637558,-0.2674369215965271,-0.7633252143859863
1769666736704921600,0.483921630859375,-0.0667945072054863,-0.293483704328537,-0.8683967590332031
1769666736714910700,0.49391064453125,-0.056170061230659485,-0.34147244691848755,-1.0002877712249756
1769666736724898800,0.50389892578125,-0.041853174567222595,-0.3974507451057434,-1.1434077024459839
1769666736734888000,0.513887939453125,-0.03550317510962486,-0.450343519449234,-1.2849493026733398
1769666736744876800,0.523876708984375,-0.03281870856881142,-0.4697057604789734,-1.416738510131836
1769666736754864600,0.53386474609375,-0.028113700449466705,-0.4664468467235565,-1.514540433883667
1769666736764853800,0.543853759765625,-0.02670701965689659,-0.45654866099357605,-1.5915776491165161
1769666736774841900,0.553841796875,-0.03218243643641472,-0.43538373708724976,-1.6745151281356812
1769666736784830700,0.563830810546875,-0.01353658176958561,-0.39365333318710327,-1.7151679992675781
1769666736794819800,0.57381982421875,-0.0022993346210569143,-0.40289902687072754,-1.752078652381897
1769666736804808000,0.583807861328125,0.008574085310101509,-0.441265344619751,-1.7987068891525269
1769666736814796800,0.593796875,0.010349590331315994,-0.4752601385116577,-1.843966007232666
1769666736824784600,0.60378466796875,-0.017700687050819397,-0.6384836435317993,-1.914069652557373
1769666736834773800,0.613773681640625,-0.0595560148358345,-0.7519477605819702,-2.0091967582702637
1769666736844763000,0.623762939453125,-0.09882832318544388,-0.9030792117118835,-2.1478092670440674
1769666736854751000,0.6337509765625,-0.19479580223560333,-0.9722299575805664,-2.3165647983551025
1769666736864739800,0.64373974609375,-0.3190482556819916,-0.9149839878082275,-2.5609660148620605
1769666736874727700,0.653727783203125,-0.3949618935585022,-0.7363061308860779,-2.5833399295806885
1769666736884716800,0.663716796875,-0.4934770166873932,-0.6858583688735962,-2.6329429149627686
1769666736894705700,0.67370556640625,-0.5648869872093201,-0.7283688187599182,-2.63879656791687
1769666736904693800,0.68369384765625,-0.5890301465988159,-0.7419635057449341,-2.5647995471954346
1769666736914683000,0.693682861328125,-0.5716833472251892,-0.8694714903831482,-2.3375024795532227
1769666736924670700,0.703670654296875,-0.4646266996860504,-1.0687634944915771,-2.025540590286255
1769666736934659800,0.713659912109375,-0.3562878668308258,-1.086918830871582,-1.7324267625808716
1769666736944648700,0.723648681640625,-0.22242890298366547,-0.28083544969558716,-1.4434598684310913
1769666736954636800,0.73363671875,-0.04599204659461975,0.5924474000930786,-1.1714692115783691
1769666736964626000,0.7436259765625,0.06278370320796967,0.7068415880203247,-0.8411144018173218
1769666736974614000,0.753614013671875,0.09873270988464355,0.382330983877182,-0.4193482995033264
1769666736984602600,0.7636025390625,0.08972137421369553,-0.033789001405239105,-0.09487836062908173
1769666736994591700,0.773591796875,0.036959145218133926,-0.20053599774837494,0.012211047112941742
1769666737004579800,0.783579833984375,-0.041458696126937866,-0.13024266064167023,-0.04094298556447029
1769666737014568700,0.793568603515625,-0.11109119653701782,-0.004453838802874088,-0.11301823705434799
1769666737024556800,0.803556884765625,-0.18239253759384155,0.06719424575567245,-0.18022418022155762
1769666737034546000,0.8135458984375,-0.22369036078453064,0.12111127376556396,-0.2308470904827118
1769666737044534800,0.82353466796875,-0.24615253508090973,0.14315877854824066,-0.2726810872554779
1769666737054523000,0.83352294921875,-0.2434990406036377,0.1597658097743988,-0.2888450026512146
1769666737064511700,0.84351171875,-0.2422225922346115,0.13762429356575012,-0.28964102268218994
1769666737074499800,0.853499755859375,-0.20380902290344238,0.1334957778453827,-0.2395637333393097
1769666737084489000,0.863489013671875,-0.16417266428470612,0.010525382123887539,-0.2060883343219757
1769666737094477800,0.873477783203125,-0.1005195677280426,-0.05033086612820625,-0.16591966152191162
1769666737104465700,0.883465576171875,-0.07108284533023834,-0.02372775226831436,-0.1506650745868683
1769666737114454800,0.893454833984375,-0.03470863774418831,-0.0885230004787445,-0.11376367509365082
1769666737124443000,0.90344287109375,0.0010735917603597045,-0.14320595562458038,-0.09919299185276031
1769666737134431700,0.913431640625,0.031199535354971886,-0.07055944204330444,-0.0710444450378418
1769666737144420900,0.9234208984375,0.03726755082607269,-0.21147581934928894,-0.06566539406776428
1769666737154408700,0.93340869140625,-0.00274662091396749,-0.2137201577425003,-0.037299588322639465
1769666737164397800,0.943397705078125,-0.02840804122388363,-0.06925830990076065,-0.03396477922797203
1769666737174385700,0.9533857421875,-0.07226887345314026,-0.23514743149280548,-0.043075162917375565
1769666737184374800,0.963374755859375,-0.06346339732408524,-0.1503497213125229,-0.08369209617376328
1769666737194364000,0.973364013671875,-0.05427440255880356,-0.00034857774153351784,-0.1434146612882614
1769666737204352000,0.98335205078125,-0.052031222730875015,-0.00027613970451056957,-0.15291708707809448
1769666737214340600,0.993340576171875,-0.059562571346759796,-0.08550944924354553,-0.10671651363372803
1769666737224328700,1.00332861328125,-0.034883856773376465,-0.042682889848947525,-0.06757204234600067
1769666737234317800,1.01331787109375,-0.009927756153047085,-0.07138004899024963,-0.02424144744873047
1769666737244306700,1.023306640625,-0.01305563934147358,-0.1376805156469345,0.011920550838112831
1769666737254294800,1.033294677734375,-0.011602974496781826,-0.11209703236818314,0.007016397081315517
1769666737264283600,1.04328369140625,-0.052668385207653046,-0.046626944094896317,-0.03366445377469063
1769666737274271700,1.053271728515625,-0.08582918345928192,-0.04300593212246895,-0.009484872221946716
1769666737284260900,1.0632607421875,-0.07663381844758987,-0.0670420229434967,-0.009220420382916927
1769666737294249700,1.073249755859375,-0.048280663788318634,-0.06178361922502518,-0.03289082646369934
1769666737304237800,1.08323779296875,-0.04176976531744003,-0.04682464152574539,-0.042905911803245544
1769666737314227000,1.09322705078125,-0.049487773329019547,-0.05398206040263176,-0.047010354697704315
1769666737324214800,1.10321484375,-0.04498516768217087,-0.045285243541002274,-0.05830961465835571
1769666737334203600,1.11320361328125,-0.03293966129422188,-0.08276781439781189,-0.03112194687128067
1769666737344192800,1.12319287109375,-0.027565136551856995,-0.09520050883293152,-0.0017004080582410097
1769666737354180900,1.133180908203125,-0.028762929141521454,-0.08568575978279114,0.003621047828346491
1769666737364169700,1.143169677734375,-0.02854747883975506,-0.11089550703763962,0.0064264219254255295
1769666737374157600,1.153157470703125,-0.02941763587296009,-0.0828397274017334,-0.005052356515079737
1769666737384146700,1.163146728515625,-0.031616874039173126,-0.012467024847865105,-0.057437002658843994
1769666737394135800,1.1731357421875,-0.039280664175748825,0.01576417312026024,-0.10157604515552521
1769666737404124000,1.1831240234375,-0.04243278130888939,-0.06155005842447281,-0.14501991868019104
1769666737414112800,1.19311279296875,-0.034419700503349304,0.0017454688204452395,-0.15157824754714966
1769666737424100600,1.2031005859375,-0.048202890902757645,-0.031305424869060516,-0.1369258016347885
1769666737434089700,1.21308984375,-0.06294533610343933,-0.07808926701545715,-0.09116196632385254
1769666737444078600,1.22307861328125,-0.06120789051055908,-0.062138527631759644,-0.060977429151535034
1769666737454066700,1.233066650390625,-0.053930170834064484,-0.0032551505137234926,-0.054192740470170975
1769666737464055800,1.243055908203125,-0.05499942973256111,-0.05295106768608093,-0.022228945046663284
1769666737474044000,1.2530439453125,-0.045621711760759354,-0.08648931980133057,0.010330823250114918
1769666737484032800,1.26303271484375,-0.0007639596587978303,-0.057166311889886856,0.03137538954615593
1769666737494021600,1.273021728515625,0.02746875397861004,-0.14865665137767792,0.05921296030282974
1769666737504009700,1.283009765625,0.05657736957073212,-0.11428508162498474,0.05677004158496857
1769666737513998800,1.292998779296875,0.06813079863786697,-0.10686436295509338,0.025939177721738815
1769666737523987000,1.302987060546875,0.07883431017398834,-0.10004454106092453,0.006819812580943108
1769666737533975800,1.312975830078125,0.08255677670240402,-0.14316333830356598,0.025820380076766014
1769666737543965000,1.32296484375,0.0803452879190445,-0.1530362069606781,0.05157847702503204
1769666737553952800,1.332952880859375,0.07374028116464615,-0.1687714010477066,0.07085689157247543
1769666737563941600,1.342941650390625,0.06840118020772934,-0.16651970148086548,0.07075462490320206
1769666737573929700,1.3529296875,0.06083580479025841,-0.1595476269721985,0.058251455426216125
1769666737583918800,1.3629189453125,0.054683104157447815,-0.13527211546897888,0.04370500519871712
1769666737593907700,1.37290771484375,0.047891244292259216,-0.12462054938077927,0.03997434675693512
1769666737603895600,1.3828955078125,0.041146256029605865,-0.12371694296598434,0.04744477942585945
1769666737613884700,1.392884765625,0.034371957182884216,-0.10867505520582199,0.055423442274332047
1769666737623872800,1.402872802734375,0.035980504006147385,-0.09985146671533585,0.06092047318816185
1769666737633862000,1.41286181640625,0.03074636682868004,-0.08606241643428802,0.059543412178754807
1769666737643850800,1.422850830078125,0.02161492221057415,-0.07612642645835876,0.053160347044467926
1769666737653838600,1.432838623046875,0.014266892336308956,-0.05773232877254486,0.05428391695022583
1769666737663827700,1.44282763671875,0.006801251787692308,-0.04617474228143692,0.06908842921257019
1769666737673815800,1.45281591796875,-0.0004549197037704289,-0.0372791588306427,0.08005008101463318
1769666737683804700,1.4628046875,-0.001577175804413855,-0.039231255650520325,0.08853144943714142
1769666737693793800,1.472793701171875,-0.0017405299004167318,-0.03379423916339874,0.09066728502511978
1769666737703782000,1.482781982421875,-0.0007290613139048219,-0.039952799677848816,0.10195828974246979
1769666737713770800,1.492770751953125,0.001613639178685844,-0.03840763494372368,0.10240291804075241
1769666737723758600,1.502758544921875,0.0029630628414452076,-0.03125598281621933,0.09318864345550537
1769666737733747700,1.512747802734375,0.0037149328272789717,-0.01900206319987774,0.08607237786054611
1769666737743736800,1.52273681640625,0.00016680348198860884,-0.020595964044332504,0.0823037400841713
1769666737753725000,1.532724853515625,-0.0015459262067452073,-0.023586440831422806,0.08842326700687408
1769666737763713800,1.5427138671875,-0.005569962784647942,-0.033026013523340225,0.10129592567682266
1769666737773701600,1.55270166015625,-0.007871897891163826,-0.045361585915088654,0.11990798264741898
1769666737783690800,1.562690673828125,-0.009839707054197788,-0.05321897566318512,0.1303694099187851
1769666737793678800,1.572678955078125,-0.010285000316798687,-0.06000116094946861,0.13282690942287445
1769666737803667700,1.582667724609375,-0.015124496072530746,-0.06822580099105835,0.12752029299736023
1769666737813656800,1.59265673828125,-0.016542401164770126,-0.07981358468532562,0.13243241608142853
1769666737823644700,1.602644775390625,-0.019406365230679512,-0.08867018669843674,0.1538812518119812
1769666737833633500,1.612633544921875,-0.02403426170349121,-0.10607332736253738,0.18340620398521423
1769666737843622700,1.62262255859375,-0.018411528319120407,-0.11369448900222778,0.19167770445346832
1769666737853610800,1.63261083984375,-0.009634354151785374,-0.11839975416660309,0.17827612161636353
1769666737863599900,1.642599853515625,-0.00039904442382976413,-0.1374480277299881,0.16888421773910522
1769666737873588000,1.652587890625,0.005434896796941757,-0.15506286919116974,0.16759459674358368
1769666737883576800,1.662576904296875,0.007891928777098656,-0.1553315818309784,0.16312474012374878
1769666737893564700,1.672564697265625,0.008273221552371979,-0.15318241715431213,0.16262589395046234
1769666737903553800,1.6825537109375,0.00858055055141449,-0.14930006861686707,0.16700653731822968
1769666737913542700,1.692542724609375,0.011331497691571712,-0.1404629796743393,0.1711723357439041
1769666737923530800,1.70253076171875,0.010308044962584972,-0.14105845987796783,0.17065541446208954
1769666737933520000,1.712519775390625,0.010119733400642872,-0.14242660999298096,0.16781169176101685
1769666737943507700,1.7225078125,0.010482988320291042,-0.13050922751426697,0.15519869327545166
1769666737953496600,1.73249658203125,0.0077513959258794785,-0.1236753836274147,0.15650558471679688
1769666737963485700,1.742485595703125,0.0008692550472915173,-0.11850113421678543,0.16274218261241913
1769666737973473800,1.752473876953125,0.00512090977281332,-0.1104663833975792,0.16283659636974335
1769666737983463000,1.762462890625,0.008974770084023476,-0.10020948946475983,0.1556178331375122
1769666737993450800,1.77245068359375,0.006759266369044781,-0.10165539383888245,0.13497045636177063
1769666738003439600,1.782439697265625,0.012221409007906914,-0.10690262168645859,0.11521697789430618
1769666738013428700,1.7924287109375,0.018943505361676216,-0.11126737296581268,0.10239607840776443
1769666738023416800,1.802416748046875,0.021324636414647102,-0.10441532731056213,0.09420232474803925
1769666738033405700,1.81240576171875,0.019238561391830444,-0.08546675741672516,0.07908952981233597
1769666738043393800,1.822393798828125,0.019172780215740204,-0.05969134718179703,0.06487517058849335
1769666738053382700,1.832382568359375,0.020250285044312477,-0.05365173891186714,0.06095917895436287
1769666738063371800,1.842371826171875,0.022339534014463425,-0.051153428852558136,0.05331697314977646
1769666738073359600,1.852359619140625,0.02477843128144741,-0.054497379809617996,0.046336669474840164
1769666738083348700,1.8623486328125,0.027982480823993683,-0.05258176848292351,0.0354778990149498
1769666738093336800,1.8723369140625,0.025645645335316658,-0.024028779938817024,0.018948301672935486
1769666738103326000,1.882325927734375,0.02132493257522583,-0.0051552229560911655,0.017385557293891907
1769666738113314800,1.892314697265625,0.009925169870257378,0.03133745118975639,0.009084299206733704
1769666738123302700,1.902302734375,-0.005642604548484087,0.05925963073968887,-0.006659510545432568
1769666738133291800,1.912291748046875,-0.01530778594315052,0.071587935090065,-0.02041320689022541
1769666738143279900,1.92227978515625,-0.017682526260614395,0.08859701454639435,-0.03673918545246124
1769666738153268700,1.932268798828125,-0.02445301227271557,0.12198133021593094,-0.052545636892318726
1769666738163257900,1.9422578125,-0.0327647365629673,0.14044582843780518,-0.05791084095835686
1769666738173245700,1.95224560546875,-0.04043877124786377,0.16187778115272522,-0.06530110538005829
1769666738183234800,1.96223486328125,-0.04876114800572395,0.1690283715724945,-0.06510429829359055
1769666738193222700,1.97222265625,-0.049915485084056854,0.16401641070842743,-0.061581384390592575
1769666738203211800,1.982211669921875,-0.046013422310352325,0.14895090460777283,-0.04904428496956825
1769666738213201000,1.992200927734375,-0.04169508442282677,0.11580954492092133,-0.028223004192113876
1769666738223188700,2.002188720703125,-0.03502253443002701,0.10236324369907379,-0.017439331859350204
1769666738233177600,2.012177490234375,-0.026124268770217896,0.07596012949943542,-0.004898937419056892
1769666738243165700,2.022165771484375,-0.013066789135336876,0.0509093776345253,-0.00043547898530960083
1769666738253154800,2.03215478515625,-0.008352523669600487,0.037188149988651276,-0.005271737463772297
1769666738263143400,2.042143310546875,-0.008366638794541359,0.006441421806812286,0.0028556971810758114
1769666738273131500,2.052131591796875,-0.007725055795162916,-0.009758495725691319,0.00038906396366655827
1769666738283120600,2.06212060546875,-0.002932431176304817,-0.0033032598439604044,-0.01690124347805977
1769666738293108700,2.072108642578125,0.002251665573567152,-0.002017929684370756,-0.011741978116333485
1769666738303097600,2.08209765625,0.008739924989640713,0.003876178525388241,-0.007963751442730427
1769666738313086500,2.09208642578125,0.013366024941205978,-0.008951203897595406,0.0028256468940526247
1769666738323074600,2.102074462890625,0.015047545544803143,-0.013989106751978397,0.0008221508469432592
1769666738333063700,2.112063720703125,0.010633479803800583,-0.0026491915341466665,-0.017050940543413162
1769666738343051800,2.1220517578125,0.0056453789584338665,0.004355987533926964,-0.022762356325984
1769666738353040600,2.13204052734375,0.003198404796421528,0.010004730895161629,-0.026545602828264236
1769666738363029800,2.14202978515625,0.000630851136520505,0.020047511905431747,-0.0297405943274498
1769666738373017600,2.152017578125,-0.0003086305223405361,0.033704906702041626,-0.03252081573009491
1769666738383006500,2.16200634765625,0.0002538291737437248,0.032378118485212326,-0.030259789898991585
1769666738392994600,2.17199462890625,-0.004131383262574673,0.03429568186402321,-0.029959794133901596
1769666738402983700,2.181983642578125,-0.0050176833756268024,0.02799117937684059,-0.03134783357381821
1769666738412971800,2.1919716796875,-0.005128971766680479,0.022103026509284973,-0.033258672803640366
1769666738422960600,2.201960693359375,-0.0038711607921868563,0.02033708430826664,-0.02943277545273304
1769666738432949500,2.211949462890625,-0.0007921382784843445,0.02297929860651493,-0.02903481386601925
1769666738442937600,2.2219375,0.0018052426166832447,0.02899191714823246,-0.03235631063580513
1769666738452926700,2.2319267578125,0.005167720373719931,0.02287454344332218,-0.027348216623067856
1769666738462914800,2.241914794921875,0.006589049939066172,0.013188092969357967,-0.020684989169239998
1769666738472903700,2.251903564453125,0.006518844980746508,0.011021435260772705,-0.018096376210451126
1769666738482892500,2.261892578125,0.004702302161604166,0.0022255468647927046,-0.01925192028284073
1769666738492880600,2.271880615234375,0.0024149171076714993,0.005914561916142702,-0.030439231544733047
1769666738502869500,2.281869384765625,0.0029099988751113415,0.006549992132931948,-0.03497912362217903
1769666738512857600,2.291857666015625,-0.0004017383325845003,-0.0013392753899097443,-0.02470281720161438
1769666738522846700,2.3018466796875,-0.001988982316106558,-0.003672736929729581,-0.017170066013932228
1769666738532835800,2.3118359375,-0.0010091126896440983,-0.003074143547564745,-0.016899816691875458
1769666738542823700,2.32182373046875,0.0005991702200844884,-0.0075258840806782246,-0.014092845842242241
1769666738552812500,2.3318125,0.0016827130457386374,-0.010326282121241093,-0.013178776018321514
1769666738562800600,2.341800537109375,0.006709962151944637,-0.005238578654825687,-0.01102188229560852
1769666738572789800,2.351789794921875,0.007644984405487776,-0.004546867683529854,-0.0005773075390607119
1769666738582778600,2.361778564453125,0.007164816837757826,0.005519880913197994,-0.002430334920063615
1769666738592766500,2.371766357421875,0.005174129735678434,0.010707808658480644,-0.009884368628263474
1769666738602755600,2.381755615234375,0.00367343844845891,0.003664012998342514,-0.012352585792541504
1769666738612743700,2.39174365234375,0.0015907955821603537,0.00027522933669388294,-0.013549555093050003
1769666738622732500,2.401732666015625,0.0006160787306725979,-0.00033516716212034225,-0.008477830328047276
1769666738632721700,2.4117216796875,-0.001458269776776433,0.0001964889233931899,0.0010064066154882312
1769666738642709800,2.421709716796875,-0.0012787727173417807,0.0011144805466756225,0.001365666976198554
1769666738652698600,2.43169873046875,-0.002582859480753541,0.0019665141589939594,-0.0007358775474131107
1769666738662686500,2.4416865234375,-0.003916304092854261,0.008020944893360138,-0.009000731632113457
1769666738672675600,2.451675537109375,-0.005505266133695841,0.005213167984038591,-0.00447221752256155
1769666738682664700,2.461664794921875,-0.0036873924545943737,0.012867625802755356,-0.0023893590550869703
1769666738692652800,2.47165283203125,-0.0039532179944217205,0.020868023857474327,0.0041212099604308605
1769666738702641700,2.4816416015625,-0.0046717384830117226,0.029178418219089508,0.005816578399389982
1769666738712629500,2.49162939453125,-0.009173613041639328,0.036102116107940674,0.006489344872534275
1769666738722618600,2.50161865234375,-0.01297207921743393,0.03842119500041008,-0.00024259346537292004
1769666738732607500,2.511607421875,-0.014936799183487892,0.03699257969856262,-0.008914492093026638
1769666738742595600,2.521595703125,-0.015979960560798645,0.041398778557777405,-0.016516219824552536
1769666738752584700,2.531584716796875,-0.015428401529788971,0.04075421392917633,-0.012836359441280365
1769666738762572500,2.541572509765625,-0.01848464459180832,0.04629332199692726,-0.007027473300695419
1769666738772561700,2.551561767578125,-0.02426714263856411,0.04974566772580147,-0.0028796105179935694
1769666738782550500,2.561550537109375,-0.02372652105987072,0.05048735812306404,-0.00270091206766665
1769666738792538600,2.57153857421875,-0.020635083317756653,0.05119708925485611,-0.005720969755202532
1769666738802527700,2.58152783203125,-0.022714748978614807,0.050563789904117584,-0.010063786059617996
1769666738812515800,2.591515869140625,-0.022015513852238655,0.04970428720116615,-0.014006167650222778
1769666738822504400,2.60150439453125,-0.02275720424950123,0.053024716675281525,-0.02177247777581215
1769666738832493600,2.61149365234375,-0.02503984048962593,0.050199732184410095,-0.02163085900247097
1769666738842481700,2.621481689453125,-0.019992351531982422,0.040576133877038956,-0.011079414747655392
1769666738852470500,2.631470458984375,-0.014499909244477749,0.032530635595321655,-0.004552763421088457
1769666738862458600,2.641458740234375,-0.009537109173834324,0.023130742833018303,0.0019583990797400475
1769666738872447700,2.65144775390625,-0.0039795986376702785,0.02202056162059307,-0.006913401186466217
1769666738882436600,2.6614365234375,-0.003334847278892994,0.019768591970205307,-0.009341937489807606
1769666738892424700,2.6714248046875,-0.004835411906242371,0.01402752660214901,-0.008524701930582523
1769666738902413600,2.68141357421875,-0.004369092173874378,0.018264882266521454,-0.007826155051589012
1769666738912401700,2.691401611328125,-0.004107507411390543,0.011851279065012932,-0.0068259150721132755
1769666738922390800,2.701390869140625,-0.004998601041734219,0.011078163981437683,-0.007435778621584177
1769666738932379600,2.711379638671875,-0.005418797023594379,0.012756399810314178,-0.010418109595775604
1769666738942367500,2.721367431640625,-0.008911000564694405,0.017856884747743607,-0.015524188056588173
1769666738952356600,2.731356689453125,-0.012906163930892944,0.020155619829893112,-0.018595509231090546
1769666738962344700,2.7413447265625,-0.014440410770475864,0.019291691482067108,-0.019512968137860298
1769666738972333600,2.75133349609375,-0.01154356449842453,0.018927915021777153,-0.02562740631401539
1769666738982322700,2.76132275390625,-0.009906785562634468,0.011238837614655495,-0.02178925834596157
1769666738992310500,2.771310546875,-0.010523470118641853,0.007749919779598713,-0.01885416731238365
1769666739002299600,2.781299560546875,-0.009325580671429634,0.019769031554460526,-0.020807862281799316
1769666739012287700,2.791287841796875,-0.01273367926478386,0.022333212196826935,-0.018931543454527855
1769666739022276600,2.801276611328125,-0.014386703260242939,0.02556469291448593,-0.012988964095711708
1769666739032265700,2.811265625,-0.01369343139231205,0.026552369818091393,-0.006977800279855728
1769666739042253800,2.82125390625,-0.012761857360601425,0.024169106036424637,-0.007293119095265865
1769666739052242400,2.831242431640625,-0.012939360924065113,0.022585773840546608,-0.012980027124285698
1769666739062230500,2.84123046875,-0.011238666251301765,0.021718913689255714,-0.0175675880163908
1769666739072219600,2.8512197265625,-0.009837973862886429,0.02004440315067768,-0.02011197805404663
1769666739082208500,2.86120849609375,-0.006818214897066355,0.017727717757225037,-0.016836024820804596
1769666739092196600,2.871196533203125,-0.00901821255683899,0.020827641710639,-0.014662288129329681
1769666739102185700,2.881185791015625,-0.01034313440322876,0.02329213172197342,-0.01008537970483303
1769666739112173600,2.891173583984375,-0.010528264567255974,0.0243118517100811,-0.011333666741847992
1769666739122162700,2.90116259765625,-0.011499254032969475,0.02094827964901924,-0.012501996010541916
1769666739132150500,2.911150634765625,-0.008265325799584389,0.01645597070455551,-0.01565423607826233
1769666739142139600,2.9211396484375,-0.005617344286292791,0.011793841607868671,-0.013699475675821304
1769666739152128800,2.931128662109375,-0.004146338440477848,0.006560022477060556,-0.008086245507001877
1769666739162116600,2.94111669921875,-0.0021489679347723722,0.003986343741416931,-0.00384702580049634
1769666739172105500,2.95110546875,0.001199783873744309,0.0074685076251626015,-0.0012297367211431265
1769666739182094600,2.961094482421875,-0.00006841332651674747,0.009491444565355778,0.0003338051028549671
1769666739192082700,2.971082763671875,-0.001714635407552123,0.00985159631818533,0.0029523069970309734
1769666739202071600,2.981071533203125,-0.002916519995778799,0.0054435329511761665,-0.0013255286030471325
1769666739212059600,2.9910595703125,-0.0018352667102590203,0.006734008900821209,-0.006718614138662815
1769666739222048500,3.001048583984375,-0.003057125024497509,0.0063340021297335625,-0.008165775798261166
1769666739232036600,3.01103662109375,-0.0021702509839087725,0.00602720957249403,-0.006199768744409084
1769666739242025700,3.021025634765625,-0.002757744397968054,0.007905004546046257,-0.004106523934751749
1769666739252014600,3.0310146484375,-0.002808242104947567,0.008597249165177345,-0.004415429662913084
1769666739262002700,3.041002685546875,-0.0032473974861204624,0.007673931773751974,-0.008142523467540741
1769666739271992300,3.050992431640625,-0.0009165079100057483,0.00783762987703085,-0.007315670605748892
1769666739281981200,3.060981201171875,-0.002578320447355509,0.00768929161131382,-0.00559127377346158
1769666739291969300,3.07096923828125,-0.0023963535204529762,0.01086537353694439,-0.0020822552032768726
1769666739301958400,3.08095849609375,-0.00038406887324526906,0.008167325519025326,0.0007627997547388077
1769666739311946200,3.0909462890625,-0.000279734842479229,0.00791423860937357,-1.541338860988617e-7
1769666739321935000,3.10093505859375,-0.0006493816035799682,0.007099310867488384,-0.0028593239840120077
1769666739331923200,3.110923095703125,-0.0008884937269613147,0.005855350289493799,-0.003196149133145809
1769666739341912300,3.120912353515625,-0.000868520000949502,0.005833512172102928,-0.00572854932397604
1769666739351901200,3.130901123046875,-0.001203564926981926,0.004751552361994982,-0.002873542020097375
1769666739361889300,3.14088916015625,-0.0008749308180995286,0.0021504429168999195,-0.0026975071523338556
1769666739371878100,3.150878173828125,-0.00009035633411258459,0.002950996160507202,-0.0022891550324857235
1769666739381866200,3.1608662109375,-0.003334885463118553,0.004117727279663086,0.0009274110198020935
1769666739391855400,3.17085546875,-0.0019663148559629917,0.0051932865753769875,0.00012501445598900318
1769666739401844200,3.18084423828125,-0.0007188901072368026,0.011049045249819756,-0.006318769417703152
1769666739411832300,3.190832275390625,-0.002017693128436804,0.013402564451098442,-0.009937576949596405
1769666739421821400,3.200821533203125,-0.005102965049445629,0.016050279140472412,-0.016475103795528412
1769666739431809300,3.210809326171875,-0.0028285677544772625,0.007393592968583107,-0.00987129658460617
1769666739441798100,3.220798095703125,0.00008679472375661135,-0.0014813912566751242,0.0027685982640832663
1769666739451787300,3.230787353515625,0.002151526976376772,0.0010444349609315395,0.006075006909668446
1769666739461775400,3.240775390625,-0.0023814397864043713,0.006903922185301781,-0.0016020871698856354
1769666739471764200,3.25076416015625,-0.0022018118761479855,0.007028739899396896,-0.00015571876429021358
1769666739481752000,3.260751953125,0.0011404550168663263,0.005802620202302933,-0.004674304276704788
1769666739491741200,3.2707412109375,-0.0011488674208521843,0.0051255496218800545,-0.005233614705502987
1769666739501730300,3.280730224609375,0.0011539680417627096,0.0028176545165479183,-0.0028705920558422804
1769666739511718400,3.290718505859375,0.0017661055317148566,0.003062491538003087,-0.0028750363271683455
1769666739521707300,3.300707275390625,0.0017985961167141795,0.00620182603597641,-0.004878265783190727
1769666739531695400,3.3106953125,-0.0008663780754432082,0.009042264893651009,-0.0029904739931225777
1769666739541684200,3.320684326171875,-0.004413974937051535,0.010209527797996998,-0.0019792718812823296
1769666739551673000,3.330673095703125,-0.0033402396366000175,0.008475632406771183,-0.004286245442926884
1769666739561661200,3.3406611328125,-0.003731990698724985,0.010699371807277203,-0.008103087544441223
1769666739571650300,3.350650390625,-0.002097608521580696,0.011693796142935753,-0.00850389339029789
1769666739581638400,3.360638427734375,-0.0037831231020390987,0.00800345465540886,-0.0025677077937871218
1769666739591627300,3.370627197265625,-0.0027918796986341476,0.0057620517909526825,-0.003976078703999519
1769666739601616100,3.3806162109375,-0.0033908244222402573,0.006434233859181404,-0.004277282394468784
1769666739611604200,3.390604248046875,-0.004448380786925554,0.006721142679452896,-0.009404041804373264
1769666739621593300,3.40059326171875,-0.0025503458455204964,0.006250827573239803,-0.005953118205070496
1769666739631581200,3.410581298828125,-0.002537864726036787,0.005599954165518284,-0.002824140014126897
1769666739641570300,3.4205703125,-0.0011602113954722881,0.004496606066823006,-0.0013548738788813353
1769666739651559400,3.430559326171875,-0.0004380004247650504,0.003828418906778097,-0.0020367095712572336
1769666739661547300,3.44054736328125,-0.0004989868029952049,0.003649720922112465,0.0008560160640627146
1769666739671536000,3.4505361328125,-0.0022588216233998537,0.0032063876278698444,0.002451612614095211
1769666739681524200,3.460524169921875,-0.0007759735453873873,0.0026798807084560394,0.0033269936684519053
1769666739691513300,3.470513427734375,-0.0009906967170536518,0.0019318024860695004,-0.002457164926454425
1769666739701502200,3.480502197265625,-0.0011853738687932491,0.00003057182766497135,-0.003229215508326888
1769666739711490000,3.490489990234375,-0.00006226776167750359,0.00143902946729213,-0.00018641003407537937
1769666739721479200,3.500479248046875,0.001090880949050188,0.00029227230697870255,0.0005006855353713036
1769666739731467300,3.51046728515625,0.0002708024112507701,0.0035645843017846346,-0.0003285636194050312
1769666739741456400,3.520456298828125,-0.0015127165243029594,0.004819199442863464,-0.0029115634970366955
1769666739751445200,3.5304453125,-0.0024428516626358032,0.003130574245005846,-0.004266785457730293
1769666739761433300,3.540433349609375,-0.0021331259049475193,0.0018868779297918081,0.0003223738167434931
1769666739771422200,3.550422119140625,-0.0008625419577583671,0.0009265498956665397,0.003921991214156151
1769666739781410300,3.560410400390625,-0.000273184385150671,0.0006602337816730142,0.003851950168609619
1769666739791399200,3.570399169921875,0.0012268438003957272,0.0013330373913049698,0.0005605714395642281
1769666739801388300,3.58038818359375,0.0011461500544101,0.003526683198288083,0.0011331511195749044
1769666739811376400,3.59037646484375,-0.00009449000936001539,0.004135924391448498,-0.0015311625320464373
1769666739821365200,3.600365234375,-0.0021501840092241764,0.0036403099074959755,-0.0035642196889966726
1769666739831353000,3.61035302734375,-0.001700277323834598,0.0041936226189136505,-0.004080691374838352
1769666739841342200,3.62034228515625,-0.0008169068023562431,0.0022465859074145555,-0.003574158065021038
1769666739851331300,3.630331298828125,-0.00032237463165074587,0.004144713282585144,-0.00024522305466234684
1769666739861319400,3.6403193359375,-0.00021611445117741823,0.007039302960038185,-0.003798146266490221
1769666739871308300,3.650308349609375,-0.0011262391926720738,0.006964823231101036,-0.00524518545717001
1769666739881296100,3.660296142578125,-0.002201890107244253,0.007843932136893272,-0.0027958760038018227
1769666739891285200,3.67028515625,-0.003788419533520937,0.005309668369591236,-0.0066108545288443565
1769666739901274000,3.680274169921875,-0.0012640089262276888,0.0035847388207912445,-0.001055766362696886
1769666739911262200,3.69026220703125,0.000303532462567091,0.0024229795671999454,0.002910090144723654
1769666739921251300,3.700251220703125,-0.00046478945296257734,0.0017148449551314116,0.004709321539849043
1769666739931239400,3.710239501953125,0.0006699138320982456,0.00227978709153831,0.003122237976640463
1769666739941228000,3.72022802734375,-0.0022611613385379314,0.004044664092361927,0.00004921620711684227
1769666739951217200,3.730217041015625,-0.00042798800859600306,0.0035895328037440777,-0.003214258700609207
1769666739961205200,3.740205322265625,0.0005906710866838694,0.0008283673087134957,0.0008768895640969276
1769666739971194400,3.7501943359375,-0.0010827118530869484,0.0005528124747797847,0.0048136720433831215
1769666739981182500,3.760182373046875,0.001062730560079217,0.0016297948313876987,0.0031625123228877783
1769666739991171300,3.77017138671875,0.0007054146844893694,0.0030456192325800657,0.004190615378320217
1769666740001160200,3.78016015625,-0.0003894107067026198,0.003957219421863556,0.0031828749924898148
1769666740011148300,3.790148193359375,-0.0005007784347981215,0.002618012484163046,0.000742199132218957
1769666740021137200,3.80013720703125,-0.0014741638442501426,0.0011242455802857876,-0.0016384006012231112
1769666740031125200,3.810125244140625,-0.0006898538558743894,0.0034169608261436224,-0.0026997702661901712
1769666740041114400,3.8201142578125,-0.00008664780762046576,0.002133317291736603,0.0004994850605726242
1769666740051103200,3.830103271484375,-0.001089346595108509,0.00010532012674957514,0.0012474007671698928
1769666740061091000,3.840091064453125,-0.0001370002282783389,0.0011804383248090744,0.0031552892178297043
1769666740071080200,3.850080078125,0.0004785695346072316,0.002018712228164077,0.0029022344388067722
1769666740081068300,3.860068359375,0.0010487522231414914,0.003319932846352458,0.0034833361860364676
1769666740091057400,3.870057373046875,-0.0011206581257283688,0.0033859785180538893,-0.0013810615055263042
1769666740101046300,3.88004638671875,-0.0014229268999770284,0.005213972181081772,-0.004786178935319185
1769666740111034000,3.8900341796875,-0.0021367939189076424,0.0037372440565377474,-0.005498066544532776
1769666740121023200,3.900023193359375,-0.0009428986813873053,0.002909267321228981,-0.0025853675324469805
1769666740131011300,3.91001123046875,-0.0002693986753001809,0.0009090617531910539,0.0010312520898878574
1769666740141000200,3.920000244140625,-0.00029816082678735256,0.005945632234215736,0.0024512496311217546
1769666740150989300,3.9299892578125,-0.0013647796586155891,0.006736057344824076,-0.000544173177331686
1769666740160977400,3.939977294921875,-0.0009469297365285456,0.005369856022298336,-0.00043205427937209606
1769666740170966300,3.94996630859375,0.00034206092823296785,0.00019471324048936367,-0.0002719548065215349
1769666740180954000,3.9599541015625,0.0015202434733510017,0.0017590540228411555,-0.001183288637548685
1769666740190943200,3.969943115234375,-0.00006374716758728027,0.004848232492804527,-0.0030454262159764767
1769666740200932400,3.979932373046875,-0.0017599144484847784,0.005352102220058441,-0.003913616295903921
1769666740210920400,3.98992041015625,-0.0019582146778702736,0.0035853604786098003,-0.004858904518187046
1769666740220909300,3.999909423828125,0.000613866257481277,0.002595996018499136,-0.0025150561705231667
1769666740230897200,4.009897216796875,0.0014068305026739836,0.0012901296140626073,-0.00021666917018592358
1769666740240886300,4.01988623046875,-0.00039852631743997335,-0.0004411914851516485,0.0001108997967094183
1769666740250875100,4.029875244140625,0.00005017360672354698,0.0020992872305214405,-0.003190333256497979
1769666740260863200,4.03986328125,-0.0002931079361587763,0.0026263268664479256,-0.004087552428245544
1769666740270851300,4.049851318359375,-0.00006093515548855066,0.0033338856883347034,-0.003999114036560059
1769666740280839400,4.05983935546875,-0.0013003703206777573,0.004952555056661367,-0.006573591381311417
1769666740290828500,4.06982861328125,-0.0014295605942606926,0.003563358448445797,-0.003666303586214781
1769666740300817400,4.0798173828125,-0.0015145153738558292,0.002682917285710573,-0.000026028603315353394
1769666740310805200,4.08980517578125,-0.002104797400534153,0.0032620092388242483,-0.00026314426213502884
1769666740320794400,4.09979443359375,-0.00011168757919222116,-0.00010955263860523701,0.0012854839442297816
1769666740330782500,4.109782470703125,0.0003906919155269861,-0.0006922578904777765,0.0038265420589596033
1769666740340771300,4.119771240234375,-0.0017435653135180473,0.000007887138053774834,0.0014390181750059128
1769666740350760400,4.129760498046875,-0.0011796539183706045,0.0007642031996510923,0.0005101936403661966
1769666740360748500,4.13974853515625,-0.0012550214305520058,0.0006661988445557654,-0.0020166137255728245
1769666740370737400,4.1497373046875,-0.002505478449165821,-0.001328330603428185,-0.004007016308605671
1769666740380725500,4.1597255859375,-0.0010063848458230495,-0.002202113624662161,-0.005104239098727703
1769666740390714400,4.16971435546875,0.000763840158469975,-0.0016614125343039632,-0.0013048381078988314
1769666740400703500,4.179703369140625,-0.0005605497863143682,-0.001428119488991797,0.0016776361735537648
1769666740410691600,4.189691650390625,-0.000977199524641037,0.0026854071766138077,-0.0006188857369124889
1769666740420680400,4.199680419921875,-0.0006967686931602657,0.0056231399066746235,-0.005598198156803846
1769666740430668300,4.209668212890625,0.0016072910511866212,0.004850374534726143,-0.0034168066922575235
1769666740440657400,4.219657470703125,-0.00093123409897089,0.0035552792251110077,-0.00020769727416336536
1769666740450646500,4.229646484375,0.0005540373967960477,-0.002002563327550888,-0.0017218890134245157
1769666740460634400,4.23963427734375,0.0006986471125856042,-0.002080860547721386,-0.003982912749052048
1769666740470623500,4.24962353515625,0.0006848445627838373,-0.0006293408805504441,-0.0014033305924385786
1769666740480611300,4.259611328125,-0.0014773758593946695,0.004804839380085468,-0.004332275129854679
1769666740490600400,4.269600341796875,-0.0015193949220702052,0.006629193667322397,-0.0025340872816741467
1769666740500589300,4.27958935546875,0.0018361880211159587,0.004500795155763626,-0.0007835915312170982
1769666740510577400,4.289577392578125,0.0009928470244631171,0.0023696457501500845,-0.001982503104954958
1769666740520566500,4.29956640625,0.000399760901927948,-0.00033852260094136,-0.004167892970144749
1769666740530554600,4.3095546875,-0.0009893130045384169,0.001550455461256206,-0.00715778861194849
1769666740540543200,4.319543212890625,-0.000707284256350249,0.001306509948335588,-0.006638205610215664
1769666740550532400,4.329532470703125,-0.001668137963861227,0.0028933980502188206,-0.003950297832489014
1769666740560520400,4.3395205078125,-0.002442052587866783,0.0042611975222826,-0.0042925141751766205
1769666740570509300,4.34950927734375,-0.0017410123255103827,0.004906483925879002,-0.0037476681172847748
1769666740580497400,4.359497314453125,-0.00044858030742034316,0.0055198101326823235,-0.004231564700603485
1769666740590486500,4.369486572265625,-0.0034547580871731043,0.0035601675044745207,-0.009239761158823967
1769666740600475400,4.379475341796875,-0.002581507433205843,0.0002951320493593812,-0.00784559641033411
1769666740610463500,4.38946337890625,-0.0014508555177599192,0.00038789177779108286,-0.00596387404948473
1769666740620452400,4.399452392578125,-0.00045430060708895326,-0.0009996151784434915,0.0003829712513834238
1769666740630440400,4.4094404296875,0.00029218103736639023,0.003976420033723116,-0.0024747333955019712
1769666740640429600,4.4194296875,-0.002315053716301918,0.004235545638948679,-0.0013085349928587675
1769666740650418400,4.42941845703125,-0.003536652075126767,0.005447900854051113,-0.005251949653029442
1769666740660406300,4.43940625,-0.0015081224264577031,0.0009958944283425808,-0.000887028407305479
1769666740670395400,4.4493955078125,-0.0019319345010444522,-0.0002831285819411278,-0.0027472965884953737
1769666740680383500,4.459383544921875,-0.000625387707259506,-0.002636297605931759,-0.002947299974039197
1769666740690372400,4.469372314453125,-0.0002351670991629362,-0.0007977403001859784,-0.002712797373533249
1769666740700361500,4.479361572265625,0.0013329021167010069,0.004112063441425562,-0.003164202906191349
1769666740710349300,4.489349365234375,-0.0008702678605914116,0.005700903479009867,-0.0031080415938049555
1769666740720338400,4.49933837890625,-0.0003797136014327407,0.007882830686867237,-0.003223622916266322
1769666740730326500,4.509326416015625,-0.0006826993194408715,0.005167651455849409,-0.0033310058061033487
1769666740740315400,4.5193154296875,0.0012150692055001855,0.0025034253485500813,-0.0028838610742241144
1769666740750304500,4.529304443359375,-0.0006635578465647995,-0.001713779871352017,-0.00290578487329185
1769666740760292600,4.539292724609375,0.0015521921450272202,0.0013850742252543569,-0.004573189653456211
1769666740770281200,4.54928125,0.0003731249598786235,0.001283874036744237,-0.00566332321614027
1769666740780269300,4.559269287109375,0.00015288149006664753,0.0035883071832358837,-0.0025660668034106493
1769666740790258400,4.569258544921875,0.0002926676534116268,0.0035569705069065094,-0.0014721842017024755
1769666740800247600,4.57924755859375,-0.0008516926318407059,0.004227820783853531,-0.0036037780810147524
1769666740810235400,4.5892353515625,0.0005442008841782808,0.0023438134230673313,-0.0035944480914622545
1769666740820224500,4.599224609375,0.0013889555120840669,0.0015408705221489072,-0.0014892190229147673
1769666740830212400,4.60921240234375,0.00039910641498863697,0.0004844821523874998,-0.004574334714561701
1769666740840201500,4.619201416015625,-0.00021608383394777775,0.0031545674428343773,-0.006615381687879562
1769666740850190300,4.6291904296875,-0.0013221453409641981,0.0040617287158966064,-0.005054380279034376
1769666740860178400,4.639178466796875,-0.0028726377058774233,0.0027088429778814316,-0.00488260667771101
1769666740870167600,4.64916748046875,-0.00140678184106946,-0.00018734380137175322,-0.0043826657347381115
1769666740880155400,4.6591552734375,-0.0021194438450038433,0.00006219442002475262,-0.00678270636126399
1769666740890144300,4.669144287109375,-0.00141523324418813,0.002043408341705799,-0.006049814634025097
1769666740900133400,4.67913330078125,-0.0007137566572055221,0.0033986910711973906,-0.005773910321295261
1769666740910121500,4.68912158203125,0.00037507794331759214,0.0004538564244285226,-0.0011850304435938597
1769666740920110600,4.699110595703125,0.0016014635330066085,-0.0034564631059765816,-0.0016159301158040762
1769666740930098400,4.709098388671875,0.002380812307819724,-0.00387653149664402,0.0012230435386300087
1769666740940087300,4.71908740234375,0.00029076356440782547,-0.0007302731974050403,0.0005572533700615168
1769666740950076400,4.729076416015625,0.00027745135594159365,0.00019251054618507624,-0.0004959916695952415
1769666740960064500,4.739064453125,0.0002958271652460098,-0.00006768025923520327,-0.004657180979847908
1769666740970053400,4.749053466796875,0.0005598097341135144,-0.0015598478494212031,-0.002669965149834752
1769666740980041500,4.75904150390625,0.0010663429275155067,-0.002347877249121666,-0.00223640282638371
1769666740990030600,4.769030517578125,0.0025615005288273096,-0.0012030733050778508,-0.005733620375394821
1769666741000019200,4.779019287109375,0.0007718564011156559,0.002508574165403843,-0.007552293129265308
1769666741010007300,4.78900732421875,-0.0009390298509970307,0.004085519351065159,-0.008494796231389046
1769666741019996400,4.798996337890625,-0.0023180146235972643,0.004798181354999542,-0.006151746958494186
1769666741029984500,4.808984619140625,-0.0029155088122934103,0.0027882950380444527,-0.0043158987537026405
1769666741039973400,4.818973388671875,-0.0024475916288793087,0.0033776527270674706,-0.004677289165556431
1769666741049962500,4.82896240234375,-0.0008028295706026256,0.004119431134313345,-0.003956316038966179
1769666741059950300,4.838950439453125,-0.0019754194654524326,0.0021204627119004726,-0.0015072731766849756
1769666741069939500,4.848939453125,0.0023109684698283672,-0.00010425318032503128,-0.0008808753918856382
1769666741079927600,4.858927490234375,0.0007727267220616341,0.00012637651525437832,-0.0024332320317626
1769666741089916400,4.86891650390625,-0.0007856645388528705,0.0027304994873702526,-0.0026842732913792133
1769666741099905500,4.878905517578125,-0.001001114258542657,0.004182454664260149,-0.0037985402159392834
1769666741109893400,4.888893310546875,-0.0006639781058765948,0.003021672833710909,-0.0014165875036269426
1769666741119882200,4.89888232421875,-0.0009281637030653656,0.002700229175388813,-0.001335094915702939
1769666741129870300,4.908870361328125,-0.0011129076592624187,0.0014270636020228267,-0.0010388661175966263
1769666741139859500,4.918859375,0.0013220204273238778,0.0015197416068986058,-0.0002665494102984667
1769666741149848600,4.9288486328125,0.0009463195456191897,0.0002602447057142854,-0.0007006344385445118
1769666741159836400,4.93883642578125,0.0015987941296771169,0.0015444210730493069,-0.002906797220930457
1769666741169825300,4.9488251953125,0.00102070695720613,-0.00026599958073347807,-0.004614511504769325
1769666741179813400,4.9588134765625,0.0007671741768717766,0.0001973904436454177,-0.005178302526473999
1769666741189802500,4.968802490234375,0.0011317373719066381,-0.0009407562902197242,-0.004586691968142986
1769666741199791400,4.978791259765625,0.0012758143711835146,-0.002246770542114973,-0.0012129992246627808
1769666741209779500,4.988779541015625,0.0012994811404496431,0.0012171148555353284,-0.0020232556853443384
1769666741219768600,4.9987685546875,-0.0011974986409768462,0.003057359252125025,-0.00314684328623116
1769666741229756400,5.00875634765625,0.0011109623592346907,0.005483147222548723,-0.003548175562173128
1769666741239745300,5.018745361328125,0.0008635546546429396,0.0016673702048137784,-0.00219156127423048
1769666741249734400,5.028734375,0.0018584617646411061,-0.0007971195736899972,-0.0025418668519705534
1769666741259722500,5.038722412109375,0.0018568638479337096,-0.004619555082172155,0.0008680445607751608
1769666741269712000,5.0487119140625,0.0006403586594387889,-0.004411119036376476,-0.0006594648584723473
1769666741279699700,5.05869970703125,-0.0011207896750420332,0.00026166310999542475,-0.002670684363692999
1769666741289688800,5.068688720703125,0.00047905032988637686,0.0024816764052957296,0.0008256442379206419
1769666741299678000,5.078677978515625,-0.0021785181015729904,0.0019272062927484512,0.0007116610649973154
1769666741309665800,5.088665771484375,0.0007998431101441383,-0.0017310030525550246,-0.00013670790940523148
1769666741319655000,5.098655029296875,0.0005098249530419707,-0.0010545601835474372,-0.0004954356700181961
1769666741329643000,5.10864306640625,-0.0008017553482204676,-0.002125148195773363,-0.0009486754424870014
1769666741339632000,5.118632080078125,0.0008619214640930295,-0.0015174149302765727,0.0018005056772381067
1769666741349620700,5.128620849609375,0.0011921206023544073,-0.0018000650452449918,0.0018521485617384315
1769666741359608800,5.13860888671875,0.00005814665928483009,-0.0019710399210453033,-0.0012048939242959023
1769666741369598000,5.148597900390625,0.0010573442559689283,-0.0017947439337149262,0.001018651993945241
1769666741379586000,5.1585859375,-0.0005565313040278852,0.0004726714687421918,-0.0020389233250170946
1769666741389575000,5.168574951171875,0.00006014690734446049,0.002373533323407173,-0.001507556065917015
1769666741399564000,5.17856396484375,-0.0009236248442903161,0.0014843037351965904,-0.0024292762391269207
1769666741409552000,5.1885517578125,-0.00045306404354050756,0.001176017103716731,-0.0021254809107631445
1769666741419541000,5.198541015625,0.00006385555025190115,-0.000040781102143228054,-0.0005078769754618406
1769666741429528800,5.20852880859375,0.0012585490476340055,-0.0003728821175172925,0.0006300969980657101
1769666741439518000,5.21851806640625,0.0003874290268868208,-0.0006130993133410811,0.0007094591856002808
1769666741449507000,5.228507080078125,0.0006516939029097557,0.002184821292757988,-0.0030221999622881413
1769666741459495000,5.238494873046875,-0.0010463375365361571,0.0019187715370208025,-0.0025108731351792812
1769666741469483800,5.24848388671875,-0.0004721907898783684,0.0028902918566018343,-0.0028844138141721487
1769666741479471900,5.258471923828125,-0.0016498406184837222,0.0020692392718046904,-0.0016396522987633944
1769666741489461000,5.2684609375,0.00006995652802288532,0.0008587454212829471,0.00032090931199491024
1769666741499449900,5.278449951171875,-0.0001652006758376956,0.0019013730343431234,0.0008551394566893578
1769666741509438000,5.28843798828125,0.00007489090785384178,-0.00034988566767424345,-0.0015250500291585922
1769666741519426800,5.2984267578125,0.00005944457370787859,-0.00009608629625290632,-0.0009101261384785175
1769666741529415000,5.308414794921875,0.00010966404806822538,0.001557998126372695,-0.0005250594113022089
1769666741539404000,5.318404052734375,-0.0005409462028183043,0.0033950465731322765,-0.0008233336266130209
1769666741549393000,5.328392822265625,-0.0014740430051460862,0.0029955776408314705,-0.0007266669999808073
1769666741559381000,5.338381103515625,-0.0016623284900560975,0.004469370935112238,-0.0026726387441158295
1769666741569370000,5.3483701171875,-0.0016177374636754394,0.0041846767999231815,-0.0051980456337332726
1769666741579358000,5.35835791015625,-0.0022225412540137768,0.0029697425197809935,-0.003671521320939064
1769666741589346800,5.368346923828125,-0.00009750272147357464,0.0010676244273781776,-0.0006175311282277107
1769666741599336000,5.3783359375,0.00019171659369021654,0.0006098269950598478,-0.00025374325923621655
1769666741609324000,5.388323974609375,-0.0003076912835240364,0.0009119196911342442,-0.0001004757359623909
1769666741619313000,5.39831298828125,0.0006244151154533029,0.0025580194778740406,-0.003128223353996873
1769666741629300700,5.40830078125,-0.0014190429355949163,0.004682508297264576,-0.00481015257537365
1769666741639289900,5.418289794921875,-0.0008627085480839014,0.006280138622969389,-0.006561979651451111
1769666741649279000,5.428279052734375,0.001889080973342061,-0.0007392546394839883,-0.0012917756102979183
1769666741659267000,5.43826708984375,0.0022688477765768766,-0.00575505243614316,0.0045735700987279415
1769666741669256000,5.448255859375,0.000008601229637861252,0.00025536271277815104,-0.0019675027579069138
1769666741679243800,5.458243896484375,-0.0030268696136772633,0.001766440225765109,-0.002212513703852892
1769666741689233000,5.46823291015625,-0.0013927107211202383,0.0019145120168104768,-0.0036909321788698435
1769666741699221800,5.4782216796875,-0.000567929761018604,-0.0032757227309048176,-0.00297800381667912
1769666741709209900,5.4882099609375,-0.001094773760996759,-0.001999005675315857,-0.0022519666235893965
1769666741719199000,5.498198974609375,-0.0005363089148886502,0.0008369946735911071,-0.004518583416938782
1769666741729187000,5.50818701171875,-0.0016894410364329815,0.0019274725345894694,-0.0053510214202106
1769666741739176000,5.518176025390625,-0.0008380284998565912,0.005958433263003826,-0.0035773562267422676
1769666741749164800,5.528164794921875,-0.0021058660931885242,0.004780871327966452,-0.0022456320002675056
1769666741759153000,5.53815283203125,-0.0013748285127803683,0.0020133142825216055,-0.0036043766885995865
1769666741769142000,5.54814208984375,-0.0008371913572773337,0.0028805281035602093,-0.005010403227061033
1769666741779129900,5.5581298828125,-0.0027189808897674084,0.001523381331935525,-0.003356579691171646
1769666741789119000,5.568118896484375,-0.0008095181547105312,0.0006051240488886833,-0.002866319613531232
1769666741799108000,5.578108154296875,-0.001576508628204465,-0.0000801073620095849,-0.0051638288423419
1769666741809096000,5.588095947265625,-0.0005628330400213599,-0.00014429015573114157,-0.001259534154087305
1769666741819084800,5.598084716796875,-0.00014737993478775024,0.0017492173938080668,-0.0012334352359175682
1769666741829073000,5.608072998046875,0.0003845428582280874,0.001788624213077128,-0.0008834179025143385
1769666741839062000,5.61806201171875,0.00006496359128504992,-0.0005176732083782554,-0.0012573257554322481
1769666741849051000,5.62805078125,-0.0012264198157936335,-0.002943804021924734,-0.0026177808176726103
1769666741859038700,5.638038818359375,0.0020367514807730913,-0.004990177229046822,-0.0019370766822248697
1769666741869027800,5.64802783203125,0.0004310252843424678,-0.001582397730089724,-0.0038008878473192453
1769666741879016000,5.658015869140625,-0.0009394374210387468,0.0012594613945111632,-0.004289844073355198
1769666741889005000,5.668005126953125,-0.0009097623405978084,0.003182709217071533,-0.006640607491135597
1769666741898994000,5.677993896484375,-0.0003220026846975088,0.004012017510831356,-0.007987900637090206
1769666741908982000,5.68798193359375,0.00006193644367158413,0.002747015794739127,-0.005245177540928125
1769666741918971000,5.697970947265625,0.0022350759245455265,-0.00023039837833493948,-0.001635262742638588
1769666741928959700,5.707959716796875,0.0016788225620985031,-0.006454917136579752,0.002436235314235091
1769666741938947800,5.71794775390625,0.0014849444851279259,-0.0019368644570931792,0.0022074696607887745
1769666741948937000,5.72793701171875,0.001286770449951291,0.002281759399920702,-0.000890873372554779
1769666741958925000,5.737925048828125,-0.00012923229951411486,0.00594094255939126,-0.001690620556473732
1769666741968914000,5.747913818359375,-0.0006601845379918814,0.0036010006442666054,-0.0002654192503541708
1769666741978901800,5.75790185546875,-0.0008476710645481944,-0.00020119419787079096,-0.000015082070603966713
1769666741988891000,5.767890869140625,0.0001145398709923029,-0.0023637674748897552,-0.0017196626868098974
1769666741998880000,5.7778798828125,0.00020322308409959078,-0.0016721446299925447,0.0007301792502403259
1769666742008868000,5.7878681640625,0.0002275182632729411,0.0001304539619013667,0.0020346485543996096
1769666742018857000,5.79785693359375,-0.0005234931595623493,0.0031379617284983397,-0.0005707219243049622
1769666742028844800,5.8078447265625,-0.003118411637842655,0.005491048563271761,-0.0015904775355011225
1769666742038834000,5.817833984375,-0.0011636515846475959,0.0037501398473978043,-0.0019103230442851782
1769666742048822800,5.82782275390625,-0.0012260059593245387,0.0012269722064957023,-0.0010167874861508608
1769666742058811000,5.837810791015625,-0.0016635633073747158,0.0005534588126465678,-0.0011424885597079992
1769666742068800000,5.847800048828125,0.0007143906550481915,-0.0007601027609780431,0.0017985550221055746
1769666742078789000,5.8577890625,-0.0014845815021544695,-0.00045783387031406164,0.0043503958731889725
1769666742088776700,5.867776611328125,0.0015132263069972396,-0.0015427154721692204,0.004865635652095079
1769666742098765800,5.877765869140625,-0.001749145914800465,0.00108848768286407,0.00047861039638519287
1769666742108754000,5.88775390625,-0.0005825809203088284,-0.0010163887636736035,-0.0013801169116050005
1769666742118743000,5.897742919921875,-0.0004520860384218395,0.0008494218927808106,-0.0008978184778243303
1769666742128732000,5.90773193359375,-0.0007566030253656209,0.0015337681397795677,-0.0022035911679267883
1769666742138720000,5.917719970703125,-0.0012849741615355015,0.0022911711130291224,-0.003318123985081911
1769666742148708900,5.927708984375,-0.0005599698633886874,0.001020132564008236,-0.002017347142100334
1769666742158697000,5.937697021484375,0.0001431046985089779,-0.000056050834245979786,-0.002918827347457409
1769666742168685800,5.947685791015625,-0.0018287430284544826,-0.000954156625084579,0.0007470243144780397
1769666742178675000,5.957675048828125,0.0011036635842174292,-0.0006854437524452806,-0.001757146092131734
1769666742188663000,5.9676630859375,0.0002074225340038538,0.0005458235973492265,-0.0011353082954883575
1769666742198652000,5.97765185546875,0.001386404037475586,-0.000127956154756248,0.0006769727915525436
1769666742208639700,5.9876396484375,0.0006419236306101084,0.0025243759155273438,-0.00037941616028547287
1769666742218628900,5.99762890625,-0.00014690461102873087,0.0030588721856474876,0.00031673419289290905
1769666742228618000,6.007617919921875,0.00027495285030454397,0.004456143360584974,0.000012679491192102432
1769666742238606000,6.017606201171875,-0.00112853292375803,0.004331241361796856,0.0007027045357972383
1769666742248595000,6.027594970703125,-0.001056205714121461,0.0018659462220966816,0.0022175870835781097
1769666742258582800,6.037582763671875,0.0000668492866680026,-0.0004347587237134576,0.0022926884703338146
1769666742268571600,6.047571533203125,-0.0011971588246524334,0.0006279383087530732,-0.0016814668197184801
1769666742278560500,6.057560546875,0.000547477975487709,0.0005003728438168764,-0.0015746743883937597
1769666742288548600,6.067548583984375,-0.0005759373889304698,0.0011626104824244976,-0.0008795440662652254
1769666742298537700,6.077537841796875,-0.002093939110636711,0.0030723633244633675,-0.00004970305599272251
1769666742308525600,6.087525634765625,-0.0010654011275619268,0.004049914423376322,0.0004897078033536673
1769666742318514700,6.0975146484375,-0.0016145448898896575,0.0013404141645878553,-0.0011523973662406206
1769666742328503600,6.107503662109375,-0.0009803625289350748,-0.0009043562458828092,0.00006139394827187061
1769666742338491600,6.11749169921875,0.00015148089732974768,-0.002324619796127081,0.0016832590335980058
1769666742348480800,6.127480712890625,0.00019857112783938646,-0.0013751073274761438,-0.0003609401173889637
1769666742358468600,6.137468505859375,-0.0009995850268751383,0.0012925812043249607,-0.0020083715207874775
1769666742368457500,6.14745751953125,-0.001723201246932149,0.002686774590983987,-0.0028726961463689804
1769666742378446600,6.157446533203125,0.000014777760952711105,-0.001266687992028892,-0.001320871990174055
1769666742388434700,6.1674345703125,0.0013510545250028372,-0.0037806453183293343,0.004700297489762306
1769666742398423600,6.177423583984375,0.0016344147734344006,-0.005436865147203207,0.007386094890534878
1769666742408411600,6.18741162109375,0.0009782309643924236,-0.001539862249046564,0.0037869333755224943
1769666742418400500,6.197400390625,0.00017821742221713066,0.002272719284519553,0.0019179268274456263
1769666742428389600,6.2073896484375,1.2433156371116638e-7,-0.0074771130457520485,0.0036489490885287523
1769666742438377700,6.217377685546875,0.0028284015133976936,-0.004576398059725761,0.0031464106868952513
1769666742448366600,6.22736669921875,0.0011127048637717962,-0.005231625400483608,0.0027686194516718388
1769666742458354700,6.237354736328125,-0.0011195567203685641,-0.0015173149295151234,0.00009533856064081192
1769666742468343800,6.24734375,-0.0014184468891471624,-0.00007343839388340712,-0.0013249448966234922
1769666742478332400,6.25733251953125,-0.0001563748810440302,0.0018496302654966712,-0.0013664902653545141
1769666742488320500,6.267320556640625,0.0002550440840423107,0.0024477762635797262,0.0007917333859950304
1769666742498309600,6.2773095703125,-0.0007937087211757898,0.0011867695720866323,0.0016873544082045555
1769666742508297700,6.287297607421875,0.0003777847159653902,0.0002365548862144351,0.0009075135458260775
1769666742518286600,6.29728662109375,-0.0010696434183046222,0.001301286625675857,-0.0005644154734909534
1769666742528275700,6.307275634765625,-0.0013021270278841257,0.0014529075706377625,-0.0012696969788521528
1769666742538263600,6.317263671875,-0.0003790753544308245,-0.0025370405055582523,-0.0009426611941307783
1769666742548252700,6.327252685546875,0.00010143686085939407,-0.0018850963097065687,0.0013642997946590185
1769666742558240800,6.33724072265625,0.0006955880671739578,-0.0010360805317759514,0.0016718949191272259
1769666742568229600,6.347229736328125,-0.0008828003192320466,-0.001744215376675129,0.002242145361378789
1769666742578218800,6.35721875,0.0007901974022388458,-0.0028243933338671923,0.0025353594683110714
1769666742588206600,6.36720654296875,-0.0008926328737288713,-0.0023353483993560076,0.002900100778788328
1769666742598195500,6.377195556640625,0.0006456089904531837,-0.0035697235725820065,0.006568871438503265
1769666742608183600,6.38718359375,-0.00046209600986912847,-0.006263066548854113,0.0096283545717597
1769666742618172700,6.397172607421875,0.002716653048992157,-0.006755219306796789,0.008557231165468693
1769666742628161800,6.407161865234375,0.0031734516378492117,-0.005422129295766354,0.005924674682319164
1769666742638149600,6.417149658203125,0.0002591543598100543,-0.005446364171802998,0.005773673765361309
1769666742648138500,6.427138427734375,0.002838603686541319,-0.00587078370153904,0.007092160638421774
1769666742658126600,6.437126708984375,0.00117439404129982,-0.005174899473786354,0.006858068518340588
1769666742668115700,6.44711572265625,0.000735056702978909,-0.006641590967774391,0.007268605753779411
1769666742678104600,6.4571044921875,0.0021201670169830322,-0.004911867901682854,0.007275530137121677
1769666742688092700,6.4670927734375,0.001047384925186634,-0.002444272628054023,0.004000720102339983
1769666742698081800,6.477081787109375,0.0002652143593877554,-0.00012785522267222404,0.0031245399732142687
1769666742708069600,6.487069580078125,-0.0005931936320848763,-0.001455795718356967,0.0031427936628460884
1769666742718058500,6.49705859375,-0.0005412620375864208,-0.004072617739439011,0.004235488828271627
1769666742728047600,6.507047607421875,0.0018535410054028034,-0.0011420773807913065,0.004464722704142332
1769666742738035700,6.51703564453125,0.0011376834008842707,-0.0011929438915103674,0.0028167585842311382
1769666742748024600,6.527024658203125,0.0015792938647791743,0.0011912084883078933,0.0006994656287133694
1769666742758012400,6.537012451171875,-0.0018117092549800873,0.0023696571588516235,-0.0008172045927494764
1769666742768001500,6.54700146484375,-0.0012368621537461877,0.0009014576207846403,0.0005751610733568668
1769666742777990700,6.55699072265625,0.000006834045052528381,0.0006077109719626606,0.00011576572433114052
1769666742787978800,6.566978759765625,0.00027125340420752764,-0.0014711541589349508,0.002100024838000536
1769666742797967600,6.576967529296875,-0.0014632634120061994,-0.0016402648761868477,0.0009506044443696737
1769666742807955700,6.586955810546875,-0.00011533196084201336,0.001084237010218203,0.00036626122891902924
1769666742817944600,6.596944580078125,0.0004982603713870049,0.0011353696463629603,0.0018134228885173798
1769666742827933400,6.606933349609375,0.00020722486078739166,0.0035063805989921093,-0.00025015859864652157
1769666742837921500,6.616921630859375,-0.0010527167469263077,0.0012725210981443524,0.00003799539990723133
1769666742847910700,6.62691064453125,0.0012840082636103034,-0.0005467694718390703,-0.0017505777068436146
1769666742857898800,6.636898681640625,-0.0012627725955098867,-0.0010202794801443815,-0.0003691958263516426
1769666742867887600,6.6468876953125,0.0006514282431453466,-0.003173978766426444,0.0007122487295418978
1769666742877876500,6.65687646484375,-0.0003302129334770143,-0.0005925768055021763,-0.0009666078258305788
1769666742887864600,6.666864501953125,-0.00018477230332791805,0.0018880692077800632,-0.00021838187240064144
1769666742897853700,6.676853759765625,0.0011531998170539737,0.0016342699527740479,0.001570996013469994
1769666742907841800,6.686841796875,0.00003245531115680933,-0.0007787386421114206,-0.0009168307296931744
1769666742917830700,6.69683056640625,-0.0016663750866428018,0.00035550177562981844,-0.00391634926199913
1769666742927819800,6.70681982421875,0.000042411498725414276,0.00009167776443064213,0.0000239440705627203
1769666742937807600,6.7168076171875,0.0009971547406166792,-0.0005639924202114344,0.0009480610024183989
1769666742947796500,6.72679638671875,0.00030810246244072914,0.0018975671846419573,0.00026176427491009235
1769666742957784600,6.73678466796875,-0.00047832896234467626,0.0016200658865272999,0.0007717597763985395
1769666742967773700,6.746773681640625,-0.00047300622100010514,0.001190320705063641,-0.00036315619945526123
1769666742977762800,6.7567626953125,-0.00019177643116563559,0.0000899025471881032,-0.0007479831110686064
1769666742987750700,6.766750732421875,0.0000660367077216506,0.0005279012257233262,-0.0019732241053134203
1769666742997739500,6.776739501953125,-0.00047991133760660887,-0.000005263602361083031,-0.0007958405185490847
1769666743007727600,6.7867275390625,0.001792705850675702,0.00007463491056114435,0.0008543496951460838
1769666743017716700,6.796716796875,0.0017586173489689827,0.0018331201281398535,0.0002668562810868025
1769666743027705600,6.80670556640625,0.0003566667437553406,0.0029022893868386745,-0.0010971028823405504
1769666743037693700,6.816693603515625,0.00013056432362645864,-0.0000029529910534620285,0.0021596767473965883
1769666743047682600,6.8266826171875,0.0009892049711197615,0.0012459777062758803,0.0009140316396951675
1769666743057670700,6.836670654296875,-0.0020103133283555508,0.0007849845569580793,-0.0008204849436879158
1769666743067659500,6.846659423828125,-0.0003210332943126559,0.0005996323307044804,-0.0016459370963275433
1769666743077648600,6.856648681640625,0.00044063082896173,0.0008944442379288375,-0.0008171615190804005
1769666743087636700,6.86663671875,0.0004191382322460413,0.0012660447973757982,0.0005288885440677404
1769666743097625900,6.8766259765625,0.0012939866865053773,0.0005736228777095675,0.0012548662489280105
1769666743107613400,6.886613525390625,0.0012126094661653042,0.003124220296740532,0.0025980882346630096
1769666743117602600,6.8966025390625,-0.00007396354340016842,0.0021266001276671886,0.0006097720470279455
1769666743127591700,6.906591796875,0.00048159644939005375,0.0009179681073874235,-0.0019466511439532042
1769666743137579800,6.916579833984375,0.0013423300115391612,-0.0055910637602210045,-0.0036318993661552668
1769666743147568600,6.926568603515625,-0.0002574276877567172,-0.004818391986191273,0.004071682691574097
1769666743157557800,6.936557861328125,0.0007593672489747405,-0.0019602878019213676,0.004911110736429691
1769666743167545600,6.946545654296875,0.0026649548672139645,0.0019835003186017275,0.0028997340705245733
1769666743177534500,6.956534423828125,-0.000005130656063556671,-0.00038112036418169737,0.0006059533916413784
1769666743187522600,6.9665224609375,0.0015645017847418785,-0.0008345679379999638,0.003215341130271554
1769666743197511700,6.97651171875,0.0017708966042846441,-0.0027176893781870604,0.003461683401837945
1769666743207500800,6.986500732421875,0.0013051670975983143,-0.002745563630014658,-0.00021229148842394352
1769666743217488600,6.996488525390625,0.0013461797498166561,0.0001911040162667632,-0.0035154104698449373
1769666743227477500,7.0064775390625,-0.0006203703233040869,0.004108702763915062,-0.005227067973464727
1769666743237465600,7.016465576171875,-0.00012315809726715088,0.006895167753100395,-0.0017063692212104797
1769666743247454700,7.026454833984375,-0.001455237390473485,0.004868236370384693,-0.0009722358081489801
1769666743257443600,7.036443603515625,-0.0010491053108125925,0.005630699452012777,-0.0019192558247596025
1769666743267431700,7.046431640625,0.0008857566863298416,0.0032263975590467453,-0.0013230738695710897
1769666743277420500,7.056420654296875,-0.0016178811201825738,0.005842953454703093,-0.003094342304393649
1769666743287408600,7.06640869140625,-0.0018611415289342403,0.0002172916429117322,-0.002316798083484173
1769666743297397500,7.0763974609375,-0.0003671082085929811,0.001481227925978601,-0.003259823191910982
1769666743307386600,7.08638671875,0.0007151754107326269,-0.0008169044740498066,-0.0010390675161033869
1769666743317374700,7.096374755859375,-0.0005354449967853725,0.000880061648786068,0.0005638892762362957
1769666743327363800,7.10636376953125,-0.0008783452212810516,0.0005065109580755234,-0.0004094420000910759
1769666743337351700,7.1163515625,-0.00034597935155034065,-0.0003731311298906803,0.00039589800871908665
1769666743347340500,7.126340576171875,0.0003126391675323248,-0.002821730449795723,0.00012521399185061455
1769666743357329700,7.13632958984375,-0.001025332952849567,0.0010992414318025112,-0.0022913385182619095
1769666743367317800,7.14631787109375,-0.0001172835472971201,-0.0018013855442404747,-0.000865348381921649
1769666743377306600,7.156306640625,0.002307524671778083,0.001434621517546475,0.000999929616227746
1769666743387294500,7.16629443359375,-0.000010450836271047592,-0.0010557910427451134,0.001686317496933043
1769666743397283600,7.17628369140625,0.000975984032265842,-0.0015974780544638634,0.0035947386641055346
1769666743407272700,7.186272705078125,0.0024174635764211416,-0.0003129469696432352,-0.0011622142046689987
1769666743417260500,7.196260498046875,0.0015665835235267878,-0.002047197427600622,0.0012093307450413704
1769666743427249700,7.206249755859375,0.0005519131664186716,-0.004936457611620426,0.002485757926478982
1769666743437237800,7.21623779296875,0.001198795042000711,-0.0018786161672323942,0.002577370498329401
1769666743447226600,7.2262265625,-0.0005713256541639566,0.0007192058255895972,0.0006380716804414988
1769666743457215500,7.236215576171875,-0.000661606842186302,0.003741627326235175,0.00019119330681860447
1769666743467203600,7.24620361328125,-0.0001898475456982851,0.002125002909451723,0.0014941851841285825
1769666743477192700,7.256192626953125,-0.000023399945348501205,-0.0009498829022049904,0.0017730181571096182
1769666743487180800,7.266180908203125,0.001221163896843791,-0.0012334238272160292,0.0019632605835795403
1769666743497169700,7.276169677734375,0.0008989213965833187,0.00014396302867680788,-0.0010058977641165257
1769666743507158500,7.286158447265625,-0.0010846250224858522,0.0026031285524368286,-0.0028932816348969936
1769666743517146600,7.296146728515625,-0.0011757051106542349,0.0030899541452527046,-0.0026293625123798847
1769666743527135500,7.306135498046875,0.0005537285469472408,0.0027910589706152678,0.0015174224972724915
1769666743537123600,7.31612353515625,-0.0010292544029653072,0.0030493855010718107,0.0004825182259082794
1769666743547112700,7.32611279296875,-0.0010257215471938252,0.002831708872690797,-0.001968467840924859
1769666743557101800,7.336101806640625,0.00018095667473971844,0.0014295545406639576,-0.00045126513577997684
1769666743567089700,7.346089599609375,-0.00038861547363922,0.000047825626097619534,0.0014190073125064373
1769666743577078500,7.35607861328125,-0.0005774335586465895,0.0016686255112290382,0.000012858305126428604
1769666743587066600,7.366066650390625,0.00021878432016819715,0.000730837055016309,-0.003656600369140506
1769666743597055700,7.3760556640625,0.000241687404923141,0.00012443528976291418,-0.0010751981753855944
1769666743607044600,7.386044677734375,0.0003784502623602748,-0.00007902912329882383,-0.00022425269708037376
1769666743617032400,7.396032470703125,0.0012538312003016472,-0.0010185923893004656,-0.003018707502633333
1769666743627021600,7.406021484375,-0.0002553734229877591,0.0009635092574171722,-0.00038220034912228584
1769666743637009700,7.416009765625,-0.000716100272256881,0.0013573907781392336,-0.0011923338752239943
1769666743646998500,7.42599853515625,-0.0010786994826048613,0.0012245881371200085,0.0003812501672655344
1769666743656987600,7.435987548828125,0.0013724740128964186,0.002064815489575267,-0.0011026631109416485
1769666743666975700,7.445975830078125,0.00037991825956851244,-0.0002104152226820588,-0.0002917814999818802
1769666743676964600,7.455964599609375,-0.00004698638804256916,-0.001017885748296976,-0.0020217711571604013
1769666743686952700,7.46595263671875,0.0012388406321406364,0.0008426891290582716,-0.002178711351007223
1769666743696941600,7.475941650390625,-0.0006008711061440408,0.0014967614552006125,-0.002477251924574375
1769666743706930700,7.4859306640625,-0.0012970931129530072,0.0031816561240702868,-0.0032682677265256643
1769666743716918800,7.495918701171875,-0.0005303689977154136,0.0038887253031134605,-0.0011329452972859144
1769666743726907600,7.50590771484375,0.0006647150730714202,0.0015085687628015876,-0.001970164244994521
1769666743736896500,7.515896484375,0.0009344931459054351,0.0009868554770946503,-0.0019105093088001013
1769666743746884600,7.525884521484375,0.00040145020466297865,-0.0014297871384769678,-0.003957069478929043
1769666743756873700,7.535873779296875,0.0003154301084578037,0.00014547270257025957,-0.0023956578224897385
1769666743766861600,7.545861572265625,-0.00010886369273066521,0.0010766939958557487,-0.00032913684844970703
1769666743776850700,7.5558505859375,-0.0012066187337040901,0.002035432029515505,0.0006719452794641256
1769666743786839800,7.56583984375,-0.0015217217151075602,0.0019122159574180841,0.0004194339271634817
1769666743796827600,7.57582763671875,0.00020959926769137383,0.0020110192708671093,-0.0005086779128760099
1769666743806816500,7.58581640625,-0.00015249848365783691,0.0010137539356946945,-0.001258338801562786
1769666743816804600,7.5958046875,0.001566571881994605,0.0012076320126652718,-0.0015267855487763882
1769666743826793700,7.605793701171875,-0.0007356216083280742,-0.001292188884690404,-0.0016226693987846375
1769666743836782600,7.615782470703125,0.00027744483668357134,-0.0006511658430099487,-0.0009816461242735386
1769666743846770400,7.6257705078125,-0.000808501266874373,-0.00042373151518404484,-0.0007421073969453573
1769666743856759600,7.635759521484375,-0.00047667138278484344,0.0006521855830214918,-0.0025754275266081095
1769666743866747600,7.64574755859375,-0.0009566338267177343,0.0019487838726490736,-0.003262783633545041
1769666743876736800,7.65573681640625,0.0008122378494590521,0.0014579633716493845,-0.003488353220745921
1769666743886725600,7.6657255859375,-0.000989647931419313,0.000552805548068136,-0.004436340183019638
1769666743896713700,7.675713623046875,0.0001291460357606411,-0.0004591956967487931,-0.002097817836329341
1769666743906702600,7.68570263671875,-0.00017789192497730255,0.0016308509511873126,-0.004594160243868828
1769666743916690700,7.695690673828125,0.000034362077713012695,0.004348873160779476,-0.005387249402701855
1769666743926679600,7.705679443359375,-0.0003906735801137984,0.0034244172275066376,-0.004359193611890078
1769666743936668700,7.715668701171875,-0.00007801852189004421,-0.0019450481049716473,-0.0015474283136427402
1769666743946656800,7.72565673828125,0.0011322246864438057,-0.005835594609379768,0.0022072186693549156
1769666743956645600,7.735645751953125,0.002584712812677026,-0.004259003326296806,0.0027161487378180027
1769666743966633500,7.745633544921875,0.001028825412504375,0.0012355060316622257,-0.002406225074082613
1769666743976622600,7.75562255859375,-0.00028943922370672226,0.0016727971378713846,-0.007694197352975607
1769666743986611700,7.76561181640625,0.0003080730093643069,0.0016333578387275338,-0.009370947256684303
1769666743996599600,7.775599609375,-0.0019441623007878661,-0.0016849408857524395,-0.005490721669048071
1769666744006588700,7.785588623046875,-0.0009958986192941666,-0.002842759247869253,-0.0022281231358647346
1769666744016576500,7.795576416015625,0.0009724438423290849,0.00035170267801731825,-0.0035711554810404778
1769666744026565600,7.805565673828125,0.00008988659828901291,0.0028984234668314457,-0.004823274444788694
1769666744036554500,7.815554443359375,0.0004893607692793012,0.003954633139073849,-0.006024360191076994
1769666744046542600,7.82554248046875,-0.001468569622375071,-0.00000837608240544796,-0.003930560313165188
1769666744056531700,7.83553173828125,-0.0017641804879531264,0.0033282984513789415,-0.004777711350470781
1769666744066519800,7.845519775390625,-0.0012887194752693176,0.004315729718655348,-0.006279643625020981
1769666744076508400,7.85550830078125,-0.00046393851516768336,0.00446486659348011,-0.003489183261990547
1769666744086497500,7.86549755859375,-0.0015225025126710534,0.0005171688389964402,-0.002593264915049076
1769666744096485600,7.875485595703125,-0.001947010401636362,-0.002184075303375721,-0.004619397688657045
1769666744106474800,7.885474853515625,0.00020781869534403086,-0.004956255666911602,-0.0026397258043289185
1769666744116462600,7.895462646484375,0.0006293971091508865,-0.0046228282153606415,0.0014801842626184225
1769666744126451700,7.90545166015625,0.00011158629786223173,-0.0023087209556251764,-0.0006757499650120735
1769666744136440600,7.915440673828125,0.0004644552245736122,-0.0021199029870331287,-0.003222264815121889
1769666744146428700,7.9254287109375,-0.0001844690414145589,-0.00040455989073961973,0.0004849531687796116
1769666744156417500,7.93541748046875,0.001228337874636054,-0.0016314780805259943,0.0026325262151658535
1769666744166405600,7.945405517578125,0.0019608072470873594,-0.0023350862320512533,0.0015477231936529279
1769666744176394800,7.955394775390625,0.0003919390728697181,-0.003065857570618391,0.0022537270560860634
1769666744186383600,7.965383544921875,0.0020918387454003096,-0.004661888349801302,0.001969063887372613
1769666744196371500,7.975371337890625,0.00038102397229522467,-0.0036094067618250847,0.0037400659639388323
1769666744206360600,7.985360595703125,0.004316180013120174,-0.0025771658401936293,-0.0007309475913643837
1769666744216348700,7.9953486328125,0.002865822520107031,0.00035710493102669716,0.0000174008309841156
1769666744226337800,8.005337890625,0.0005748890107497573,-0.0000223059905692935,-0.0018000537529587746
1769666744236326700,8.01532666015625,0.0020803739316761494,0.0005295010050758719,0.0005227553192526102
1769666744246314500,8.025314453125,0.0001054288586601615,0.0015756794018670917,-0.0010928618721663952
1769666744256303600,8.0353037109375,-0.0006602299399673939,0.00010747869964689016,-0.0015541212633252144
1769666744266291700,8.045291748046875,0.001699997577816248,-0.0020803080406039953,0.0030318419449031353
1769666744276280300,8.0552802734375,0.0011495223734527826,-0.003125598654150963,0.0033000221010297537
1769666744286269400,8.06526953125,0.001221325364895165,-0.004165031015872955,0.002605270594358444
1769666744296257500,8.075257568359374,-0.00027989852242171764,-0.004088864661753178,-0.0007452522404491901
1769666744306246400,8.085246337890625,-0.000074031762778759,-0.00281534343957901,-0.00023678597062826157
1769666744316234200,8.095234130859374,0.0003470139345154166,0.0009138812310993671,-0.0028962185606360435
1769666744326223400,8.105223388671876,-0.002511322032660246,0.0021985922940075397,-0.0007151258178055286
1769666744336212500,8.11521240234375,-0.0019406063947826624,-0.0009290240705013275,0.0010441585909575224
1769666744346200600,8.12520068359375,-0.00013052788563072681,-0.002242317423224449,-0.002561351051554084
1769666744356189400,8.135189453125,0.0002931810449808836,-0.000956276897341013,-0.0016819753218442202
1769666744366178300,8.14517822265625,-0.00015734846238046885,-0.0030998550355434418,-0.002917714649811387
1769666744376166400,8.15516650390625,-0.0002516243839636445,-0.0008148630149662495,-0.0039289165288209915
1769666744386155300,8.1651552734375,0.0018649804405868053,0.0004489815328270197,-0.0007205591537058353
1769666744396143400,8.175143310546876,0.00026122492272406816,-0.0016663672868162394,-0.0010009901598095894
1769666744406132500,8.185132568359375,0.0019356072880327702,-0.004095078445971012,0.00013846135698258877
1769666744416121600,8.19512158203125,-0.000016489881090819836,-0.0027368662413209677,-0.0007603554986417294
1769666744426109400,8.205109375,0.0008078453829512,-0.0006851672660559416,-0.0018136673606932163
1769666744436098300,8.215098388671874,-0.0002212001709267497,-0.002749117324128747,-0.0014139269478619099
1769666744446086400,8.22508642578125,-0.0000020354054868221283,0.0000802257563918829,-0.001131333876401186
1769666744456075500,8.235075439453125,0.0004962420789524913,-0.0006923573091626167,-0.0006706069689244032
1769666744466064400,8.245064453125,0.0011281190672889352,0.00016215979121625423,0.0008600950241088867
1769666744476052200,8.25505224609375,0.00005193566903471947,0.0010457966709509492,0.0022103176452219486
1769666744486041300,8.265041259765624,0.001162432017736137,-0.00013513572048395872,0.0003429481294006109
1769666744496029400,8.275029541015625,0.0009637601906433702,0.0024995296262204647,-0.0008267122320830822
1769666744506018300,8.285018310546874,0.0009395725792273879,0.0023842151276767254,-0.0036225984804332256
1769666744516007400,8.29500732421875,-0.0009957464644685388,0.002490208949893713,-0.0008004470728337765
1769666744525995500,8.30499560546875,0.00030212209094315767,0.0007918223273009062,-0.0017199921421706676
1769666744535984400,8.314984375,-0.0007218634127639234,0.0014024851843714714,-0.0017761848866939545
1769666744545972200,8.32497216796875,0.0008230697130784392,0.0003574608126655221,0.0011275592260062695
1769666744555961300,8.33496142578125,0.0013802029425278306,-0.0007288425695151091,0.0014700418105348945
1769666744565950500,8.344950439453125,-0.00011634605471044779,0.0006488095386885107,0.0011519943363964558
1769666744575938600,8.3549384765625,0.0007225497392937541,0.0014395019970834255,-0.0006248666904866695
1769666744585927400,8.364927490234376,0.0004654891090467572,-0.0007487279362976551,0.000005759065970778465
1769666744595915300,8.374915283203125,0.00006255286280065775,-0.0002195577835664153,0.0036260602064430714
1769666744605904400,8.384904296875,-0.0005377382040023804,-0.0008710555266588926,-0.00015858071856200695
1769666744615893200,8.394893310546875,0.0002937006065621972,-0.0012617411557585,0.0011223996989428997
1769666744625881300,8.40488134765625,-0.0004325653426349163,0.0018218393670395017,-0.0017177737317979336
1769666744635870500,8.414870361328125,-0.0010994209442287683,0.0008047781884670258,-0.002356399782001972
1769666744645858300,8.4248583984375,0.00048349425196647644,0.0004889306728728116,-0.0013307901099324226
1769666744655847400,8.434847412109375,-0.0019674128852784634,-0.0021438703406602144,-0.0030168374069035053
1769666744665836300,8.444836181640625,-0.0018400796689093113,-0.00039914355147629976,-0.0028037310112267733
1769666744675824400,8.454824462890626,-0.0008523132419213653,0.0008560042479075491,-0.0036141311284154654
1769666744685813500,8.4648134765625,-0.0026278002187609673,0.00709875812754035,-0.010948876850306988
1769666744695801600,8.474801513671874,0.00004681257996708155,0.0033050854690372944,-0.0013425888027995825
1769666744705790200,8.484790283203125,-0.000715042813681066,-0.0029340789187699556,0.0016164389671757817
1769666744715779300,8.494779296875,0.001082324655726552,-0.0034912123810499907,0.0018060560105368495
1769666744725767400,8.504767333984375,-0.0010447136592119932,-0.002284090733155608,-0.0021066495683044195
1769666744735756300,8.51475634765625,-0.0021440666168928146,0.0030084094032645226,-0.004962356761097908
1769666744745744400,8.524744384765626,-0.0009530294919386506,0.0010947503615170717,-0.003170992014929652
1769666744755733500,8.5347333984375,0.0008731000125408173,-0.0026515184435993433,-0.0016063849907368422
1769666744765722400,8.544722412109374,0.00009156460873782635,-0.0013155881315469742,-0.0032386784441769123
1769666744775710500,8.55471044921875,-0.0007278900593519211,0.0010809904197230935,-0.0037444126792252064
1769666744785699300,8.56469921875,-0.000971500005107373,0.00002719543408602476,-0.003755612764507532
1769666744795687400,8.5746875,-0.0011688402155414224,-0.001010372070595622,-0.0025928765535354614
1769666744805676500,8.584676513671875,-0.0015804434660822153,-0.0018922293093055487,-0.0006051009986549616
1769666744815665400,8.59466552734375,-0.00029946293216198683,-0.002199824433773756,-0.002237086184322834
1769666744825653200,8.6046533203125,-0.00044832006096839905,-0.0012933809775859118,-0.0030560442246496677
1769666744835642400,8.614642333984374,-0.002524786628782749,-0.00017591856885701418,-0.005391103681176901
1769666744845631500,8.624631591796875,-0.0018194465665146708,0.00002611684612929821,-0.002259514993056655
1769666744855619300,8.634619384765625,-0.0033315892796963453,-0.003072204766795039,-0.0009572294075042009
1769666744865608400,8.6446083984375,-0.0006732140900567174,-0.0036015717778354883,-0.0003202862571924925
1769666744875596300,8.65459619140625,-0.00006548070814460516,-0.0032790631521493196,0.0011915902141481638
1769666744885585400,8.66458544921875,0.0003618036862462759,-0.0013881531776860356,0.0004259387496858835
1769666744895574300,8.67457421875,-0.0003655055770650506,-0.0014709775568917394,-0.0007796743884682655
1769666744905562400,8.684562255859374,-0.0016543993260711432,-0.0013765242183580995,-0.00041262339800596237
1769666744915551500,8.694551513671875,0.0007877193856984377,-0.003131547477096319,0.0001317267306149006
1769666744925539600,8.70453955078125,0.0006374325603246689,-0.0035523162223398685,0.0007858981844037771
1769666744935528200,8.714528076171876,0.0031171017326414585,-0.0010257750982418656,0.001389370416291058
1769666744945517300,8.724517333984375,0.0018031890504062176,-0.0009114714339375496,0.0014657368883490562
1769666744955505400,8.73450537109375,0.0009608310647308826,0.0005527346511371434,0.0008465519640594721
1769666744965494300,8.744494384765625,-0.00019507587421685457,-0.0013807581271976233,-0.001370695186778903
1769666744975482400,8.754482421875,0.00080627272836864,-0.0003583705984055996,-0.0017294229473918676
1769666744985471500,8.764471435546875,-0.0005032307817600667,-0.003857146017253399,-0.0020789862610399723
1769666744995460400,8.77446044921875,-0.00035382743226364255,-0.004395903553813696,-0.0009631216526031494
1769666745005448400,8.784448486328126,-0.0002895439974963665,-0.000773383304476738,-0.0023162509314715862
1769666745015437300,8.794437255859375,0.00017650914378464222,0.0030831401236355305,-0.005007108673453331
1769666745025425400,8.80442529296875,-0.000018775463104248047,0.0037335725501179695,-0.0020369617268443108
1769666745035414500,8.81441455078125,-0.0004920191713608801,0.0012855948880314827,-0.001156520564109087
1769666745045403400,8.8244033203125,-0.00042880832916125655,-0.001081783790141344,0.0003902968019247055
1769666745055391200,8.83439111328125,0.0004963738610967994,-0.002084197709336877,0.0018853953806683421
1769666745065380400,8.84438037109375,-0.001149202580563724,-0.001859624870121479,-0.0013897267635911703
1769666745075368400,8.854368408203126,-0.0019604014232754707,-0.0003400250570848584,-0.00252955942414701
1769666745085357300,8.864357421875,-0.0022510283160954714,0.001518230652436614,-0.002457086928188801
1769666745095346400,8.874346435546874,-0.001960210967808962,0.0022063914220780134,-0.002614745870232582
1769666745105334300,8.884334228515625,0.0000021903542801737785,-0.00047907535918056965,-0.0012264526449143887
1769666745115323400,8.894323486328124,-0.0007640011026524007,-0.0002548370976001024,-0.004076034761965275
1769666745125311500,8.9043115234375,-0.00022541126236319542,0.0006672287127003074,-0.002509231213480234
1769666745135300400,8.91430029296875,-0.00022541126236319542,-0.0022097842302173376,-0.0010772491805255413
1769666745145289500,8.92428955078125,-0.0030500285793095827,-0.0026838979683816433,-0.0001289860811084509
1769666745155277600,8.934277587890625,-0.0024721226654946804,-0.0016604451229795814,-0.0013412570115178823
1769666745165266200,8.94426611328125,0.00008349725976586342,-0.0010548518039286137,-0.0019225366413593292
1769666745175254300,8.954254150390625,-0.00273412698879838,0.000794447201769799,-0.0023012380115687847
1769666745185243400,8.964243408203124,-0.0004578305524773896,0.0022135672625154257,-0.0011257629375904799
1769666745195232500,8.974232421875,-0.0005100285052321851,0.002303582150489092,0.0010050320997834206
1769666745205220400,8.984220458984375,-0.0006306758732534945,0.0017755662556737661,0.0014251710381358862
1769666745215209500,8.99420947265625,-0.00007380894385278225,-0.00037600158248096704,0.0003926635254174471
1769666745225197300,9.004197265625,-0.0011258777230978012,-0.0019005306530743837,-0.0004546358250081539
1769666745235186400,9.0141865234375,-0.0008829974103718996,-0.0017753620631992817,-0.0011182958260178566
1769666745245175300,9.02417529296875,0.0002853225450962782,-0.000015057157725095749,-0.0011289706453680992
1769666745255163400,9.034163330078124,-0.0007216185913421214,0.0018121376633644104,-0.0018418990075588226
1769666745265152500,9.044152587890625,-0.0012585811782628298,0.003485222812741995,-0.0017773830331861973
1769666745275140600,9.054140625,-0.0007515153265558183,0.0022077043540775776,-0.0016988194547593594
1769666745285129500,9.06412939453125,-0.0007262257277034223,0.00045424955897033215,0.0007021059282124043
1769666745295118600,9.07411865234375,-0.0013344917679205537,-0.0010032984428107738,-0.0004795384593307972
1769666745305106400,9.0841064453125,0.0003083922201767564,0.0003506067441776395,-0.0010701199062168598
1769666745315095600,9.094095458984375,0.00020293111447244883,0.0009191916324198246,-0.0005707768723368645
1769666745325083400,9.10408349609375,0.0005044171120971441,0.003116884035989642,0.00014236243441700935
1769666745335072500,9.114072509765625,-0.001316652400419116,0.002527260221540928,-0.0005921374540776014
1769666745345061600,9.1240615234375,-0.0014754713047295809,0.00021844403818249702,-0.0011806231923401356
1769666745355049700,9.1340498046875,-0.0007974305190145969,0.0008227152866311371,0.00022339541465044022
1769666745365038300,9.144038330078125,-0.0019541126675903797,-0.0010434479918330908,-0.0007516280747950077
1769666745375027500,9.15402734375,0.00005470961332321167,-0.00023677654098719358,0.000034270575270056725
1769666745385015600,9.164015625,0.00031303311698138714,-0.00001419195905327797,0.0003140037879347801
1769666745395004400,9.17400439453125,-0.0002821834059432149,0.001848422922194004,0.0006231965962797403
1769666745404992500,9.183992431640625,-0.0013951993314549327,0.00028668763116002083,0.003162757959216833
1769666745414981600,9.193981689453125,-0.0002649537054821849,-0.000548479612916708,0.0004758948925882578
1769666745424970500,9.203970458984376,0.001298111048527062,-0.0018658952321857214,0.0010628951713442802
1769666745434958300,9.213958251953125,-0.0007160376408137381,0.0013333602109923959,0.0011435889173299074
1769666745444947500,9.223947509765624,-0.0019239109242334962,0.003182005137205124,-0.0014622448943555355
1769666745454935600,9.233935546875,-0.0008953981450758874,0.004524504765868187,-0.0020215087570250034
1769666745464924700,9.243924560546875,0.00019495782908052206,-0.0020935654174536467,0.0012070483062416315
1769666745474913500,9.25391357421875,0.0006690004374831915,-0.0033460501581430435,0.003026520134881139
1769666745484901400,9.2639013671875,0.0007502520456910133,-0.0012514085974544287,0.002823634771630168
1769666745494890500,9.273890380859376,-0.0005174127290956676,0.0008101442945189774,0.0010174789931625128
1769666745504878600,9.283878662109375,-0.00037336390232667327,0.004129333421587944,0.0006124363280832767
1769666745514867500,9.293867431640624,0.000033833435736596584,0.0002541679423302412,0.0021818371023982763
1769666745524856600,9.303856689453125,0.000012015807442367077,-0.0047329990193247795,0.006583536975085735
1769666745534844400,9.313844482421874,-0.000021273735910654068,-0.0035907693672925234,0.0049475571140646935
1769666745544833500,9.32383349609375,0.0007005778606981039,-0.00296378112398088,0.0022272600326687098
1769666745554821400,9.3338212890625,0.0016364126931875944,0.0006852822261862457,0.001466661226004362
1769666745564810500,9.343810546875,-0.0009639295749366283,0.003009797539561987,0.00013045268133282661
1769666745574799600,9.353799560546875,-0.0009649948915466666,0.0020236289128661156,-0.0003747488372027874
1769666745584787700,9.36378759765625,-0.00205521984025836,0.001339126960374415,0.0002851181197911501
1769666745594776300,9.3737763671875,-0.0004035272286273539,0.001506107160821557,0.0005197424907237291
1769666745604764400,9.383764404296874,0.000652616610750556,-0.00025118712801486254,0.0028236948419362307
1769666745614753500,9.39375341796875,-0.00035831937566399574,-0.002246161224320531,0.0024156984873116016
1769666745624742400,9.403742431640625,0.0005383134121075273,-0.0013612436596304178,0.0018868219340220094
1769666745634730500,9.41373046875,-0.00008939369581639767,-0.0010962593369185925,0.003176857251673937
1769666745644719600,9.4237197265625,-0.000701173790730536,-0.002600876847282052,0.00168258894700557
1769666745654707500,9.43370751953125,-0.0001347194192931056,-0.0014301515184342861,0.001310811610892415
1769666745664696600,9.443696533203125,0.000734243425540626,-0.004365013912320137,0.0012646301183849573
1769666745674685400,9.453685546875,-0.0008695120923221111,-0.002752736210823059,-0.0005239485763013363
1769666745684673500,9.463673583984376,0.001437568455003202,-0.0009394497610628605,0.0024934776592999697
1769666745694662700,9.47366259765625,-0.0007984215044416487,-0.00035009218845516443,0.0016543155070394278
1769666745704650500,9.483650390625,-0.0004899350460618734,0.0005207252688705921,0.0004452208522707224
1769666745714639400,9.493639404296875,0.0012741427635774016,0.0019516416359692812,0.0003690544981509447
1769666745724628500,9.50362841796875,-0.00040707591688260436,0.0010620015673339367,0.0012788595631718636
1769666745734616600,9.513616455078125,0.000038737314753234386,-0.0008554743835702538,0.0018170843832194805
1769666745744605400,9.52360546875,0.0011477095540612936,0.0004061079816892743,0.00039124698378145695
1769666745754593500,9.533593505859375,0.001157296821475029,-0.0010495759779587388,-0.0018559282179921865
1769666745764582400,9.54358251953125,0.0021080411970615387,-0.0011430559679865837,-0.0007814327254891396
1769666745774571500,9.553571533203124,-0.0003133048885501921,0.001623169519007206,-0.0011098003014922142
1769666745784559600,9.5635595703125,-0.0006283563561737537,0.003815470263361931,-0.0024460172280669212
1769666745794548500,9.573548583984374,0.0005740608321502805,0.001256705028936267,0.00023365532979369164
1769666745804537600,9.58353759765625,-0.0003873630193993449,-0.0040694959461688995,0.003145568072795868
1769666745814525700,9.593525634765625,-0.000667261250782758,-0.005885505583137274,0.003654231783002615
1769666745824514300,9.603514404296876,0.001073463587090373,-0.0017546387389302254,-0.00005630939267575741
1769666745834502400,9.61350244140625,0.0007762548048049212,-0.0015226774848997593,-0.0011042631231248379
1769666745844491500,9.623491455078126,-0.0005535547970794141,0.0016115622129291296,-0.0014560665003955364
1769666745854480400,9.63348046875,-0.0015876602847129107,0.001957506872713566,0.0020715566352009773
1769666745864468500,9.643468505859374,-0.001177861005999148,0.0017028881702572107,0.0012431764043867588
1769666745874457600,9.65345751953125,-0.0005847749998793006,0.001614471198990941,0.0015337273944169283
1769666745884445400,9.663445556640625,-0.0004334292025305331,0.00034718774259090424,0.00027972483076155186
1769666745894434600,9.6734345703125,0.00008908298332244158,-0.0000664010876789689,0.0003170089330524206
1769666745904423400,9.68342333984375,0.0000900845043361187,0.0007942201918922365,-0.0023730434477329254
1769666745914411500,9.69341162109375,-0.001527253189124167,0.001983321737498045,-0.00500531168654561
1769666745924400600,9.703400634765625,-0.00010922679211944342,0.003290110733360052,-0.00495150638744235
1769666745934388500,9.713388427734374,-0.0022269724868237972,0.0013308231718838215,-0.002159181982278824
1769666745944377300,9.72337744140625,-0.0016865020152181387,0.001916484790854156,-0.0019012310076504946
1769666745954366500,9.733366455078125,-0.0007301608566194773,0.0020578987896442413,-0.0019014973659068346
1769666745964354600,9.7433544921875,-0.00045766792027279735,0.0030741251539438963,-0.0007939734496176243
1769666745974343400,9.753343505859375,-0.0005647270008921623,0.0020506721921265125,-0.00042406050488352776
1769666745984331500,9.76333154296875,-0.0012346894945949316,0.003404263872653246,-0.00230759778060019
1769666745994320400,9.7733203125,-0.00010630814358592033,0.0027379407547414303,-0.0005014417693018913
1769666746004309500,9.7833095703125,-0.000728112063370645,0.002854591701179743,-0.001662684604525566
1769666746014297600,9.793297607421875,-0.00008229550439864397,0.003492418909445405,-0.0015889150090515614
1769666746024286500,9.803286376953125,-0.0004230377380736172,0.0057366639375686646,-0.0005731186829507351
1769666746034274600,9.813274658203126,0.0015692729502916336,0.006362506188452244,-0.0015220027416944504
1769666746044263700,9.823263671875,0.00026930600870400667,0.0038738723378628492,-0.001955911051481962
1769666746054252300,9.833252197265624,-0.00047797703882679343,0.002391823334619403,-0.0012131552211940289
1769666746064240400,9.843240478515625,0.0002570647047832608,-0.0005219418089836836,-0.0023379737976938486
1769666746074229500,9.8532294921875,0.0006477504502981901,-0.0005815967451781034,0.0022953939624130726
1769666746084217600,9.863217529296875,0.0015379453543573618,-0.0017364334780722857,0.0029862970113754272
1769666746094206500,9.87320654296875,0.00121144182048738,-0.0006410751957446337,0.001583609962835908
1769666746104195600,9.883195556640626,0.0014544636942446232,0.0011284162756055593,0.0014287085505202413
1769666746114183400,9.893183349609375,0.000822495436295867,0.0002929826732724905,0.003264159196987748
1769666746124172500,9.903172607421874,0.00004890782292932272,-0.0007599389646202326,0.0027504495810717344
1769666746134160600,9.91316064453125,0.0014217672869563103,-0.003313644090667367,0.003808523528277874
1769666746144149500,9.9231494140625,0.0018218958284705877,-0.005566857755184174,0.007637409958988428
1769666746154138600,9.933138671875,0.000944916857406497,-0.008998339995741844,0.010057424195110798
1769666746164126500,9.94312646484375,0.0008820225484669209,-0.008870507590472698,0.008980504237115383
1769666746174115300,9.953115234375,0.0029188082553446293,-0.004861118271946907,0.008413783274590969
1769666746184103400,9.963103515625,0.002013017889112234,-0.00022127002011984587,0.00478381710126996
1769666746194092500,9.973092529296874,0.002006892580538988,0.0005212192772887647,0.00042715203016996384
1769666746204081400,9.983081298828125,0.0001252522924914956,0.006080389954149723,-0.0021447394974529743
1769666746214069500,9.993069580078124,-0.002621798310428858,0.006628202274441719,-0.002992423716932535
1769666746224058400,10.003058349609375,-0.0010302141308784485,0.0051040733233094215,-0.0010053711012005806
1769666746234046500,10.01304638671875,-0.000918894074857235,0.001514931209385395,-0.003025112207978964
1769666746244035600,10.02303564453125,-0.0007137706270441413,0.0008401760132983327,-0.005389610305428505
1769666746254024400,10.0330244140625,-0.0008730277186259627,0.0033898865804076195,-0.0058143846690654755
1769666746264012500,10.043012451171874,-0.0020646611228585243,0.011101868003606796,-0.012497789226472378
1769666746274002000,10.053001953125,-0.002476918511092663,0.013169812969863415,-0.021719785407185555
1769666746283990800,10.06299072265625,-0.0020512831397354603,0.009394160471856594,-0.027668341994285583
1769666746293978600,10.072978515625,-0.0033003059215843678,0.014278131537139416,-0.02734024077653885
1769666746303967700,10.0829677734375,-0.00402791379019618,0.019220516085624695,-0.03159049153327942
1769666746313955800,10.092955810546876,-0.0058734845370054245,0.01684071496129036,-0.032539110630750656
1769666746323944700,10.10294482421875,-0.006055651698261499,0.017475256696343422,-0.024015018716454506
1769666746333933800,10.112933837890624,-0.00394056923687458,-0.00010932912118732929,-0.013778358697891235
1769666746343922000,10.122921875,-0.003485740628093481,-0.00325399124994874,-0.013821834698319435
1769666746353910800,10.132910888671875,-0.0027696164324879646,-0.005720078479498625,-0.01324659213423729
1769666746363899000,10.14289892578125,0.00024111417587846518,-0.005203866865485907,-0.018018456175923347
1769666746373887700,10.1528876953125,0.0011338057229295373,-0.0031159482896327972,-0.01658114790916443
1769666746383876900,10.162876953125,0.002570352517068386,-0.0039132991805672646,-0.014309138059616089
1769666746393865000,10.172864990234375,0.0021804659627377987,0.004116930067539215,-0.019103361293673515
1769666746403853800,10.182853759765624,0.0014551350614055991,0.010033410042524338,-0.02460774965584278
1769666746413841700,10.192841552734375,0.0013318307464942336,0.018611449748277664,-0.032454486936330795
1769666746423830800,10.202830810546875,-0.003151372540742159,0.020128654316067696,-0.03866531327366829
1769666746433819600,10.212819580078126,-0.0019572111777961254,0.020559020340442657,-0.04262783005833626
1769666746443807700,10.222807861328125,-0.0019048881949856877,0.014697311446070671,-0.041790883988142014
1769666746453796900,10.232796875,-0.0023024980910122395,0.02131606638431549,-0.04490971192717552
1769666746463784700,10.24278466796875,-0.003881399054080248,0.025797545909881592,-0.04864581301808357
1769666746473773800,10.25277392578125,-0.004320820793509483,0.02969720959663391,-0.048245009034872055
1769666746483762700,10.2627626953125,-0.00872493814677,0.029044561088085175,-0.04736508056521416
1769666746493750800,10.272750732421875,-0.007431973237544298,0.018342114984989166,-0.03933671489357948
1769666746503740000,10.282739990234376,-0.002295931801199913,0.002499854192137718,-0.028431344777345657
1769666746513728000,10.29272802734375,0.002209337893873453,-0.007333069108426571,-0.021909795701503754
1769666746523716600,10.302716552734376,0.0006822943687438965,-0.010020818561315536,-0.015040424652397633
1769666746533705700,10.312705810546875,0.0015518164727836847,-0.003378362162038684,-0.013594861142337322
1769666746543693800,10.32269384765625,-0.00011227501090615988,0.0036827458534389734,-0.017266301438212395
1769666746553682700,10.3326826171875,0.00029865081887692213,0.0094013512134552,-0.02306453511118889
1769666746563670800,10.3426708984375,0.00009476614650338888,0.003978090360760689,-0.008237285539507866
1769666746573660000,10.352659912109376,0.0002463000128045678,-0.0011157381813973188,-0.006750709377229214
1769666746583648800,10.362648681640625,0.0011574571253731847,-0.0021536597050726414,-0.0048143817111849785
1769666746593636900,10.372636962890626,0.0005779532948508859,-0.0008782718796283007,-0.006067398935556412
1769666746603625700,10.382625732421875,-0.0007504716049879789,0.0032070153392851353,-0.007647148799151182
1769666746613613800,10.39261376953125,-0.0022423744667321444,-0.0016982608940452337,-0.005355232860893011
1769666746623603000,10.40260302734375,-0.0005429878365248442,-0.007656998001039028,-0.004300829954445362
1769666746633591800,10.412591796875,0.0002319919876754284,-0.011052262037992477,-0.0034395635593682528
1769666746643579600,10.42257958984375,-0.0008030097233131528,-0.012591652572154999,0.001036483095958829
1769666746653568800,10.43256884765625,0.0002888862509280443,-0.009151381440460682,0.005767056252807379
1769666746663556900,10.442556884765626,0.0003389030462130904,-0.005832727998495102,0.003391105914488435
1769666746673545700,10.452545654296875,-0.0007934729801490903,-0.0012654068414121866,0.0005846666172146797
1769666746683534800,10.462534912109374,-0.0015377126401290298,0.0005788321141153574,0.0006414924282580614
1769666746693522700,10.472522705078125,-0.00006418558768928051,-0.0003293057670816779,-0.0006365587469190359
1769666746703511800,10.48251171875,0.0007617744849994779,-0.000718394061550498,-0.0011967879254370928
1769666746713500000,10.4925,0.00028826447669416666,-0.0010608765296638012,-0.001966973999515176
1769666746723488800,10.50248876953125,-0.0014642371097579598,-0.001375220250338316,-0.004717306699603796
1769666746733478000,10.512477783203124,-0.0010354681871831417,0.0019316268153488636,-0.004689875524491072
1769666746743466000,10.522466064453125,-0.0010668537579476833,0.001874370384030044,-0.0013731105718761683
1769666746753454600,10.53245458984375,-0.0015078731812536716,-0.0003999691689386964,-0.002989915432408452
1769666746763443700,10.542443603515625,0.00009533774573355913,-0.0007428948301821947,-0.00048822071403265
1769666746773431800,10.552431884765625,0.00017363473307341337,-0.00382896582596004,0.003555256873369217
1769666746783421000,10.5624208984375,-0.0003054070984944701,-0.005645953584462404,0.004379831254482269
1769666746793408800,10.57240869140625,0.0009239079663529992,-0.007162090856581926,0.0009542072657495737
1769666746803398000,10.58239794921875,-0.0012036128900945187,-0.005553539842367172,0.003690102370455861
1769666746813385700,10.5923857421875,0.0006403598235920072,-0.005707204341888428,0.004438716918230057
1769666746823374800,10.602374755859374,-0.00022244069259613752,-0.004167541861534119,0.004961716011166573
1769666746833363700,10.61236376953125,-0.000559863168746233,-0.006995818577706814,0.003577671479433775
1769666746843351800,10.622351806640625,-0.0012081657769158483,-0.009623206220567226,0.004131132271140814
1769666746853341000,10.6323408203125,0.0006352743366733193,-0.009033848531544209,0.0016037924215197563
1769666746863329800,10.642329833984375,-0.000028258771635591984,-0.010399339720606804,0.0012727733701467514
1769666746873317600,10.652317626953124,0.0004806712968274951,-0.009693069383502007,0.002992376685142517
1769666746883306800,10.662306640625,-0.00008013041224330664,-0.008279644884169102,0.003581061726436019
1769666746893294800,10.672294921875,-0.0007887976244091988,-0.007854870520532131,0.004490264691412449
1769666746903283700,10.68228369140625,-0.001066574826836586,-0.009192749857902527,0.0036561808083206415
1769666746913272800,10.69227294921875,-0.000003973604179918766,-0.0068497005850076675,0.001548821572214365
1769666746923260700,10.7022607421875,0.00014048442244529724,-0.005865129642188549,0.0007004376966506243
1769666746933249800,10.712249755859375,-0.00034554244484752417,-0.005945824086666107,-0.00140106282196939
1769666746943238000,10.72223779296875,-0.002305082743987441,-0.003607036778703332,-0.0028476230800151825
1769666746953226800,10.732226806640625,-0.0016656577354297042,-0.0007372142281383276,-0.0012342799454927444
1769666746963216000,10.7422158203125,-0.0019404307240620255,-0.002440748503431678,-0.0007177409715950489
1769666746973204000,10.752203857421875,-0.001058391761034727,-0.003149149240925908,-0.0002783194649964571
1769666746983192600,10.762192626953125,0.0002586975460872054,-0.004773943684995174,0.001877875765785575
1769666746993180700,10.7721806640625,-0.00017699564341455698,-0.0047204140573740005,-0.0009413463994860649
1769666747003169800,10.782169677734375,0.0008210530504584312,-0.0026149193290621042,-0.0021236902102828026
1769666747013159000,10.792158935546874,-0.000016511185094714165,-0.0016668341122567654,-0.0028605866245925426
1769666747023146800,10.802146728515625,-0.0009353455388918519,-0.0008751656860113144,-0.0016408811789005995
1769666747033135900,10.812135986328125,-0.00011882034596055746,-0.00350477104075253,-0.0006555116269737482
1769666747043123700,10.822123779296875,0.000053571187891066074,-0.00598355196416378,0.0011929778847843409
1769666747053112800,10.83211279296875,0.0016645173309370875,-0.007253613788634539,0.002577821724116802
1769666747063101700,10.842101806640626,0.00246105226688087,-0.004267766140401363,0.00023588305339217186
1769666747073089800,10.85208984375,-0.001135280355811119,-0.0017814389429986477,-0.0016810600645840168
1769666747083079000,10.862078857421874,0.00025500787887722254,-0.0025750603526830673,0.00008118501864373684
1769666747093066800,10.872066650390625,0.001839588861912489,-0.0097498819231987,0.0015888004563748837
1769666747103055600,10.8820556640625,0.0023328284732997417,-0.012601152993738651,0.004448847379535437
1769666747113044700,10.892044677734376,0.0003743399865925312,-0.009868749417364597,0.004500779323279858
1769666747123032800,10.90203271484375,0.001146666007116437,-0.007417310029268265,0.0032197986729443073
1769666747133022000,10.91202197265625,-0.0007915825117379427,-0.005477729253470898,0.002070111921057105
1769666747143009800,10.922009765625,-0.0004416254232637584,-0.005827402696013451,0.001302322605624795
1769666747152998700,10.93199853515625,-0.00012497557327151299,-0.008835976012051105,0.0020778351463377476
1769666747162987800,10.94198779296875,0.000652298447676003,-0.01149585098028183,0.0031029742676764727
1769666747172975900,10.951975830078124,0.0015977205475792289,-0.009370915591716766,0.0005790963768959045
1769666747182964700,10.96196484375,0.0015725085977464914,-0.005503117106854916,-0.0008987360633909702
1769666747192952800,10.971952880859375,0.0000553057761862874,-0.004788857884705067,-0.0013291025534272194
1769666747202942000,10.98194189453125,-0.001792179886251688,-0.002955271629616618,-0.0023443319369107485
1769666747212930600,10.9919306640625,-0.0035141799598932266,-0.005041858181357384,-0.0016780088189989328
1769666747222918700,11.001918701171874,-0.002765060868114233,-0.004594538826495409,-0.0012988934759050608
1769666747232907800,11.01190771484375,-0.004519551061093807,-0.004058977123349905,-0.006407636217772961
1769666747242896000,11.021895751953124,-0.004231278784573078,-0.007294448558241129,-0.0028733261860907078
1769666747252885000,11.031885009765626,-0.0020224531181156635,-0.010180516168475151,-0.004412366542965174
1769666747262873900,11.041873779296875,-0.003815185744315386,-0.007457256317138672,-0.0038754951674491167
1769666747272862000,11.051862060546876,-0.0013078197371214628,-0.00639066006988287,-0.002132988767698407
1769666747282851000,11.06185107421875,-0.0006283440161496401,-0.007563074119389057,0.0037037741858512163
1769666747292839700,11.071839599609374,0.0007543690735474229,-0.00799956638365984,0.0025223959237337112
1769666747302827800,11.081827880859375,0.0004881476052105427,-0.008103249594569206,0.0018949643708765507
1769666747312817000,11.09181689453125,-0.00037631444865837693,-0.007232929114252329,0.00025712023489177227
1769666747322805000,11.101804931640626,0.0005534937372431159,-0.0032489297445863485,0.0028299118857830763
1769666747332793900,11.1117939453125,-0.0008103110594674945,-0.004194351844489574,0.0055764298886060715
1769666747342783000,11.121782958984374,0.00040166405960917473,-0.004840611480176449,0.002323832828551531
1769666747352770800,11.131770751953125,0.0002266943920403719,-0.005865396000444889,0.004083649720996618
1769666747362760000,11.141760009765624,-0.0003358572139404714,-0.007424765266478062,0.0044852993451058865
1769666747372747800,11.151747802734375,0.000022870604880154133,-0.005961092188954353,0.0025696875527501106
1769666747382737000,11.16173681640625,0.0009848722256720066,-0.0044059837237000465,0.00019816565327346325
1769666747392726000,11.17172607421875,0.0005931212799623609,-0.000728158513084054,0.0006540988106280565
1769666747402713900,11.1817138671875,-0.000010398798622190952,0.007584277540445328,-0.004448174964636564
1769666747412702700,11.19170263671875,0.00040026067290455103,0.004339481703937054,-0.0007959161885082722
1769666747422690800,11.20169091796875,0.00035905197728425264,0.00012476323172450066,0.004639762919396162
1769666747432680000,11.211679931640624,0.0009987432276830077,-0.0019378550350666046,0.0021078954450786114
1769666747442668800,11.221668701171875,0.0016027777455747128,-0.0019244516734033823,0.0016697957180440426
1769666747452657000,11.231656982421875,0.0019588423892855644,0.0018055717227980494,0.0009195832535624504
1769666747462645800,11.241645751953126,-0.0007389693055301905,0.005916782654821873,-0.00032835244201123714
1769666747472633900,11.2516337890625,-0.000024709501303732395,0.005823305808007717,0.0014820644864812493
1769666747482623000,11.261623046875,0.0019124401733279228,0.002763154683634639,0.0012017600238323212
1769666747492611800,11.27161181640625,0.002073827665299177,0.0022808562498539686,0.0012544908095151186
1769666747502600000,11.281599853515624,0.000504961353726685,0.00014225044287741184,0.0032288318034261465
1769666747512589000,11.291589111328125,0.0005473056808114052,0.00046049815136939287,0.0012706094421446323
1769666747522577000,11.301576904296875,0.0006258675130084157,0.0025458429008722305,0.0003812687937170267
1769666747532565800,11.311565673828126,0.0008690141839906573,0.0028782053850591183,0.0015778271481394768
1769666747542555000,11.321554931640625,0.0005247711669653654,0.0025192101020365953,0.0004077032208442688
1769666747552543000,11.33154296875,0.0014795144088566303,0.001949826255440712,0.0005110339261591434
1769666747562531800,11.34153173828125,0.0010101156076416373,0.00155159633141011,0.0006168689578771591
1769666747572519700,11.351519775390624,0.0016804331680759788,0.0003294717753306031,-0.0023930356837809086
1769666747582508800,11.3615087890625,0.0017265718197450042,0.0007666705641895533,-0.0012389726471155882
1769666747592498000,11.371497802734375,-0.0007504342938773334,0.002426086226478219,0.000043872278183698654
1769666747602486000,11.381486083984376,0.0007585266139358282,-0.0008117828983813524,0.0008983793668448925
1769666747612475000,11.391474853515625,0.0007795656565576792,0.00003643403761088848,0.0038475641049444675
1769666747622463000,11.401462890625,-0.00023741764016449451,-0.0021710593719035387,0.002012477722018957
1769666747632451800,11.411451904296875,0.0017897805664688349,-0.0006810207851231098,0.004166975151747465
1769666747642440700,11.421440673828124,0.0004118490032851696,0.0007583287660963833,0.0014432388124987483
1769666747652428800,11.4314287109375,0.0014592701336368918,-0.00035593786742538214,0.0015966369537636638
1769666747662418000,11.44141796875,-0.000292257871478796,-0.00009991985280066729,0.000245905015617609
1769666747672406000,11.451406005859376,0.00026594067458063364,0.0009371150517836213,0.0009761436376720667
1769666747682395000,11.461394775390625,0.00022122240625321865,0.000793837767560035,-0.000851751770824194
1769666747692383700,11.4713837890625,0.00032694987021386623,-0.0004253573715686798,-0.0007409644313156605
1769666747702371800,11.481371826171875,-0.0007595223723910749,0.003273862414062023,-0.0017846031114459038
1769666747712361000,11.49136083984375,-0.0004828199162147939,0.003027786500751972,-0.0013923197984695435
1769666747722349800,11.501349853515626,0.00003659585490822792,0.003670227248221636,0.000020914478227496147
1769666747732338000,11.511337890625,-0.0002624770859256387,0.004293407313525677,0.0012917749118059874
1769666747742327000,11.5213271484375,-0.0003394216182641685,0.0051011452451348305,0.0012757920194417238
1769666747752315000,11.53131494140625,-0.0006390272174030542,0.004501934163272381,0.0015002964064478874
1769666747762303700,11.5413037109375,-0.0001578967785462737,0.0036436866503208876,0.00009966106154024601
1769666747772292900,11.55129296875,-0.0004921234794892371,0.003409861121326685,-0.0046881698071956635
1769666747782281000,11.561281005859374,0.00028122332878410816,0.00458662211894989,-0.006492014043033123
1769666747792269800,11.571269775390626,-0.00312309549190104,0.006133119575679302,-0.004401166923344135
1769666747802257700,11.581257568359375,-0.0013927079271525145,0.0006225950201041996,-0.002485531847923994
1769666747812246800,11.591246826171876,-0.0013610163005068898,-0.0013601284008473158,0.0006308993324637413
1769666747822236000,11.60123583984375,0.0009610155830159783,-0.0013157427310943604,0.0010740251746028662
1769666747832224000,11.61122412109375,-0.00004965404514223337,0.0006443439051508904,-0.001197385136038065
1769666747842212900,11.621212890625,-0.0011324069928377867,0.0006635175086557865,-0.004853034391999245
1769666747852201000,11.631200927734374,-0.0016495928866788745,0.0028497064486145973,-0.004153687506914139
1769666747862189800,11.64118994140625,0.0005354996537789702,-0.0034042801707983017,-0.00321242306381464
1769666747872178700,11.6511787109375,0.001475062919780612,-0.008349237963557243,0.0005298508331179619
1769666747882166800,11.661166748046876,-0.0003465038607828319,0.0008761294302530587,-0.004519990179687738
1769666747892156000,11.671156005859375,-0.0021004616282880306,-0.0011923478450626135,-0.0025409949012100697
