time,seconds_elapsed,z,y,x
1769657700252387000,0.068386962890625,-0.22360183463692665,0.172470197814703,-0.11042246857210992
1769657700262375200,0.078375244140625,-0.09336027461215853,0.08748305314183234,-0.1480240310832858
1769657700272363300,0.08836328125,0.020405074647068977,0.004319032242894172,-0.13396525672301648
1769657700282351000,0.09835107421875,0.08900222553312778,-0.13984861567318438,-0.008120470352470875
1769657700292339200,0.108339111328125,0.17876140691339967,-0.22395254777073859,0.03349661141037941
1769657700302327000,0.1183271484375,0.1052402436286211,-0.15247545753419398,0.12234729964360594
1769657700312315100,0.128315185546875,0.12479513118714093,-0.07267185297906398,0.11543649734184146
1769657700322303000,0.138302978515625,0.20374767187088727,-0.04141454492807388,0.0221915196724236
1769657700332291000,0.148291015625,0.1994467598065734,0.007417582780122756,-0.06624357349723577
1769657700342279200,0.158279052734375,0.1790267798513174,0.04860241060554981,-0.05392959697768092
1769657700352267000,0.16826708984375,0.15241262143105266,0.016252046620845794,-0.04090995640680194
1769657700362255000,0.178255126953125,0.19435849675685166,-0.032848376634716986,-0.004258095835894346
1769657700372243200,0.1882431640625,0.15591303076744079,-0.07316051327884197,0.06488514462560414
1769657700382231000,0.19823095703125,0.03143354140073061,-0.10355565154254436,0.12060206341147423
1769657700392219100,0.20821923828125,-0.06962474036812782,-0.09763386027812958,0.10939999365657567
1769657700402207200,0.218207275390625,-0.10631591003611683,-0.06324234585464,0.04904810854643583
1769657700412196000,0.228196044921875,-0.12539689647257327,-0.04187164104580879,-0.009575637596845626
1769657700422184200,0.23818408203125,-0.1169166528970003,-0.05504910252690315,-0.06572407966777682
1769657700432172000,0.248172119140625,-0.02432575522214174,0.004827566286921501,-0.07118965159729122
1769657700442160000,0.25816015625,0.07274784082472324,-0.00956979237794876,-0.0728266051493585
1769657700452148200,0.268148193359375,0.11665186448097228,-0.024981881043314932,-0.04866203183829784
1769657700462136000,0.278135986328125,0.120169809474051,-0.0037263270467519758,0.01586114760711789
1769657700472124200,0.288124267578125,0.10637070896327495,-0.01982756702005863,0.04252338295280933
1769657700482112300,0.2981123046875,0.08433774085342884,-0.03143324913978576,0.0412505865380168
1769657700492100000,0.30810009765625,0.05111848507970571,-0.03107961339652538,0.04126140019297599
1769657700502088200,0.318088134765625,0.022664251750707624,0.020459435182809828,0.021270313174277543
1769657700512076000,0.328075927734375,-0.028719314005970952,-0.005646481454372406,-0.024777152251452206
1769657700522064100,0.338064208984375,0.01543137788772583,0.02785246804356575,-0.019907208127528428
1769657700532052000,0.348052001953125,0.036017800451070066,0.017760113096237182,-0.024173341139405963
1769657700542040000,0.3580400390625,0.05375146393179893,-0.039382162317633626,-0.03802884801253676
1769657700552028200,0.368028076171875,0.10799231881573795,-0.07345335874557495,-0.018815759629011154
1769657700562016000,0.37801611328125,0.13633052454963326,-0.06380407139062881,0.0011290040299296378
1769657700572004000,0.388004150390625,0.08154781787395476,-0.04768588028252124,-0.00744184043854475
1769657700581992200,0.3979921875,-0.002685293561220169,-0.0925040961742401,-0.015383885484188795
1769657700591980300,0.407980224609375,0.03489595681428909,0.015330840122699736,-0.09882716171592473
1769657700601968000,0.417968017578125,0.00588569703772664,0.07178805588185787,-0.07709332268312573
1769657700611956200,0.427956298828125,-0.08228533836826682,-0.008601824128627776,-0.04339870448261499
1769657700621944000,0.437944091796875,-0.02748597281873226,-0.05652969647347927,-0.02118570363074541
1769657700631932000,0.447931884765625,0.06659706311002374,-0.042025370302796364,0.034860739370435476
1769657700641920000,0.457919921875,0.07485884162932634,-0.0352834948271513,0.0902560249865055
1769657700651908000,0.467908203125,0.0948411608196795,-0.022248072165250776,0.12378288540467619
1769657700661896200,0.477896240234375,0.1272657590843737,-0.009871990194916724,0.10678440433070063
1769657700671884000,0.487884033203125,0.11465046153068542,-0.026240941193699834,0.07207432547733188
1769657700681872100,0.4978720703125,0.0412263288795948,-0.01586100147664547,-0.004249181877076625
1769657700691860200,0.507860107421875,-0.05696984145641327,-0.010084171640872955,-0.06657222092971206
1769657700701848000,0.51784814453125,-0.07591478042304516,-0.03461889343857765,-0.07590119028910994
1769657700711836200,0.527836181640625,-0.049717093849182124,-0.05459668258428573,-0.03568666880056262
1769657700721824300,0.53782421875,-0.04496010858044028,-0.03555763559341431,0.01339315005838871
1769657700731812000,0.54781201171875,-0.03135945325121283,-0.05603226834535598,0.04753492750450968
1769657700741800200,0.55780029296875,0.0062765960514545435,-0.022255086427927017,0.06778802646026015
1769657700751788000,0.5677880859375,0.11222308825328946,0.012909750455617904,0.05841127243638038
1769657700761776000,0.577776123046875,0.12099193951189517,0.030859833166003225,-0.026020722571760413
1769657700771764000,0.587763916015625,0.02184358301758766,0.02796118911504745,-0.07521203898116946
1769657700781752000,0.597751953125,-0.005709317557513713,0.009888941329717635,-0.07196063596978783
1769657700791740200,0.607740234375,0.013087152849137782,0.0018277999490499495,-0.028647710074484346
1769657700801729300,0.617729248046875,0.002729424963891506,-0.05229541990458965,0.023672259749472138
1769657700811717000,0.627717041015625,0.025937574332952497,-0.08365268119871616,0.0377145213663578
1769657700821705200,0.637705322265625,0.03861819220781326,-0.0869365251749754,0.033013211807608606
1769657700831693000,0.647693115234375,0.03917436478585005,-0.05045066882073879,0.014678952085226774
1769657700841681000,0.657680908203125,-0.02167567910477519,-0.027701076874136924,-0.019029256249219178
1769657700851669000,0.6676689453125,-0.09173428084552288,-0.010811316871643066,-0.05712576267048716
1769657700861657000,0.677656982421875,-0.05641133079081773,-0.0028781857848167417,-0.04451894068419933
1769657700871645200,0.687645263671875,-0.03425692825838923,-0.018746786046028138,-0.005469517452269792
1769657700881633000,0.697633056640625,-0.02178863795995712,-0.0557657263636589,0.043322424376010894
1769657700891621000,0.70762109375,0.03567176349237561,-0.05690612857043743,0.04295286041125655
1769657700901609200,0.717609130859375,0.06469663631618022,-0.04963058460950851,0.03911079803034663
1769657700911597000,0.72759716796875,0.057711015212535854,-0.046052141600847245,0.016165537381172178
1769657700921585200,0.737585205078125,0.050232934416830535,-0.04393091166317463,0.004662438853085041
1769657700931573200,0.7475732421875,0.02654138544499874,-0.039897710624337196,-0.006145955409109592
1769657700941561300,0.757561279296875,0.02378784895315766,-0.02326397120952606,-0.029564386527985334
1769657700951549000,0.767548828125,-0.0004417524181306362,-0.016790975803136824,-0.04420242208093404
1769657700961537000,0.777537109375,-0.00631444384381175,-0.027685294783115384,-0.02154445394054055
1769657700971525000,0.787525146484375,-0.005749065046012402,-0.03125613900721073,-0.032521628898382185
1769657700981513000,0.797512939453125,0.004265986881405115,-0.0502758967757225,-0.02827244702130556
1769657700991501000,0.8075009765625,0.04215907968506217,-0.053825698211789126,-0.028301234724372622
1769657701001489200,0.8174892578125,0.06943652431964874,-0.04867664488554001,-0.012167553786188364
1769657701011477000,0.82747705078125,0.06600654987096786,-0.02167933236658573,-0.010322364310920238
1769657701021465000,0.837465087890625,0.020865970157086848,-0.016494623205065725,0.01843114422559738
1769657701031453400,0.847453369140625,-0.015241700534522533,-0.017623919495940207,0.014527414785325526
1769657701041441300,0.857441162109375,-0.055804012547433376,-0.0456400536686182,0.0014649579860270023
1769657701051429400,0.867429443359375,-0.05176277433261275,-0.0442892235815525,-0.007938684044778347
1769657701061417200,0.877417236328125,-0.04668079489320516,-0.027349779218435285,0.018337766853719947
1769657701071405300,0.8874052734375,-0.07991846310645341,-0.017664251506328582,0.02570420396849513
1769657701081393200,0.89739306640625,-0.0877946033090353,-0.006795651489496231,0.031943098358064886
1769657701091381200,0.90738134765625,-0.05849295937046408,-0.004281622841954231,0.05569193047508597
1769657701101369300,0.917369384765625,0.013814005818963051,-0.04063537724912166,0.0613014409199357
1769657701111357200,0.927357177734375,0.08704071620181203,-0.05984218202233314,0.07216814124062657
1769657701121345300,0.93734521484375,0.09939224825277924,-0.09900164149999618,0.07073883908987044
1769657701131333400,0.94733349609375,0.07550941449254751,-0.08985036679506302,0.062229807811230414
1769657701141321500,0.957321533203125,0.031077421439439055,-0.06671674396693707,0.040390608707815405
1769657701151309300,0.967309326171875,-0.030676001031696796,-0.04874386490285396,0.03466507066786289
1769657701161297400,0.97729736328125,-0.08144669558703899,-0.04025543802082538,0.011231003588438034
1769657701171285500,0.987285400390625,-0.058413610523939126,-0.004334229812026024,-0.025301029995083806
1769657701181273300,0.9972734375,-0.05759615666121244,-0.00010989011526107787,-0.038221594105660915
1769657701191261200,1.00726123046875,-0.06985840299353004,0.0029062428355216977,-0.01658200922757387
1769657701201249300,1.017249267578125,-0.016064122833311555,-0.005984919628500938,0.016568857485055922
1769657701211237400,1.0272373046875,0.018345219507813454,-0.0568593668192625,0.05619783417060971
1769657701221226200,1.037226318359375,0.08252923012673855,-0.09001461744606494,0.06603504531309008
1769657701231214300,1.04721435546875,0.13033157639577983,-0.11342764173746109,0.05361468580961227
1769657701241202400,1.057202392578125,0.11012158592939376,-0.10162672930657864,0.046279374485462904
1769657701251190500,1.0671904296875,0.0496453437872231,-0.08256897761523724,0.00903977715447545
1769657701261178400,1.077178466796875,-0.014306611641496419,-0.05452303282618522,-0.031727702041715385
1769657701271166200,1.087166259765625,-0.10994140705689787,-0.04538227951526642,-0.04978723647594452
1769657701281154300,1.097154296875,-0.09638049921616912,-0.0020586860954761505,-0.04374211109280586
1769657701291142100,1.10714208984375,-0.047424306736886496,0.005294014754891396,-0.04374211109280586
1769657701301130200,1.117130126953125,-0.05173661697804927,0.01626607514619827,-0.044790012710541484
1769657701311118300,1.127118408203125,-0.028760230538249013,0.013416530933976172,-0.039955432160943744
1769657701321106400,1.1371064453125,0.01452069278359413,-0.0031359599381685253,-0.0017211247041821478
1769657701331094300,1.14709423828125,0.03981646208167076,-0.038898178192973136,0.037841947138309476
1769657701341082400,1.157082275390625,0.03458879056125879,-0.08952361905872822,0.05749576502665877
1769657701351070500,1.167070556640625,0.02146276700645685,-0.08896306256651877,0.05385302461013198
1769657701361058300,1.177058349609375,0.034518063412606714,-0.03800736683309078,0.036259207991510625
1769657701371046400,1.18704638671875,0.013157295475900173,-0.024631752431392668,0.0517233191050589
1769657701381034500,1.197034423828125,-0.0016480594679713248,-0.014709493353962898,0.030502251899987457
1769657701391022000,1.20702197265625,-0.028095629149675366,-0.012167407655715941,-0.001110007068514824
1769657701401010200,1.21701025390625,-0.06397694373950362,-0.036571196550130844,-0.0003914835356175899
1769657701410998300,1.226998291015625,-0.07898995008468628,-0.011958733341097831,-0.01415668177679181
1769657701420986400,1.236986328125,-0.0762161014571786,-0.004259995532035828,0.0008421499125659466
1769657701430974200,1.24697412109375,-0.06854571295976639,-0.019853870505094528,0.01979030374959111
1769657701440962300,1.25696240234375,-0.03172375651896,-0.016316344028711318,0.0050813949175179006
1769657701450950400,1.266950439453125,0.004232084611803293,-0.019724106645584105,0.006666618282347917
1769657701460938200,1.276938232421875,0.0439995929852128,-0.016380056914687156,0.006984159798920154
1769657701470926300,1.28692626953125,0.06052665715515613,-0.0031201778471469876,0.01123962528631091
1769657701480914400,1.29691455078125,0.05512742846012115,-0.007868249157071114,-0.03194675161987543
1769657701490902500,1.306902587890625,0.02100654767155647,-0.024176994401216505,-0.038794279427081343
1769657701500890400,1.316890380859375,0.008277706740796566,-0.08020341752767562,-0.0761237469986081
1769657701510878200,1.326878173828125,0.009312895007431507,-0.13628712379932403,-0.1288864921540022
1769657701520866300,1.3368662109375,-0.0009701602064073085,-0.10683306577801704,-0.07751914687976241
1769657701530854100,1.346854248046875,-0.03791603528782725,-0.10018822093605995,-0.03555851237624883
1769657701540842200,1.35684228515625,-0.05421309009417891,-0.07612228569388389,0.005706394948065281
1769657701550830300,1.366830322265625,-0.041836861993372436,-0.049475686308741565,-0.005706248817592859
1769657701560818400,1.376818359375,-0.04147825781404972,-0.04423837017714977,-0.04500789324492216
1769657701570806300,1.38680615234375,-0.04322656278610229,-0.03344984965920448,-0.0648125177808106
1769657701580794400,1.39679443359375,-0.10824059448838233,-0.02376198385953903,-0.007887392248958349
1769657701590782500,1.406782470703125,-0.1383615919858217,-0.07123977434933185,-0.043781274059414864
1769657701600770300,1.416770263671875,-0.15438801315724848,-0.08578267896473407,-0.06620251083448529
1769657701610758400,1.42675830078125,-0.17804697503373026,-0.058030748686194414,-0.04782353518754243
1769657701620746500,1.43674658203125,-0.2309890222787857,-0.10517536169886589,-0.00790536629706621
1769657701630734000,1.446734130859375,-0.19519275562390684,-0.13191723815202713,-0.00041822541207075115
1769657701640722200,1.45672216796875,-0.10518412952721118,-0.18107202194333075,0.006159545543044805
1769657701650710300,1.466710205078125,0.0025813947953283786,-0.2336637944459915,-0.04062091033235192
1769657701660698400,1.476698486328125,0.0012678279787302017,-0.12896189547777176,-0.036938714688271285
1769657701670686200,1.486686279296875,-0.05026522925123572,-0.07317980250120162,0.016519319254904984
1769657701680675300,1.49667529296875,-0.06976853275299072,-0.07199322306513786,0.1522089155524969
1769657701690663400,1.506663330078125,0.03709346685856581,-0.030892566391825676,0.21509104979261753
1769657701700651500,1.516651611328125,0.008486965577304363,0.05877484505176544,0.23330898965895175
1769657701710639400,1.526639404296875,-0.03619578736647963,-0.03725859429240227,0.14216127652972935
1769657701720627200,1.536627197265625,0.1043991166293621,-0.1644704312324524,0.1586879023082554
1769657701730615300,1.546615234375,0.12370850499421357,-0.2146983972132206,0.4626055288061499
1769657701740603100,1.55660302734375,0.18544336889535187,-0.17666005071997642,0.5164553385458887
1769657701750591200,1.56659130859375,0.15699088913202286,-0.35243162816762924,0.3200130212523043
1769657701760579300,1.576579345703125,0.1014496191740036,-0.3067541650980711,0.3942801805987954
1769657701770567400,1.5865673828125,0.05940744386687875,-0.18584288960695267,0.3902097162894904
1769657701780555300,1.59655517578125,0.4181804038852453,0.21661621353328225,0.29069822557121516
1769657701790543400,1.60654345703125,0.6423581387139856,0.476591091799736,0.1949880268320441
1769657701800531500,1.616531494140625,0.3289303410708904,0.5216097986996173,0.06994228188470006
1769657701810519300,1.626519287109375,-0.1372819800555706,0.3202127816081047,0.21048457891046998
1769657701820507400,1.63650732421875,-0.8205038979470729,-0.2712263401210308,0.3435810899749398
1769657701830495200,1.6464951171875,-0.7834066316962242,-0.5244593429118395,0.3250938316479325
1769657701840483300,1.6564833984375,-0.27326091468855734,-0.5885328788936138,0.3657446987271309
1769657701850471200,1.66647119140625,0.056703445605188606,-0.5140928471982479,0.4771028407141566
1769657701860459300,1.676459228515625,0.012798252905160188,-0.3679495152950287,0.4741533432587981
1769657701870447400,1.686447265625,-0.13972776577249169,-0.24563071109354495,0.40770255675166844
1769657701880435200,1.696435302734375,-0.015729484051465986,-0.10365735835134983,0.26208266420066356
1769657701890423300,1.70642333984375,0.08804536319971085,0.05580664289593696,0.15738938693031668
1769657701900411400,1.716411376953125,0.07627367686331271,0.10113748448491096,0.04814297640025615
1769657701910399500,1.7263994140625,-0.038122371514886615,0.02601122409105301,-0.053370063398778436
1769657701920387300,1.73638720703125,-0.09479352228567003,0.003804652979969978,-0.02994417962580919
1769657701930375400,1.74637548828125,-0.10343129451051354,-0.08118775238990783,-0.011726385889947413
1769657701940363500,1.756363525390625,-0.10090966707840561,-0.14368775544464588,0.07937851101085543
1769657701950351400,1.766351318359375,-0.06942498001232743,-0.16025836649537087,0.13560630192831158
1769657701960339200,1.776339111328125,-0.061398325423151254,-0.17127134341895578,0.17945874152779578
1769657701970327300,1.786327392578125,-0.034324440536648036,-0.1445937643736601,0.23089622942879795
1769657701980315100,1.796315185546875,-0.03194002961814403,-0.07831599634587764,0.19375147077441215
1769657701990303200,1.80630322265625,-0.16638634785637257,-0.12619827598333358,0.1790788022994995
1769657702000291300,1.816291259765625,-0.16925240481197834,-0.14745441450178623,0.17840294886454938
1769657702010279400,1.826279541015625,-0.06599237521514296,-0.08603460789918899,0.157964118078351
1769657702020267300,1.836267333984375,0.008207710244506597,-0.005833528459072113,0.17289324553236365
1769657702030255600,1.846255615234375,0.00682487758398056,0.04592120869755745,0.2481917937532067
1769657702040243500,1.856243408203125,-0.09568331073224544,0.0105178868830204,0.33646438983753324
1769657702050231600,1.8662314453125,-0.15400515131950376,-0.05703589242994785,0.4035869381263852
1769657702060219600,1.8762197265625,-0.165180771458894,-0.025678046613931655,0.38511677706465125
1769657702070207200,1.886207275390625,-0.13760229805111884,-0.06656535279750823,0.30659049896895885
1769657702080195300,1.8961953125,-0.08819982310906052,-0.07126900044381618,0.35125089395046233
1769657702090183400,1.906183349609375,0.005749357306957244,0.006419803914427757,0.34752982760071754
1769657702100171300,1.916171142578125,0.08327741814553737,0.035195232021808624,0.2593763278514147
1769657702110159400,1.926159423828125,0.1135708496004343,-0.04751987606585026,0.18315248147919774
1769657702120147500,1.9361474609375,0.12955387002155183,-0.09786007024943828,0.13408040753528475
1769657702130135600,1.946135498046875,0.12468261072337626,-0.11784779626727103,-0.0693107059828937
1769657702140123400,1.956123291015625,0.07857844667434692,-0.05830079779922962,-0.21503712764829397
1769657702150111500,1.966111572265625,-0.0338799847047776,-0.038970074385404584,-0.33454686577841636
1769657702160100400,1.976100341796875,-0.13730711449682712,-0.04917115040421485,-0.4274744480617344
1769657702170088400,1.98608837890625,-0.16548223862349987,-0.02633972539305687,-0.4565373148083687
1769657702180076300,1.996076171875,-0.13264043786004184,0.033520576807856556,-0.48424832855463024
1769657702190064400,2.006064453125,-0.051760436245054005,0.05531622903048992,-0.4449322172105312
1769657702200052500,2.016052490234375,0.055808542592078444,0.07460662043392657,-0.3777040165901184
1769657702210040300,2.026040283203125,0.159450557243824,0.03674363050758839,-0.31341786077097056
1769657702220028400,2.0360283203125,0.21320143665373323,-0.017390110740065575,-0.25324352418482304
1769657702230016500,2.0460166015625,0.23974114159829912,-0.0460147321999073,-0.19685981205329298
1769657702240004600,2.056004638671875,0.17834880752451718,-0.08822948759496212,-0.14593538824096322
1769657702249992400,2.065992431640625,0.1220972704052925,-0.12560673983097076,-0.19251228436827658
1769657702259980500,2.07598046875,0.13625322152972222,-0.18130641522109509,-0.27909020536392926
1769657702269968400,2.085968505859375,0.17453122199773788,-0.23792846615314484,-0.3782058286324143
1769657702279956200,2.095956298828125,0.20979308951497078,-0.14338731119334697,-0.2703510185912251
1769657702289944300,2.1059443359375,0.13575345531404018,0.05298515573441982,-0.12859993029758332
1769657702299932400,2.115932373046875,0.1034884315252304,0.2183276936262846,-0.02216390101313591
1769657702309920500,2.12592041015625,0.08891396272778511,0.2606733819246292,-0.02818535325974226
1769657702319908400,2.135908447265625,0.12335925316512585,0.22570260630846023,0.004841448681801557
1769657702329896400,2.145896484375,0.15685586457550524,0.11711948199272156,-0.03479921844154596
1769657702339884500,2.155884521484375,0.2788596114784479,0.06226794786453247,-0.1705937364183366
1769657702349872400,2.165872314453125,0.30614757750704885,0.02295417460799217,-0.2809834717646241
1769657702359860500,2.175860595703125,0.2324696162253618,0.026850597524642944,-0.27948241955190894
1769657702369848600,2.1858486328125,0.1650233158748597,0.10762450841665268,-0.3712906424164772
1769657702379836700,2.195836669921875,0.117788175034523,0.20253098955750465,-0.47098611139953134
1769657702389824500,2.205824462890625,-0.04905884913615882,0.22177637277543544,-0.5272162404045462
1769657702399812400,2.215812255859375,-0.1680599436243996,0.1873141312032938,-0.5823483450397848
1769657702409800400,2.225800537109375,-0.1249420653771609,0.1842898149460554,-0.6173191206559538
1769657702419788300,2.235788330078125,-0.09197912245206534,0.10198854835629463,-0.6022041152410209
1769657702429776400,2.2457763671875,-0.0601659706166014,-0.010120411998033523,-0.4781539572022855
1769657702439764500,2.255764404296875,0.07606153194997459,-0.06982640042006968,-0.38498350607380266
1769657702449752300,2.26575244140625,0.12622520052287728,-0.09109949007332324,-0.27531989304497834
1769657702459740400,2.275740478515625,0.11927344515621661,-0.10782266133725643,-0.1798848579853773
1769657702469728500,2.285728515625,0.13653320751488207,-0.10291618459522724,-0.142642191914469
1769657702479716600,2.295716552734375,0.13631225824058055,-0.02527121937870979,-0.11915201073363423
1769657702489704400,2.305704345703125,0.049453474476933476,-0.003938508492708206,-0.18650836777836083
1769657702499692500,2.315692626953125,-0.12143672413732856,-0.0670154346525669,-0.17296105007156728
1769657702509680400,2.325680419921875,-0.029288565261289475,-0.16259470048844812,-0.12619988341853022
1769657702519668200,2.335668212890625,0.3132534639894962,-0.13342004393041132,-0.13288345283567904
1769657702529656300,2.34565625,0.5231179017076268,-0.14056173237860203,-0.1486107449300587
1769657702539644400,2.35564453125,0.5366028217026964,-0.17226210802197456,-0.08259338140413165
1769657702549632500,2.365632568359375,0.5181301764229312,-0.21824761412739752,-0.07130874793231487
1769657702559620400,2.375620361328125,0.4774456993350759,-0.24105624278485774,-0.08171133787259459
1769657702569608400,2.3856083984375,0.4553419675439596,-0.16858546533584592,-0.01618979503959417
1769657702579596500,2.395596435546875,0.49451662459075446,0.009582651859521864,0.010178571926057338
1769657702589584400,2.40558447265625,0.447860671877861,0.008191489762067794,-0.02727992885261774
1769657702599572500,2.415572509765625,0.3738982310989871,-0.0582405920445919,-0.007259031217545271
1769657702609560600,2.425560546875,0.35969668726716186,-0.042130584242939945,-0.08172931192070246
1769657702619548700,2.435548583984375,0.315810747256875,-0.02554185301363468,-0.15441796990409493
1769657702629536500,2.44553662109375,0.2565466573834419,0.06448913104534149,-0.20958514585271476
1769657702639525400,2.455525390625,0.16588908412503078,0.14436872344613075,-0.29333383477181196
1769657702649513500,2.465513427734375,0.10410627116262912,0.2814683326721191,-0.33707974525690076
1769657702659501600,2.47550146484375,0.056664136508107185,0.3373778514206409,-0.3643921150743961
1769657702669489400,2.485489501953125,0.024666239222884176,0.31390579041838645,-0.3469496896252036
1769657702679477500,2.4954775390625,-0.04330194784356281,0.17606150030493736,-0.37788814098536966
1769657702689465600,2.505465576171875,-0.044092805960308755,0.09423545001149176,-0.37169001699760557
1769657702699453400,2.515453369140625,-0.019403194994991643,0.0055681555211544035,-0.3718205115094781
1769657702709441500,2.525441650390625,-0.04580546423024498,-0.060817164534330365,-0.37388971899896856
1769657702719429400,2.535429443359375,-0.07353110015690326,-0.05510170949697494,-0.33098362033888695
1769657702729417500,2.54541748046875,-0.12504326072931288,-0.03539338494241238,-0.2702005042046308
1769657702739405300,2.5554052734375,-0.13106208262741564,0.010171849924325942,-0.18939970530569553
1769657702749393400,2.565393310546875,-0.10656652379631995,0.013141221123933792,-0.09923238151594996
1769657702759381500,2.575381591796875,-0.10296762252151966,0.03338496772944927,-0.061862728064507246
1769657702769369300,2.585369384765625,-0.09567103577256202,0.06266542274951935,-0.010764847381412982
1769657702779357400,2.595357421875,-0.14831658428907393,0.08148410498797894,0.07574819168448448
1769657702789345500,2.605345458984375,-0.1868342387318611,0.12588672581613064,0.1810122545801103
1769657702799333400,2.61533349609375,-0.24819091697037218,0.036190672799944874,0.21043577133268115
1769657702809321500,2.625321533203125,-0.2825046899825334,-0.034301498052477834,0.22164982378631828
1769657702819309600,2.6353095703125,-0.26556816822886464,-0.09490531209707259,0.2014372029714286
1769657702829297700,2.645297607421875,-0.2516407651633024,-0.12454700164496899,0.21966361840516327
1769657702839285200,2.65528515625,-0.29442542940080163,-0.15006488926112652,0.230479319190979
1769657702849273300,2.6652734375,-0.3396984033226967,-0.1486094297558069,0.20853169127702711
1769657702859261400,2.675261474609375,-0.33863924965858455,-0.15758242528438568,0.25315686881467697
1769657702869249300,2.685249267578125,-0.3439092990159988,-0.17848025188446043,0.23084902928620576
1769657702879237400,2.6952373046875,-0.3249392256081104,-0.13289923492670058,0.3231969119854271
1769657702889225500,2.7052255859375,-0.3194435508012771,-0.10410627116262912,0.4061003822520375
1769657702899213600,2.715213623046875,-0.36775428498387336,-0.17519757695198057,0.4774307574942708
1769657702909201400,2.725201416015625,-0.4470212984442711,-0.2209627183049917,0.5029499602846801
1769657702919189500,2.735189453125,-0.4759235678017139,-0.2125543709218502,0.6088835930049419
1769657702929177600,2.745177490234375,-0.4487164119243622,-0.19161562778949737,0.8063570069119333
1769657702939165400,2.75516552734375,-0.4731693006575107,-0.19902385821938515,0.9502738949373364
1769657702949153500,2.765153564453125,-0.5548340229094029,-0.1675327414125204,1.087112953530997
1769657702959141400,2.775141357421875,-0.5741945569396019,-0.1443219616949558,1.1964325754277407
1769657702969129500,2.78512939453125,-0.5676140095055103,-0.22749182781279087,1.2270882643237708
1769657702979117300,2.795117431640625,-0.47193011425137515,-0.24053835639059543,1.2393129551246762
1769657702989105400,2.80510546875,-0.2975578822076321,-0.19982640677392483,1.2010001756042241
1769657702999093500,2.815093505859375,-0.1964110453724861,-0.14361118307709694,1.1444773472629486
1769657703009081300,2.825081298828125,-0.2095125190079212,-0.1962017865359783,1.024173536145687
1769657703019069400,2.8350693359375,-0.17228081272244453,-0.25231004272699353,0.9568684708967804
1769657703029058000,2.84505810546875,-0.0830290054755751,-0.268973008236289,0.9266137640170753
1769657703039046100,2.855046142578125,-0.020429049177700654,-0.3266115427345037,0.9596141163431108
1769657703049034000,2.865033935546875,-0.016886819126736372,-0.31720190935432907,0.9824344354383647
1769657703059021800,2.875021728515625,-0.06520575488209725,-0.33615327806174755,1.012525330058485
1769657703069010000,2.885010009765625,-0.08763619787693024,-0.2541337510228157,1.0794370120756327
1769657703078997800,2.894997802734375,-0.10411855525546707,-0.18641689010262488,1.0568721290461718
1769657703088985900,2.90498583984375,-0.110285252058506,-0.11315408549308777,1.0236413289651274
1769657703098975000,2.91497509765625,-0.035391649643052366,-0.048562663117051125,0.9465500521086155
1769657703108963000,2.924963134765625,0.02826395318759605,-0.028843817168474197,0.8114465851359068
1769657703118951000,2.934950927734375,0.03193942682994529,-0.08576923496127128,0.7683566543415188
1769657703128939000,2.94493896484375,0.076771104991436,-0.15736264505386352,0.7007466147966682
1769657703138927000,2.954927001953125,0.14671851970897987,-0.24972236432135103,0.6310156375750899
1769657703148915000,2.9649150390625,0.18186229553818703,-0.32109131800830365,0.5937716563299298
1769657703158902800,2.97490283203125,0.18051789519190786,-0.4250514586985111,0.5356503067508339
1769657703168891000,2.984890869140625,0.1563374119256623,-0.5517383949816227,0.4930763626545667
1769657703178879000,2.99487890625,0.20868834314346313,-0.6492810698449611,0.4387842159748077
1769657703188866800,3.00486669921875,0.305590363749396,-0.6397574546962976,0.35704584396481515
1769657703198855000,3.01485498046875,0.2734510304331779,-0.5691366890281438,0.3398652843222022
1769657703208843000,3.024843017578125,0.21229833206785842,-0.5278817185759545,0.26867358689829707
1769657703218831000,3.0348310546875,0.16017417707694692,-0.44165480297505855,0.22922142808437346
1769657703228819000,3.04481884765625,0.07092939322590827,-0.37891806855499743,0.12883651553243397
1769657703238807000,3.05480712890625,-0.09208093885872512,-0.3932558059871197,0.04727788400352001
1769657703248795100,3.064795166015625,-0.25610947154257446,-0.38266251578032967,-0.03598930500894785
1769657703258783000,3.074782958984375,-0.5009832267889752,-0.3648030339628458,-0.10273629798367619
1769657703268770800,3.084770751953125,-0.7350503048062325,-0.31856793701052666,-0.1269195759952068
1769657703278759000,3.094759033203125,-0.9037585197389125,-0.20837679297626016,-0.11252177893891929
1769657703288746800,3.104746826171875,-1.077192009627819,-0.07112053188383578,-0.037304771521687506
1769657703298734800,3.11473486328125,-1.263026715928316,0.08853110089004039,0.10421060831993818
1769657703308723000,3.124722900390625,-1.400585759359598,0.2951934911638498,0.2680306128196418
1769657703318711000,3.1347109375,-1.4792507152736185,0.4816635727584362,0.37755949355289337
1769657703328699000,3.144698974609375,-1.614276440834999,0.670894935759902,0.5293745874822139
1769657703338687000,3.15468701171875,-1.7771593106150627,0.7183569441586732,0.5959205049268901
1769657703348675000,3.164675048828125,-1.877251669961214,0.553666148173809,0.9638399173446
1769657703358663000,3.174662841796875,-1.6521405998051166,0.6261112066596746,0.6718650229010731
1769657703368651000,3.184651123046875,-1.7210428711175918,0.6488789187848567,0.873483573788777
1769657703378639000,3.19463916015625,-1.6857541155934332,0.5247632942944764,1.1588938490197063
1769657703388627000,3.204626953125,-1.5572271044015884,0.25324352418482304,1.0581897875159978
1769657703398614800,3.21461474609375,-1.3211539107263088,-0.05488894352912903,0.962433557678014
1769657703408603000,3.224602783203125,-1.0923428900737315,-0.374260013616085,0.9128487849716097
1769657703418591000,3.234591064453125,-0.963251157671213,-0.6136848558068275,0.8820219772923737
1769657703428578800,3.244578857421875,-0.8411305794555693,-0.847885825869441,0.8208279422696679
1769657703438567000,3.25456689453125,-0.7692975884534418,-0.9659224227070807,0.7324118460614234
1769657703448555000,3.264554931640625,-0.8016227449316531,-0.9504694175094366,0.7155109801430255
1769657703458543000,3.274543212890625,-0.9004255759239196,-0.9582371289014816,0.35588030731678005
1769657703468531000,3.284531005859375,-0.9897696006320417,-0.8521317928761243,0.20647768135666847
1769657703478519000,3.29451904296875,-1.12595983992815,-0.8525690152496099,0.1363098470877856
1769657703488507100,3.304507080078125,-1.1264053186733276,-0.8120768458634614,-0.13875804395750163
1769657703498495000,3.314494873046875,-1.1112053383886813,-0.5709767639368772,-0.22487558089978993
1769657703508482800,3.32448291015625,-1.2064113139327615,-0.33499241758882997,-0.0773050657376647
1769657703518471000,3.334470947265625,-1.2431694844223558,-0.17195757211744783,-0.3669884882431477
1769657703528460000,3.3444599609375,-1.325846598587185,0.07614917370080948,-0.3015284663390368
1769657703538448000,3.35444775390625,-1.4585354056335984,0.15637655662596225,-0.19489976402670145
1769657703548436000,3.36443603515625,-1.5852539060987532,0.20017010564506052,-0.06422295438982546
1769657703558424000,3.374424072265625,-1.664405184224993,0.11403905163407325,0.09385857952311634
1769657703568412000,3.384411865234375,-1.784855418075621,-0.006719079121947288,0.1903277068708092
1769657703578400000,3.39439990234375,-1.9859024526856839,-0.10774842705726623,0.42509032940417524
1769657703588387800,3.404387939453125,-2.095469911863655,-0.14980945319533348,0.6187294989105314
1769657703598376000,3.4143759765625,-2.067676334400475,-0.1022165118932724,0.7654721118811517
1769657703608363800,3.42436376953125,-1.9815574092186987,0.0298632233440876,0.9226928642462938
1769657703618351900,3.434351806640625,-1.9453790113784373,0.07344575996100902,0.9766695152360946
1769657703628340000,3.444340087890625,-1.8436242717780171,0.12394260601103305,1.0443652603030205
1769657703638327800,3.454327880859375,-1.7063446298100053,0.05851707089841365,1.0228306701693684
1769657703648316000,3.46431591796875,-1.5720239837780594,0.018815759629011154,0.9860692848093807
1769657703658304000,3.474303955078125,-1.5385678505085407,-0.10635551139414309,0.9922941506735979
1769657703668292000,3.4842919921875,-1.525030469673872,-0.17348375877141953,0.9948498995710163
1769657703678280000,3.494280029296875,-1.505161547730118,-0.18076982412636278,1.0034495317425578
1769657703688268000,3.50426806640625,-1.5384370637357234,-0.14923662174344063,1.0708346034251153
1769657703698256100,3.514256103515625,-1.58306867101416,-0.04407938022315502,1.155400307815522
1769657703708244000,3.524243896484375,-1.6756933248281478,0.12167583012282848,1.1146544559292495
1769657703718231800,3.534231689453125,-1.7670272081792353,0.3976531641632318,1.0208671880766749
1769657703728220000,3.544219970703125,-1.8306861720107495,0.7205331191539764,0.9277944251690059
1769657703738208000,3.5542080078125,-1.9704208059154449,1.0418272662580013,0.9347222516708076
1769657703748195800,3.56419580078125,-2.2234113782525062,1.18830728276968,0.8573761232703924
1769657703758184000,3.574183837890625,-2.672377965545654,1.1097130540043114,0.7865193568892777
1769657703768172000,3.584172119140625,-3.0305495986700057,1.0488087957084178,0.6944532137408852
1769657703778159900,3.594159912109375,-2.8918156662404537,1.231890403908491,0.41914530339464545
1769657703788148000,3.60414794921875,-2.211606520298868,1.6283780314236878,0.22168416444733738
1769657703798136000,3.614135986328125,-1.1690696444667874,2.0987632543206214,0.2893196306943893
1769657703808124000,3.6241240234375,-0.5212229913391172,2.2028531588703393,0.1768788080371916
1769657703818112000,3.634112060546875,-0.35920755204334853,2.109932883110642,-0.1956454678274691
1769657703828099800,3.644099853515625,-0.2069046745970845,2.0106541782349345,-0.3555642271049321
1769657703838088000,3.654087890625,0.08481324941068888,2.0216373445421456,-0.37444559931606053
1769657703848075800,3.66407568359375,0.437808356679976,2.1908944255292413,-0.4621227137252688
1769657703858064000,3.67406396484375,0.6920192645922303,2.0963889264047144,-0.7141460484653711
1769657703868052000,3.684052001953125,0.41753216910958285,1.3320254333525896,-0.6000520517736673
1769657703878039800,3.694039794921875,-0.1459716285981238,0.17916355797350406,-0.6616831630393862
1769657703888028000,3.70402783203125,0.2158779623866081,-0.451568294224143,-0.8827833901189267
1769657703898016000,3.71401611328125,0.8760881302639841,-0.6548989097267389,-0.6552303336381912
1769657703908004000,3.724004150390625,1.2239803614363074,-0.9163701640307903,-0.5258820691913366
1769657703917992000,3.733991943359375,1.285840459152311,-1.1767658980578184,-0.2997818418674171
1769657703927980000,3.74397998046875,1.3571394163429735,-1.3774421996593476,-0.13348214938119052
1769657703937968000,3.753968017578125,1.5950737277150153,-1.563216115683317,0.0537897501155734
1769657703947957000,3.76395703125,1.8767944277130066,-1.6994757669538259,0.30609847766831516
1769657703957944800,3.77394482421875,2.3153964189887044,-1.5770260298490524,0.5133287309579551
1769657703967933000,3.783932861328125,2.6208640514075756,-1.3097387827426195,0.6278633110240102
1769657703977921000,3.793921142578125,2.7959128675386307,-0.9978589451938867,0.5620575444221496
1769657703987908900,3.803908935546875,2.6688100439310074,-0.6335778892785311,0.503713053611666
1769657703997897000,3.81389697265625,2.4045865683093663,-0.3369347838282585,0.3841862182162702
1769657704007885000,3.823885009765625,2.139520504383743,-0.10819558630287647,0.36447424039989706
1769657704017873200,3.833873046875,1.917989046280086,0.09883739084899425,-0.009453764782845974
1769657704027860700,3.84386083984375,1.4569135035201906,0.23486732501685617,-0.05177300346568227
1769657704037848600,3.8538486328125,1.1104942675098777,0.4352566263705492,0.13770298194661737
1769657704047836400,3.86383642578125,0.5956836274310946,0.49109834057986734,0.3207233614787459
1769657704057824500,3.873824462890625,0.20740736342221497,0.49795244425833224,0.4497212050527334
1769657704067812600,3.8838125,0.07490969503372907,0.4874374799847603,0.7538029360711574
1769657704077800400,3.893800537109375,-0.03286503550857305,0.2927326540082693,0.8239429324850439
1769657704087788500,3.90378857421875,0.09857055660635232,0.14999007045924662,0.7875972152538597
1769657704097776600,3.913776611328125,0.21465631163716314,0.12330839976072311,1.1272172926433384
1769657704107764500,3.923764404296875,0.09188099583983421,0.03516659044921398,1.1288690053731203
1769657704117752600,3.933752685546875,-0.08816460566520691,-0.029264672929048538,0.7582965942285954
1769657704127740700,3.94374072265625,-0.11991320436447858,0.030538346126675605,0.7651445604272187
1769657704137728500,3.953728515625,-0.18078999013155697,0.07035247012078762,0.6655408613808452
1769657704147716600,3.963716552734375,-0.3156079181611538,0.011072013634443283,0.6264623581849038
1769657704157704700,3.97370458984375,-0.5136506563887,-0.12241057413816452,0.6023401627108455
1769657704167692500,3.983692626953125,-0.6103153793737291,-0.34952480081021786,0.5969634381085633
1769657704177680400,3.993680419921875,-0.6103831839129329,-0.6225567290484905,0.585770428442955
1769657704187668500,4.00366845703125,-0.5792255368441342,-0.9020499622553586,0.7112038575336337
1769657704197656600,4.013656494140625,-0.4735167989209294,-1.1662930193603038,0.8127598596915602
1769657704207644400,4.02364453125,-0.407654918217659,-1.3726678248643875,0.9167873665295541
1769657704217632500,4.033632568359375,-0.4233250732973218,-1.5167711753726005,1.0608989003442226
1769657704227620600,4.04362060546875,-0.41843730125576256,-1.5243389802783727,1.1543413002818823
1769657704237608700,4.053608642578125,-0.4529474736228585,-1.4029606717973946,1.0620002857148647
1769657704247596500,4.063596435546875,-0.6518216942384839,-1.208278057652712,1.1651542245887219
1769657704257584600,4.073584716796875,-0.8735413683906197,-1.1114935076802968,1.629754288212955
1769657704267572700,4.08357275390625,-0.400323552416265,-0.9387415703147649,1.5743348910689352
1769657704277560600,4.093560546875,-0.07990764945149421,-0.7253086629927158,1.668430348087847
1769657704287548400,4.10354833984375,-0.02662760242372751,-0.5342822332680225,1.7397580929815768
1769657704297536500,4.11353662109375,-0.03217500741779804,-0.3431687097817659,1.6908514387324451
1769657704307524600,4.123524658203125,0.05657090526670217,-0.2793383349061012,1.695070517732203
1769657704317512400,4.133512451171875,0.11140899539142847,-0.1745516802638769,1.4959551818370818
1769657704327500500,4.14350048828125,-0.12492869443893431,-0.13585866925418377,1.4305045122832059
1769657704337488600,4.153488525390625,-0.44270986498594284,-0.08540916947722435,1.4200214044526218
1769657704347476500,4.1634765625,-0.4466448663473129,0.07217734746038913,1.398363845526427
1769657704357465600,4.173465576171875,-0.21944617626219987,0.37210780401825905,1.5796964181020854
1769657704367453700,4.18345361328125,-0.3081052874460816,0.5310065725982189,1.791573328153789
1769657704377441500,4.193441650390625,-0.6265668414726853,0.5881278052240609,1.9702362431287765
1769657704387429400,4.203429443359375,-0.7087643554270268,0.718827484279871,1.934736767463386
1769657704397417500,4.21341748046875,-0.3899548647455871,0.9322668213427067,1.7238452151872217
1769657704407405600,4.223405517578125,0.2190419793754816,1.3248738080322742,1.4087281492829322
1769657704417393700,4.2333935546875,0.6656893299408256,1.6255945381850003,1.3545355174548923
1769657704427381500,4.243381591796875,1.2089840139649808,1.9611796609699725,1.1834009521581232
1769657704437369600,4.25336962890625,1.5431294593356548,2.15059397932291,1.1313844953253864
1769657704447357700,4.263357666015625,1.4507836224630475,2.1185101573199034,1.2879931071415542
1769657704457345500,4.273345458984375,1.2903288566127418,1.6645856553584337,1.0554648925967514
1769657704467333600,4.283333740234375,0.8915446425929665,0.7262269468814134,0.24729484491348266
1769657704477321700,4.29332177734375,0.9227017051398754,-0.03590717968344688,-0.5997189473617821
1769657704487309600,4.3033095703125,1.0163140548169611,-0.5940110180437564,-1.426485339769721
1769657704497297400,4.31329736328125,1.3431632056996226,-0.989152491647005,-2.2836206400215624
1769657704507285500,4.323285400390625,1.6920947167918086,-1.1547896285712718,-2.9459754187121985
1769657704517273600,4.333273681640625,1.8285726869881151,-1.255404550486803,-3.306556743326783
1769657704527261400,4.343261474609375,1.6828639471098779,-1.1517799253612757,-3.2307059680506587
1769657704537249500,4.35324951171875,1.571893927657604,-0.7900579062789678,-3.45166927087754
1769657704547237600,4.363237548828125,1.3122250466004013,0.14149287574887276,-3.0015605278119444
1769657704557225500,4.3732255859375,0.8624997498944401,1.168469194355607,-2.351707503297925
1769657704567213600,4.383213623046875,-0.00248743290156126,1.7373925328940152,-2.01421537784785
1769657704577201700,4.39320166015625,-0.18115093239843844,3.518115673470497,-0.887283404951915
1769657704587189800,4.403189697265625,-0.7595812272116541,4.254900839245319,-0.6893189195923507
1769657704597177600,4.413177490234375,-1.557740899142623,3.441109590679407,-0.835764157051593
1769657704607165700,4.423165771484375,-1.5654264852091668,2.4051111767053603,-0.6547730913899839
1769657704617153500,4.433153564453125,-1.2228142402663826,1.546367856734991,-0.3702694826751947
1769657704627141400,4.443141357421875,-1.0160226706549524,0.6573924801081419,-0.13658712965920566
1769657704637129500,4.45312939453125,-0.6928451940223574,-0.18689035283327102,-0.09639408935010432
1769657704647117600,4.46311767578125,-0.32972645988464355,-0.66539692286551,-0.09183452634960412
1769657704657105700,4.473105712890625,-0.17722849825769663,-0.918709420633316,0.007622603832930326
1769657704667093500,4.483093505859375,-0.1678419534921646,-1.1711907282739877,0.02767944956421852
1769657704677081600,4.49308154296875,-0.10353782362490892,-1.3624457060575483,-0.15332053005620835
1769657704687069700,4.503069580078125,-0.07637976758629084,-1.474065421590209,-0.2247653254583478
1769657704697057500,4.5130576171875,-0.08882891479283571,-1.619475763043761,-0.2556098149247467
1769657704707045600,4.523045654296875,-0.2258455219104886,-1.8528654167234897,-0.35233050588071346
1769657704717033700,4.53303369140625,-0.2629495101630688,-1.8507202213883398,-0.4080892179816961
1769657704727021600,4.543021484375,-0.323367738507688,-1.8612720105409621,-0.3929603301718831
1769657704737009400,4.553009521484375,-0.5099415727376938,-2.0031477481275797,-0.5647121505841612
1769657704746998500,4.56299853515625,-0.6781362851902842,-2.062133605581522,-0.5599867294974625
1769657704756986600,4.572986572265625,-0.846923410578072,-2.139417336270213,-0.5643997236341237
1769657704766974700,4.582974609375,-0.9972481198191642,-2.1505185759991408,-0.5999369009613991
1769657704776962600,4.592962646484375,-1.1677855960056185,-2.05187933807075,-0.5445834086604416
1769657704786950700,4.60295068359375,-1.4047145297273993,-1.8394319346547126,-0.4979968679219484
1769657704796938800,4.612938720703125,-1.5016557315662502,-1.592470851740241,-0.5790308910548687
1769657704806926600,4.622926513671875,-1.6116016686677932,-1.3734972614258527,-0.6646263768844306
1769657704816914400,4.63291455078125,-1.7332614244386553,-1.0734300267457961,-0.6496066485375166
1769657704826902500,4.642902587890625,-1.7481120798289775,-0.766515702649951,-0.6263666427254676
1769657704836890400,4.652890380859375,-1.729132946331799,-0.5928975038439035,-0.6011880700662732
1769657704846878500,4.66287841796875,-1.633411349415779,-0.4800111293762922,-0.5805958022840321
1769657704856866600,4.672866455078125,-1.498733706639707,-0.43411213251054287,-0.5256491372182965
1769657704866854700,4.682854736328125,-1.3392653214782475,-0.4140548483878374,-0.5035170926481485
1769657704876842500,4.692842529296875,-1.2054527710989118,-0.30453882713615893,-0.3694510058991611
1769657704886830600,4.70283056640625,-1.0861331487134098,-0.0632382542014122,-0.261449626994133
1769657704896818700,4.712818603515625,-1.0569093923166393,0.2653454653888941,-0.10374138337299227
1769657704906806500,4.722806640625,-1.130878299368918,0.6546534105330706,0.034787235742807385
1769657704916794600,4.732794677734375,-1.3522192033365368,0.9157897337943315,0.06733779847472905
1769657704926782700,4.74278271484375,-1.5949758202984927,0.9814397253125905,0.03345423357337713
1769657704936770600,4.7527705078125,-1.5985213839508592,1.0095610734254121,-0.0435465885207057
1769657704946758400,4.76275830078125,-1.5207222510859368,0.8759609967529773,-0.24798282717764375
1769657704956746500,4.77274658203125,-1.4860235704094171,0.8965987111121415,-0.16984408709481358
1769657704966734600,4.782734619140625,-1.4395770226635038,1.192171556982398,-0.05161971260011196
1769657704976722400,4.792722412109375,-1.0649135428130625,1.7213403927594422,-0.1969255707658827
1769657704986710500,4.80271044921875,-0.5454525927104056,2.134602629464865,-0.12509367574229835
1769657704996698600,4.81269873046875,-0.19534341614097356,2.295581711450219,0.32611016908362506
1769657705006686700,4.822686767578125,0.2926058127582073,2.40382464402616,0.5860561135165393
1769657705016674600,4.832674560546875,1.2276651874288915,2.39187058686018,0.2518165601216256
1769657705026662100,4.842662109375,1.661202881052345,1.5925608681112526,-0.1109272032238543
1769657705036650200,4.852650146484375,1.5165572403609753,0.3197942639350891,-0.2920771127089858
1769657705046638300,4.862638427734375,1.013356666316092,-1.0806956338346003,-0.2699754632771015
1769657705056626200,4.872626220703125,0.6502551755741238,-2.432195582985878,-0.4022030825525522
1769657705066614300,4.8826142578125,1.1778086851090193,-2.7981308358490464,-0.39332857896238566
1769657705076602000,4.89260205078125,2.0454127724051476,-2.4814286927103995,0.11474047790169715
1769657705086590200,4.902590087890625,3.247242384570837,-1.73930450399518,0.6920207258969545
1769657705096578000,4.912578125,4.518665172922611,-0.6537210981190205,0.944576121687144
1769657705106566100,4.922566162109375,4.977554603815078,0.4325742554187774,0.9639650050289928
1769657705116554200,4.93255419921875,4.368226774173975,1.3152408872902392,1.317623836904019
1769657705126542000,4.9425419921875,3.482837439340353,2.184237305727601,0.6584614245139062
1769657705136530200,4.9525302734375,2.18656048797816,2.7501374970525503,0.19862375298589466
1769657705146519300,4.962519287109375,1.0727274314343929,3.1445927419573065,-0.11317366697639226
1769657705156507100,4.972507080078125,-0.17492782009989022,3.0262498556494712,-0.09318331061005591
1769657705166495000,4.982494873046875,-1.0898153443574905,2.70707518491745,0.30127149590328334
1769657705176483000,4.992483154296875,-1.4009972627699374,2.314306870186329,0.35650194634646176
1769657705186471200,5.00247119140625,-1.2697487176597118,1.7689491161525248,0.3791872408851981
1769657705196459300,5.012459228515625,-0.841780640862137,1.1349620615512133,0.4426705558888614
1769657705206447000,5.022447021484375,-0.4013382824167609,0.36147125919163225,0.21459946688339113
1769657705216435200,5.032435302734375,-0.08865531179159879,-0.21083879917562007,0.028263971453905103
1769657705226423300,5.04242333984375,-0.1067719832405448,-0.7007026295244694,-0.12257321735396981
1769657705236411100,5.0524111328125,0.04069499848186969,-0.9383779976993799,-0.2627870130777359
1769657705246399200,5.062399169921875,0.20389482525661587,-1.113132507058978,-0.2264605850689113
1769657705256387300,5.07238720703125,0.3871978211224079,-1.3529016326427459,-0.2877040121912956
1769657705266375400,5.08237548828125,0.8386194003522396,-1.6222615943700074,-0.15030074384361505
1769657705276363000,5.092363037109375,0.7693734301686287,-1.9524328754127025,0.36485081862732766
1769657705286351000,5.10235107421875,0.5234180171653628,-2.2013088520377875,0.46762423375099893
1769657705296339200,5.112339111328125,0.5656530846960842,-2.3533511788517236,0.33834596580043436
1769657705306327000,5.1223271484375,0.43967970350980756,-2.507587800839543,0.4858716919727623
1769657705316315100,5.132315185546875,0.16871639823913573,-2.559308635726571,0.7100999879449605
1769657705326303200,5.14230322265625,-0.12231237446069716,-2.559474055421352,0.633254210282117
1769657705336291000,5.152291015625,-0.2523132575973868,-2.5757249329984186,0.6841850638352334
1769657705346279200,5.162279052734375,-0.4156286735758185,-2.4241899711847306,0.6928828956842422
1769657705356267300,5.172267333984375,-0.5858098836705088,-2.296328145903349,0.714865156520158
1769657705366255400,5.18225537109375,-0.6675124537147581,-2.18257843260467,0.7419551157586276
1769657705376243200,5.1922431640625,-0.6411752125397324,-1.8477017503499984,0.74420727859959
1769657705386231300,5.202231201171875,-0.6002443594753741,-1.4816291348427533,0.7150565874390303
1769657705396219100,5.21221923828125,-0.8108230464100837,-1.2655337303131817,0.6273346109747886
1769657705406207000,5.22220703125,-1.0078982547797262,-1.027304819908738,0.6141083419159055
1769657705416195000,5.232195068359375,-1.0346423231899737,-0.764268215984106,0.6358294675976037
1769657705426183200,5.24218310546875,-0.9056151073910296,-0.5517793115139007,0.6573939414128661
1769657705436171300,5.252171142578125,-0.7023439669907092,-0.39105449655055996,0.7090612925469875
1769657705446159000,5.2621591796875,-0.461575893497467,-0.26343641689717767,0.8350003330722451
1769657705456147200,5.272147216796875,-0.3423499407447874,-0.17176058824062346,0.9878197817385196
1769657705466135300,5.28213525390625,-0.36287820338010784,-0.1438923381060362,1.2132538002386688
1769657705476123100,5.292123046875,-0.5929017416276038,-0.0912409443706274,1.4217964513011276
1769657705486111200,5.302111328125,-0.6635306906022131,0.14910627336204052,1.5327362217456102
1769657705496099300,5.312099365234375,-0.4981168410398066,0.7296212654948234,1.453294728501141
1769657705506087400,5.32208740234375,0.33450682602897286,1.5936112539470195,1.1517360862195491
1769657705516076000,5.332075927734375,1.7352689648687838,2.5950878051161763,0.7170480535171926
1769657705526064000,5.342064208984375,2.6368624155282974,3.389038042658567,0.3638938101634383
1769657705536052200,5.35205224609375,2.9037305604398247,3.925000776359439,0.1007610523879528
1769657705546040300,5.362040283203125,2.333316691082716,3.993361780402064,0.03400879871621728
1769657705556028200,5.372028076171875,0.5717524244844913,3.059664633995294,-0.158892923361063
1769657705566016300,5.382016357421875,-0.9183926097691059,1.676601087322831,-0.6226771405577659
1769657705576004400,5.39200439453125,-0.9324481692589819,0.12910042716562747,-1.6525636475227772
1769657705585992200,5.4019921875,-0.07628960508480667,-1.2367501188993453,-2.5090298163414
1769657705595980300,5.411980224609375,1.0720751050055026,-2.0411849255770442,-3.065671180933714
1769657705605968100,5.421968017578125,1.8703493432268499,-2.393731704556942,-3.242794172990322
1769657705615956200,5.431956298828125,2.482787413842976,-2.3374720571964978,-4.148009321278334
1769657705625944000,5.441944091796875,2.7962010368302463,-1.61285722168684,-4.480596723552048
1769657705635932200,5.45193212890625,2.7945795731082557,-0.2573345928907394,-4.078830863372981
1769657705645920300,5.461920166015625,2.465608023244142,1.3544628906100988,-3.5578561477065085
1769657705655908000,5.471908203125,1.5875839564815162,2.9338182401895523,-2.390299976542592
1769657705665896200,5.481896240234375,0.13630495171695947,4.158513764157891,-1.4424766896277665
1769657705675884300,5.49188427734375,-1.209259616035968,4.668113976112008,-0.5554292123235762
1769657705685872000,5.5018720703125,-1.9264061614915728,4.190044628453254,0.02827332380414009
1769657705695860200,5.511860107421875,-1.820384850487858,3.1808751846939325,0.2743487099252641
1769657705705848300,5.521848388671875,-1.1421297612234949,1.7677204511404037,0.25963088713437316
1769657705715836200,5.531836181640625,-0.7076217612631619,0.612917378565669,0.38711788775399325
1769657705725824000,5.541823974609375,-0.4609162605449557,0.03153437142670154,0.8647302854254841
1769657705735812000,5.55181201171875,-0.21428660154193638,-0.4126636862903833,1.032090592880547
1769657705745800200,5.56180029296875,0.2096001972913742,-0.7001601932108402,0.8225435870811343
1769657705755788000,5.5717880859375,0.7360603586316108,-0.353470908087492,0.6228314543366432
1769657705765776100,5.581776123046875,0.7550479676961899,-0.1800502776801586,0.13640797370001673
1769657705775764200,5.59176416015625,0.38474984344840046,-0.00981996774673462,-0.4400236946418881
1769657705785752300,5.60175244140625,-0.3891115457892418,0.12248597746193408,-0.5907502626821398
1769657705795740200,5.611740234375,-1.0622983918786049,0.050825931873917575,-0.9201695563137531
1769657705805728300,5.621728271484375,-1.4108183995604515,-0.2175432652503252,-1.169369650326669
1769657705815716400,5.63171630859375,-1.3817644467726349,-0.6409007795125246,-1.5039276220209896
1769657705825704200,5.6417041015625,-1.3075532553970812,-0.9736591544389724,-1.6758717501349747
1769657705835692300,5.6516923828125,-1.336637018801272,-1.352138831576705,-1.6830683836407958
1769657705845680000,5.66168017578125,-1.1534662710130215,-1.6899819624215364,-1.703952181715518
1769657705855668200,5.671668212890625,-1.0354761436656117,-1.9556886623382568,-1.514125337038934
1769657705865656000,5.681656005859375,-1.146582941240072,-2.0605653333514926,-1.1597136409699915
1769657705875644200,5.69164404296875,-1.1823378529712558,-2.037159323322773,-0.9515880462758243
1769657705885632300,5.70163232421875,-1.2730981742180882,-1.961870565843582,-0.7235720484584569
1769657705895621400,5.711621337890625,-1.502898132842779,-1.721999148929119,-0.5708614669941365
1769657705905609200,5.721609130859375,-1.7026117268919945,-1.4997060588032007,-0.5203744116857647
1769657705915597300,5.731597412109375,-1.6930699915647505,-1.2861661839753389,-0.43363560103997584
1769657705925585200,5.741585205078125,-1.4809467055365442,-1.20583826328516,-0.3592848550632596
1769657705935573000,5.751572998046875,-1.0933248137831688,-1.2338444605857133,-0.3921308936104178
1769657705945561000,5.76156103515625,-0.7306989777289331,-1.249898938807845,-0.48840924762636423
1769657705955549200,5.771549072265625,-0.3757667649172246,-1.1567431007266045,-0.6724130852378905
1769657705965537300,5.781537353515625,-0.16621128355041145,-0.9637070847451686,-0.7451905905485153
1769657705975525000,5.791525146484375,-0.34188334614634514,-0.7048188326716422,-0.7015268053889274
1769657705985513200,5.80151318359375,-0.7144996842086315,-0.2477285601556301,-0.5183449516847729
1769657705995501300,5.811501220703125,-0.9731509126558899,0.4127601324021816,-0.24098405433148143
1769657706005489200,5.8214892578125,-0.9663060151971876,1.2205179460227489,0.0179269940957427
1769657706015477200,5.831477294921875,-0.6728361329555511,2.088660962501168,0.2947925091475248
1769657706025465300,5.84146533203125,-0.17169512178897856,2.8699025251179933,0.5395058131352066
1769657706035453700,5.85145361328125,0.41849399987906216,3.2850948531031605,0.787914756770432
1769657706045441800,5.86144189453125,0.6313758491896092,3.0329736109465357,1.5547504851549863
1769657706055430000,5.871429931640625,0.6514354713998735,2.690119958463311,1.619334601007402
1769657706065417700,5.881417724609375,0.6202386613644659,1.91862471383512,0.87475308226794
1769657706075405800,5.89140576171875,0.17662863266840576,0.4895353290468454,0.524301522001624
1769657706085394000,5.901393798828125,-0.17343801993355154,-1.4198299735337494,0.2354676289975643
1769657706095381800,5.9113818359375,-0.1113255548916757,-3.0897604970514774,-0.3204606188893318
1769657706105369900,5.921369873046875,0.7989642663121223,-3.2629274449586867,-0.4302706546515226
1769657706115358000,5.93135791015625,1.7249731963038444,-2.6176789916306733,-0.40141514704525466
1769657706125345800,5.941345703125,2.7278070073008536,-1.649778546848893,-0.42727965614199637
1769657706135334000,5.951333984375,3.649363049536943,-0.39700376034379004,-0.4184133358582854
1769657706145321700,5.96132177734375,4.04098336327672,0.780782712933421,-0.5742144306838513
1769657706155309800,5.971309814453125,3.905395327657461,1.833548721835017,-0.8142910147815943
1769657706165297700,5.981297607421875,3.2039503553330895,2.54099614944458,-0.8209078025728463
1769657706175285800,5.99128564453125,2.274052016687393,2.7879595704466102,-0.7147136192202568
1769657706185273900,6.00127392578125,1.0456932940363883,2.748158890455961,-0.6160729199871421
1769657706195261700,6.01126171875,-0.18585428778380156,2.469381696563959,-0.22329554516673086
1769657706205249800,6.021249755859375,-0.5972885784097015,2.0941829407930372,-0.018800562059879303
1769657706215238000,6.03123779296875,-0.2905339749202132,1.5631225921809673,0.05813274775594472
1769657706225226000,6.04122607421875,-0.27277050082311033,0.9735247144043445,0.29675270330458875
1769657706235213800,6.0512138671875,-0.39274478772506116,0.5399141016751527,0.46927492356747386
1769657706245202700,6.06120263671875,-0.3926736221849918,0.2694277662664652,0.40416210766583677
1769657706255190800,6.071190673828125,-0.24013562080860137,0.04219605069458485,0.40580227608829733
1769657706265179000,6.081178955078125,0.05981076397076249,-0.18808453105390072,0.37340281226485966
1769657706275166700,6.091166748046875,0.032103257355839014,-0.5148439578264952,0.3761398360133171
1769657706285154800,6.10115478515625,-0.279155964076519,-1.0965361770451068,0.3992974242389202
1769657706295143000,6.111142822265625,-0.23893501284718513,-1.4392664954096077,0.27171295459419487
1769657706305130800,6.121130859375,-0.4676914537683129,-1.7692086438715457,0.3222001560330391
1769657706315118800,6.131118896484375,-0.49889206319600343,-2.0062509748399258,0.1581248615980148
1769657706325107000,6.14110693359375,-0.21643340431228278,-1.9688094251960515,0.10192892712354659
1769657706335095000,6.151094970703125,-0.05009016494527459,-1.962711692842841,0.21044366237819193
1769657706345083000,6.161082763671875,0.013980302296578883,-1.8426514812231063,0.3591913315609097
1769657706355070700,6.17107080078125,-0.12085194651931523,-1.731203030604124,0.21214549786001444
1769657706365058800,6.181058837890625,-0.31744740854799747,-1.579352426970005,0.10504033714234828
1769657706375046700,6.191046630859375,-0.3808629190124571,-1.348768478360772,0.1378483817666769
1769657706385034800,6.20103466796875,-0.31314503517895936,-1.1921616201102734,0.24923721115291117
1769657706395022800,6.21102294921875,-0.238256382933259,-1.1258061106711625,0.3653951546370983
1769657706405010700,6.2210107421875,-0.2360495205387473,-1.1589385649442672,0.48886400565654037
1769657706414998800,6.230998779296875,-0.2782479093208909,-1.1459592563837766,0.6104609253242611
1769657706424987000,6.24098681640625,-0.14553689044266938,-1.0866957510322333,0.7747256048515438
1769657706434975000,6.25097509765625,-0.021892828986793754,-1.027687097224593,0.9449933241859078
1769657706444962800,6.260962890625,-0.1913876642525196,-1.0256178897351025,1.0936977387487887
1769657706454951000,6.270950927734375,-0.39423239593431353,-0.9801321498453617,1.2741285401791334
1769657706464938800,6.280938720703125,-0.5555522541813552,-0.9090998807668685,1.491156257122755
1769657706474926600,6.290926513671875,-0.6797115716829896,-0.8430763797610997,1.620488739478588
1769657706484914700,6.300914794921875,-0.5450993953585624,-0.6989929029971361,1.6208996583670376
1769657706494902800,6.31090283203125,-0.2588802148975432,-0.6113426765948534,1.4270806753143668
1769657706504891000,6.320890869140625,0.46852264389544723,-0.08929097934663295,1.1553460934102535
1769657706514878700,6.330878662109375,1.7161983536958694,1.0632768815219402,0.8229811017155647
1769657706524866800,6.34086669921875,2.4465678072094916,1.6439631385684013,0.5242907083466649
1769657706534855000,6.35085498046875,2.5038278637841342,1.403968972057104,0.34251141491681336
1769657706544842800,6.3608427734375,2.16863846231848,0.8194529275894165,-0.06154401750415563
1769657706554830800,6.370830810546875,1.65399937941432,0.32559096751511096,-0.43515784217119213
1769657706564819000,6.38081884765625,1.1221930347405373,0.040436639806628226,-1.1404060061708092
1769657706574807000,6.39080712890625,0.5456324793219566,-0.2739958048343658,-1.8211144799366592
1769657706584795000,6.400794921875,0.32429844348654147,-0.4835276130646467,-2.2525603158473966
1769657706594782700,6.41078271484375,0.5633157277897,-0.2371323473393917,-2.617440798960626
1769657706604771800,6.420771728515625,0.6275733881667256,0.47323301354348657,-2.6686472545847297
1769657706614760000,6.430760009765625,-0.002518412561714649,1.4507722242861985,-2.4717288442119956
1769657706624747800,6.440747802734375,-0.643089521728456,2.83109787042737,-1.9314315884381532
1769657706634735900,6.45073583984375,-1.1728066390380263,4.392487355205416,-1.137182075688243
1769657706644724000,6.460723876953125,-1.7859974277175963,5.579126412501931,-0.35540713684707875
1769657706654711800,6.4707119140625,-1.9625744763292372,5.533556501460075,0.3698211543858051
1769657706664700000,6.480699951171875,-1.9521919062636792,4.273136168637872,0.8952245001494884
1769657706674687700,6.490687744140625,-1.43874466349259,2.7878122709304094,1.217479601240158
1769657706684675800,6.50067578125,-0.8185456034861505,1.3012187916785478,1.4947981207564471
1769657706694663700,6.51066357421875,0.3206955966889858,-0.3545160332262516,0.8490779582634568
1769657706704651800,6.52065185546875,1.333790981720388,-1.4778870257049799,0.3378510218903422
1769657706714640000,6.530639892578125,1.9305330321632324,-1.4129016355752944,0.4473427854835987
1769657706724627700,6.540627685546875,1.8199113877572117,-0.8794219508618116,0.8132184171140193
1769657706734615800,6.55061572265625,1.194349777804315,-0.46237610396444795,0.9259773658096789
1769657706744604000,6.56060400390625,0.3433481580018997,-0.13667875346541403,0.538514756271243
1769657706754591700,6.570591796875,-0.2957832737505436,-0.02493278120458126,0.07188304068893193
1769657706764579800,6.580579833984375,-0.4599966614820063,0.15735329270362852,-0.42762510857880115
1769657706774568000,6.59056787109375,-0.8157676632054149,-0.19946341868042944,-0.7726441224023699
1769657706784556000,6.60055615234375,-0.8286265602566302,-0.4895318219155073,-1.3077452708378434
1769657706794543600,6.610543701171875,-0.43707492783889174,-0.37672961860001086,-1.3950161425337195
1769657706804531700,6.62053173828125,-0.3755100136771798,-0.6829699889570474,-1.3511135801821947
1769657706814519800,6.630519775390625,-0.4198284633532166,-1.0481956322461365,-1.3681786967515945
1769657706824507600,6.640507568359375,-0.6089107732728123,-1.2967501218318938,-1.2264286313712596
1769657706834495700,6.650495849609375,-1.0358784408561885,-1.3536182564795016,-0.9134107297033071
1769657706844483800,6.66048388671875,-1.4237396943233906,-1.3454922331690788,-0.7143877482667564
1769657706854472000,6.670471923828125,-1.4217957206487655,-1.386089031973481,-0.6301230726495385
1769657706864459800,6.680459716796875,-1.303697895143181,-1.547613472881913,-0.541377744486928
1769657706874448000,6.69044775390625,-1.2988904948614537,-1.7260802807629108,-0.5157134341374039
1769657706884436000,6.70043603515625,-1.205778642052412,-1.7468033353179693,-0.5504343266457319
1769657706894423800,6.710423828125,-1.1967759820379316,-1.6219804393410682,-0.4565285469800234
1769657706904412000,6.720411865234375,-1.235660423966497,-1.5438023901611566,-0.4153323209777474
1769657706914399700,6.730399658203125,-1.1178757560633121,-1.5275392376244068,-0.40309067904204127
1769657706924387800,6.740387939453125,-0.9105344436146319,-1.4152870694071054,-0.4190662468090653
1769657706934375700,6.750375732421875,-0.7442275907352567,-1.2798089239031076,-0.39940994470268487
1769657706944363800,6.76036376953125,-0.827112356301397,-1.23636842610538,-0.3058826429605484
1769657706954353000,6.770352783203125,-1.10059144378528,-1.3078361639916896,-0.18500526973903178
1769657706964341000,6.780341064453125,-1.1867464631937443,-1.2233984698951244,-0.07559855408072472
1769657706974328800,6.790328857421875,-1.214520605304092,-0.9890186361342668,0.23662235199064016
1769657706984317000,6.80031689453125,-1.1471220165528357,-0.7684469629734754,0.48989481000900265
1769657706994304800,6.8103046875,-0.8974830927312374,-0.48413434678614137,0.6168804369777441
1769657707004292600,6.820292724609375,-0.5052139596939087,0.07767652939856053,0.7606728218406439
1769657707014280700,6.83028076171875,0.06801029090881347,0.6718962217569351,0.84204089923352
1769657707024268800,6.840268798828125,1.1823813998520374,1.0875012221962213,0.8848957060977816
1769657707034256400,6.85025634765625,2.055827783435583,1.7512299195885657,1.5530992108166217
1769657707044244500,6.860244384765625,2.706436887013912,2.8758266544699667,2.3770886127918955
1769657707054232600,6.870232666015625,2.6315268997192383,2.9308658201247453,2.152289385063946
1769657707064220400,6.880220458984375,2.3477063048325477,2.4578151774108408,1.4757798242926596
1769657707074208500,6.89020849609375,1.937041098883003,1.6465198373138903,0.7509697584718465
1769657707084196600,6.900196533203125,1.2604079117320477,0.5232172338962554,0.5639803291782737
1769657707094184400,6.910184326171875,-0.00452653751373291,-1.021515715113282,0.7983700998112558
1769657707104172500,6.920172607421875,-0.39230522726401684,-1.6039251426905392,0.5828215155094861
1769657707114160600,6.93016064453125,0.11947612812146544,-1.3647650889158247,0.7219771804824471
1769657707124148500,6.9401484375,0.3904208748221397,-1.4407494274437427,0.575210748244822
1769657707134136300,6.95013623046875,1.0856580785475671,-1.2006138066351413,0.4696200837433338
1769657707144124400,6.96012451171875,2.2695513442672786,-0.583834491944313,0.5168333780780434
1769657707154112500,6.970112548828125,3.2550609493672846,0.12018062312901019,0.49981180838942524
1769657707164100400,6.980100341796875,3.4864556298375127,0.6591624123901129,0.49789253076463935
1769657707174088400,6.99008837890625,2.9817233161807057,0.999080011421442,0.518723429608345
1769657707184076500,7.00007666015625,2.5682071047142148,1.4244114561051129,0.4881143563330173
1769657707194064400,7.010064453125,2.118060952247679,1.5261708718806504,0.1913762660756707
1769657707204052500,7.020052490234375,1.2081895025864242,1.4069675693511963,0.12650719580203293
1769657707214040600,7.03004052734375,0.6402886389635503,1.1380915917485952,0.10078238743692636
1769657707224028700,7.040028564453125,0.22076924155950545,0.5255886392027139,0.09206687380075454
1769657707234016500,7.0500166015625,0.10898878250718116,-0.018946692532300947,0.2926335775479674
1769657707244004600,7.060004638671875,0.029100860669463872,-0.6410644456416368,0.5953904897034168
1769657707253992400,7.069992431640625,-0.12365092958807944,-1.280983228379488,0.6434393580794334
1769657707263980300,7.079980224609375,-0.15070362555608152,-1.752068708500266,0.7382321497127413
1769657707273968400,7.089968505859375,-0.22026436077728867,-1.993544053480029,0.781215551392734
1769657707283956500,7.09995654296875,-0.4614825161255896,-2.1143863553881643,0.8508870535120368
1769657707293944600,7.109944580078125,-0.5222631480418145,-2.134122736993432,0.873261090144515
1769657707303933400,7.119933349609375,-0.5061665842436254,-2.008427149835229,0.9077741851210593
1769657707313921500,7.129921630859375,-0.4562088135063648,-1.9447148483812808,0.8508198334947228
1769657707323909600,7.13990966796875,-0.25827801122069355,-1.8952596203386782,0.7226534723088145
1769657707333897500,7.1498974609375,-0.13559037370681762,-1.8284826706171036,0.7192185294240713
1769657707343885300,7.15988525390625,-0.025294600254297254,-1.7774837202638387,0.7694944261997938
1769657707353873400,7.169873291015625,0.13390680453404782,-1.723377451545,0.790794111599028
1769657707363861500,7.179861572265625,0.15687763801589608,-1.607890539190173,0.8792594537764787
1769657707373849300,7.189849365234375,0.12671733142137526,-1.4714508551776408,0.9505442363113165
1769657707383837400,7.19983740234375,0.049441053386777636,-1.3596511069029569,1.0841028119295835
1769657707393825500,7.209825439453125,-0.07802081279158592,-1.291507545003295,1.279255673934519
1769657707403813600,7.219813720703125,-0.19419906841143963,-1.1924041966944932,1.4172750283539295
1769657707413801500,7.229801513671875,-0.17052710092291234,-1.133916351890564,1.4447972415298223
1769657707423789600,7.23978955078125,-0.030799481280893087,-1.1268003824055195,1.4048510155886411
1769657707433777700,7.249777587890625,0.05446107350587844,-1.1118553267300129,1.3004475150451063
1769657707443765500,7.259765625,0.2655623230099678,-1.0744716447532177,1.1267089047297836
1769657707453753300,7.26975341796875,0.5756406640946865,-0.8913356760174036,0.9518415826454758
1769657707463741400,7.279741455078125,0.8426607846975326,-0.6337772112429142,0.8017056739747523
1769657707473729300,7.289729248046875,0.9738273506127297,-0.30103578745126724,0.6842807792946696
1769657707483717400,7.29971728515625,1.027727283104509,0.10561550668179988,0.617477526088059
1769657707493705500,7.30970556640625,0.9017444034375249,0.4453337837487459,0.6497941339336335
1769657707503693600,7.319693603515625,0.588932545735687,0.7259826167315244,0.7645496632739901
1769657707513681400,7.329681396484375,0.15895122941955922,1.1103379079043865,1.1495382839143276
1769657707523669500,7.33966943359375,-0.39174423238039013,1.4220488186269997,1.6251700291626154
1769657707533657600,7.34965771484375,-0.7144378710187971,1.662893464487791,1.8684701053515076
1769657707543645400,7.3596455078125,-0.6483424738205968,1.860889733225107,1.912814420121163
1769657707553633500,7.369633544921875,-0.17068989026919007,2.2184055327892303,2.18559558846876
1769657707563621600,7.37962158203125,0.6068297292150556,2.643026198855042,2.199824020307511
1769657707573609500,7.389609375,0.8156171488188206,2.6528210321605203,2.1814067584767938
1769657707583597300,7.399597412109375,0.8949218639411032,2.55906781270802,2.027049578849226
1769657707593585400,7.40958544921875,1.0464226312242448,2.2858014911919833,1.4055091872364283
1769657707603573500,7.419573486328125,1.34235203544721,2.041506412616372,0.7190814590409398
1769657707613561300,7.429561279296875,1.2749417562581598,1.7020628608375787,-0.05884425702616572
1769657707623549400,7.439549560546875,0.9103801298357546,1.5864210501819849,-0.5149452262438834
1769657707633537500,7.44953759765625,0.8833002535998821,1.5587912849783896,-1.2761772894024848
1769657707643525600,7.459525634765625,1.1682711875654757,1.3077367952704428,-2.0159081532403826
1769657707653514500,7.469514404296875,1.5364577264867723,0.9649591306328773,-3.022840339466929
1769657707663502300,7.47950244140625,1.660860497355461,0.6671674396693706,-3.990007209277153
1769657707673490400,7.489490478515625,1.6536301077105104,0.41113633059263227,-4.46126220074594
1769657707683478500,7.499478515625,1.7531918673112987,0.21779928583800792,-4.874918697465956
1769657707693466400,7.50946630859375,1.726213405623287,0.20531039114296434,-5.457091685938835
1769657707703454500,7.519454345703125,1.5235782250389456,0.49211540866792197,-5.363344896227121
1769657707713442600,7.529442626953125,1.0268132369995118,1.0799416005969047,-5.021757318156958
1769657707723430400,7.539430419921875,0.28547464570403097,1.8843606251835823,-4.620369643640518
1769657707733418500,7.54941845703125,-0.4887441786691546,2.578042562291026,-3.899772811600566
1769657707743406600,7.559406494140625,-1.2922116016194223,2.548261756533384,-2.8419509806141257
1769657707753394700,7.569394775390625,-1.3214634150668978,1.8931231928318737,-2.010474730014801
1769657707763382500,7.579382568359375,-0.9098691115736961,0.8832119907945394,-1.4160430023409425
1769657707773370600,7.58937060546875,-0.706711368419975,0.07404898655116558,-0.8292803479902445
1769657707783358500,7.5993583984375,-0.6077016897439956,-0.6093044487655163,-0.282209944819659
1769657707793346300,7.60934619140625,-0.7401590261220932,-1.4556173262298107,-0.14840791583433746
1769657707803334400,7.61933447265625,-0.8265687509439885,-2.076010739764571,0.03907514219507575
1769657707813322500,7.629322509765625,-0.7031411087177694,-2.3982255088448525,0.2733912630699575
1769657707823310300,7.639310302734375,-0.45733445653542876,-2.706597630533576,0.2042636585690081
1769657707833298400,7.64929833984375,-0.317716873139143,-3.0808155585736032,-0.22826617318615317
1769657707843286500,7.65928662109375,-0.27478388647213575,-3.4100270546734333,-0.8490326578170061
1769657707853274600,7.669274658203125,-0.21838073898777363,-3.3198329890072342,-1.2124310856789349
1769657707863262500,7.679262451171875,-0.21462606262937187,-2.9630753143340347,-1.385828042949736
1769657707873250600,7.68925048828125,-0.3087023765563965,-2.6347914544731377,-1.786156417671591
1769657707883238700,7.69923876953125,-0.5227579458214342,-2.1945435956865547,-2.063368554203957
1769657707893226500,7.7092265625,-0.7255766662791371,-1.7798334982603787,-2.1750720024973154
1769657707903214300,7.71921435546875,-0.8434946051731705,-1.4305916060447692,-2.2143105185605583
1769657707913202400,7.729202392578125,-0.8182944052040576,-1.0010030884385108,-2.1702225166395306
1769657707923190500,7.7391904296875,-0.9921823608621955,-0.7733551932811736,-1.9868829881556331
1769657707933178400,7.749178466796875,-1.3799205724716186,-0.6856698955655097,-1.6772035832606256
1769657707943166500,7.75916650390625,-1.6417346488639712,-0.5111088629513979,-1.3794848114028573
1769657707953154600,7.769154541015625,-1.689516098475456,-0.4244458940207958,-1.2120417941004038
1769657707963142400,7.779142333984375,-1.7656652721762656,-0.32937282414138314,-0.8949313624218106
1769657707973130500,7.789130615234375,-1.6821601827546953,-0.44370296767652034,-0.4061186485610902
1769657707983118600,7.79911865234375,-1.3117673659607767,-0.49903556331992144,-0.12582593553960322
1769657707993106700,7.809106689453125,-1.52795278686136,-0.6136152977019548,0.11451339114755392
1769657708003094500,7.819094482421875,-1.779255113850534,-0.4541337607979774,0.34752602820843453
1769657708013083400,7.82908349609375,-1.7712155997797845,-0.3868202199816704,0.3571607025161385
1769657708023071500,7.839071533203125,-1.5002116702377795,-0.5176642759442329,0.4757502570614218
1769657708033059000,7.84905908203125,-1.8870719299688934,-0.41000352717041966,0.6904264424428344
1769657708043047000,7.859046875,-2.0828022996008393,-0.24207915609180927,0.8222522029191255
1769657708053035000,7.869034912109375,-2.0905974835217,0.10887246265113353,0.9900134923905134
1769657708063023000,7.879023193359375,-2.1285868763066826,0.4714584050863981,1.0380720053777097
1769657708073011200,7.88901123046875,-2.0132371804654596,0.7376186939895153,1.0217144525557755
1769657708082999000,7.8989990234375,-1.845958706074953,1.0104501312196255,0.9575637596845626
1769657708092987100,7.908987060546875,-1.7099167892083524,1.230650048458576,0.8995946780577302
1769657708102975200,7.918975341796875,-1.7043556479498743,1.4779863944262266,0.8926371140047907
1769657708112963000,7.928963134765625,-1.8627371146574616,1.9100275658816097,0.998100937256217
1769657708122951000,7.938950927734375,-1.8747056387402117,2.4755986713826656,1.0947142223149537
1769657708132939000,7.94893896484375,-1.640586063350737,3.054044456025958,1.0275652244105935
1769657708142927000,7.958927001953125,-1.0672098370566963,3.3416666351526976,0.7163505727723241
1769657708152915000,7.9689150390625,-0.42023032215237616,3.5058278543055055,0.644915275850892
1769657708162903000,7.978903076171875,0.36880496308058497,4.045571860110759,0.8710504283577203
1769657708172891100,7.98889111328125,1.3204255964517593,3.9677819334656,0.4919385907962918
1769657708182879000,7.99887890625,2.2323557322084904,3.8474820678710935,-0.16486235315948725
1769657708192867000,8.0088671875,2.491595866459608,3.037044805908203,-0.9678872930392622
1769657708202855200,8.018855224609375,1.7001611188694834,1.3091583525061607,-1.1710434287577867
1769657708212843300,8.02884326171875,0.7702864533603191,-0.15568740531802178,-1.1366808481678365
1769657708222831000,8.0388310546875,1.1807681194365023,-0.33644320091903207,-1.1992767128124833
1769657708232819200,8.048819091796876,1.2007704585015773,-0.44503158593177794,-0.9869584887340664
1769657708242807000,8.05880712890625,1.1502093150436878,-0.6039204176396131,-0.8279819787427782
1769657708252795000,8.068794921875,1.3933110921815037,-0.8036305045574903,-0.4792950900614261
1769657708262783000,8.078782958984375,1.877118983492255,-0.7439578338831663,-0.23173808708041904
1769657708272771000,8.08877099609375,2.368663606534898,-0.5123293446570635,-0.02835866400003433
1769657708282759000,8.098759033203125,2.61745190487653,-0.07520809345841407,0.40032939763516184
1769657708292747000,8.1087470703125,2.431232875433564,0.5337491493046284,0.7441571558475494
1769657708302735000,8.118735107421875,1.5794263689890502,0.9867319865018129,0.8695803558051586
1769657708312723200,8.12872314453125,0.3635100715428591,1.2893804698467255,1.067702589009702
1769657708322711000,8.1387109375,-0.46804216690212486,1.2875988471269606,1.0555141385659574
1769657708332699100,8.14869921875,-0.7321066525697708,0.8887953438848256,1.0177712678879498
1769657708342688000,8.15868798828125,-0.622891367830336,0.38084640626907346,0.8787018198937178
1769657708352676000,8.168676025390624,-0.2549021050468087,-0.08668927241563797,0.7356234285190701
1769657708362664000,8.178663818359375,-0.1979354784607887,-0.549156561794877,0.5184285383149981
1769657708372652000,8.188652099609374,-0.28017683155685663,-0.8768167367994785,0.2394830021187663
1769657708382640000,8.19864013671875,-0.21617139237523078,-0.9382593397557735,0.002773556366562843
1769657708392628000,8.2086279296875,-0.0615410948947072,-0.8426835810512304,-0.02952595421373844
1769657708402616000,8.218615966796875,-0.025428309636563062,-0.8093424524635076,-0.008680442322790622
1769657708412604200,8.228604248046874,-0.05400719225853681,-0.8576952722221612,0.04149170181751251
1769657708422592300,8.23859228515625,-0.07450316005945205,-1.0452934810638428,0.1872775985851884
1769657708432580000,8.248580078125,-0.14858005753085016,-1.1552157450288534,0.325885566547513
1769657708442568000,8.25856787109375,-0.388902286952734,-1.2944190485358238,0.4298042061835527
1769657708452556000,8.26855615234375,-0.5953188857719302,-1.33131582377851,0.39299920087754725
1769657708462544000,8.2785439453125,-0.6937851052209735,-1.3627806371003388,0.29992694942653175
1769657708472532000,8.288531982421874,-0.680908087991178,-1.4169599710553884,0.1528475057169795
1769657708482520000,8.29852001953125,-0.6758493432968854,-1.4261696979492902,0.1266223466143012
1769657708492508200,8.308508056640624,-0.6005484569884836,-1.4770786319315432,0.07465104409754277
1769657708502496000,8.31849609375,-0.4581166929543018,-1.470301685142517,0.0645148500084877
1769657708512484000,8.328484130859374,-0.4084226877197623,-1.4230045119166372,0.2138160614207387
1769657708522472200,8.33847216796875,-0.3843558756947517,-1.412378488484025,0.26111440369039773
1769657708532460000,8.3484599609375,-0.32404037707224487,-1.3277262748539447,0.2602306065931916
1769657708542448000,8.3584482421875,-0.21681334354057907,-1.1819944463610648,0.33447102406322954
1769657708552436200,8.368436279296875,-0.06722790835946799,-0.9926718979448079,0.3673609017521143
1769657708562424000,8.378424072265625,0.06872106952667235,-0.7980103265881537,0.42706893600076434
1769657708572412000,8.388411865234374,0.15204787977188824,-0.5622469295144081,0.6114499363616108
1769657708582400000,8.39839990234375,0.11776230994090438,-0.47901218146681784,0.8427148529723286
1769657708592388000,8.40838818359375,0.016128127980232238,-0.3188888395279646,1.2349801866173744
1769657708602376000,8.4183759765625,-0.24413389666453003,-0.12454349451363086,1.675256686976552
1769657708612364000,8.428364013671874,-0.5443383478581905,-0.11227028839588164,1.8392489793032407
1769657708622352100,8.43835205078125,-0.6309050168074667,-0.0069791913628578185,1.7589347948774694
1769657708632340000,8.448340087890625,-0.4929647189736366,0.16749124035835264,1.6313637692362069
1769657708642328000,8.458328125,-0.17126009137257933,0.47174832794368265,1.4611784674882888
1769657708652316200,8.468316162109375,0.3702678752399981,0.9050999974757432,1.2312100204288958
1769657708662304300,8.47830419921875,1.0324924516797065,1.3973077606022357,0.8805608917638659
1769657708672293000,8.488293212890625,1.5323122972451149,1.647141184082627,0.5136924497038126
1769657708682281000,8.498281005859376,1.4131355904616414,1.3878537035584448,0.2651701088219881
1769657708692269000,8.50826904296875,0.9692764093101024,1.0472142199933527,-0.052770636200904844
1769657708702257200,8.518257080078126,0.7493279826141893,0.738480863776803,-0.9433134082749486
1769657708712245000,8.528244873046875,0.6247894565366208,0.19031682015061377,-1.862881491564214
1769657708722233000,8.538233154296876,0.6272631531737745,-0.44456864459514617,-2.4743334737524387
1769657708732221200,8.54822119140625,0.9023531829856336,-0.9354238240689039,-3.338884895479679
1769657708742209000,8.558208984375,1.1988074878655373,-1.0962620362788438,-3.9324049151360985
1769657708752197000,8.568197021484375,1.4251637357771396,-0.8033651316195726,-3.9989673453241585
1769657708762185200,8.578185302734376,1.5135397922359406,-0.1584744056880474,-3.916943726631999
1769657708772173000,8.588173095703125,1.349510090508312,0.7235773091554641,-3.965256798902154
1769657708782161000,8.598160888671876,0.7953343853771686,2.0099030676066874,-3.4250951522067186
1769657708792149000,8.60814892578125,-0.2448223173201084,3.260605139490962,-2.362636747460812
1769657708802137000,8.61813720703125,-1.2868845613777637,4.318689128544927,-1.0426366829447449
1769657708812125000,8.628125,-2.187259722288698,4.684568267306685,-0.19589491254389285
1769657708822113000,8.638113037109376,-2.2187081689976154,3.967544617578387,0.22934622350782155
1769657708832101000,8.64810107421875,-1.4508628251791,2.6879309239864346,0.6649383654430508
1769657708842089200,8.658089111328126,-0.8134097019024192,1.212304244428873,1.0038520481288433
1769657708852077000,8.6680771484375,-0.33343817388415337,0.1417214238077402,1.3126897415027021
1769657708862065200,8.678065185546876,-0.04879603348150849,-0.5515069243133067,1.5371461471423506
1769657708872053200,8.68805322265625,0.20808599333614108,-0.8371165945738553,1.407861595581472
1769657708882041000,8.698041015625,0.526453000947088,-0.680493954232335,0.9817971604481339
1769657708892029000,8.70802880859375,0.26255072010383007,-0.5901379760026931,0.5878393436715007
1769657708902017000,8.71801708984375,-0.3888755450762808,-0.48700551830828187,0.2922454550132155
1769657708912005000,8.728005126953125,-0.9401182654954493,-0.24601065032184122,-0.02192629286497831
1769657708921993000,8.737992919921876,-1.3827851681225,-0.31239830846488476,-0.4606827440500259
1769657708931981000,8.74798095703125,-1.5965033221267162,-0.542757800668478,-0.84483842099756
1769657708941969200,8.75796923828125,-1.6546262791410087,-0.775299897608161,-1.1845339017108083
1769657708951957000,8.76795703125,-1.6214403411149978,-1.0525935749441384,-1.4357397825881837
1769657708961945000,8.777945068359376,-1.5461073061026631,-1.4525795659691094,-1.6561150563940406
1769657708971933200,8.78793310546875,-1.4646877907834945,-1.737247571465373,-1.8160969440355896
1769657708981921000,8.797921142578126,-1.3990848532773554,-1.830805560606718,-1.8147171801149844
1769657708991909000,8.8079091796875,-1.3662171874202786,-1.8372347168713807,-1.6975941909909247
1769657709001898000,8.81789794921875,-1.2331108856141566,-1.8396043686121701,-1.3247548578277228
1769657709011886000,8.827885986328125,-1.1810334923744201,-1.6517472165733575,-0.8737117565214634
1769657709021874000,8.8378740234375,-1.1088296952985226,-1.5160691645830868,-0.5953557106509805
1769657709031862800,8.84786279296875,-1.025515452273935,-1.5482885956645012,-0.49347997501939533
1769657709041851000,8.857850830078124,-0.9312998760066926,-1.6054887387454508,-0.40893765150457617
1769657709051839000,8.8678388671875,-0.8981624532975256,-1.6151929711580275,-0.42406273992210625
1769657709061826800,8.877826904296874,-0.8999638036310672,-1.573682564640045,-0.41962008129954337
1769657709071814700,8.887814697265625,-0.8630347335539758,-1.5351532197594642,-0.3687085169687867
1769657709081802800,8.897802734375,-0.7402187934853136,-1.4809300466626882,-0.32819588931649923
1769657709091790800,8.907790771484375,-0.6265430222056806,-1.2954589129775762,-0.11581044522076844
1769657709101778700,8.91777880859375,-0.5472014822043478,-0.8646294553995132,0.0820671655729413
1769657709111766800,8.927766845703125,-0.5545990451097488,-0.23372575376629828,0.32905805910378694
1769657709121755000,8.9377548828125,-0.7329037942968308,0.016380056914687156,0.39898996572494505
1769657709131742700,8.94774267578125,-0.8027928846895694,0.2949123361349106,0.31846535341888665
1769657709141730800,8.957730712890625,-0.7262943130291998,0.8626426654964685,0.352743470595777
1769657709151719000,8.967718994140625,-0.1014132326863706,1.9282500357925891,0.45764176891893144
1769657709161707000,8.97770703125,0.4984533795177936,2.6519781515955922,0.3757227796450257
1769657709171694800,8.98769482421875,0.8748280472002923,2.9447558137893677,0.4041358041808009
1769657709181683000,8.997682861328125,0.7989477535687387,3.1224908002644773,0.9195221983209252
1769657709191670800,9.0076708984375,0.7927588358007371,2.8073376401335,0.8907485237792134
1769657709201658600,9.01765869140625,0.6519675324499606,1.5862702435344456,0.666232496906817
1769657709211646700,9.027646728515625,0.05804784595146775,-0.08568681737482547,0.8005433521971106
1769657709221634800,9.037634765625,-0.47314241265058515,-2.0569109024971723,0.7541179933696984
1769657709231623000,9.047622802734375,0.01186447918638587,-2.7336674237668515,0.6262301568642258
1769657709241610800,9.05761083984375,0.9956428765796125,-2.122354557788372,1.0581287049785255
1769657709251598800,9.067598876953125,2.0600014158584177,-1.3369418469667433,1.3566080859452485
1769657709261587000,9.0775869140625,3.228295692038536,-0.2041144593566656,1.991085846672952
1769657709271574800,9.08757470703125,4.059475297778844,0.8341255960643291,2.174790262946486
1769657709281563000,9.09756298828125,4.210257395398616,1.6478806042730807,1.400649472245574
1769657709291551000,9.107551025390626,3.7324493290245533,2.496463180235028,0.709524818405509
1769657709301538800,9.117538818359375,2.632780114650726,2.690487622731924,0.4938780344262719
1769657709311526700,9.127526611328125,1.5349756712354719,2.3331325666874645,0.41331338237077
1769657709321514800,9.1375146484375,0.3749916888915002,1.9250480248808859,0.34437662426680327
1769657709331502800,9.1475029296875,-0.6025532209396361,1.5566203706800936,0.3471305991500616
1769657709341491700,9.15749169921875,-0.6818026987433433,1.0056927075594664,0.09304448666125535
1769657709351479800,9.167479736328126,-0.4358627755701542,0.2772247037529945,0.05280716881901026
1769657709361468000,9.177468017578125,-0.06433350209221243,-0.34585984856188295,0.3576511163815856
1769657709371456000,9.1874560546875,0.1099976672887802,-0.8616039700984954,0.46398207785636186
1769657709381443800,9.19744384765625,0.13980842979326844,-1.2831833687722682,0.5800862453266978
1769657709391432000,9.207431884765626,0.20163316393494604,-1.5105015935838222,0.5642191063702107
1769657709401419800,9.217419677734375,0.149873750603199,-1.5553367606103419,0.5685571355745196
1769657709411407600,9.22740771484375,0.2713083193160593,-1.6222516574978827,0.425225061699748
1769657709421395700,9.237395751953125,0.27169264245852826,-1.6874509826391935,0.41133886742740866
1769657709431383800,9.2473837890625,0.21878771235346792,-1.7121102075994015,0.4178837590262294
1769657709441372000,9.257371826171875,0.3251568138815462,-1.7455927904844284,0.33197190072387456
1769657709451359700,9.26735986328125,0.3694295247197151,-1.7787281673669815,0.300687412405014
1769657709461347800,9.277347900390625,0.2888847464084625,-1.769176495167613,0.4289335608288645
1769657709471336000,9.2873359375,0.07016118533238769,-1.6824579966574906,0.722374655367434
1769657709481323800,9.29732373046875,-0.1331004565872252,-1.5144757579118013,0.9326134428232907
1769657709491311900,9.307311767578126,-0.21062661772966385,-1.3725819001466035,1.0546873323529957
1769657709501300000,9.317300048828125,-0.36248043623417614,-1.2964338954895733,1.2794395060688257
1769657709511287800,9.327287841796876,-0.43090602994561195,-1.307408293968439,1.4413576224699616
1769657709521275600,9.337275634765625,-0.40356647986024613,-1.4038783711642027,1.561951064183563
1769657709531263700,9.347263671875,-0.4428618406772613,-1.543316652470827,1.6055593197636306
1769657709541251800,9.357251953125,-0.2781331238348037,-1.6435551422894,1.550746802471578
1769657709551239700,9.36723974609375,0.0798994661450386,-1.6616209603339434,1.425457458026707
1769657709561227800,9.377227783203125,0.4422681125678122,-1.437708744573593,1.205673281981796
1769657709571216000,9.3872158203125,0.7969115715660154,-1.0657610995531082,0.8783136973589658
1769657709581204000,9.397203857421875,1.037972928917408,-0.7635457469284535,0.5735530441656709
1769657709591191800,9.40719189453125,1.0904898826181888,-0.3581850771278143,0.5633379396215081
1769657709601180000,9.417179931640625,0.847154588985443,0.0008937339693307876,0.7957179778672754
1769657709611168000,9.42716796875,0.3123345225136727,0.18165771287679672,1.100687159244716
1769657709621155800,9.43715576171875,0.07019516066722571,0.49080724867880343,1.251511926962435
1769657709631144000,9.44714404296875,0.3098340109348297,1.1020184078484774,1.2586147447049616
1769657709641131800,9.4571318359375,0.7167968552350997,1.6506459773331879,1.0723273262009023
1769657709651119600,9.46711962890625,1.194569850295782,2.1393658983439208,0.9200359930619597
1769657709661108700,9.477108642578125,1.4342448678553104,2.449875616583228,0.832577782100439
1769657709671096800,9.487096923828124,1.3282102589786051,2.384221533411741,0.8987829232834279
1769657709681085000,9.4970849609375,1.0066798189006745,1.9945155288606882,0.5033724234804511
1769657709691072800,9.50707275390625,0.876940655440092,1.5731693544209002,-0.11119637555405497
1769657709701060900,9.517060791015625,0.7929284932792187,0.9476146126002073,-0.7226863516651093
1769657709711049000,9.527049072265624,0.8367688040494918,0.16723989594578742,-1.3924641199633478
1769657709721036800,9.537036865234375,1.2309843949794768,-0.4950578918606043,-2.305785125556588
1769657709731024600,9.547024658203124,1.5756277073584497,-0.850977946665883,-3.0346190400660036
1769657709741012700,9.5570126953125,1.686387883452326,-0.8364975858926773,-3.59450040949285
1769657709751000800,9.567000732421874,1.900644235986471,-0.5642477479428053,-4.030853014406562
1769657709760988700,9.57698876953125,2.012571848424524,0.2829845824539661,-4.071415326419473
1769657709770976800,9.586976806640624,1.759361934248358,1.5598954468280075,-3.9281174470752473
1769657709780964900,9.59696484375,0.8235958726130426,2.85731952239871,-3.660765902560949
1769657709790953000,9.606952880859374,-0.524640106306225,4.153682106217742,-2.562708799558878
1769657709800940800,9.61694091796875,-1.5368950949907303,4.949935360005497,-1.459547943677008
1769657709810929000,9.626928955078125,-1.635397554796934,4.267158263272047,-0.8782730730876326
1769657709820917000,9.6369169921875,-1.2291421281136572,2.7805016556560993,-0.4675076216340065
1769657709830904800,9.64690478515625,-0.9936709919847547,1.3059469892442226,-0.03816094995960593
1769657709840892700,9.656892578125,-0.7792974428117275,-0.017583587485551833,0.13831497636511922
1769657709850880800,9.666880859375,-0.6445182393573224,-0.8288894489765167,0.3188343328617513
1769657709860868900,9.676868896484375,-0.42602176503539085,-1.1632423996180294,0.5419206191919743
1769657709870856700,9.686856689453125,-0.14939678074121474,-1.2453829226881266,0.6507219163030386
1769657709880844800,9.6968447265625,0.16811302551850676,-0.8162000632733106,0.7816096652768552
1769657709890833000,9.7068330078125,0.07109057513698935,-0.7957692696630955,0.7175066109396517
1769657709900820700,9.71682080078125,-0.16753917115330696,-1.010935868909955,0.16922946232780814
1769657709910808800,9.726808837890625,-0.49172553256750107,-1.0247738401263953,-0.27480609830394387
1769657709920797000,9.736796875,-0.7359948921799659,-1.1919932778060436,-0.6642080053418874
1769657709930784800,9.74678466796875,-0.7722950167037547,-1.3526432739675045,-0.8088209128074347
1769657709940772900,9.75677294921875,-0.8389970014929771,-1.4642039527893065,-0.9114273008011281
1769657709950761000,9.766760986328125,-0.7812661125361919,-1.6055232255369425,-1.1994146599784492
1769657709960748800,9.776748779296875,-0.6555960982106626,-1.5730828451812267,-1.5301263315081595
1769657709970736600,9.786736572265625,-0.6917747883118689,-1.6091373243808746,-1.7869262330003082
1769657709980724700,9.796724853515625,-0.8188790732242166,-1.8175778302431105,-1.8305637146748601
1769657709990713900,9.8067138671875,-0.8562709385074675,-1.9169068040013313,-1.7814600765489041
1769657710000702000,9.816701904296876,-0.87739190633893,-1.8786527689307928,-1.5459563533246516
1769657710010689800,9.826689697265625,-0.7837211044728756,-1.7901532322227953,-1.5356170378789304
1769657710020678000,9.836677978515626,-0.691545071209222,-1.5772458100795745,-1.4840958172172307
1769657710030666000,9.846666015625,-0.7851825553275644,-1.2889216201633213,-1.2954584745861588
1769657710040653800,9.85665380859375,-1.016349272260815,-1.0811018765479325,-1.1956132218688726
1769657710050641700,9.8666416015625,-1.1796999056831001,-0.87783965010643,-1.1008227683231233
1769657710060629500,9.87662939453125,-1.2266847980894147,-0.7710615293860436,-0.9545347672522068
1769657710070617600,9.88661767578125,-1.160473811687529,-0.6923223391920328,-0.8798295087493956
1769657710080605700,9.896605712890626,-1.0148714547932147,-0.5391928016632795,-0.7342351890310644
1769657710090593500,9.906593505859375,-0.8773789007268845,-0.3079980276793241,-0.6013359541043639
1769657710100581600,9.91658154296875,-0.8683644041441381,0.03196925571262836,-0.4411328249275684
1769657710110569700,9.92656982421875,-0.9688182902790605,0.3883008139282465,-0.03698649935275316
1769657710120557800,9.936557861328126,-0.7918317840836941,0.6908563582926989,0.40091947248280047
1769657710130545700,9.946545654296875,-0.9888460560463368,0.6845552123218774,0.5103162512689828
1769657710140533800,9.95653369140625,-1.468168180245161,0.6946060662150383,0.8874337001428008
1769657710150521900,9.96652197265625,-1.6318224727891384,0.798477944099903,1.1135840502187608
1769657710160509700,9.976509765625,-1.344237703063339,0.8189736196398735,0.9977452556863426
1769657710170497500,9.98649755859375,-0.8973148965574801,0.9318535643666982,0.6825219529286026
1769657710180485600,9.996485595703126,-0.42728813170939683,1.4846218869179486,0.4572694284752011
1769657710190473700,10.0064736328125,0.031281273448467255,2.1651585112482308,0.2828013348415494
1769657710200461600,10.016461669921876,0.41632571592926976,2.786851901465654,0.21417378881722687
1769657710210449700,10.02644970703125,0.634520869217068,3.253266467165947,0.16064736581295727
1769657710220437800,10.036437744140626,0.5418120442509651,3.584436696118116,0.20436405020356177
1769657710230425600,10.046425537109375,0.4428900438584387,3.485205337515473,-0.33314912780970335
1769657710240413700,10.05641357421875,0.12077858902215957,2.3046803791850805,-0.7643298830434679
1769657710250401800,10.06640185546875,-0.2436016894839704,0.2518050158143043,-0.45427287700772284
1769657710260390000,10.076389892578124,-0.20816943383589387,-1.6989280699431895,-0.4200511661931872
1769657710270377700,10.086377685546875,0.35737419913634655,-2.4629420189052817,-0.3568728254854679
1769657710280365800,10.09636572265625,0.8830569463633,-2.4334739323586225,0.07405395498722792
1769657710290353700,10.106353759765625,1.5301134720265865,-1.997665517324209,0.18026508947461842
1769657710300341500,10.116341552734376,2.628619487839937,-1.3279098147273063,0.31485154683589933
1769657710310329600,10.12632958984375,3.6536218760251997,-0.31949615777134893,0.6671487349689006
1769657710320317700,10.136317626953126,4.1479321643888944,0.7938684044778347,1.0286556499958037
1769657710330306800,10.146306884765625,4.017165265315771,1.9335569100290535,0.8795493766337633
1769657710340294700,10.156294677734374,3.2474738552391527,2.6089859820872543,0.3505886306494474
1769657710350282800,10.16628271484375,2.227922718197107,2.489029815363884,-0.11387421646118163
1769657710360270800,10.176270751953124,1.305472357469797,1.9903636698782443,-0.26731881128847595
1769657710370258700,10.1862587890625,0.22309461576715112,1.6702905890017747,-0.17291472671180963
1769657710380246500,10.19624658203125,-0.15038798373565077,1.3200462417453527,-0.3394640100449323
1769657710390234600,10.206234619140625,-0.1584440105497837,0.8273784598916769,-0.3684031042814255
1769657710400222700,10.21622265625,-0.3632932139217853,0.3139128046810627,0.1596498792082071
1769657710410210600,10.22621044921875,-0.31465061743631956,-0.09197802647352218,0.4024643638372421
1769657710420198700,10.23619873046875,-0.30282427830323577,-0.573308421754837,0.45363370232135053
1769657710430186800,10.246186767578125,-0.5073685073792934,-0.918340002799034,0.5716244141906499
1769657710440174600,10.256174560546874,-0.49159912970885633,-0.9923813905656337,0.5949857082948088
1769657710450162700,10.26616259765625,-0.3037865474641323,-1.165520865944028,0.5791349359512329
1769657710460150800,10.27615087890625,-0.20654197876453398,-1.3748796556949614,0.5370139963194728
1769657710470139000,10.286138916015625,-0.07886369335651397,-1.6340110688745975,0.47461482329070565
1769657710480126700,10.296126708984374,-0.023505963271856306,-1.8518384117633104,0.4025646093413234
1769657710490114800,10.30611474609375,0.05798661728352308,-2.0419395433366296,0.18721680830866097
1769657710500102700,10.3161025390625,0.13670534921139477,-2.165695686864853,0.13393062380105256
1769657710510090500,10.326090576171875,0.23154899424910544,-2.1926982600808143,0.049694005234539505
1769657710520078600,10.33607861328125,0.31547815430164333,-2.1757506324112414,0.08388970482498406
1769657710530066700,10.346066650390625,0.25965514479279517,-2.2482775239616632,0.16992402046322821
1769657710540054800,10.3560546875,0.21613266780003904,-2.2558377300828694,0.28242899439781904
1769657710550042600,10.366042724609375,0.1286624741397798,-2.1475421905368566,0.40651451601088046
1769657710560030700,10.37603076171875,0.14340645428523421,-1.8839912073493004,0.5507110977604985
1769657710570018800,10.386018798828125,0.2614119253322482,-1.5338473978579044,0.6016317221805453
1769657710580006700,10.396006591796874,0.281732390435785,-1.3008891213327645,0.4962514855593443
1769657710589994800,10.405994873046875,0.2555691906534135,-1.1459890670001507,0.5283547429151833
1769657710599982800,10.41598291015625,0.45752968684658407,-0.8597428524017333,0.6075235566981136
1769657710609970700,10.425970703125,0.6837292828917503,-0.560189996984601,0.6792762490056454
1769657710619958500,10.43595849609375,0.725754068672657,-0.3195411659568548,0.7317499480865896
1769657710629946600,10.445946533203125,0.6750337891303002,0.023246435552835464,0.801599144860357
1769657710639935700,10.455935791015625,0.5682603445850313,0.3072644527077675,0.7957644473575055
1769657710649923800,10.465923828125,0.2684906315468252,0.4258452394247055,0.7470923325166106
1769657710659911700,10.47591162109375,-0.06871785465627908,0.377908014729619,0.7273192721627653
1769657710669899800,10.485899658203126,-0.39628611359372734,0.17590192582905292,0.7228305824413895
1769657710679888000,10.495887939453125,-0.5520363550148903,0.09522796818017959,0.7474233180366456
1769657710689875700,10.505875732421876,-0.21485746023245156,0.3879366567909717,0.6839290432475507
1769657710699863600,10.515863525390625,0.4962463709928095,0.9993331093996762,0.6156849435828626
1769657710709851600,10.5258515625,1.2374936307430267,1.7337994768381118,0.4643566102571785
1769657710719839700,10.53583984375,2.106061594635248,2.4762708715558053,0.36011706810370087
1769657710729827600,10.54582763671875,2.401951105239242,2.9300878214895723,0.4327002198860049
1769657710739815700,10.555815673828125,1.8960218368828297,3.0810949600368738,0.5207954135768115
1769657710749803800,10.5658037109375,1.0934531163379548,2.8397932180583476,0.3045408729627728
1769657710759791600,10.57579150390625,0.3756616971075535,2.144145533835888,-0.21879282692000268
1769657710769779700,10.58577978515625,0.09399681895002722,1.2107242817610502,-1.0495704277306794
1769657710779767800,10.595767822265625,0.11309446426033973,0.2721370252251625,-1.7299781649842858
1769657710789755600,10.605755615234376,0.40172655108198524,-0.43355391410589217,-2.3573045926526186
1769657710799743700,10.61574365234375,0.851496417582035,-1.1469517745524644,-2.91224412176311
1769657710809731800,10.62573193359375,1.2402712787628174,-1.5425754787147044,-3.4280811822801827
1769657710819719700,10.6357197265625,1.5813574831821025,-1.3764759849756956,-3.8269980827689167
1769657710829707500,10.64570751953125,1.7385494478441774,-0.7508949396699667,-3.858691444149613
1769657710839695600,10.655695556640625,1.6560427218101919,0.3188093445509672,-3.5551860517144203
1769657710849683700,10.66568359375,1.3306921389222144,1.6880799281924963,-3.013469284531474
1769657710859671600,10.675671630859375,0.5763013199605047,2.995113543629646,-2.2344660023607315
1769657710869659600,10.68565966796875,-0.38407647423148156,3.802040751644969,-1.3659731495313345
1769657710879647700,10.695647705078125,-0.9795080265976488,3.624946985682845,-0.8893884874723851
1769657710889635800,10.7056357421875,-1.0456582227230071,2.8539836559742686,-0.30691797735765575
1769657710899623700,10.715623779296875,-0.7199227321706712,1.70584647102952,0.22724209083542227
1769657710909611800,10.72561181640625,-0.16246888215169308,0.4328519033163786,0.4811021394833922
1769657710919599900,10.735599853515625,0.24847908626198767,-0.5229167896449566,0.7528929816193878
1769657710929587700,10.745587646484376,0.418761857035011,-1.1212854183763266,0.8882835949704051
1769657710939575600,10.755575439453125,0.7653602490045129,-1.21784901907444,0.6374906788080931
1769657710949563600,10.765563720703126,0.9228945973634719,-1.0615648169070482,0.23693302537500857
1769657710959551700,10.7755517578125,0.32538214707002044,-1.034559905603528,-0.016226327657699584
1769657710969540600,10.78554052734375,-0.09374912779927254,-0.7854168024748563,-0.4030124992392957
1769657710979528700,10.79552880859375,-0.25181670625209807,-0.5149222837597132,-0.9356184698581695
1769657710989516800,10.805516845703124,-0.5272365525402128,-0.5261509492605925,-1.3652123942919074
1769657710999505000,10.8155048828125,-0.727546212786436,-0.6444394750326872,-1.6620814174525438
1769657711009492700,10.82549267578125,-0.6818738642834127,-0.8718301805585622,-1.9632719570741057
1769657711019480800,10.835480712890625,-0.6817920312188566,-1.0128285507887602,-2.146261064685136
1769657711029468700,10.84546875,-0.8712474122345447,-1.069109240937233,-2.07105647835806
1769657711039456800,10.855456787109375,-0.8379939619302749,-1.1581804400533438,-2.1988541523620486
1769657711049444900,10.86544482421875,-0.7619535093009472,-1.2376894455760716,-2.2191256637573242
1769657711059432700,10.8754326171875,-0.8770565369047224,-1.2815016992956398,-2.0125963983438906
1769657711069420800,10.8854208984375,-0.9070273122765123,-1.173693066483736,-1.6717578850753605
1769657711079409000,10.895408935546875,-0.896785319725424,-0.9441524894475937,-1.3997270967036486
1769657711089396700,10.905396728515624,-0.8779089159503579,-0.8474223000109196,-1.2415480207003653
1769657711099384800,10.915384765625,-0.7651436836443841,-0.9065174630582332,-1.117985207787156
1769657711109373000,10.925373046875,-0.661468205114454,-0.8772060283780098,-1.0995488028645515
1769657711119361000,10.935361083984375,-0.44527357799410816,-0.7926110978931188,-1.086824199717492
1769657711129348900,10.945348876953124,-0.15753917066454887,-0.7003788043975829,-1.0548122739069163
1769657711139336700,10.955336669921875,0.02704568170532584,-0.7233148588269949,-1.086254875396937
1769657711149324800,10.96532470703125,0.11451485245227813,-0.7405880651891231,-1.0334010909572242
1769657711159312600,10.975312744140625,0.12943988825306296,-0.5588152015000581,-0.8235375665545464
1769657711169300700,10.98530078125,0.052689972180128095,-0.24188451030254363,-0.5799260863289236
1769657711179288800,10.995288818359375,-0.2629166308067739,0.031920740395784374,-0.2699536898367107
1769657711189277000,11.00527685546875,-0.5296396681591868,0.328272753944993,-0.04405541482567787
1769657711199264800,11.0152646484375,-0.6919184345662593,0.34272388862371445,-0.03000102437958121
1769657711209252900,11.0252529296875,-0.8891640310667455,0.35799861464500427,0.10530892495065927
1769657711219241000,11.035240966796875,-0.8474048374194652,0.4314665864378214,0.09079904582202435
1769657711229228800,11.045228759765624,-0.6846168063160032,0.2678939808279276,-0.08129369698241352
1769657711239217000,11.055216796875,-0.5099616656776518,0.05548340229094028,-0.23242519256174562
1769657711249205000,11.065205078125,-0.22027247101850805,0.023785364735126494,-0.3012462153315544
1769657711259192800,11.07519287109375,0.41286183921098707,0.1581423972547054,-0.49337885273247956
1769657711269180700,11.0851806640625,1.2388709104456006,0.3734901982873678,-0.8360171088993549
1769657711279168800,11.095168701171875,1.7220236988484858,0.5321399605423212,-0.8746323784977197
1769657711289158000,11.105157958984375,1.6275499100364743,0.5310387213021517,-0.6986568029105663
1769657711299146000,11.11514599609375,1.2476746868871151,0.34216099404394623,-0.6349830799013376
1769657711309133800,11.1251337890625,1.1698375600993633,-0.08434007894098758,-0.6835767226785421
1769657711319122000,11.135121826171876,1.3054793717324733,-0.6690121907532215,-0.8479694124996662
1769657711329110000,11.145110107421875,1.540951676905155,-1.1867337498426436,-1.0707532087519764
1769657711339097900,11.155097900390626,2.0995501669146117,-1.4366016601145266,-1.2573545155107975
1769657711349085700,11.165085693359375,2.80476399025321,-1.1732926689893006,-1.4256152789369225
1769657711359073800,11.17507373046875,3.351446270889044,-0.5887707793027163,-1.5637228961616754
1769657711369061600,11.1850615234375,3.6668987062275407,0.22787468965053556,-1.459126503394544
1769657711379049700,11.1950498046875,3.6274259430170055,1.279811846512556,-1.3338415428638457
1769657711389037800,11.205037841796875,3.2787095359802243,2.538970781096816,-1.1751651848629117
1769657711399026000,11.21502587890625,2.4759122673764824,3.5525931126117705,-0.9150126119419932
1769657711409013800,11.225013671875,1.2619573331311345,4.085549065712094,-0.8384501812651753
1769657711419001900,11.235001953125,-0.125601625264436,3.896115458136797,-1.0361258397459983
1769657711428990000,11.244989990234375,-0.7554384283185005,3.1647236758381125,-0.8880337118625641
1769657711438977800,11.254977783203126,-0.6922412367798387,2.2015864999353885,-0.8180676107108592
1769657711448966000,11.2649658203125,-0.21046762777566907,1.287219492420554,-0.7845186845913529
1769657711458954000,11.2749541015625,0.18143910169005392,0.581046322530508,-0.6613064386814832
1769657711468941800,11.28494189453125,0.3917909941315651,0.2532125445246696,-0.5340107228502631
1769657711478929700,11.2949296875,0.9691112818762659,0.15897358738183975,-0.4224880379512906
1769657711488917800,11.304917724609375,1.0580573933079838,0.12256079626381397,-0.24187749603986738
1769657711498905900,11.31490576171875,0.8129974678397178,0.23386136284470557,-0.1252282619073987
1769657711508893700,11.324893798828125,0.9981856929302215,0.2744499783426523,-0.35183863071054217
1769657711518881800,11.3348818359375,1.394526605451107,0.19747896686494348,-0.7501216172099113
1769657711528870000,11.344869873046875,1.607982309126854,-0.04201777151823043,-0.9629106736704707
1769657711538858000,11.35485791015625,1.5403744615390895,-0.22167583501040936,-1.0178688830435276
1769657711548845800,11.364845703125,1.453852362383902,-0.33722879833877084,-1.0833803428739308
1769657711558834000,11.374833984375,1.353785429739952,-0.4060246866673231,-1.080095914375782
1769657711568822000,11.384822021484375,1.12112029094249,-0.40778175946772094,-0.966254138879478
1769657711578809900,11.394809814453126,0.9723065707862376,-0.4671142384022474,-0.8095262845978141
1769657711588797700,11.404797607421875,0.9603834932804107,-0.5584644883662462,-0.6520707005634904
1769657711598785800,11.414785888671876,1.0432698662817477,-0.7191770283699035,-0.5656514772608876
1769657711608773600,11.424773681640625,1.1942276127293705,-0.9512100067436694,-0.4712669741675257
1769657711618762800,11.4347626953125,1.3374880826726554,-1.1735936977624892,-0.45100686094909903
1769657711628750800,11.444750732421875,1.4365201193109154,-1.3290887953788042,-0.4174135111659765
1769657711638739000,11.454739013671874,1.4602946703910826,-1.4592325941175222,-0.30269144570380446
1769657711648726800,11.464726806640625,1.4169655240133403,-1.5907167015492916,-0.2724059052944183
1769657711658715000,11.47471484375,1.5016849576607345,-1.6805466100782156,-0.30846418388634916
1769657711668702700,11.48470263671875,1.6188240211367606,-1.754412641277909,-0.3415688733696937
1769657711678690800,11.49469091796875,1.7190683561742304,-1.7962889584988355,-0.32450492584407326
1769657711688678700,11.5046787109375,1.7173590680383144,-1.6617250052303074,-0.1677095592841506
1769657711698666800,11.514666748046874,1.584562855094671,-1.3669108687728642,0.01576952380090952
1769657711708654800,11.52465478515625,1.4222057627543807,-0.994708372208476,0.10181786796450615
1769657711718642700,11.534642578125,1.2177259772166609,-0.6633779842585324,0.08278583523631096
1769657711728630800,11.544630859375,1.0783084464371204,-0.36568390845060345,0.023149697180092334
1769657711738619000,11.554618896484374,0.9372925405502319,-0.25446225232481956,-0.11514145991802215
1769657711748607000,11.56460693359375,0.7979376997433603,-0.4234463615894317,-0.3058515171699226
1769657711758594800,11.5745947265625,0.67170522922948,-0.8216559905916452,-0.46646483458280563
1769657711768583000,11.5845830078125,0.7372609665930271,-1.152989301151037,-0.6881902078233659
1769657711778571000,11.594571044921874,0.9476908927068114,-1.2570230915993452,-0.9271161605812609
1769657711788558800,11.604558837890625,1.0469383256614209,-1.1169833372682332,-1.2553230096831918
1769657711798546700,11.614546630859374,0.914032076472044,-0.6745102036476135,-1.373121998372674
1769657711808534800,11.62453466796875,0.6640177434667944,0.017745500048995017,-1.33417428194955
1769657711818523000,11.63452294921875,0.13092705807089805,0.6192290459305048,-1.37719494690001
1769657711828510700,11.6445107421875,-0.60958648057729,1.059713051560521,-1.348200030823052
1769657711838498800,11.654498779296874,-1.1667974617511034,1.4139602047175168,-1.4449609076589345
1769657711848487000,11.66448681640625,-1.475831554479897,1.7237445312917232,-1.550701355894655
1769657711858474800,11.674474853515624,-1.8071210258975623,1.7786182772517203,-1.3777533114351332
1769657711868462800,11.684462890625,-1.8902827087089418,1.6974486450403927,-1.3364036484368145
1769657711878451000,11.694450927734374,-1.5841338160276413,1.6154232727825641,-1.348014006731659
1769657711888438800,11.704438720703125,-1.2469333670005203,1.4457780692607163,-1.3910581986881791
1769657711898427000,11.714427001953124,-0.9102008277460932,1.4160235669881105,-1.383570765542239
1769657711908414700,11.724414794921875,-0.6977101697102188,1.3026742511838674,-1.3210938511021435
1769657711918402800,11.73440283203125,-0.5821364558547735,1.1192466060250996,-1.3949742030881345
1769657711928390700,11.744390625,-0.4525391850829124,0.9923936655253172,-1.2829454683631658
1769657711938378800,11.754378662109374,-0.4113698470875621,1.01833065533638,-1.0978640646480022
1769657711948368000,11.764367919921876,-0.30033260761797426,1.0926759944856166,-0.8083814984768629
1769657711958356000,11.77435595703125,-0.26422113753408194,1.0799632279068232,-0.526288750296086
1769657711968343800,11.78434375,-0.29229017093777654,0.9260586143523454,-0.18127865043133495
1769657711978332000,11.794331787109375,-0.37119594987034793,0.6849182004153728,0.010980243697762489
1769657711988320000,11.804320068359376,-0.4117386803999543,0.4984469497770071,0.07438961668238044
1769657711998307600,11.8143076171875,-0.4847036711066961,0.404006917104125,0.15322496072724462
1769657712008295700,11.824295654296876,-0.7269248660176992,0.3348778512984514,0.20204758995473385
1769657712018283800,11.83428369140625,-0.872983149985969,0.3019815438687801,0.08034048791080713
1769657712028271900,11.84427197265625,-0.8261942185431719,0.3079688015848398,-0.15761106685698031
1769657712038259000,11.854259033203125,-0.8379334639146924,0.26437808166146276,-0.44102030446380375
1769657712048246800,11.864246826171875,-0.8060407805696129,0.29929508126378057,-0.7063271914079785
1769657712058235000,11.87423486328125,-0.8109303061768413,0.39987084021270275,-0.9077905517339706
1769657712068223000,11.884222900390625,-0.9599366262957453,0.4151753768503666,-1.0303943103566766
1769657712078210800,11.8942109375,-1.075834457539022,0.4315910896003246,-1.1823891447670758
1769657712088199000,11.904198974609375,-1.1184729913040994,0.4645861812293529,-1.229585634097457
1769657712098187000,11.91418701171875,-1.1332663635492324,0.48358255812227724,-1.1452439477212726
1769657712108175000,11.924175048828126,-1.2077207160308956,0.4513859233945608,-1.0445601983532309
1769657712118163000,11.934162841796875,-1.288008304710686,0.3517968373954296,-1.0114596005231142
1769657712128151000,11.944151123046876,-1.2891615663990377,0.22666414481699465,-1.0790956512920558
1769657712138139100,11.95413916015625,-1.3197075113102792,0.12281973946094513,-1.1042354993760586
1769657712148126700,11.964126708984375,-1.4151882852077484,0.023272154515981674,-1.2010700259700418
1769657712158114800,11.97411474609375,-1.4563082311034201,-0.06811433580517769,-1.229439065233618
1769657712168103000,11.98410302734375,-1.487776843817532,-0.1721820285230875,-1.261752019817382
1769657712178091000,11.994091064453125,-1.474527486144006,-0.25440555370151996,-1.3245453067302704
1769657712188078800,12.004078857421876,-1.466004572470486,-0.27454759349823,-1.3253928634703158
1769657712198067000,12.01406689453125,-1.530319515992701,-0.32472821320593354,-1.2958642789080739
1769657712208055000,12.024054931640626,-1.5507657994329929,-0.32407471773326396,-1.2676374245941637
1769657712218043000,12.03404296875,-1.5314742389857767,-0.24950375313460826,-1.2724851568862796
1769657712228031000,12.044031005859376,-1.5519138004243374,-0.19349837279617785,-1.2041940032094716
1769657712238019000,12.05401904296875,-1.6233824150934815,-0.04881576109528541,-1.2077861824825404
1769657712248007200,12.064007080078126,-1.7060516382128,0.19813772303462027,-1.1640183524265886
1769657712257995000,12.0739951171875,-1.6842901805207133,0.49827510034143924,-1.0891726625397802
1769657712267984000,12.08398388671875,-1.4509458272874354,0.8319581888973713,-0.9449287345170975
1769657712277972000,12.093971923828125,-1.1161524394020437,1.014341293439269,-0.8095201471179724
1769657712287960000,12.1039599609375,-0.673067603623867,1.0684031384944914,-0.8128326326668261
1769657712297948000,12.113947998046875,-0.22319763775020837,1.17698626281023,-0.8740496101737022
1769657712307936000,12.12393603515625,-0.05300619852244853,1.24791273342669,-0.9588485387980937
1769657712317924000,12.133924072265625,-0.2286605793312192,1.252002633088827,-0.9165671479076146
1769657712327912000,12.143911865234376,-0.5531389094293118,1.2912228828430174,-0.716762952965498
1769657712337900000,12.153900146484375,-0.829157452262938,1.267987553206086,-0.5550538031399249
1769657712347887900,12.163887939453126,-0.9737944712564348,1.1344377454161643,-0.36044542327523227
1769657712357876000,12.1738759765625,-0.8718389483869076,0.9492483512818812,-0.19302637137025594
1769657712367863800,12.18386376953125,-0.6089876379013062,0.7501461671292782,-0.00862257465571165
1769657712377852000,12.193851806640625,-0.2600137489721179,0.4803606734663248,0.21537527356147765
1769657712387840000,12.203840087890624,0.033469723403453826,0.11630641204416751,0.4279679306671023
1769657712397827800,12.213827880859375,0.22599983568936585,-0.3577735737174749,0.3720224638223648
1769657712407816000,12.22381591796875,0.425734180265665,-0.7826105128824711,0.46618777120709415
1769657712417804000,12.233803955078125,0.7064628004863858,-1.2353443437546492,0.5322609565734863
1769657712427792000,12.2437919921875,1.1383709932118653,-1.6697487372100352,0.5573802002608775
1769657712437780000,12.253780029296875,1.5914482306942344,-1.913221978008747,0.631990912348032
1769657712447768000,12.26376806640625,2.002617586773634,-2.0487281805634496,0.8507257254704833
1769657712457756200,12.273756103515625,2.448667409837246,-2.0354379063576458,1.049106901872158
1769657712467744000,12.283743896484374,2.7382220183312893,-1.8587199879705905,1.2160673963546753
1769657712477731800,12.29373193359375,2.805614177341759,-1.4691554377168417,1.2837068081244825
1769657712487720000,12.303719970703124,2.551143449449539,-0.825102916175127,1.4320640166848897
1769657712497707800,12.313707763671875,2.039562877333164,-0.08712474122345447,1.5192662070587277
1769657712507695900,12.32369580078125,1.2909618938192724,0.4322615362077951,1.4846239327445625
1769657712517684000,12.33368408203125,0.5193614352509379,0.8137082464575767,1.5839412160649895
1769657712527672000,12.343672119140624,-0.11863017881661653,0.9084563221663237,1.640492832109332
1769657712537660000,12.353659912109375,-0.4575193115830421,0.7003758817881345,1.5526374385237693
1769657712547648000,12.36364794921875,-0.5812497361481189,0.3160112382650375,1.5009116352006793
1769657712557636000,12.373635986328125,-0.551562453892827,-0.10764730477035045,1.4206246310427784
1769657712567624000,12.3836240234375,-0.3492275714293122,-0.4413783241212368,1.2893413068801163
1769657712577612000,12.393612060546875,-0.16676730999797582,-0.6247071850806475,1.1985545360177754
1769657712587601000,12.403600830078124,-0.11082710385024547,-0.6975076328754425,1.1498331752076745
1769657712597589000,12.413589111328125,-0.1292147011950612,-0.7339888130545615,1.1615560539662837
1769657712607576800,12.423576904296874,-0.0954345966681838,-0.7321446464926004,1.1223971790105103
1769657712617565000,12.43356494140625,-0.06667144352048635,-0.7325906366944313,1.0621735964551566
1769657712627553000,12.443552978515624,-0.0911491744339466,-0.7143640751302242,1.031473337765038
