time,seconds_elapsed,z,y,x
1769657700247393000,0.06339306640625,-0.240478515625,0.9805755615234375,0.147705078125
1769657700257381000,0.073381103515625,-0.2276153564453125,0.9717559814453125,0.14422607421875
1769657700267369000,0.083368896484375,-0.216278076171875,0.9631500244140625,0.14605712890625
1769657700277357000,0.093357177734375,-0.209197998046875,0.9484100341796875,0.15924072265625
1769657700287345200,0.10334521484375,-0.1996612548828125,0.93988037109375,0.163726806640625
1769657700297333000,0.1133330078125,-0.2066497802734375,0.947265625,0.1728973388671875
1769657700307321000,0.123321044921875,-0.2042236328125,0.95550537109375,0.1721649169921875
1769657700317309200,0.13330908203125,-0.195892333984375,0.958770751953125,0.162567138671875
1769657700327297300,0.14329736328125,-0.196319580078125,0.963775634765625,0.153411865234375
1769657700337285000,0.15328515625,-0.19866943359375,0.9679412841796875,0.154510498046875
1769657700347273200,0.163273193359375,-0.20184326171875,0.964569091796875,0.1556549072265625
1769657700357261000,0.173260986328125,-0.198028564453125,0.9594879150390625,0.159210205078125
1769657700367249000,0.183248779296875,-0.2022705078125,0.9553375244140625,0.1660614013671875
1769657700377237000,0.193237060546875,-0.21514892578125,0.9522247314453125,0.17156982421875
1769657700387225000,0.20322509765625,-0.2254486083984375,0.952850341796875,0.1703033447265625
1769657700397213200,0.213213134765625,-0.228973388671875,0.9564056396484375,0.164154052734375
1769657700407201000,0.223200927734375,-0.2306060791015625,0.958648681640625,0.1582183837890625
1769657700417190100,0.233190185546875,-0.22943115234375,0.957366943359375,0.1525421142578125
1769657700427178200,0.24317822265625,-0.219757080078125,0.9635162353515625,0.15203857421875
1769657700437166300,0.253166259765625,-0.2097320556640625,0.962066650390625,0.1519317626953125
1769657700447154000,0.26315380859375,-0.20526123046875,0.960479736328125,0.15447998046875
1769657700457142000,0.27314208984375,-0.2050323486328125,0.9626007080078125,0.161163330078125
1769657700467130000,0.283130126953125,-0.20660400390625,0.960906982421875,0.163970947265625
1769657700477118000,0.293117919921875,-0.208953857421875,0.959686279296875,0.1639251708984375
1769657700487106000,0.30310595703125,-0.212310791015625,0.959716796875,0.16400146484375
1769657700497094100,0.31309423828125,-0.215087890625,0.964996337890625,0.1619873046875
1769657700507082200,0.323082275390625,-0.2201080322265625,0.9623870849609375,0.1572723388671875
1769657700517070000,0.333070068359375,-0.21533203125,0.9658660888671875,0.1577606201171875
1769657700527058200,0.34305810546875,-0.212982177734375,0.9648895263671875,0.1573486328125
1769657700537046300,0.35304638671875,-0.211029052734375,0.9590911865234375,0.1559600830078125
1769657700547034000,0.3630341796875,-0.2054443359375,0.95562744140625,0.157928466796875
1769657700557022200,0.373022216796875,-0.2025909423828125,0.95660400390625,0.1599578857421875
1769657700567010000,0.383010009765625,-0.20831298828125,0.9582061767578125,0.159149169921875
1769657700576998000,0.392997802734375,-0.2170257568359375,0.953582763671875,0.1584930419921875
1769657700586986000,0.402986083984375,-0.21319580078125,0.9645538330078125,0.1501312255859375
1769657700596974000,0.41297412109375,-0.2160186767578125,0.9703216552734375,0.1524658203125
1769657700606962200,0.422962158203125,-0.22479248046875,0.962158203125,0.1559906005859375
1769657700616950000,0.432949951171875,-0.2189178466796875,0.9573211669921875,0.1583404541015625
1769657700626938000,0.442938232421875,-0.209075927734375,0.9588470458984375,0.1641082763671875
1769657700636926200,0.45292626953125,-0.2081146240234375,0.959564208984375,0.16973876953125
1769657700646914000,0.4629140625,-0.206085205078125,0.960906982421875,0.173065185546875
1769657700656902100,0.472902099609375,-0.2028656005859375,0.9621734619140625,0.1711883544921875
1769657700666890200,0.48289013671875,-0.2042388916015625,0.96051025390625,0.1674957275390625
1769657700676878300,0.49287841796875,-0.2118072509765625,0.9615631103515625,0.159637451171875
1769657700686866000,0.502865966796875,-0.221923828125,0.962127685546875,0.153289794921875
1769657700696854000,0.51285400390625,-0.2239227294921875,0.9595947265625,0.152435302734375
1769657700706842000,0.522842041015625,-0.2212371826171875,0.9575347900390625,0.1566925048828125
1769657700716830000,0.532829833984375,-0.220733642578125,0.9594573974609375,0.161834716796875
1769657700726818000,0.542818115234375,-0.2193603515625,0.9573516845703125,0.1654052734375
1769657700736806100,0.55280615234375,-0.2155303955078125,0.960784912109375,0.1675262451171875
1769657700746794200,0.562794189453125,-0.2046966552734375,0.9643707275390625,0.1666107177734375
1769657700756782000,0.572781982421875,-0.2038421630859375,0.9661865234375,0.1580352783203125
1769657700766770200,0.582770263671875,-0.214111328125,0.965850830078125,0.153045654296875
1769657700776758300,0.59275830078125,-0.217193603515625,0.9639434814453125,0.1533966064453125
1769657700786746000,0.60274609375,-0.215606689453125,0.963043212890625,0.1578369140625
1769657700796734200,0.612734130859375,-0.2169952392578125,0.9574432373046875,0.1632080078125
1769657700806723000,0.62272314453125,-0.21490478515625,0.9541778564453125,0.1646728515625
1769657700816711200,0.632711181640625,-0.2137908935546875,0.95379638671875,0.1642303466796875
1769657700826699000,0.642698974609375,-0.21380615234375,0.957489013671875,0.1624298095703125
1769657700836687000,0.65268701171875,-0.2200775146484375,0.95977783203125,0.159088134765625
1769657700846675200,0.66267529296875,-0.2273406982421875,0.961456298828125,0.155303955078125
1769657700856663300,0.672663330078125,-0.223876953125,0.96221923828125,0.15667724609375
1769657700866651100,0.682651123046875,-0.221771240234375,0.9605560302734375,0.1607208251953125
1769657700876639200,0.69263916015625,-0.22064208984375,0.9567413330078125,0.165740966796875
1769657700886627000,0.702626953125,-0.2148590087890625,0.95660400390625,0.1657257080078125
1769657700896615000,0.712614990234375,-0.211944580078125,0.95733642578125,0.1653289794921875
1769657700906603000,0.72260302734375,-0.2126922607421875,0.95770263671875,0.162933349609375
1769657700916591000,0.732591064453125,-0.2135467529296875,0.957916259765625,0.161651611328125
1769657700926579000,0.742578857421875,-0.21612548828125,0.95831298828125,0.1604156494140625
1769657700936567000,0.752567138671875,-0.2165679931640625,0.959991455078125,0.1579132080078125
1769657700946555100,0.76255517578125,-0.2191925048828125,0.96063232421875,0.1563262939453125
1769657700956543200,0.772543212890625,-0.21990966796875,0.959503173828125,0.1585845947265625
1769657700966531000,0.782531005859375,-0.219879150390625,0.959136962890625,0.157440185546875
1769657700976519200,0.792519287109375,-0.21881103515625,0.95721435546875,0.1578369140625
1769657700986507300,0.80250732421875,-0.214874267578125,0.956878662109375,0.15777587890625
1769657700996495000,0.8124951171875,-0.2120513916015625,0.957427978515625,0.159332275390625
1769657701006483200,0.822483154296875,-0.212432861328125,0.9601898193359375,0.159423828125
1769657701016471000,0.832470947265625,-0.2171478271484375,0.9607086181640625,0.162261962890625
1769657701026459100,0.842459228515625,-0.2209930419921875,0.9605712890625,0.161773681640625
1769657701036447200,0.852447265625,-0.225311279296875,0.9576873779296875,0.1603546142578125
1769657701046435300,0.862435302734375,-0.22503662109375,0.9578094482421875,0.1593017578125
1769657701056423400,0.87242333984375,-0.2245941162109375,0.95953369140625,0.161895751953125
1769657701066411300,0.882411376953125,-0.2280120849609375,0.9605255126953125,0.1625823974609375
1769657701076399400,0.8923994140625,-0.22882080078125,0.961639404296875,0.163177490234375
1769657701086387500,0.902387451171875,-0.225860595703125,0.9618988037109375,0.1655426025390625
1769657701096375300,0.912375244140625,-0.2185516357421875,0.95819091796875,0.1660308837890625
1769657701106363400,0.92236328125,-0.211212158203125,0.9562225341796875,0.167022705078125
1769657701116351500,0.9323515625,-0.21014404296875,0.95220947265625,0.1667327880859375
1769657701126339300,0.94233935546875,-0.2127685546875,0.953125,0.16571044921875
1769657701136327200,0.9523271484375,-0.2174835205078125,0.9554595947265625,0.1633758544921875
1769657701146315300,0.962315185546875,-0.2239837646484375,0.9572601318359375,0.1627044677734375
1769657701156303400,0.972303466796875,-0.2293243408203125,0.958099365234375,0.160247802734375
1769657701166291200,0.982291259765625,-0.2270660400390625,0.9617462158203125,0.156494140625
1769657701176279300,0.992279296875,-0.2270050048828125,0.9621734619140625,0.1551666259765625
1769657701186267400,1.002267333984375,-0.2281951904296875,0.962493896484375,0.157379150390625
1769657701196255200,1.012255126953125,-0.2226104736328125,0.96160888671875,0.1607666015625
1769657701206243300,1.022243408203125,-0.2189788818359375,0.956451416015625,0.164794921875
1769657701216231400,1.0322314453125,-0.2123260498046875,0.9531097412109375,0.16571044921875
1769657701226219500,1.042219482421875,-0.2073974609375,0.9507598876953125,0.1642913818359375
1769657701236207400,1.052207275390625,-0.209503173828125,0.9519805908203125,0.1633758544921875
1769657701246196200,1.0621962890625,-0.2158050537109375,0.95391845703125,0.159423828125
1769657701256184300,1.072184326171875,-0.222503662109375,0.956756591796875,0.1551513671875
1769657701266172400,1.08217236328125,-0.232452392578125,0.9576568603515625,0.153228759765625
1769657701276160300,1.09216015625,-0.2311859130859375,0.9620513916015625,0.1538238525390625
1769657701286148400,1.1021484375,-0.2261810302734375,0.962799072265625,0.1538543701171875
1769657701296136400,1.112136474609375,-0.226531982421875,0.96392822265625,0.15380859375
1769657701306124300,1.122124267578125,-0.224090576171875,0.963653564453125,0.1543426513671875
1769657701316112400,1.1321123046875,-0.2196197509765625,0.96197509765625,0.15826416015625
1769657701326100200,1.142100341796875,-0.2170562744140625,0.9583282470703125,0.1622772216796875
1769657701336088300,1.15208837890625,-0.217681884765625,0.953155517578125,0.164215087890625
1769657701346076200,1.162076171875,-0.2191314697265625,0.9532012939453125,0.16375732421875
1769657701356064300,1.172064208984375,-0.2178497314453125,0.958404541015625,0.1618499755859375
1769657701366052400,1.18205224609375,-0.220001220703125,0.9597930908203125,0.1633148193359375
1769657701376040200,1.192040283203125,-0.221466064453125,0.9608306884765625,0.1610565185546875
1769657701386028300,1.2020283203125,-0.2241363525390625,0.9611053466796875,0.15777587890625
1769657701396016400,1.212016357421875,-0.2277984619140625,0.9586181640625,0.1578369140625
1769657701406004500,1.22200439453125,-0.229339599609375,0.96112060546875,0.156463623046875
1769657701415992300,1.231992431640625,-0.229034423828125,0.9618988037109375,0.1580657958984375
1769657701425980400,1.24198046875,-0.228179931640625,0.9603118896484375,0.1600799560546875
1769657701435968500,1.251968505859375,-0.2242431640625,0.9607086181640625,0.1586151123046875
1769657701445956400,1.261956298828125,-0.2203216552734375,0.960418701171875,0.158782958984375
1769657701455944200,1.271944091796875,-0.2159576416015625,0.9608306884765625,0.1588134765625
1769657701465932300,1.281932373046875,-0.2139739990234375,0.962249755859375,0.1592559814453125
1769657701475920100,1.291920166015625,-0.214324951171875,0.9618072509765625,0.154876708984375
1769657701485908200,1.301908203125,-0.2176971435546875,0.9601593017578125,0.15423583984375
1769657701495896300,1.311896240234375,-0.2189178466796875,0.9544525146484375,0.1504974365234375
1769657701505884400,1.321884521484375,-0.218719482421875,0.9487457275390625,0.145172119140625
1769657701515872300,1.331872314453125,-0.2196044921875,0.9517822265625,0.1504364013671875
1769657701525860400,1.3418603515625,-0.223114013671875,0.9525146484375,0.1547393798828125
1769657701535848400,1.351848388671875,-0.22442626953125,0.955047607421875,0.1589508056640625
1769657701545836300,1.361836181640625,-0.2227630615234375,0.957855224609375,0.1577911376953125
1769657701555824400,1.371824462890625,-0.222259521484375,0.95849609375,0.153778076171875
1769657701565812200,1.381812255859375,-0.221923828125,0.9597015380859375,0.151824951171875
1769657701575800300,1.39180029296875,-0.2280120849609375,0.960784912109375,0.1577911376953125
1769657701585788200,1.4017880859375,-0.23046875,0.9560394287109375,0.154388427734375
1769657701595776300,1.4117763671875,-0.2313690185546875,0.95465087890625,0.15252685546875
1769657701605764400,1.421764404296875,-0.23297119140625,0.9575653076171875,0.1549835205078125
1769657701615752200,1.431752197265625,-0.2374267578125,0.952850341796875,0.159759521484375
1769657701625740300,1.441740234375,-0.2326812744140625,0.9502410888671875,0.1612701416015625
1769657701635728400,1.451728271484375,-0.22222900390625,0.9453887939453125,0.16265869140625
1769657701645716500,1.461716552734375,-0.209716796875,0.9402313232421875,0.1586456298828125
1769657701655704300,1.471704345703125,-0.208221435546875,0.9511260986328125,0.159820556640625
1769657701665692400,1.4816923828125,-0.2118682861328125,0.95703125,0.1660308837890625
1769657701675681300,1.491681396484375,-0.2122039794921875,0.9573822021484375,0.1805877685546875
1769657701685669400,1.50166943359375,-0.19952392578125,0.9618072509765625,0.187835693359375
1769657701695657200,1.5116572265625,-0.2006683349609375,0.9711456298828125,0.1907196044921875
1769657701705645300,1.521645263671875,-0.2034454345703125,0.9615478515625,0.18243408203125
1769657701715633400,1.53163330078125,-0.1873626708984375,0.948760986328125,0.18511962890625
1769657701725621200,1.541621337890625,-0.1833343505859375,0.94384765625,0.217315673828125
1769657701735609300,1.551609375,-0.174652099609375,0.9480133056640625,0.223907470703125
1769657701745597400,1.561597412109375,-0.1749114990234375,0.930450439453125,0.204803466796875
1769657701755585500,1.57158544921875,-0.177825927734375,0.9355010986328125,0.21319580078125
1769657701765573400,1.581573486328125,-0.179168701171875,0.948272705078125,0.2134857177734375
1769657701775561200,1.591561279296875,-0.1392364501953125,0.98980712890625,0.2041168212890625
1769657701785549300,1.60154931640625,-0.1128692626953125,1.0167999267578125,0.1952972412109375
1769657701795537200,1.611537109375,-0.1416778564453125,1.021759033203125,0.183685302734375
1769657701805525200,1.621525146484375,-0.1869659423828125,1.0013427734375,0.1995697021484375
1769657701815513300,1.631513427734375,-0.255401611328125,0.94091796875,0.2149505615234375
1769657701825501200,1.641501220703125,-0.2510528564453125,0.914886474609375,0.2147216796875
1769657701835489300,1.6514892578125,-0.1985015869140625,0.908172607421875,0.2203216552734375
1769657701845477400,1.661477294921875,-0.1639862060546875,0.9156646728515625,0.233001708984375
1769657701855465500,1.671465576171875,-0.167327880859375,0.9305419921875,0.2338714599609375
1769657701865453300,1.681453369140625,-0.181732177734375,0.943023681640625,0.22808837890625
1769657701875441400,1.69144140625,-0.1680755615234375,0.9575042724609375,0.2141265869140625
1769657701885429500,1.701429443359375,-0.156646728515625,0.9737396240234375,0.2043304443359375
1769657701895417000,1.7114169921875,-0.1572418212890625,0.9782867431640625,0.1941070556640625
1769657701905405200,1.7214052734375,-0.168487548828125,0.9705047607421875,0.1847381591796875
1769657701915393300,1.731393310546875,-0.1739349365234375,0.9680938720703125,0.1881561279296875
1769657701925381400,1.74138134765625,-0.17449951171875,0.9592742919921875,0.1910552978515625
1769657701935369200,1.751369140625,-0.173858642578125,0.9527587890625,0.201385498046875
1769657701945357300,1.761357421875,-0.17010498046875,0.950958251953125,0.2081298828125
1769657701955345400,1.771345458984375,-0.168426513671875,0.9497833251953125,0.2135772705078125
1769657701965333200,1.781333251953125,-0.1644134521484375,0.9525299072265625,0.2197265625
1769657701975321300,1.7913212890625,-0.1626129150390625,0.959381103515625,0.2167510986328125
1769657701985309400,1.801309326171875,-0.174591064453125,0.9546356201171875,0.215972900390625
1769657701995297500,1.811297607421875,-0.1729278564453125,0.9526519775390625,0.216552734375
1769657702005285400,1.821285400390625,-0.16015625,0.9591522216796875,0.215057373046875
1769657702015273200,1.831273193359375,-0.150115966796875,0.9676055908203125,0.217132568359375
1769657702025261300,1.84126123046875,-0.1476593017578125,0.973175048828125,0.225341796875
1769657702035249400,1.85124951171875,-0.155517578125,0.9698638916015625,0.23480224609375
1769657702045237500,1.861237548828125,-0.1588287353515625,0.9632720947265625,0.2421112060546875
1769657702055225300,1.871225341796875,-0.1573028564453125,0.966766357421875,0.2406768798828125
1769657702065213400,1.88121337890625,-0.1516876220703125,0.9629364013671875,0.23297119140625
1769657702075201500,1.891201416015625,-0.143646240234375,0.9628448486328125,0.2376861572265625
1769657702085189400,1.901189453125,-0.1309051513671875,0.97119140625,0.2373504638671875
1769657702095177500,1.911177490234375,-0.1197509765625,0.974578857421875,0.228271484375
1769657702105165600,1.92116552734375,-0.11334228515625,0.96661376953125,0.2203216552734375
1769657702115153700,1.931153564453125,-0.1082916259765625,0.9619903564453125,0.2149505615234375
1769657702125141500,1.9411416015625,-0.1054229736328125,0.960479736328125,0.19366455078125
1769657702135129300,1.95112939453125,-0.1069183349609375,0.967071533203125,0.1781463623046875
1769657702145117400,1.961117431640625,-0.1154937744140625,0.9695281982421875,0.1652374267578125
1769657702155105300,1.971105224609375,-0.1235504150390625,0.9689178466796875,0.1550445556640625
1769657702165093400,1.98109326171875,-0.124298095703125,0.97161865234375,0.1514129638671875
1769657702175082500,1.99108251953125,-0.1190643310546875,0.9780426025390625,0.1480255126953125
1769657702185070600,2.001070556640625,-0.108978271484375,0.9805450439453125,0.1516265869140625
1769657702195058400,2.011058349609375,-0.0960693359375,0.9827728271484375,0.158203125
1769657702205046500,2.021046630859375,-0.0833892822265625,0.9791717529296875,0.16455078125
1769657702215034400,2.031034423828125,-0.075592041015625,0.9739227294921875,0.170501708984375
1769657702225022500,2.0410224609375,-0.0704193115234375,0.971282958984375,0.1760711669921875
1769657702235010300,2.05101025390625,-0.074127197265625,0.9672698974609375,0.1810302734375
1769657702244998400,2.060998291015625,-0.077239990234375,0.963775634765625,0.1759185791015625
1769657702254986500,2.070986572265625,-0.0731048583984375,0.9584503173828125,0.166534423828125
1769657702264974300,2.080974365234375,-0.06646728515625,0.9530487060546875,0.15576171875
1769657702274962400,2.09096240234375,-0.0602264404296875,0.963043212890625,0.166107177734375
1769657702284950500,2.100950439453125,-0.0653076171875,0.9833831787109375,0.17999267578125
1769657702294938400,2.1109384765625,-0.0662841796875,1.0005340576171875,0.1903076171875
1769657702304926500,2.120926513671875,-0.0655670166015625,1.005126953125,0.1891632080078125
1769657702314914600,2.13091455078125,-0.0599212646484375,1.0018310546875,0.1919708251953125
1769657702324902700,2.140902587890625,-0.0543670654296875,0.9910430908203125,0.1872711181640625
1769657702334890200,2.15089013671875,-0.03973388671875,0.9857635498046875,0.172607421875
1769657702344878300,2.16087841796875,-0.034759521484375,0.9820709228515625,0.160491943359375
1769657702354866400,2.170866455078125,-0.0401611328125,0.9827728271484375,0.1597900390625
1769657702364854300,2.180854248046875,-0.0450439453125,0.991302490234375,0.149566650390625
1769657702374842400,2.19084228515625,-0.0480194091796875,1.001251220703125,0.138580322265625
1769657702384830500,2.20083056640625,-0.063446044921875,1.0034637451171875,0.1320343017578125
1769657702394818600,2.210818603515625,-0.074188232421875,1.00018310546875,0.1256103515625
1769657702404806400,2.220806396484375,-0.0684814453125,1.000091552734375,0.1212921142578125
1769657702414794500,2.23079443359375,-0.0638275146484375,0.9918975830078125,0.122161865234375
1769657702424782600,2.240782470703125,-0.05926513671875,0.98065185546875,0.1342010498046875
1769657702434770400,2.2507705078125,-0.0439453125,0.9747467041015625,0.14312744140625
1769657702444758500,2.260758544921875,-0.037261962890625,0.9727630615234375,0.15374755859375
1769657702454746400,2.270746337890625,-0.0362701416015625,0.97125244140625,0.1628875732421875
1769657702464734500,2.280734375,-0.032745361328125,0.9719390869140625,0.1661376953125
1769657702474722300,2.290722412109375,-0.0309295654296875,0.9800262451171875,0.1680755615234375
1769657702484710400,2.30071044921875,-0.03790283203125,0.98236083984375,0.160797119140625
1769657702494698500,2.310698486328125,-0.05352783203125,0.97607421875,0.16180419921875
1769657702504686300,2.320686279296875,-0.042266845703125,0.966461181640625,0.166259765625
1769657702514674400,2.33067431640625,-0.0051727294921875,0.969573974609375,0.165283203125
1769657702524662500,2.34066259765625,0.018707275390625,0.968994140625,0.163360595703125
1769657702534650400,2.350650390625,0.022705078125,0.965911865234375,0.1697540283203125
1769657702544638500,2.360638427734375,0.0234375,0.9613800048828125,0.1704864501953125
1769657702554626600,2.37062646484375,0.021820068359375,0.9592132568359375,0.1689453125
1769657702564614700,2.38061474609375,0.0219879150390625,0.9667510986328125,0.1751556396484375
1769657702574602200,2.390602294921875,0.0282745361328125,0.9850616455078125,0.1773529052734375
1769657702584590300,2.40059033203125,0.0255889892578125,0.9850616455078125,0.1729888916015625
1769657702594578400,2.410578369140625,0.019866943359375,0.9784393310546875,0.17437744140625
1769657702604566300,2.420566162109375,0.0200347900390625,0.980255126953125,0.1659698486328125
1769657702614554400,2.430554443359375,0.0169830322265625,0.9821319580078125,0.1576385498046875
1769657702624542500,2.44054248046875,0.0121917724609375,0.9915008544921875,0.1510467529296875
1769657702634531600,2.450531494140625,0.0040130615234375,0.9998321533203125,0.1415252685546875
1769657702644519400,2.46051953125,-0.0013885498046875,1.0139923095703125,0.1360931396484375
1769657702654507500,2.470507568359375,-0.005462646484375,1.019866943359375,0.132354736328125
1769657702664495400,2.480495361328125,-0.0080718994140625,1.01763916015625,0.133209228515625
1769657702674483500,2.4904833984375,-0.0143890380859375,1.0037384033203125,0.129180908203125
1769657702684471300,2.50047119140625,-0.0138092041015625,0.99554443359375,0.12896728515625
1769657702694459400,2.51045947265625,-0.0106048583984375,0.9866485595703125,0.1281280517578125
1769657702704447500,2.520447509765625,-0.0126190185546875,0.9800262451171875,0.1270751953125
1769657702714435300,2.530435302734375,-0.014801025390625,0.9807586669921875,0.130584716796875
1769657702724423400,2.54042333984375,-0.0194244384765625,0.9829254150390625,0.1358642578125
1769657702734411500,2.55041162109375,-0.0194244384765625,0.98773193359375,0.143157958984375
1769657702744399600,2.560399658203125,-0.0163116455078125,0.9882049560546875,0.151336669921875
1769657702754387500,2.570387451171875,-0.015350341796875,0.9904632568359375,0.1539764404296875
1769657702764375600,2.58037548828125,-0.014007568359375,0.9936676025390625,0.1578521728515625
1769657702774363400,2.59036328125,-0.018798828125,0.995819091796875,0.1652374267578125
1769657702784351200,2.600351318359375,-0.022247314453125,1.000579833984375,0.1745147705078125
1769657702794339300,2.61033935546875,-0.02813720703125,0.991668701171875,0.176025390625
1769657702804327400,2.620327392578125,-0.0312652587890625,0.9847259521484375,0.17559814453125
1769657702814315500,2.6303154296875,-0.0290069580078125,0.9788055419921875,0.1718597412109375
1769657702824303400,2.640303466796875,-0.02685546875,0.976043701171875,0.1720123291015625
1769657702834291500,2.65029150390625,-0.0303802490234375,0.9737091064453125,0.1713409423828125
1769657702844279600,2.660279541015625,-0.0340423583984375,0.97412109375,0.167327880859375
1769657702854267400,2.670267333984375,-0.032958984375,0.97344970703125,0.1702117919921875
1769657702864255500,2.68025537109375,-0.0326080322265625,0.971527099609375,0.1664886474609375
1769657702874243600,2.69024365234375,-0.0299530029296875,0.9763336181640625,0.1747894287109375
1769657702884231400,2.7002314453125,-0.0287933349609375,0.9793701171875,0.182525634765625
1769657702894219500,2.710219482421875,-0.033203125,0.97216796875,0.189453125
1769657702904207400,2.720207275390625,-0.0409698486328125,0.9675140380859375,0.19195556640625
1769657702914195500,2.730195556640625,-0.0437774658203125,0.9683685302734375,0.2027740478515625
1769657702924183300,2.740183349609375,-0.040924072265625,0.970489501953125,0.2230072021484375
1769657702934171400,2.75017138671875,-0.043304443359375,0.9697113037109375,0.2378387451171875
1769657702944159500,2.760159423828125,-0.0513458251953125,0.972900390625,0.2519378662109375
1769657702954147300,2.770147216796875,-0.05279541015625,0.975250244140625,0.26318359375
1769657702964135400,2.780135498046875,-0.0513458251953125,0.966766357421875,0.26629638671875
1769657702974123500,2.79012353515625,-0.040557861328125,0.9654388427734375,0.2674713134765625
1769657702984111600,2.800111572265625,-0.0215911865234375,0.969573974609375,0.26361083984375
1769657702994099500,2.810099365234375,-0.0101165771484375,0.9752655029296875,0.258056640625
1769657703004087600,2.820087646484375,-0.0104522705078125,0.9698486328125,0.24609375
1769657703014075400,2.830075439453125,-0.0058135986328125,0.9640655517578125,0.239593505859375
1769657703024063200,2.840063232421875,0.0040283203125,0.9622955322265625,0.2369384765625
1769657703034051800,2.8500517578125,0.0110626220703125,0.956329345703125,0.2408599853515625
1769657703044040000,2.8600400390625,0.0119171142578125,0.957183837890625,0.243865966796875
1769657703054028000,2.870028076171875,0.0074005126953125,0.95513916015625,0.2476654052734375
1769657703064016000,2.880015869140625,0.00555419921875,0.9633941650390625,0.25518798828125
1769657703074004000,2.89000390625,0.004425048828125,0.9701995849609375,0.253509521484375
1769657703083992000,2.899991943359375,0.0045013427734375,0.9775848388671875,0.2506256103515625
1769657703093980000,2.90997998046875,0.01300048828125,0.984100341796875,0.2431488037109375
1769657703103968800,2.91996875,0.02044677734375,0.9860382080078125,0.2297515869140625
1769657703113956900,2.929956787109375,0.021759033203125,0.9801483154296875,0.2258148193359375
1769657703123945000,2.939945068359375,0.0272064208984375,0.9727630615234375,0.2193756103515625
1769657703133932800,2.949932861328125,0.0352020263671875,0.9632568359375,0.212738037109375
1769657703143921000,2.9599208984375,0.039703369140625,0.9558868408203125,0.2094268798828125
1769657703153909000,2.969908935546875,0.040557861328125,0.9452056884765625,0.203887939453125
1769657703163897000,2.97989697265625,0.0391387939453125,0.932220458984375,0.1998291015625
1769657703173885000,2.989885009765625,0.045623779296875,0.9222259521484375,0.194427490234375
1769657703183873000,2.999873046875,0.0568389892578125,0.9231719970703125,0.18603515625
1769657703193861000,3.009861083984375,0.0550994873046875,0.9303741455078125,0.1840057373046875
1769657703203849000,3.019848876953125,0.0506439208984375,0.9346160888671875,0.176177978515625
1769657703213836800,3.0298369140625,0.0474090576171875,0.9434814453125,0.1712493896484375
1769657703223825000,3.039824951171875,0.040618896484375,0.9499969482421875,0.1597137451171875
1769657703233813000,3.04981298828125,0.0264129638671875,0.948699951171875,0.1497039794921875
1769657703243800800,3.05980078125,0.0121612548828125,0.949981689453125,0.139190673828125
1769657703253789000,3.069788818359375,-0.0103607177734375,0.9520263671875,0.1301422119140625
1769657703263777000,3.079777099609375,-0.0317535400390625,0.95697021484375,0.12530517578125
1769657703273764900,3.089764892578125,-0.04638671875,0.9684295654296875,0.12432861328125
1769657703283753000,3.0997529296875,-0.061370849609375,0.9826202392578125,0.1296234130859375
1769657703293741000,3.109740966796875,-0.0775146484375,0.999053955078125,0.141845703125
1769657703303729200,3.119729248046875,-0.0886688232421875,1.020233154296875,0.156585693359375
1769657703313717000,3.129717041015625,-0.0938262939453125,1.039306640625,0.1660614013671875
1769657703323704800,3.139704833984375,-0.104888916015625,1.058624267578125,0.1801300048828125
1769657703333693000,3.14969287109375,-0.118896484375,1.06341552734375,0.18603515625
1769657703343680800,3.1596806640625,-0.1265411376953125,1.0465240478515625,0.2230224609375
1769657703353668900,3.1696689453125,-0.101043701171875,1.053802490234375,0.1927642822265625
1769657703363657000,3.179656982421875,-0.1053619384765625,1.0559844970703125,0.2129364013671875
1769657703373644800,3.189644775390625,-0.09881591796875,1.0431671142578125,0.2416229248046875
1769657703383633000,3.1996328125,-0.08245849609375,1.01531982421875,0.2306671142578125
1769657703393621000,3.20962109375,-0.0547943115234375,0.9837493896484375,0.219818115234375
1769657703403609000,3.219609130859375,-0.027496337890625,0.9510345458984375,0.213287353515625
1769657703413597000,3.229596923828125,-0.0100860595703125,0.9264678955078125,0.208343505859375
1769657703423585000,3.2395849609375,0.0068206787109375,0.9024200439453125,0.2000732421875
1769657703433573000,3.249572998046875,0.0187835693359375,0.8901824951171875,0.18896484375
1769657703443561000,3.25956103515625,0.0202484130859375,0.89154052734375,0.1849517822265625
1769657703453548800,3.269548828125,0.0149078369140625,0.890533447265625,0.1457366943359375
1769657703463537000,3.279536865234375,0.0102691650390625,0.9011383056640625,0.127960205078125
1769657703473525000,3.28952490234375,0.0003204345703125,0.9008941650390625,0.1184539794921875
1769657703483512800,3.299512939453125,0.0035552978515625,0.90484619140625,0.0883941650390625
1769657703493501000,3.3095009765625,0.0079193115234375,0.9292449951171875,0.0781097412109375
1769657703503489000,3.319489013671875,0.000732421875,0.953125,0.091888427734375
1769657703513476900,3.329476806640625,-0.000762939453125,0.9695892333984375,0.0611114501953125
1769657703523465000,3.33946484375,-0.0071258544921875,0.9947357177734375,0.066650390625
1769657703533453800,3.349453857421875,-0.018707275390625,1.00274658203125,0.07666015625
1769657703543442000,3.35944189453125,-0.02978515625,1.0070037841796875,0.0896148681640625
1769657703553429800,3.3694296875,-0.036102294921875,0.9979705810546875,0.1058807373046875
1769657703563417900,3.37941796875,-0.0467681884765625,0.985382080078125,0.11627197265625
1769657703573406000,3.389406005859375,-0.0658416748046875,0.97479248046875,0.1411285400390625
1769657703583394000,3.39939404296875,-0.0757293701171875,0.9701995849609375,0.1621246337890625
1769657703593382000,3.4093818359375,-0.07159423828125,0.9747161865234375,0.1786041259765625
1769657703603370000,3.419369873046875,-0.0614166259765625,0.9878082275390625,0.1963653564453125
1769657703613358000,3.429358154296875,-0.056182861328125,0.9918365478515625,0.2037200927734375
1769657703623346000,3.439345947265625,-0.04400634765625,0.99652099609375,0.2125244140625
1769657703633334000,3.449333984375,-0.027862548828125,0.9893341064453125,0.212158203125
1769657703643322000,3.459322021484375,-0.011688232421875,0.9847259521484375,0.210113525390625
1769657703653310000,3.46931005859375,-0.0055999755859375,0.97137451171875,0.21234130859375
1769657703663297800,3.4792978515625,-0.001373291015625,0.9639129638671875,0.2141265869140625
1769657703673286000,3.489285888671875,0.0036163330078125,0.9625244140625,0.216522216796875
1769657703683274000,3.49927392578125,0.0032958984375,0.965057373046875,0.2249755859375
1769657703693261800,3.50926171875,0.0018463134765625,0.975067138671875,0.23529052734375
1769657703703250000,3.51925,-0.0044708251953125,0.991241455078125,0.2328033447265625
1769657703713238000,3.529238037109375,-0.0106658935546875,1.0186614990234375,0.224761962890625
1769657703723225900,3.539225830078125,-0.0142059326171875,1.0508880615234375,0.21673583984375
1769657703733214000,3.5492138671875,-0.0259246826171875,1.0830078125,0.2189788818359375
1769657703743202000,3.5592021484375,-0.0499725341796875,1.0974273681640625,0.212677001953125
1769657703753190100,3.569190185546875,-0.0952301025390625,1.0890960693359375,0.2071685791015625
1769657703763178000,3.579177978515625,-0.1324920654296875,1.0827789306640625,0.199615478515625
1769657703773165800,3.589165771484375,-0.11968994140625,1.1014862060546875,0.1730804443359375
1769657703783154000,3.59915380859375,-0.0510101318359375,1.14190673828125,0.1539306640625
1769657703793141800,3.609141845703125,0.05633544921875,1.1896209716796875,0.16131591796875
1769657703803129900,3.6191298828125,0.1254425048828125,1.1996917724609375,0.1497802734375
1769657703813118000,3.629117919921875,0.1467742919921875,1.18939208984375,0.1112823486328125
1769657703823106000,3.63910595703125,0.168609619140625,1.17816162109375,0.0942230224609375
1769657703833094000,3.649093994140625,0.2059173583984375,1.1778564453125,0.091705322265625
1769657703843082000,3.65908203125,0.2501220703125,1.1934356689453125,0.0825958251953125
1769657703853070000,3.669070068359375,0.2837982177734375,1.182037353515625,0.0575408935546875
1769657703863058000,3.679057861328125,0.26177978515625,1.1025390625,0.07080078125
1769657703873046000,3.6890458984375,0.2081146240234375,0.98382568359375,0.06658935546875
1769657703883034000,3.6990341796875,0.2471160888671875,0.9186859130859375,0.0464324951171875
1769657703893022000,3.70902197265625,0.3156585693359375,0.8972930908203125,0.0722503662109375
1769657703903009800,3.719009765625,0.35211181640625,0.870025634765625,0.0880126953125
1769657703912998000,3.728997802734375,0.3594512939453125,0.8428802490234375,0.1134185791015625
1769657703922986000,3.738986083984375,0.36810302734375,0.8217926025390625,0.1323394775390625
1769657703932973800,3.748973876953125,0.394378662109375,0.8021392822265625,0.152923583984375
1769657703942962000,3.7589619140625,0.4262847900390625,0.787322998046875,0.17962646484375
1769657703952951000,3.768950927734375,0.4757080078125,0.798553466796875,0.2013702392578125
1769657703962939100,3.778939208984375,0.51300048828125,0.824188232421875,0.213470458984375
1769657703972927000,3.788927001953125,0.5380096435546875,0.8540496826171875,0.207244873046875
1769657703982914800,3.798914794921875,0.53253173828125,0.8890838623046875,0.201934814453125
1769657703992903000,3.80890283203125,0.512786865234375,0.917205810546875,0.190582275390625
1769657704002890800,3.818890869140625,0.4923248291015625,0.9385528564453125,0.189239501953125
1769657704012878800,3.82887890625,0.474945068359375,0.95806884765625,0.151580810546875
1769657704022867000,3.838866943359375,0.431488037109375,0.9708251953125,0.1476287841796875
1769657704032854500,3.8488544921875,0.3980865478515625,0.990631103515625,0.167266845703125
1769657704042842600,3.858842529296875,0.34600830078125,0.9961700439453125,0.1861114501953125
1769657704052830500,3.86883056640625,0.3057403564453125,0.9970550537109375,0.199371337890625
1769657704062818600,3.878818603515625,0.2909698486328125,0.996368408203125,0.2303314208984375
1769657704072806700,3.888806640625,0.278564453125,0.9770050048828125,0.237060546875
1769657704082794800,3.898794677734375,0.290679931640625,0.9629669189453125,0.232513427734375
1769657704092782600,3.908782470703125,0.301788330078125,0.9606170654296875,0.26617431640625
1769657704102770700,3.918770751953125,0.289306640625,0.9517974853515625,0.2652130126953125
1769657704112758500,3.928758544921875,0.2718353271484375,0.9451751708984375,0.2260894775390625
1769657704122746400,3.938746337890625,0.2701416015625,0.951019287109375,0.2254791259765625
1769657704132734500,3.948734375,0.2656097412109375,0.954742431640625,0.214263916015625
1769657704142722600,3.95872265625,0.25335693359375,0.9483795166015625,0.2094268798828125
1769657704152710700,3.968710693359375,0.2342529296875,0.9345550537109375,0.206207275390625
1769657704162698500,3.978698486328125,0.22503662109375,0.91131591796875,0.2049102783203125
1769657704172686600,3.9886865234375,0.22528076171875,0.883514404296875,0.2030029296875
1769657704182674700,3.9986748046875,0.228424072265625,0.855133056640625,0.2150726318359375
1769657704192662500,4.00866259765625,0.2389984130859375,0.828338623046875,0.2248382568359375
1769657704202650600,4.018650634765625,0.2454376220703125,0.8074493408203125,0.2349700927734375
1769657704212638700,4.028638671875,0.2435760498046875,0.79290771484375,0.249176025390625
1769657704222626600,4.03862646484375,0.2438812255859375,0.79229736328125,0.2580108642578125
1769657704232614400,4.048614501953125,0.240325927734375,0.8048248291015625,0.247650146484375
1769657704242602500,4.0586025390625,0.2202301025390625,0.824798583984375,0.2569580078125
1769657704252590600,4.068590576171875,0.1979217529296875,0.83477783203125,0.302947998046875
1769657704262578400,4.078578369140625,0.2467041015625,0.8524627685546875,0.2957000732421875
1769657704272566500,4.08856640625,0.27996826171875,0.8742828369140625,0.3036346435546875
1769657704282554600,4.0985546875,0.2853851318359375,0.89398193359375,0.3093719482421875
1769657704292542500,4.10854248046875,0.28411865234375,0.91387939453125,0.3029632568359375
1769657704302530600,4.118530517578125,0.292022705078125,0.920928955078125,0.301971435546875
1769657704312518700,4.1285185546875,0.2960968017578125,0.932281494140625,0.2801055908203125
1769657704322506800,4.1385068359375,0.2697296142578125,0.9371185302734375,0.271820068359375
1769657704332494600,4.14849462890625,0.2338409423828125,0.9434814453125,0.2693023681640625
1769657704342482700,4.158482666015625,0.228759765625,0.961029052734375,0.26617431640625
1769657704352471600,4.168471435546875,0.24658203125,0.9931640625,0.2844390869140625
1769657704362459600,4.178459716796875,0.23199462890625,1.0108642578125,0.3064117431640625
1769657704372447500,4.188447509765625,0.19390869140625,1.01812744140625,0.3253173828125
1769657704382435600,4.198435546875,0.1801605224609375,1.0327911376953125,0.3224029541015625
1769657704392423700,4.208423583984375,0.207977294921875,1.0557098388671875,0.301422119140625
1769657704402411500,4.21841162109375,0.266326904296875,1.0966644287109375,0.26959228515625
1769657704412399600,4.228399658203125,0.3093109130859375,1.1279754638671875,0.264068603515625
1769657704422387700,4.2383876953125,0.363555908203125,1.1625213623046875,0.246337890625
1769657704432375600,4.24837548828125,0.397796630859375,1.1818389892578125,0.240692138671875
1769657704442363400,4.25836328125,0.389556884765625,1.17828369140625,0.2565765380859375
1769657704452351500,4.2683515625,0.3749237060546875,1.1315765380859375,0.2327423095703125
1769657704462339600,4.278339599609375,0.3363189697265625,1.035430908203125,0.14984130859375
1769657704472327400,4.288327392578125,0.341705322265625,0.957275390625,0.0624847412109375
1769657704482315500,4.2983154296875,0.3533477783203125,0.9000091552734375,-0.023284912109375
1769657704492303600,4.3083037109375,0.3886566162109375,0.85943603515625,-0.1125640869140625
1769657704502291700,4.318291748046875,0.4262542724609375,0.84228515625,-0.182281494140625
1769657704512279600,4.328279541015625,0.4421539306640625,0.831756591796875,-0.221160888671875
1769657704522267600,4.338267578125,0.4290313720703125,0.842071533203125,-0.2151947021484375
1769657704532255700,4.348255859375,0.4190673828125,0.8787384033203125,-0.23895263671875
1769657704542243600,4.35824365234375,0.39361572265625,0.9734954833984375,-0.19342041015625
1769657704552231400,4.3682314453125,0.348388671875,1.078094482421875,-0.1275634765625
1769657704562219500,4.378219482421875,0.2604522705078125,1.136016845703125,-0.092987060546875
1769657704572207400,4.388207275390625,0.241973876953125,1.317474365234375,0.023590087890625
1769657704582195500,4.398195556640625,0.182220458984375,1.39251708984375,0.0462493896484375
1769657704592183600,4.40818359375,0.09979248046875,1.3094940185546875,0.0339202880859375
1769657704602171600,4.418171630859375,0.0981903076171875,1.2037200927734375,0.05517578125
1769657704612159500,4.428159423828125,0.13287353515625,1.115814208984375,0.08734130859375
1769657704622147600,4.438147705078125,0.154571533203125,1.024566650390625,0.11444091796875
1769657704632135700,4.4481357421875,0.1892852783203125,0.9375762939453125,0.12164306640625
1769657704642123500,4.45812353515625,0.22906494140625,0.8876495361328125,0.124847412109375
1769657704652111600,4.468111572265625,0.24774169921875,0.860595703125,0.13751220703125
1769657704662099700,4.478099609375,0.2517547607421875,0.8336334228515625,0.1420440673828125
1769657704672087600,4.488087646484375,0.2610321044921875,0.8130340576171875,0.12579345703125
1769657704682075400,4.498075439453125,0.265960693359375,0.80078125,0.1201934814453125
1769657704692063500,4.5080634765625,0.2659149169921875,0.7854156494140625,0.1182708740234375
1769657704702051600,4.518051513671875,0.252166748046875,0.761444091796875,0.1091156005859375
1769657704712039400,4.528039306640625,0.2478485107421875,0.7617950439453125,0.10357666015625
1769657704722027500,4.538027587890625,0.2404632568359375,0.7610931396484375,0.10498046875
1769657704732015600,4.548015625,0.219696044921875,0.7471466064453125,0.0873260498046875
1769657704742003700,4.558003662109375,0.2005462646484375,0.74169921875,0.0878143310546875
1769657704751992600,4.56799267578125,0.1812591552734375,0.734375,0.087554931640625
1769657704761980400,4.57798046875,0.16400146484375,0.7337188720703125,0.0843505859375
1769657704771968500,4.587968505859375,0.1450347900390625,0.744110107421875,0.0906829833984375
1769657704781956600,4.59795654296875,0.1196746826171875,0.765960693359375,0.09637451171875
1769657704791944400,4.6079443359375,0.1089630126953125,0.7912139892578125,0.0891265869140625
1769657704801932500,4.6179326171875,0.0971527099609375,0.8135528564453125,0.081390380859375
1769657704811920600,4.627920654296875,0.084197998046875,0.844146728515625,0.0839080810546875
1769657704821908500,4.637908447265625,0.0820159912109375,0.875457763671875,0.08734130859375
1769657704831896600,4.647896484375,0.08306884765625,0.8932037353515625,0.091156005859375
1769657704841884700,4.657884765625,0.0917205810546875,0.9047698974609375,0.09478759765625
1769657704851872800,4.667872802734375,0.104217529296875,0.90948486328125,0.10223388671875
1769657704861860600,4.677860595703125,0.11920166015625,0.9115142822265625,0.1066741943359375
1769657704871848700,4.6878486328125,0.131561279296875,0.9225921630859375,0.1229400634765625
1769657704881836500,4.69783642578125,0.1424102783203125,0.947021484375,0.137054443359375
1769657704891824400,4.707824462890625,0.1440582275390625,0.980255126953125,0.15673828125
1769657704901812500,4.7178125,0.13519287109375,1.0196075439453125,0.174774169921875
1769657704911800600,4.727800537109375,0.1111907958984375,1.0458831787109375,0.182098388671875
1769657704921788400,4.737788330078125,0.084930419921875,1.0522308349609375,0.1826171875
1769657704931776500,4.747776611328125,0.0830535888671875,1.0547637939453125,0.1785888671875
1769657704941764600,4.7577646484375,0.0894317626953125,1.0408172607421875,0.161468505859375
1769657704951752700,4.767752685546875,0.0910491943359375,1.042633056640625,0.173370361328125
1769657704961740500,4.777740478515625,0.093231201171875,1.07257080078125,0.1896209716796875
1769657704971728600,4.787728759765625,0.128326416015625,1.1264190673828125,0.179107666015625
1769657704981716700,4.797716796875,0.177978515625,1.16845703125,0.1907958984375
1769657704991704600,4.80770458984375,0.210693359375,1.18463134765625,0.2412872314453125
1769657705001692400,4.8176923828125,0.2586212158203125,1.19512939453125,0.2722320556640625
1769657705011680500,4.827680419921875,0.353851318359375,1.1930999755859375,0.2418670654296875
1769657705021668600,4.837668701171875,0.3994903564453125,1.110687255859375,0.2073211669921875
1769657705031656200,4.84765625,0.3869781494140625,0.9800567626953125,0.1901397705078125
1769657705041644000,4.85764404296875,0.33740234375,0.8366546630859375,0.1930999755859375
1769657705051632000,4.867632080078125,0.3011322021484375,0.69854736328125,0.1800689697265625
1769657705061620200,4.8776201171875,0.3551483154296875,0.6610107421875,0.1816864013671875
1769657705071608300,4.8876083984375,0.444122314453125,0.692840576171875,0.2349395751953125
1769657705081596200,4.89759619140625,0.5685272216796875,0.7675018310546875,0.2961273193359375
1769657705091584300,4.907584228515625,0.7018585205078125,0.876617431640625,0.3245849609375
1769657705101572400,4.917572265625,0.7536773681640625,0.9853363037109375,0.32965087890625
1769657705111560200,4.927560302734375,0.69720458984375,1.0731353759765625,0.3685760498046875
1769657705121548300,4.93754833984375,0.6125030517578125,1.159881591796875,0.302764892578125
1769657705131537200,4.947537109375,0.4848785400390625,1.2163848876953125,0.2556304931640625
1769657705141525200,4.957525146484375,0.3734283447265625,1.256256103515625,0.2228546142578125
1769657705151513000,4.96751318359375,0.245269775390625,1.244720458984375,0.22381591796875
1769657705161501200,4.977501220703125,0.1482391357421875,1.213470458984375,0.2630157470703125
1769657705171489300,4.9874892578125,0.1107330322265625,1.1752166748046875,0.26776123046875
1769657705181477400,4.997477294921875,0.117523193359375,1.1215057373046875,0.2694854736328125
1769657705191465200,5.00746533203125,0.1550445556640625,1.0585174560546875,0.2756500244140625
1769657705201453300,5.017453369140625,0.1952362060546875,0.98089599609375,0.2521514892578125
1769657705211441200,5.027441162109375,0.2238616943359375,0.92340087890625,0.2329254150390625
1769657705221429000,5.037428955078125,0.21978759765625,0.874053955078125,0.2173004150390625
1769657705231417000,5.0474169921875,0.233306884765625,0.8502349853515625,0.2028045654296875
1769657705241405200,5.0574052734375,0.2487335205078125,0.8327484130859375,0.2063446044921875
1769657705251393000,5.06739306640625,0.2657928466796875,0.8087005615234375,0.2000579833984375
1769657705261381000,5.077381103515625,0.30926513671875,0.781768798828125,0.2143707275390625
1769657705271369200,5.087369140625,0.2991790771484375,0.748779296875,0.26702880859375
1769657705281357300,5.097357421875,0.2710113525390625,0.7242431640625,0.2769775390625
1769657705291345200,5.10734521484375,0.272430419921875,0.709716796875,0.2624664306640625
1769657705301333200,5.117333251953125,0.2568511962890625,0.69500732421875,0.27581787109375
1769657705311321300,5.1273212890625,0.22637939453125,0.690765380859375,0.2969818115234375
1769657705321309200,5.13730908203125,0.193634033203125,0.691802978515625,0.287506103515625
1769657705331297300,5.14729736328125,0.177337646484375,0.691162109375,0.2911376953125
1769657705341285000,5.15728515625,0.157928466796875,0.707550048828125,0.290496826171875
1769657705351273200,5.167273193359375,0.13818359375,0.721405029296875,0.291351318359375
1769657705361261000,5.177260986328125,0.128082275390625,0.7336578369140625,0.2928466796875
1769657705371249200,5.187249267578125,0.1297607421875,0.7682952880859375,0.2918243408203125
1769657705381237200,5.1972373046875,0.133392333984375,0.805999755859375,0.2876739501953125
1769657705391225000,5.20722509765625,0.1112060546875,0.8284149169921875,0.277679443359375
1769657705401213200,5.217213134765625,0.0897216796875,0.853179931640625,0.2754669189453125
1769657705411201300,5.227201171875,0.08465576171875,0.880615234375,0.2770233154296875
1769657705421189400,5.237189453125,0.0944671630859375,0.903045654296875,0.27874755859375
1769657705431177200,5.24717724609375,0.1110382080078125,0.9203033447265625,0.2837066650390625
1769657705441165300,5.257165283203125,0.130889892578125,0.934234619140625,0.29638671875
1769657705451153200,5.267153076171875,0.1380157470703125,0.944488525390625,0.3120269775390625
1769657705461141000,5.27714111328125,0.130523681640625,0.9481964111328125,0.335418701171875
1769657705471129000,5.287129150390625,0.1013946533203125,0.954376220703125,0.3574066162109375
1769657705481117200,5.2971171875,0.088531494140625,0.979644775390625,0.3695068359375
1769657705491105000,5.30710498046875,0.1001129150390625,1.03955078125,0.36199951171875
1769657705501093000,5.317093017578125,0.180999755859375,1.128173828125,0.331695556640625
1769657705511082200,5.327082275390625,0.32220458984375,1.23046875,0.2877044677734375
1769657705521070300,5.3370703125,0.415557861328125,1.311187744140625,0.2518157958984375
1769657705531058400,5.347058349609375,0.4470672607421875,1.365203857421875,0.2248687744140625
1769657705541046000,5.3570458984375,0.3947296142578125,1.3713226318359375,0.21771240234375
1769657705551034000,5.3670341796875,0.22052001953125,1.275360107421875,0.1973876953125
1769657705561022200,5.377022216796875,0.0729827880859375,1.1338653564453125,0.148773193359375
1769657705571010000,5.387010009765625,0.075653076171875,0.9758453369140625,0.041473388671875
1769657705580998100,5.396998046875,0.167938232421875,0.8363494873046875,-0.0489959716796875
1769657705590986200,5.406986328125,0.2911529541015625,0.75384521484375,-0.108856201171875
1769657705600974000,5.41697412109375,0.37939453125,0.7171630859375,-0.12969970703125
1769657705610962200,5.426962158203125,0.44927978515625,0.722015380859375,-0.22491455078125
1769657705620950300,5.4369501953125,0.4888916015625,0.7949066162109375,-0.2617340087890625
1769657705630938400,5.4469384765625,0.495941162109375,0.932098388671875,-0.2233734130859375
1769657705640926200,5.45692626953125,0.4682769775390625,1.0954437255859375,-0.1717529296875
1769657705650914300,5.466914306640625,0.3820343017578125,1.2556915283203125,-0.0524444580078125
1769657705660902100,5.476902099609375,0.233917236328125,1.3801727294921875,0.046356201171875
1769657705670890000,5.486889892578125,0.0933380126953125,1.4321746826171875,0.1403961181640625
1769657705680878000,5.496878173828125,0.014373779296875,1.383819580078125,0.20428466796875
1769657705690866200,5.5068662109375,0.0182342529296875,1.28143310546875,0.2340087890625
1769657705700854300,5.516854248046875,0.080718994140625,1.13775634765625,0.2369842529296875
1769657705710842000,5.526842041015625,0.1199188232421875,1.0201568603515625,0.2539520263671875
1769657705720830200,5.536830322265625,0.1420135498046875,0.9606781005859375,0.30621337890625
1769657705730818300,5.546818359375,0.165985107421875,0.9149017333984375,0.326385498046875
1769657705740806100,5.55680615234375,0.2100372314453125,0.884857177734375,0.3074493408203125
1769657705750794200,5.566794189453125,0.266357421875,0.9192352294921875,0.28900146484375
1769657705760782300,5.5767822265625,0.2720947265625,0.9358367919921875,0.24072265625
1769657705770770400,5.5867705078125,0.23858642578125,0.9522247314453125,0.1823272705078125
1769657705780758000,5.596758056640625,0.16326904296875,0.9650726318359375,0.166473388671875
1769657705790746000,5.60674609375,0.096771240234375,0.957550048828125,0.1318511962890625
1769657705800734200,5.616734130859375,0.061614990234375,0.9303131103515625,0.1055450439453125
1769657705810722000,5.62672216796875,0.0635986328125,0.887451171875,0.071014404296875
1769657705820710100,5.636710205078125,0.0694427490234375,0.853851318359375,0.0536346435546875
1769657705830698200,5.6466982421875,0.064483642578125,0.8155059814453125,0.0536346435546875
1769657705840686000,5.65668603515625,0.0814971923828125,0.7811279296875,0.05267333984375
1769657705850674200,5.666674072265625,0.0924530029296875,0.7539215087890625,0.0734405517578125
1769657705860662300,5.676662353515625,0.08062744140625,0.7429656982421875,0.1110992431640625
1769657705870650400,5.686650390625,0.0769805908203125,0.7449798583984375,0.1338653564453125
1769657705880639000,5.696638916015625,0.0678558349609375,0.75225830078125,0.1586456298828125
1769657705890627000,5.706626953125,0.044158935546875,0.776397705078125,0.175750732421875
1769657705900615200,5.716615234375,0.022705078125,0.7989044189453125,0.182464599609375
1769657705910603300,5.726603271484375,0.0216064453125,0.8206787109375,0.193023681640625
1769657705920591000,5.736591064453125,0.040374755859375,0.8289642333984375,0.202545166015625
1769657705930579200,5.7465791015625,0.0766754150390625,0.8261871337890625,0.2014312744140625
1769657705940567300,5.7565673828125,0.110443115234375,0.82452392578125,0.194183349609375
1769657705950555100,5.76655517578125,0.14373779296875,0.833831787109375,0.1783294677734375
1769657705960543200,5.776543212890625,0.1624755859375,0.8531494140625,0.174224853515625
1769657705970531300,5.78653125,0.1417999267578125,0.8790740966796875,0.1824188232421875
1769657705980519200,5.796519287109375,0.1006622314453125,0.9251251220703125,0.205322265625
1769657705990507000,5.806507080078125,0.070709228515625,0.9918365478515625,0.2382965087890625
1769657706000495000,5.8164951171875,0.067718505859375,1.073455810546875,0.26971435546875
1769657706010483200,5.826483154296875,0.094573974609375,1.16107177734375,0.303009033203125
1769657706020471000,5.836470947265625,0.1439666748046875,1.2396697998046875,0.3326416015625
1769657706030460000,5.8464599609375,0.203338623046875,1.2807464599609375,0.362701416015625
1769657706040447700,5.85644775390625,0.225311279296875,1.253509521484375,0.4458160400390625
1769657706050435800,5.866435791015625,0.2287139892578125,1.217041015625,0.4565582275390625
1769657706060424000,5.876423828125,0.22698974609375,1.1372222900390625,0.383514404296875
1769657706070412000,5.886412109375,0.1821441650390625,0.9908294677734375,0.3496856689453125
1769657706080400000,5.89639990234375,0.144927978515625,0.7960205078125,0.3214111328125
1769657706090387700,5.9063876953125,0.148590087890625,0.62603759765625,0.2652130126953125
1769657706100375800,5.916375732421875,0.2391357421875,0.6087646484375,0.2540130615234375
1769657706110363600,5.92636376953125,0.332916259765625,0.6747894287109375,0.2565765380859375
1769657706120351700,5.936351806640625,0.4371795654296875,0.7733306884765625,0.2533721923828125
1769657706130339800,5.94633984375,0.536224365234375,0.9004058837890625,0.2536468505859375
1769657706140328000,5.956327880859375,0.583709716796875,1.019378662109375,0.237060546875
1769657706150315800,5.966315673828125,0.57855224609375,1.1253204345703125,0.2118988037109375
1769657706160303900,5.976303955078125,0.5149688720703125,1.19598388671875,0.2109527587890625
1769657706170292000,5.9862919921875,0.426055908203125,1.2199249267578125,0.221893310546875
1769657706180279800,5.99627978515625,0.303924560546875,1.215179443359375,0.2320556640625
1769657706190268000,6.006267822265625,0.1782684326171875,1.1867523193359375,0.27215576171875
1769657706200255700,6.016255859375,0.1334381103515625,1.149078369140625,0.293060302734375
1769657706210243600,6.02624365234375,0.160064697265625,1.0958709716796875,0.300933837890625
1769657706220231700,6.036231689453125,0.1567535400390625,1.0368804931640625,0.324920654296875
1769657706230219800,6.0462197265625,0.139984130859375,0.993865966796875,0.34149169921875
1769657706240209000,6.056208984375,0.13653564453125,0.9674530029296875,0.3332061767578125
1769657706250197000,6.066197021484375,0.15032958984375,0.9452667236328125,0.3312530517578125
1769657706260184800,6.076184814453125,0.1814422607421875,0.9224700927734375,0.3253936767578125
1769657706270173000,6.0861728515625,0.18115234375,0.889495849609375,0.322967529296875
1769657706280161000,6.0961611328125,0.1534881591796875,0.830230712890625,0.32257080078125
1769657706290148600,6.106148681640625,0.1624603271484375,0.7950439453125,0.307159423828125
1769657706300136700,6.11613671875,0.1442108154296875,0.7609710693359375,0.310302734375
1769657706310124800,6.126124755859375,0.1461181640625,0.7362213134765625,0.291961669921875
1769657706320112600,6.136112548828125,0.1801605224609375,0.7392730712890625,0.2850494384765625
1769657706330100700,6.146100830078125,0.2026519775390625,0.7388763427734375,0.29547119140625
1769657706340088800,6.1560888671875,0.2148895263671875,0.7499237060546875,0.3103485107421875
1769657706350077000,6.166076904296875,0.2065277099609375,0.7601318359375,0.2950592041015625
1769657706360064800,6.176064697265625,0.1909942626953125,0.774658203125,0.2837677001953125
1769657706370052900,6.186052978515625,0.187835693359375,0.7974700927734375,0.2867889404296875
1769657706380041000,6.196041015625,0.196746826171875,0.81298828125,0.2980194091796875
1769657706390028800,6.20602880859375,0.2051239013671875,0.8195343017578125,0.30999755859375
1769657706400017000,6.216016845703125,0.204925537109375,0.816162109375,0.3229217529296875
1769657706410004700,6.226004638671875,0.1991729736328125,0.8176727294921875,0.3358917236328125
1769657706419992800,6.235992919921875,0.2105255126953125,0.823974609375,0.3535614013671875
1769657706429980700,6.245980712890625,0.2204132080078125,0.83026123046875,0.372222900390625
1769657706439968800,6.25596875,0.1998748779296875,0.830780029296875,0.388946533203125
1769657706449956900,6.265956787109375,0.17547607421875,0.83575439453125,0.40911865234375
1769657706459944700,6.27594482421875,0.15478515625,0.8433685302734375,0.4332427978515625
1769657706469932800,6.285932861328125,0.137542724609375,0.8505096435546875,0.4484710693359375
1769657706479921000,6.2959208984375,0.1466522216796875,0.8656768798828125,0.4502716064453125
1769657706489909000,6.305908935546875,0.1715087890625,0.8751983642578125,0.4316253662109375
1769657706499896800,6.315896728515625,0.2420806884765625,0.929046630859375,0.4043731689453125
1769657706509885000,6.325885009765625,0.36663818359375,1.04718017578125,0.37030029296875
1769657706519873000,6.335873046875,0.4393310546875,1.1069183349609375,0.3393096923828125
1769657706529860600,6.345860595703125,0.444366455078125,1.082794189453125,0.320159912109375
1769657706539848700,6.3558486328125,0.410308837890625,1.023284912109375,0.278564453125
1769657706549836800,6.3658369140625,0.358612060546875,0.972869873046875,0.2401275634765625
1769657706559824600,6.37582470703125,0.3055572509765625,0.9438629150390625,0.1671905517578125
1769657706569812700,6.385812744140625,0.24810791015625,0.912139892578125,0.095733642578125
1769657706579800800,6.39580078125,0.2269744873046875,0.891326904296875,0.04888916015625
1769657706589789000,6.405788818359375,0.25274658203125,0.9170684814453125,0.00860595703125
1769657706599778000,6.415778076171875,0.25994873046875,0.990142822265625,0.000732421875
1769657706609766000,6.425765869140625,0.1948699951171875,1.090484619140625,0.0191192626953125
1769657706619753700,6.435753662109375,0.1268310546875,1.2318267822265625,0.0741119384765625
1769657706629741800,6.445741943359375,0.067962646484375,1.3914794921875,0.156982421875
1769657706639729700,6.455729736328125,-0.001190185546875,1.5126495361328125,0.240570068359375
1769657706649717800,6.4657177734375,-0.0267486572265625,1.5078277587890625,0.3199005126953125
1769657706659705900,6.475705810546875,-0.03350830078125,1.3788604736328125,0.37957763671875
1769657706669693700,6.485693603515625,0.011505126953125,1.22686767578125,0.418243408203125
1769657706679681800,6.495681884765625,0.069061279296875,1.0749359130859375,0.450592041015625
1769657706689670000,6.505669921875,0.183013916015625,0.9060516357421875,0.386016845703125
1769657706699658000,6.515657958984375,0.2881011962890625,0.791473388671875,0.33306884765625
1769657706709645800,6.525645751953125,0.35400390625,0.797698974609375,0.3428802490234375
1769657706719634000,6.535634033203125,0.34942626953125,0.8511199951171875,0.379669189453125
1769657706729621800,6.545621826171875,0.2924346923828125,0.892242431640625,0.39178466796875
1769657706739609600,6.555609619140625,0.2112884521484375,0.923980712890625,0.3536376953125
1769657706749597700,6.56559765625,0.150146484375,0.9341583251953125,0.307464599609375
1769657706759585800,6.575585693359375,0.1358795166015625,0.951995849609375,0.2573699951171875
1769657706769574000,6.585573974609375,0.1009979248046875,0.9154510498046875,0.221832275390625
1769657706779561700,6.595561767578125,0.10040283203125,0.8862152099609375,0.1657562255859375
1769657706789549800,6.6055498046875,0.1402435302734375,0.898345947265625,0.154937744140625
1769657706799538000,6.615537841796875,0.14532470703125,0.867828369140625,0.1579132080078125
1769657706809525800,6.62552587890625,0.138916015625,0.8312225341796875,0.1553192138671875
1769657706819513900,6.635513916015625,0.117950439453125,0.806365966796875,0.16925048828125
1769657706829502000,6.645501953125,0.0730743408203125,0.8009796142578125,0.2006683349609375
1769657706839490000,6.655489990234375,0.0321197509765625,0.80224609375,0.2204132080078125
1769657706849478000,6.665477783203125,0.031005859375,0.798553466796875,0.228363037109375
1769657706859465700,6.6754658203125,0.0421142578125,0.782470703125,0.236724853515625
1769657706869453800,6.685453857421875,0.04205322265625,0.764556884765625,0.2387542724609375
1769657706879441700,6.695441650390625,0.05126953125,0.762603759765625,0.23486328125
1769657706889429800,6.7054296875,0.0518798828125,0.7754058837890625,0.244384765625
1769657706899417900,6.71541796875,0.04730224609375,0.783416748046875,0.2488250732421875
1769657706909405700,6.72540576171875,0.0583038330078125,0.7850799560546875,0.2506561279296875
1769657706919393800,6.735393798828125,0.0780487060546875,0.7964935302734375,0.2499542236328125
1769657706929382000,6.7453818359375,0.09320068359375,0.81024169921875,0.2532196044921875
1769657706939370000,6.755369873046875,0.08233642578125,0.8145904541015625,0.2643890380859375
1769657706949357800,6.76535791015625,0.051239013671875,0.807220458984375,0.2787628173828125
1769657706959346700,6.7753466796875,0.0384521484375,0.8156890869140625,0.2925262451171875
1769657706969334800,6.785334716796875,0.0311279296875,0.83929443359375,0.3276214599609375
1769657706979323000,6.795322998046875,0.0335845947265625,0.861297607421875,0.3571624755859375
1769657706989310700,6.805310791015625,0.0553741455078125,0.88958740234375,0.3740081787109375
1769657706999298800,6.815298828125,0.0927581787109375,0.9459991455078125,0.39251708984375
1769657707009287000,6.825286865234375,0.1483154296875,1.0056915283203125,0.40478515625
1769657707019274800,6.835274658203125,0.2593841552734375,1.047119140625,0.413055419921875
1769657707029262600,6.8452626953125,0.34869384765625,1.11346435546875,0.4849395751953125
1769657707039250400,6.85525048828125,0.419036865234375,1.2263336181640625,0.5723876953125
1769657707049238500,6.865238525390625,0.417816162109375,1.229949951171875,0.55224609375
1769657707059226600,6.8752265625,0.39617919921875,1.1798858642578125,0.4850006103515625
1769657707069214500,6.88521435546875,0.3610687255859375,1.0957489013671875,0.4117584228515625
1769657707079202300,6.895202392578125,0.29656982421875,0.9803466796875,0.3928375244140625
1769657707089190400,6.9051904296875,0.1686553955078125,0.822662353515625,0.416656494140625
1769657707099178500,6.915178466796875,0.1278076171875,0.7636566162109375,0.3942718505859375
1769657707109166300,6.925166259765625,0.17803955078125,0.7887420654296875,0.407501220703125
1769657707119154400,6.935154541015625,0.2045135498046875,0.781829833984375,0.390777587890625
1769657707129142500,6.945142578125,0.2762603759765625,0.8069610595703125,0.377777099609375
1769657707139130600,6.955130615234375,0.400390625,0.8699951171875,0.380462646484375
1769657707149118500,6.965118408203125,0.5066070556640625,0.94134521484375,0.3769683837890625
1769657707159106600,6.9751064453125,0.53717041015625,0.9954833984375,0.37530517578125
1769657707169094700,6.9850947265625,0.492706298828125,1.0291748046875,0.3762054443359375
1769657707179082500,6.99508251953125,0.4569854736328125,1.0716552734375,0.3718109130859375
1769657707189070300,7.0050703125,0.4163055419921875,1.081451416015625,0.3400115966796875
1769657707199058400,7.015058349609375,0.32666015625,1.0691680908203125,0.331787109375
1769657707209046500,7.025046630859375,0.2691802978515625,1.04217529296875,0.3276519775390625
1769657707219034400,7.035034423828125,0.22406005859375,0.9806976318359375,0.3253936767578125
1769657707229022500,7.0450224609375,0.208740234375,0.926513671875,0.3443756103515625
1769657707239010600,7.055010498046875,0.196075439453125,0.8646087646484375,0.3735198974609375
1769657707248998400,7.064998291015625,0.1759185791015625,0.8009185791015625,0.376556396484375
1769657707258986500,7.074986572265625,0.1690826416015625,0.7543182373046875,0.3843536376953125
1769657707268974600,7.084974609375,0.158843994140625,0.730926513671875,0.386871337890625
1769657707278962400,7.09496240234375,0.132232666015625,0.7196502685546875,0.3919677734375
1769657707288950500,7.104950439453125,0.1253204345703125,0.718505859375,0.391998291015625
1769657707298938600,7.114938720703125,0.1273193359375,0.732025146484375,0.39312744140625
1769657707308927500,7.124927490234375,0.133392333984375,0.7391357421875,0.3848114013671875
1769657707318915300,7.134915283203125,0.1548004150390625,0.7447662353515625,0.369140625
1769657707328903400,7.1449033203125,0.1685028076171875,0.7521820068359375,0.366119384765625
1769657707338891500,7.1548916015625,0.180694580078125,0.7580413818359375,0.3685302734375
1769657707348879600,7.164879638671875,0.1974029541015625,0.7642974853515625,0.3679962158203125
1769657707358867500,7.174867431640625,0.1995391845703125,0.7769317626953125,0.37432861328125
1769657707368855600,7.18485546875,0.1954345703125,0.7918548583984375,0.37890625
1769657707378843600,7.19484375,0.1856536865234375,0.8044281005859375,0.3898162841796875
1769657707388831500,7.20483154296875,0.1699371337890625,0.8126983642578125,0.406982421875
1769657707398819300,7.2148193359375,0.154754638671875,0.824249267578125,0.4182281494140625
1769657707408807400,7.224807373046875,0.1535186767578125,0.83172607421875,0.4180908203125
1769657707418795500,7.23479541015625,0.164154052734375,0.833984375,0.410888671875
1769657707428783400,7.244783447265625,0.1696624755859375,0.837005615234375,0.396881103515625
1769657707438771500,7.254771484375,0.1888275146484375,0.84222412109375,0.3755340576171875
1769657707448759600,7.264759521484375,0.2191314697265625,0.8621673583984375,0.353851318359375
1769657707458747400,7.274747314453125,0.24603271484375,0.889556884765625,0.33453369140625
1769657707468735500,7.284735595703125,0.2597808837890625,0.92449951171875,0.3184661865234375
1769657707478723600,7.2947236328125,0.265899658203125,0.9669036865234375,0.3076171875
1769657707488711700,7.304711669921875,0.2533416748046875,1.00244140625,0.30718994140625
1769657707498699500,7.314699462890625,0.22076416015625,1.0319366455078125,0.3158416748046875
1769657707508687600,7.3246875,0.1748046875,1.07196044921875,0.3531646728515625
1769657707518675500,7.334675537109375,0.114990234375,1.1045074462890625,0.4010009765625
1769657707528663300,7.344663330078125,0.0773162841796875,1.1297607421875,0.4260711669921875
1769657707538651400,7.3546513671875,0.0788726806640625,1.150482177734375,0.431671142578125
1769657707548639500,7.364639404296875,0.1228790283203125,1.1872100830078125,0.461212158203125
1769657707558627300,7.37462744140625,0.19873046875,1.2305450439453125,0.464508056640625
1769657707568615400,7.384615478515625,0.217926025390625,1.231414794921875,0.464324951171875
1769657707578603500,7.394603515625,0.2252044677734375,1.2216033935546875,0.4500274658203125
1769657707588591600,7.404591552734375,0.2414093017578125,1.1934051513671875,0.387542724609375
1769657707598579500,7.414579345703125,0.2741546630859375,1.168121337890625,0.3175811767578125
1769657707608567600,7.424567626953125,0.2716217041015625,1.1330718994140625,0.23748779296875
1769657707618555600,7.4345556640625,0.240142822265625,1.12078857421875,0.1895294189453125
1769657707628543500,7.44454345703125,0.2438201904296875,1.117462158203125,0.1099090576171875
1769657707638531300,7.45453125,0.2796478271484375,1.0913848876953125,0.0319366455078125
1769657707648519400,7.46451953125,0.32421875,1.05609130859375,-0.074249267578125
1769657707658508500,7.474508544921875,0.344207763671875,1.0255584716796875,-0.177581787109375
1769657707668496400,7.484496337890625,0.350982666015625,0.9994049072265625,-0.2313690185546875
1769657707678484500,7.494484375,0.3687896728515625,0.9797821044921875,-0.280426025390625
1769657707688472600,7.50447265625,0.373382568359375,0.9787139892578125,-0.3473968505859375
1769657707698460700,7.514460693359375,0.35858154296875,1.0082550048828125,-0.3449249267578125
1769657707708448500,7.524448486328125,0.3110198974609375,1.0686798095703125,-0.3155975341796875
1769657707718436400,7.534436279296875,0.2351226806640625,1.1514434814453125,-0.2779693603515625
1769657707728424400,7.544424560546875,0.15277099609375,1.2231903076171875,-0.2059173583984375
1769657707738412300,7.554412353515625,0.065399169921875,1.221282958984375,-0.0980377197265625
1769657707748400400,7.564400390625,0.05657958984375,1.155426025390625,-0.0121002197265625
1769657707758388500,7.574388427734375,0.0933074951171875,1.05303955078125,0.0506591796875
1769657707768376600,7.58437646484375,0.10980224609375,0.9707183837890625,0.1135101318359375
1769657707778364400,7.594364501953125,0.116943359375,0.9009246826171875,0.1725006103515625
1769657707788352500,7.6043525390625,0.1016693115234375,0.814422607421875,0.18865966796875
1769657707798340600,7.614340576171875,0.0919952392578125,0.7509613037109375,0.2094573974609375
1769657707808328400,7.624328369140625,0.10443115234375,0.7178802490234375,0.234527587890625
1769657707818316500,7.634316650390625,0.13006591796875,0.6860809326171875,0.2286376953125
1769657707828304600,7.6443046875,0.1456756591796875,0.647491455078125,0.1853485107421875
1769657707838292500,7.65429248046875,0.152191162109375,0.613494873046875,0.1221771240234375
1769657707848280300,7.6642802734375,0.1606903076171875,0.6222076416015625,0.0849609375
1769657707858268400,7.674268310546875,0.1642303466796875,0.6579742431640625,0.0673065185546875
1769657707868256500,7.684256591796875,0.1579742431640625,0.6907196044921875,0.0268402099609375
1769657707878244400,7.694244384765625,0.1395263671875,0.7347869873046875,-0.000732421875
1769657707888232400,7.704232421875,0.12200927734375,0.77618408203125,-0.010986328125
1769657707898220500,7.714220458984375,0.1128692626953125,0.8108062744140625,-0.0131988525390625
1769657707908208400,7.72420849609375,0.118011474609375,0.853485107421875,-0.006072998046875
1769657707918196500,7.734196533203125,0.1025390625,0.875457763671875,0.0159759521484375
1769657707928184600,7.7441845703125,0.0651092529296875,0.8830413818359375,0.0514678955078125
1769657707938172700,7.754172607421875,0.0406036376953125,0.8993377685546875,0.086181640625
1769657707948160500,7.764160400390625,0.0379791259765625,0.9065399169921875,0.1079864501953125
1769657707958148400,7.7741484375,0.0315704345703125,0.9146270751953125,0.1456146240234375
1769657707968136400,7.784136474609375,0.0414276123046875,0.901214599609375,0.201202392578125
1769657707978124300,7.794124267578125,0.08123779296875,0.893585205078125,0.23565673828125
1769657707988112400,7.8041123046875,0.0617523193359375,0.8797454833984375,0.26605224609375
1769657707998101500,7.8141015625,0.0385894775390625,0.89385986328125,0.2955780029296875
1769657708008089600,7.824089599609375,0.041717529296875,0.8986053466796875,0.30218505859375
1769657708018077400,7.834077392578125,0.0715179443359375,0.883148193359375,0.319854736328125
1769657708028065500,7.8440654296875,0.033966064453125,0.892120361328125,0.3470306396484375
1769657708038053000,7.85405322265625,0.0156402587890625,0.9073486328125,0.365478515625
1769657708048041200,7.864041259765625,0.0161590576171875,0.941375732421875,0.387298583984375
1769657708058029000,7.874029052734375,0.0132598876953125,0.9767303466796875,0.396636962890625
1769657708068017000,7.884016845703125,0.0259552001953125,1.002288818359375,0.3992462158203125
1769657708078005000,7.8940048828125,0.0443878173828125,1.02838134765625,0.3970184326171875
1769657708087993000,7.9039931640625,0.060302734375,1.0488433837890625,0.3956298828125
1769657708097981000,7.91398095703125,0.0634613037109375,1.07183837890625,0.399627685546875
1769657708107969000,7.923968994140625,0.0501556396484375,1.1135406494140625,0.4151611328125
1769657708117957000,7.93395703125,0.0518951416015625,1.1687774658203125,0.4298248291015625
1769657708127945200,7.9439453125,0.07916259765625,1.2252960205078125,0.42742919921875
1769657708137933000,7.95393310546875,0.14166259765625,1.252166748046875,0.3995208740234375
1769657708147921200,7.963921142578125,0.212554931640625,1.266326904296875,0.395599365234375
1769657708157909200,7.9739091796875,0.2989654541015625,1.3185577392578125,0.4217071533203125
1769657708167897000,7.98389697265625,0.402923583984375,1.3076324462890625,0.3856658935546875
1769657708177885000,7.993885009765625,0.5034637451171875,1.2924652099609375,0.3203582763671875
1769657708187873000,8.003873046875,0.5369110107421875,1.207366943359375,0.2392120361328125
1769657708197860900,8.01386083984375,0.4607696533203125,1.0295562744140625,0.21893310546875
1769657708207849000,8.023848876953124,0.368011474609375,0.879425048828125,0.222686767578125
1769657708217837000,8.033837158203125,0.410491943359375,0.860870361328125,0.216094970703125
1769657708227825200,8.0438251953125,0.412109375,0.850250244140625,0.236907958984375
1769657708237813000,8.05381298828125,0.405731201171875,0.8349609375,0.251739501953125
1769657708247801000,8.063801025390624,0.42889404296875,0.81573486328125,0.28564453125
1769657708257789200,8.0737890625,0.476776123046875,0.8228912353515625,0.3092498779296875
1769657708267777000,8.083777099609375,0.526092529296875,0.8472747802734375,0.32861328125
1769657708277765000,8.09376513671875,0.551422119140625,0.8921356201171875,0.37158203125
1769657708287753200,8.103753173828125,0.5328216552734375,0.9542083740234375,0.4063720703125
1769657708297741000,8.113740966796875,0.4459381103515625,1.0005035400390625,0.4188995361328125
1769657708307729000,8.12372900390625,0.3206634521484375,1.0320281982421875,0.4384002685546875
1769657708317717000,8.133717041015625,0.2329864501953125,1.033203125,0.4359130859375
1769657708327705000,8.143705078125,0.2017059326171875,0.994415283203125,0.4305877685546875
1769657708337694200,8.153694091796876,0.2077178955078125,0.9447174072265625,0.414886474609375
1769657708347682000,8.16368212890625,0.2401275634765625,0.8991241455078125,0.398712158203125
1769657708357670100,8.173670166015626,0.24127197265625,0.8539886474609375,0.3746795654296875
1769657708367658200,8.183658203125,0.2287139892578125,0.822601318359375,0.3438568115234375
1769657708377646000,8.19364599609375,0.2313385009765625,0.818389892578125,0.31695556640625
1769657708387634000,8.203634033203125,0.2432708740234375,0.8302154541015625,0.3106842041015625
1769657708397622000,8.2136220703125,0.2431488037109375,0.8357086181640625,0.3096771240234375
1769657708407610000,8.223610107421875,0.2367401123046875,0.8328094482421875,0.3115081787109375
1769657708417598000,8.233597900390626,0.231597900390625,0.815582275390625,0.3230438232421875
1769657708427586000,8.2435859375,0.2212982177734375,0.806121826171875,0.3339996337890625
1769657708437574100,8.25357421875,0.1942291259765625,0.7935638427734375,0.341552734375
1769657708447562000,8.26356201171875,0.17071533203125,0.7913818359375,0.3347930908203125
1769657708457550000,8.273550048828126,0.15826416015625,0.789764404296875,0.3221588134765625
1769657708467538200,8.2835380859375,0.15716552734375,0.7858734130859375,0.3038177490234375
1769657708477526000,8.293526123046876,0.1551971435546875,0.786590576171875,0.2977142333984375
1769657708487514000,8.30351416015625,0.1602935791015625,0.7830657958984375,0.2889556884765625
1769657708497502200,8.313502197265626,0.1722412109375,0.785369873046875,0.2845611572265625
1769657708507490000,8.323489990234375,0.174835205078125,0.791717529296875,0.29656982421875
1769657708517478000,8.333477783203126,0.17498779296875,0.79425048828125,0.2982330322265625
1769657708527466000,8.343466064453125,0.178985595703125,0.8042755126953125,0.2949981689453125
1769657708537454000,8.3534541015625,0.1877899169921875,0.8205108642578125,0.299407958984375
1769657708547442000,8.36344189453125,0.2006683349609375,0.84124755859375,0.299530029296875
1769657708557430000,8.373429931640626,0.21160888671875,0.8626251220703125,0.302398681640625
1769657708567418000,8.383418212890625,0.21636962890625,0.888275146484375,0.3182373046875
1769657708577406200,8.39340625,0.20819091796875,0.8983917236328125,0.33941650390625
1769657708587394000,8.40339404296875,0.1922760009765625,0.9162445068359375,0.3779449462890625
1769657708597382100,8.413382080078126,0.1595001220703125,0.937408447265625,0.4224090576171875
1769657708607370200,8.423370361328125,0.1221923828125,0.939849853515625,0.439453125
1769657708617358000,8.433358154296876,0.1064910888671875,0.95166015625,0.4319610595703125
1769657708627346000,8.443345947265625,0.1137847900390625,0.970428466796875,0.4197540283203125
1769657708637334000,8.453333984375,0.1403961181640625,1.0023193359375,0.403076171875
1769657708647322000,8.463322021484375,0.1906280517578125,1.0471954345703125,0.380096435546875
1769657708657310000,8.47331005859375,0.2551116943359375,1.0977783203125,0.3446807861328125
1769657708667299000,8.483299072265625,0.305389404296875,1.1233062744140625,0.3074798583984375
1769657708677287200,8.493287109375,0.294586181640625,1.09661865234375,0.2822723388671875
1769657708687275300,8.503275146484375,0.2520294189453125,1.06146240234375,0.24981689453125
1769657708697263000,8.51326318359375,0.2331390380859375,1.029571533203125,0.15838623046875
1769657708707251000,8.5232509765625,0.224395751953125,0.973388671875,0.0632171630859375
1769657708717239000,8.533239013671874,0.22869873046875,0.9085693359375,-0.0014495849609375
1769657708727227000,8.543226806640625,0.2606353759765625,0.85870361328125,-0.092926025390625
1769657708737215000,8.553215087890624,0.294342041015625,0.842681884765625,-0.1573333740234375
1769657708747203000,8.563203125,0.3203582763671875,0.8729400634765625,-0.1677703857421875
1769657708757191200,8.573191162109374,0.3317413330078125,0.9390106201171875,-0.1623992919921875
1769657708767179000,8.583178955078125,0.31683349609375,1.0290985107421875,-0.169281005859375
1769657708777167000,8.5931669921875,0.261505126953125,1.1601715087890625,-0.114715576171875
1769657708787155200,8.6031552734375,0.1558685302734375,1.2873077392578125,-0.0050811767578125
1769657708797143000,8.61314306640625,0.0492706298828125,1.3945465087890625,0.132415771484375
1769657708807131100,8.623131103515625,-0.0439605712890625,1.4311981201171875,0.2224273681640625
1769657708817119200,8.633119140625,-0.049407958984375,1.3574981689453125,0.2696990966796875
1769657708827107000,8.643107177734375,0.0264739990234375,1.22650146484375,0.3177947998046875
1769657708837095000,8.653094970703124,0.0897064208984375,1.0755615234375,0.3553466796875
1769657708847083000,8.6630830078125,0.1380462646484375,0.9659271240234375,0.3889923095703125
1769657708857071000,8.673071044921874,0.1674957275390625,0.8947296142578125,0.413482666015625
1769657708867059000,8.683058837890625,0.194732666015625,0.864990234375,0.4018707275390625
1769657708877047000,8.693047119140624,0.2285614013671875,0.880218505859375,0.3602294921875
1769657708887035100,8.70303515625,0.2030029296875,0.8887176513671875,0.321746826171875
1769657708897023000,8.71302294921875,0.13775634765625,0.8986663818359375,0.2928619384765625
1769657708907011000,8.723010986328125,0.0821990966796875,0.92291259765625,0.261566162109375
1769657708916999200,8.732999267578125,0.03680419921875,0.9161224365234375,0.217071533203125
1769657708926987300,8.7429873046875,0.0141448974609375,0.892852783203125,0.1776885986328125
1769657708936975000,8.75297509765625,0.0072784423828125,0.8695220947265625,0.142303466796875
1769657708946963000,8.762962890625,0.009857177734375,0.8416748046875,0.1156768798828125
1769657708956951000,8.772950927734374,0.017181396484375,0.8012237548828125,0.09222412109375
1769657708966939000,8.78293896484375,0.025787353515625,0.7723236083984375,0.0752410888671875
1769657708976927000,8.792927001953124,0.033050537109375,0.7627410888671875,0.0751495361328125
1769657708986915000,8.8029150390625,0.0366363525390625,0.7619781494140625,0.0873260498046875
1769657708996903200,8.812903076171875,0.0498199462890625,0.7616729736328125,0.1258392333984375
1769657709006891000,8.82289111328125,0.054107666015625,0.7808380126953125,0.1724853515625
1769657709016880000,8.832880126953125,0.060028076171875,0.7947235107421875,0.2016448974609375
1769657709026868200,8.8428681640625,0.0666656494140625,0.79150390625,0.2130126953125
1769657709036856800,8.85285693359375,0.073944091796875,0.785736083984375,0.222900390625
1769657709046844700,8.8628447265625,0.0746307373046875,0.784820556640625,0.2227935791015625
1769657709056832800,8.872832763671875,0.0716400146484375,0.78912353515625,0.2247314453125
1769657709066820900,8.88282080078125,0.0727996826171875,0.7931060791015625,0.2313079833984375
1769657709076809000,8.89280908203125,0.083251953125,0.798614501953125,0.2367401123046875
1769657709086796800,8.902796875,0.09344482421875,0.817352294921875,0.25982666015625
1769657709096785000,8.912784912109375,0.100250244140625,0.8609771728515625,0.2818145751953125
1769657709106773000,8.92277294921875,0.097381591796875,0.924957275390625,0.309417724609375
1769657709116760800,8.9327607421875,0.076263427734375,0.9501495361328125,0.3192291259765625
1769657709126749000,8.9427490234375,0.0659942626953125,0.9783172607421875,0.3134918212890625
1769657709136736800,8.95273681640625,0.0710296630859375,1.0360107421875,0.319091796875
1769657709146724600,8.962724609375,0.132781982421875,1.1444091796875,0.3316650390625
1769657709156712700,8.972712646484375,0.193206787109375,1.2178497314453125,0.3248748779296875
1769657709166700800,8.98270068359375,0.2322235107421875,1.24713134765625,0.329345703125
1769657709176689000,8.99268896484375,0.2264251708984375,1.264434814453125,0.3836212158203125
1769657709186676700,9.0026767578125,0.2285614013671875,1.2313995361328125,0.3822174072265625
1769657709196664800,9.012664794921875,0.21661376953125,1.1060791015625,0.3607025146484375
1769657709206653000,9.02265283203125,0.1564178466796875,0.9351043701171875,0.375762939453125
1769657709216640800,9.032640869140625,0.1000518798828125,0.734161376953125,0.3719329833984375
1769657709226628900,9.04262890625,0.1460723876953125,0.6656341552734375,0.3590545654296875
1769657709236617000,9.052616943359375,0.2435760498046875,0.7285614013671875,0.4025726318359375
1769657709246604800,9.062604736328124,0.3515167236328125,0.808990478515625,0.4322052001953125
1769657709256592600,9.072592529296875,0.4732208251953125,0.9242706298828125,0.4964141845703125
1769657709266580700,9.082580810546874,0.56341552734375,1.02947998046875,0.514556884765625
1769657709276568800,9.09256884765625,0.5856781005859375,1.111724853515625,0.43438720703125
1769657709286556700,9.102556640625,0.5435028076171875,1.197723388671875,0.3620452880859375
1769657709296544800,9.112544677734375,0.436065673828125,1.217254638671875,0.33819580078125
1769657709306532900,9.122532958984374,0.3267364501953125,1.1808319091796875,0.3283843994140625
1769657709316521000,9.13252099609375,0.2087554931640625,1.139617919921875,0.319854736328125
1769657709326508800,9.1425087890625,0.1071014404296875,1.1028594970703125,0.3186187744140625
1769657709336497700,9.15249755859375,0.095001220703125,1.04779052734375,0.2913665771484375
1769657709346485800,9.16248583984375,0.1150665283203125,0.9747161865234375,0.2860870361328125
1769657709356473900,9.172473876953125,0.1482086181640625,0.9123687744140625,0.3158111572265625
1769657709366461700,9.182461669921874,0.16217041015625,0.860870361328125,0.3250274658203125
1769657709376449800,9.19244970703125,0.1624755859375,0.8188323974609375,0.3350830078125
1769657709386438000,9.20243798828125,0.1668853759765625,0.7964935302734375,0.331573486328125
1769657709396425700,9.21242578125,0.160125732421875,0.7927398681640625,0.3299560546875
1769657709406413800,9.222413818359374,0.1710662841796875,0.786773681640625,0.3130950927734375
1769657709416402000,9.23240185546875,0.16949462890625,0.7810211181640625,0.309356689453125
1769657709426390000,9.24239013671875,0.1624908447265625,0.7794036865234375,0.3076629638671875
1769657709436377900,9.2523779296875,0.171844482421875,0.776885986328125,0.29644775390625
1769657709446366000,9.262365966796875,0.17486572265625,0.7743988037109375,0.2907867431640625
1769657709456353800,9.272353759765625,0.165069580078125,0.776214599609375,0.3015899658203125
1769657709466341600,9.282341552734374,0.140960693359375,0.78582763671875,0.32958984375
1769657709476329700,9.292329833984375,0.1182403564453125,0.803680419921875,0.3493499755859375
1769657709486317800,9.30231787109375,0.1081695556640625,0.81884765625,0.3602752685546875
1769657709496305700,9.3123056640625,0.0903167724609375,0.8272705078125,0.38189697265625
1769657709506293800,9.322293701171875,0.080841064453125,0.8267669677734375,0.397308349609375
1769657709516281900,9.33228173828125,0.0812225341796875,0.8175048828125,0.4085845947265625
1769657709526270000,9.34227001953125,0.0752410888671875,0.8038177490234375,0.4119415283203125
1769657709536257800,9.3522578125,0.0908660888671875,0.7940673828125,0.40509033203125
1769657709546246000,9.362245849609375,0.12725830078125,0.792633056640625,0.390777587890625
1769657709556234000,9.37223388671875,0.1649017333984375,0.8158111572265625,0.366668701171875
1769657709566221800,9.382221923828125,0.2019805908203125,0.85406494140625,0.33154296875
1769657709576209700,9.392209716796875,0.2271728515625,0.8852386474609375,0.298736572265625
1769657709586197800,9.40219775390625,0.2325592041015625,0.9269256591796875,0.2962646484375
1769657709596185900,9.412185791015625,0.2070465087890625,0.9638519287109375,0.319061279296875
1769657709606173700,9.422173583984375,0.150970458984375,0.9825592041015625,0.349822998046875
1769657709616161800,9.432161865234375,0.1241607666015625,1.014312744140625,0.365325927734375
1769657709626150000,9.44214990234375,0.1463470458984375,1.07684326171875,0.3663177490234375
1769657709636137700,9.4521376953125,0.1859283447265625,1.1329803466796875,0.3474578857421875
1769657709646125800,9.462125732421875,0.233612060546875,1.18292236328125,0.3319854736328125
1769657709656114000,9.472114013671876,0.258148193359375,1.2145538330078125,0.323150634765625
1769657709666102000,9.48210205078125,0.248077392578125,1.20770263671875,0.3301849365234375
1769657709676090600,9.492090576171876,0.216217041015625,1.167755126953125,0.2902679443359375
1769657709686078700,9.50207861328125,0.2041778564453125,1.124603271484375,0.227783203125
1769657709696066800,9.51206689453125,0.1972808837890625,1.060699462890625,0.1650848388671875
1769657709706055000,9.522054931640625,0.2040863037109375,0.98114013671875,0.0955657958984375
1769657709716042800,9.532042724609376,0.2473602294921875,0.9137725830078125,0.00018310546875
1769657709726030800,9.54203076171875,0.2863311767578125,0.8777618408203125,-0.07733154296875
1769657709736019000,9.55201904296875,0.3020477294921875,0.8795928955078125,-0.13836669921875
1769657709746006800,9.5620068359375,0.3285369873046875,0.90771484375,-0.1871185302734375
1769657709755995000,9.571994873046876,0.344482421875,0.9943389892578125,-0.1950531005859375
1769657709765983000,9.58198291015625,0.322509765625,1.124664306640625,-0.183441162109375
1769657709775970800,9.591970703125,0.2290191650390625,1.2570037841796875,-0.1576385498046875
1769657709785958700,9.601958740234375,0.090545654296875,1.389129638671875,-0.044708251953125
1769657709795946800,9.61194677734375,-0.0161895751953125,1.4700775146484375,0.0711669921875
1769657709805934800,9.621934814453125,-0.0305938720703125,1.3999481201171875,0.135345458984375
1769657709815922700,9.631922607421876,0.0070648193359375,1.24761962890625,0.18255615234375
1769657709825910800,9.641910888671875,0.028594970703125,1.0964202880859375,0.231201171875
1769657709835899000,9.65189892578125,0.0493621826171875,0.9607086181640625,0.252838134765625
1769657709845886700,9.66188671875,0.06329345703125,0.8773956298828125,0.2734832763671875
1769657709855874800,9.671874755859376,0.0865020751953125,0.8428497314453125,0.2975311279296875
1769657709865863000,9.68186279296875,0.115875244140625,0.8339996337890625,0.30987548828125
1769657709875851000,9.69185107421875,0.14959716796875,0.8771514892578125,0.3249053955078125
1769657709885838800,9.7018388671875,0.141357421875,0.87860107421875,0.3199462890625
1769657709895827000,9.711826904296874,0.11895751953125,0.85614013671875,0.2649993896484375
1769657709905814800,9.721814697265625,0.087890625,0.85443115234375,0.2197723388671875
1769657709915802600,9.731802734375,0.0650634765625,0.837249755859375,0.1793975830078125
1769657709925790700,9.741790771484375,0.0639495849609375,0.82073974609375,0.163665771484375
1769657709935778800,9.75177880859375,0.06005859375,0.809173583984375,0.1522369384765625
1769657709945767000,9.761766845703125,0.0687713623046875,0.7944793701171875,0.122283935546875
1769657709955754800,9.771754638671876,0.0840606689453125,0.797454833984375,0.088348388671875
1769657709965742800,9.781742919921875,0.082489013671875,0.7934417724609375,0.062164306640625
1769657709975731000,9.79173095703125,0.0713653564453125,0.771881103515625,0.0577545166015625
1769657709985718800,9.80171875,0.069122314453125,0.7614898681640625,0.0627899169921875
1769657709995707600,9.811707763671874,0.068206787109375,0.765167236328125,0.086883544921875
1769657710005695700,9.82169580078125,0.07867431640625,0.774017333984375,0.0880279541015625
1769657710015683800,9.831683837890624,0.0887451171875,0.795562744140625,0.0934906005859375
1769657710025671700,9.841671630859375,0.07940673828125,0.8248138427734375,0.1131744384765625
1769657710035659800,9.85165966796875,0.055450439453125,0.84588623046875,0.1240692138671875
1769657710045647600,9.861647705078125,0.037872314453125,0.86651611328125,0.13470458984375
1769657710055635700,9.8716357421875,0.03173828125,0.8773040771484375,0.1508636474609375
1769657710065623800,9.881623779296875,0.0369415283203125,0.8851776123046875,0.1600494384765625
1769657710075611600,9.891611572265624,0.0503997802734375,0.9005126953125,0.17681884765625
1769657710085599700,9.901599853515625,0.06341552734375,0.9236602783203125,0.192596435546875
1769657710095587800,9.911587890625,0.0634307861328125,0.9578094482421875,0.2114105224609375
1769657710105575700,9.92157568359375,0.0514373779296875,0.9935302734375,0.25592041015625
1769657710115563500,9.9315634765625,0.0666046142578125,1.023681640625,0.3047637939453125
1769657710125551600,9.941551513671875,0.0429840087890625,1.0223388671875,0.3203582763671875
1769657710135539700,9.951539794921874,-0.00946044921875,1.022674560546875,0.3631134033203125
1769657710145527600,9.961527587890625,-0.029571533203125,1.0326080322265625,0.3901824951171875
1769657710155515600,9.971515625,-0.0031585693359375,1.0340576171875,0.3819732666015625
1769657710165503700,9.981503662109375,0.040374755859375,1.044891357421875,0.3530731201171875
1769657710175491800,9.991491943359375,0.0873260498046875,1.100494384765625,0.333099365234375
1769657710185479700,10.001479736328125,0.1342926025390625,1.1689910888671875,0.31817626953125
1769657710195467800,10.0114677734375,0.175018310546875,1.2313232421875,0.3139801025390625
1769657710205456000,10.021455810546875,0.19976806640625,1.2776947021484375,0.31121826171875
1769657710215443700,10.031443603515624,0.1933746337890625,1.3102874755859375,0.318023681640625
1769657710225431800,10.041431884765625,0.1859588623046875,1.29931640625,0.2646636962890625
1769657710235419600,10.051419677734375,0.1541748046875,1.178436279296875,0.221771240234375
1769657710245407500,10.061407470703125,0.11578369140625,0.968902587890625,0.2545928955078125
1769657710255395600,10.0713955078125,0.1166839599609375,0.7700653076171875,0.2590789794921875
1769657710265383700,10.0813837890625,0.171417236328125,0.6923828125,0.266143798828125
1769657710275371800,10.091371826171875,0.22265625,0.6956634521484375,0.310272216796875
1769657710285359600,10.101359619140625,0.2875213623046875,0.7403564453125,0.32080078125
1769657710295347700,10.11134765625,0.4002838134765625,0.8087310791015625,0.333953857421875
1769657710305335800,10.121335693359375,0.5078125,0.9113311767578125,0.3692626953125
1769657710315323600,10.13132373046875,0.563201904296875,1.0243682861328125,0.4053955078125
1769657710325312500,10.1413125,0.555816650390625,1.1400909423828125,0.3889007568359375
1769657710335300600,10.151300537109375,0.48297119140625,1.208740234375,0.332855224609375
1769657710345288700,10.161288818359376,0.3832550048828125,1.1966094970703125,0.282958984375
1769657710355276500,10.171276611328125,0.291473388671875,1.14617919921875,0.264739990234375
1769657710365264600,10.1812646484375,0.1810150146484375,1.114288330078125,0.2719879150390625
1769657710375252700,10.191252685546875,0.14044189453125,1.0795745849609375,0.253082275390625
1769657710385240800,10.20124072265625,0.135101318359375,1.030517578125,0.2486572265625
1769657710395228700,10.211228759765625,0.1086578369140625,0.9794158935546875,0.3012237548828125
1769657710405216800,10.221216796875,0.108184814453125,0.93927001953125,0.3245697021484375
1769657710415204900,10.231204833984375,0.1045684814453125,0.891387939453125,0.3281097412109375
1769657710425192700,10.241192626953126,0.0796661376953125,0.85736083984375,0.3381500244140625
1769657710435180500,10.2511806640625,0.0782928466796875,0.8509063720703125,0.3381805419921875
1769657710445168600,10.261168701171876,0.0955352783203125,0.834259033203125,0.3339691162109375
1769657710455156700,10.27115673828125,0.1045074462890625,0.81378173828125,0.3270721435546875
1769657710465144600,10.28114453125,0.117431640625,0.78802490234375,0.3184051513671875
1769657710475132700,10.291132568359375,0.123779296875,0.7662811279296875,0.3090667724609375
1769657710485120800,10.301120849609376,0.133575439453125,0.747222900390625,0.2852325439453125
1769657710495108600,10.311108642578125,0.1436309814453125,0.73486328125,0.2778778076171875
1769657710505096700,10.3210966796875,0.1556549072265625,0.7323760986328125,0.26715087890625
1769657710515084800,10.331084716796875,0.1665496826171875,0.734405517578125,0.268341064453125
1769657710525072600,10.34107275390625,0.1629486083984375,0.7273406982421875,0.2747955322265625
1769657710535060700,10.351060791015625,0.1601715087890625,0.7269439697265625,0.2839813232421875
1769657710545048800,10.361048828125,0.15240478515625,0.7383880615234375,0.29449462890625
1769657710555036700,10.37103662109375,0.154571533203125,0.7656707763671875,0.307281494140625
1769657710565024500,10.3810244140625,0.1668243408203125,0.80181884765625,0.3106536865234375
1769657710575012600,10.3910126953125,0.1685943603515625,0.8260955810546875,0.298065185546875
1769657710585000700,10.401000732421876,0.165130615234375,0.8424835205078125,0.2994842529296875
1769657710594988500,10.410988525390625,0.1846466064453125,0.8722991943359375,0.3057098388671875
1769657710604976600,10.4209765625,0.2064666748046875,0.903472900390625,0.311248779296875
1769657710614964700,10.43096484375,0.2094573974609375,0.928619384765625,0.314910888671875
1769657710624952800,10.440952880859374,0.2030487060546875,0.9641571044921875,0.3203887939453125
1769657710634941700,10.450941650390625,0.1908416748046875,0.9936981201171875,0.3181915283203125
1769657710644928800,10.4609287109375,0.158599853515625,1.006378173828125,0.311767578125
1769657710654917600,10.470917724609375,0.1220550537109375,1.0020751953125,0.3085479736328125
1769657710664905700,10.48090576171875,0.0861053466796875,0.982025146484375,0.307220458984375
1769657710674893600,10.4908935546875,0.06768798828125,0.9742584228515625,0.3091888427734375
1769657710684881700,10.500881591796874,0.1000823974609375,1.004425048828125,0.3024444580078125
1769657710694869800,10.510869873046875,0.171356201171875,1.0669403076171875,0.2954254150390625
1769657710704857600,10.520857666015624,0.24664306640625,1.141845703125,0.2801055908203125
1769657710714845700,10.530845703125,0.3360137939453125,1.217376708984375,0.269805908203125
1769657710724833800,10.540833740234374,0.367767333984375,1.2633056640625,0.2778167724609375
1769657710734822000,10.55082177734375,0.3180084228515625,1.2783050537109375,0.2874755859375
1769657710744809700,10.560809814453124,0.2378387451171875,1.25341796875,0.26568603515625
1769657710754797800,10.5707978515625,0.1660308837890625,1.182464599609375,0.211639404296875
1769657710764785700,10.58078564453125,0.1389007568359375,1.0875091552734375,0.1251068115234375
1769657710774773500,10.5907734375,0.1431732177734375,0.992156982421875,0.05291748046875
1769657710784761600,10.60076171875,0.17572021484375,0.92059326171875,-0.014556884765625
1769657710794749700,10.610749755859375,0.2252655029296875,0.84820556640625,-0.0749359130859375
1769657710804737800,10.62073779296875,0.26904296875,0.8081512451171875,-0.131439208984375
1769657710814725600,10.6307255859375,0.308258056640625,0.8252716064453125,-0.1759033203125
1769657710824713700,10.640713623046874,0.3285064697265625,0.8891448974609375,-0.182464599609375
1769657710834701800,10.650701904296875,0.3235626220703125,0.998199462890625,-0.1539306640625
1769657710844689700,10.660689697265624,0.2925872802734375,1.1376953125,-0.0997314453125
1769657710854677800,10.670677734375,0.2161712646484375,1.270721435546875,-0.019500732421875
1769657710864665900,10.680665771484374,0.117279052734375,1.3526611328125,0.0713653564453125
1769657710874653700,10.69065380859375,0.05474853515625,1.3342437744140625,0.1229248046875
1769657710884641500,10.7006416015625,0.0458831787109375,1.25531005859375,0.1852569580078125
1769657710894629600,10.710629638671875,0.0771484375,1.13800048828125,0.2421112060546875
1769657710904617700,10.72061767578125,0.1328887939453125,1.0080413818359375,0.2694091796875
1769657710914605600,10.73060546875,0.1749420166015625,0.910491943359375,0.2974090576171875
1769657710924593700,10.74059375,0.193572998046875,0.849395751953125,0.310699462890625
1769657710934581800,10.750581787109375,0.2310791015625,0.8393402099609375,0.2845458984375
1769657710944569600,10.760569580078124,0.24969482421875,0.855010986328125,0.243072509765625
1769657710954557700,10.7705576171875,0.1909637451171875,0.85760498046875,0.2163848876953125
1769657710964545800,10.7805458984375,0.1496734619140625,0.8830413818359375,0.175750732421875
1769657710974534700,10.79053466796875,0.1339263916015625,0.9109039306640625,0.1199188232421875
1769657710984522500,10.8005224609375,0.10498046875,0.910308837890625,0.07427978515625
1769657710994510600,10.810510498046876,0.08270263671875,0.899017333984375,0.0418853759765625
1769657711004498700,10.820498779296875,0.0853118896484375,0.8766632080078125,0.0088653564453125
1769657711014486800,10.83048681640625,0.083587646484375,0.8630218505859375,-0.011932373046875
1769657711024474600,10.840474609375,0.0629119873046875,0.8578338623046875,-0.0058441162109375
1769657711034463000,10.850462890625,0.06549072265625,0.8490753173828125,-0.019805908203125
1769657711044450800,10.860450927734375,0.073089599609375,0.841064453125,-0.022216796875
1769657711054439000,10.87043896484375,0.0617523193359375,0.8365478515625,-0.001220703125
1769657711064427000,10.880427001953125,0.059356689453125,0.8474273681640625,0.0335845947265625
1769657711074414800,10.890414794921876,0.0608978271484375,0.8707427978515625,0.0613861083984375
1769657711084402700,10.900402587890625,0.0629425048828125,0.880584716796875,0.0775299072265625
1769657711094390800,10.910390869140626,0.074127197265625,0.8745880126953125,0.0902252197265625
1769657711104378600,10.920378662109375,0.083953857421875,0.8776397705078125,0.0923614501953125
1769657711114366700,10.93036669921875,0.10504150390625,0.886322021484375,0.0941009521484375
1769657711124354800,10.940354736328125,0.13330078125,0.895751953125,0.0980377197265625
1769657711134343000,10.950343017578126,0.15081787109375,0.893402099609375,0.0958251953125
1769657711144330800,10.960330810546875,0.158172607421875,0.8915557861328125,0.10272216796875
1769657711154318800,10.97031884765625,0.15789794921875,0.909881591796875,0.1263427734375
1769657711164307000,10.980306884765625,0.1477813720703125,0.94189453125,0.1541290283203125
1769657711174294800,10.990294677734376,0.11224365234375,0.96942138671875,0.189697265625
1769657711184283000,11.000282958984375,0.080780029296875,0.9991302490234375,0.2176361083984375
1769657711194271000,11.01027099609375,0.05975341796875,0.99993896484375,0.2245635986328125
1769657711204258800,11.0202587890625,0.0352630615234375,1.0006561279296875,0.2443084716796875
1769657711214246700,11.03024658203125,0.0352783203125,1.007171630859375,0.2490234375
1769657711224234800,11.04023486328125,0.0478515625,0.98944091796875,0.2376251220703125
1769657711234222800,11.050222900390626,0.062408447265625,0.966705322265625,0.2278900146484375
1769657711244210700,11.060210693359375,0.0903778076171875,0.962371826171875,0.225738525390625
1769657711254198800,11.07019873046875,0.1555328369140625,0.974884033203125,0.210296630859375
1769657711264187000,11.080186767578125,0.242584228515625,0.9954986572265625,0.1790313720703125
1769657711274175000,11.090175048828126,0.29656982421875,1.010162353515625,0.178436279296875
1769657711284162800,11.100162841796875,0.2928314208984375,1.0084381103515625,0.1993865966796875
1769657711294151000,11.11015087890625,0.260284423828125,0.987579345703125,0.208526611328125
1769657711304139800,11.120139892578125,0.2582244873046875,0.9425811767578125,0.2058868408203125
1769657711314128000,11.1301279296875,0.2776031494140625,0.8815765380859375,0.1910400390625
1769657711324115700,11.14011572265625,0.30731201171875,0.827484130859375,0.16973876953125
1769657711334103800,11.150103759765624,0.3706817626953125,0.80072021484375,0.15155029296875
1769657711344092000,11.160091796875,0.4496307373046875,0.8262786865234375,0.134735107421875
1769657711354079700,11.170079833984374,0.5127716064453125,0.884552001953125,0.1207275390625
1769657711364067800,11.18006787109375,0.5522918701171875,0.966461181640625,0.13140869140625
1769657711374056000,11.190055908203124,0.554962158203125,1.0724029541015625,0.1443023681640625
1769657711384044000,11.2000439453125,0.524749755859375,1.19964599609375,0.1607818603515625
1769657711394031900,11.210031982421874,0.4462890625,1.3022003173828125,0.18768310546875
1769657711404019700,11.220019775390625,0.3236236572265625,1.356353759765625,0.1953582763671875
1769657711414007800,11.2300078125,0.181243896484375,1.3374481201171875,0.1744384765625
1769657711423995600,11.23999560546875,0.1149749755859375,1.2635345458984375,0.1887054443359375
1769657711433983700,11.249983642578124,0.1193389892578125,1.16583251953125,0.1955413818359375
1769657711443971800,11.259971923828125,0.1674041748046875,1.0727081298828125,0.1992950439453125
1769657711453959700,11.269959716796874,0.2077789306640625,1.00042724609375,0.212493896484375
1769657711463947800,11.27994775390625,0.2313385009765625,0.9663238525390625,0.2263031005859375
1769657711473936000,11.289935791015624,0.294158935546875,0.9556427001953125,0.2385406494140625
1769657711483924000,11.299924072265625,0.3085784912109375,0.9506683349609375,0.2574005126953125
1769657711493911800,11.309911865234374,0.2893218994140625,0.960784912109375,0.269256591796875
1769657711503900000,11.31989990234375,0.3136749267578125,0.96380615234375,0.2458038330078125
1769657711513888000,11.329887939453124,0.35919189453125,0.954986572265625,0.20452880859375
1769657711523875800,11.339875732421875,0.3854522705078125,0.9297943115234375,0.181884765625
1769657711533863700,11.34986376953125,0.3822174072265625,0.9109039306640625,0.175262451171875
1769657711543851800,11.359851806640625,0.3763885498046875,0.898681640625,0.1676177978515625
1769657711553839900,11.36983984375,0.3686676025390625,0.89129638671875,0.167144775390625
1769657711563827700,11.37982763671875,0.3468017578125,0.8908538818359375,0.1780853271484375
1769657711573815800,11.38981591796875,0.3327789306640625,0.8846893310546875,0.1934814453125
1769657711583804000,11.399803955078125,0.3320465087890625,0.8754119873046875,0.2089996337890625
1769657711593791700,11.409791748046874,0.340484619140625,0.85919189453125,0.217254638671875
1769657711603779800,11.41977978515625,0.355560302734375,0.835784912109375,0.226287841796875
1769657711613768000,11.429767822265624,0.3697357177734375,0.81341552734375,0.2276763916015625
1769657711623756800,11.4397568359375,0.3793487548828125,0.7978973388671875,0.2303619384765625
1769657711633744600,11.44974462890625,0.38116455078125,0.785003662109375,0.2412872314453125
1769657711643732700,11.459732666015626,0.3760528564453125,0.7720184326171875,0.2435150146484375
1769657711653720800,11.469720947265625,0.3841094970703125,0.7633209228515625,0.238739013671875
1769657711663709000,11.479708984375,0.395751953125,0.7562713623046875,0.23394775390625
1769657711673696800,11.48969677734375,0.4061126708984375,0.7524566650390625,0.233978271484375
1769657711683684900,11.499684814453126,0.406585693359375,0.7665557861328125,0.248077392578125
1769657711693673000,11.5096728515625,0.3941650390625,0.796905517578125,0.2647857666015625
1769657711703660800,11.519660888671876,0.379119873046875,0.8350982666015625,0.2713623046875
1769657711713649000,11.52964892578125,0.3600006103515625,0.8691558837890625,0.266876220703125
1769657711723637000,11.539636962890626,0.3474884033203125,0.8998870849609375,0.2578582763671875
1769657711733624800,11.549624755859375,0.334716796875,0.9117279052734375,0.2404022216796875
1769657711743612700,11.55961279296875,0.3220672607421875,0.89508056640625,0.2172698974609375
1769657711753600800,11.569600830078125,0.3108367919921875,0.8550567626953125,0.1970672607421875
1769657711763588900,11.5795888671875,0.319549560546875,0.8217315673828125,0.1706390380859375
1769657711773576700,11.58957666015625,0.3436431884765625,0.8114166259765625,0.1424102783203125
1769657711783564800,11.599564697265626,0.35699462890625,0.8258514404296875,0.1049041748046875
1769657711793553000,11.609552978515625,0.3469696044921875,0.87103271484375,0.0887908935546875
1769657711803540700,11.619540771484376,0.3247833251953125,0.9416351318359375,0.0889892578125
1769657711813528800,11.62952880859375,0.2730712890625,1.0030517578125,0.0811920166015625
1769657711823517000,11.639516845703126,0.19952392578125,1.048187255859375,0.0808868408203125
1769657711833505000,11.649505126953125,0.14422607421875,1.0846710205078125,0.0676116943359375
1769657711843492900,11.659492919921876,0.1141510009765625,1.1166534423828125,0.053314208984375
1769657711853480700,11.669480712890625,0.0819091796875,1.122589111328125,0.067474365234375
1769657711863468800,11.67946875,0.0753631591796875,1.1144866943359375,0.068389892578125
1769657711873456600,11.68945654296875,0.109100341796875,1.106048583984375,0.064208984375
1769657711883444700,11.69944482421875,0.1465606689453125,1.0883941650390625,0.05731201171875
1769657711893432800,11.709432861328125,0.1843414306640625,1.084747314453125,0.0561981201171875
1769657711903421000,11.7194208984375,0.209320068359375,1.0724639892578125,0.06134033203125
1769657711913408800,11.72940869140625,0.223541259765625,1.0531158447265625,0.0533905029296875
1769657711923396900,11.73939697265625,0.2379913330078125,1.0397491455078125,0.065093994140625
1769657711933385000,11.749385009765625,0.242279052734375,1.0422515869140625,0.0845184326171875
1769657711943372800,11.759372802734376,0.2526397705078125,1.04998779296875,0.11468505859375
1769657711953361700,11.769361572265625,0.25457763671875,1.049072265625,0.144134521484375
1769657711963349800,11.779349853515624,0.24957275390625,1.0338592529296875,0.1800689697265625
1769657711973337900,11.789337890625,0.2392578125,1.0097503662109375,0.2005767822265625
1769657711983325700,11.79932568359375,0.23291015625,0.9911346435546875,0.208221435546875
1769657711993313800,11.809313720703125,0.223388671875,0.9817962646484375,0.2177276611328125
1769657712003302000,11.819302001953124,0.1967010498046875,0.9749603271484375,0.2243804931640625
1769657712013290000,11.8292900390625,0.17999267578125,0.971710205078125,0.2138824462890625
1769657712023277800,11.83927783203125,0.1831512451171875,0.9722900390625,0.1918487548828125
1769657712033266000,11.849265869140625,0.180633544921875,0.9676666259765625,0.165435791015625
1769657712043253000,11.8592529296875,0.182861328125,0.9709014892578125,0.14111328125
1769657712053241000,11.869240966796875,0.18145751953125,0.9807281494140625,0.123565673828125
1769657712063229000,11.87922900390625,0.1652679443359375,0.981842041015625,0.11419677734375
1769657712073217000,11.889217041015625,0.15228271484375,0.98309326171875,0.1018829345703125
1769657712083204900,11.899204833984374,0.1466217041015625,0.986053466796875,0.1002960205078125
1769657712093193000,11.90919287109375,0.14373779296875,0.987579345703125,0.1121673583984375
1769657712103180800,11.919180908203124,0.1348419189453125,0.983856201171875,0.1256866455078125
1769657712113169000,11.9291689453125,0.125579833984375,0.97320556640625,0.132232666015625
1769657712123157000,11.939156982421874,0.124664306640625,0.9598846435546875,0.12841796875
1769657712133144800,11.949144775390625,0.12109375,0.94866943359375,0.1287841796875
1769657712143133000,11.9591328125,0.1111907958984375,0.9378509521484375,0.1216583251953125
1769657712153121000,11.96912109375,0.1070556640625,0.9278411865234375,0.121337890625
1769657712163108900,11.97910888671875,0.104034423828125,0.916534423828125,0.1204681396484375
1769657712173097000,11.989096923828125,0.1056671142578125,0.907440185546875,0.116424560546875
1769657712183085000,11.9990849609375,0.1068878173828125,0.9046630859375,0.11865234375
1769657712193073200,12.0090732421875,0.1006622314453125,0.898834228515625,0.123931884765625
1769657712203061000,12.01906103515625,0.0989227294921875,0.898193359375,0.1290283203125
1769657712213048800,12.029048828125,0.1012115478515625,0.90509033203125,0.1307525634765625
1769657712223037000,12.039036865234374,0.099365234375,0.9101104736328125,0.1399383544921875
1769657712233024800,12.049024658203125,0.0921173095703125,0.924224853515625,0.14178466796875
1769657712243012900,12.059012939453124,0.0834808349609375,0.9488372802734375,0.1484375
1769657712253001000,12.0690009765625,0.085357666015625,0.978912353515625,0.158233642578125
1769657712262990000,12.078989990234374,0.108978271484375,1.012359619140625,0.1750946044921875
1769657712272978000,12.08897802734375,0.14349365234375,1.030242919921875,0.19097900390625
1769657712282966000,12.098966064453125,0.1900787353515625,1.0347900390625,0.1925811767578125
1769657712292953900,12.108953857421875,0.2385406494140625,1.044647216796875,0.1879730224609375
1769657712302942000,12.11894189453125,0.2592315673828125,1.050537109375,0.180633544921875
1769657712312929800,12.1289296875,0.2444610595703125,1.0496673583984375,0.1862030029296875
1769657712322918000,12.13891796875,0.2134552001953125,1.052642822265625,0.20794677734375
1769657712332906000,12.148906005859375,0.1858978271484375,1.0496368408203125,0.2259521484375
1769657712342893800,12.158893798828124,0.170318603515625,1.0357666015625,0.247406005859375
1769657712352882000,12.1688818359375,0.1789398193359375,1.016937255859375,0.2659759521484375
1769657712362870000,12.1788701171875,0.2034912109375,0.996856689453125,0.286163330078125
1769657712372858000,12.188858154296875,0.23675537109375,0.969573974609375,0.3104095458984375
1769657712382846000,12.198845947265625,0.2645111083984375,0.9326171875,0.333526611328125
1769657712392834000,12.208833984375,0.2822723388671875,0.8843994140625,0.3291015625
1769657712402822100,12.218822265625,0.3010406494140625,0.841156005859375,0.339874267578125
1769657712412809700,12.228809814453125,0.3284149169921875,0.79498291015625,0.3477325439453125
1769657712422797800,12.2387978515625,0.371917724609375,0.750518798828125,0.351287841796875
1769657712432786000,12.248785888671875,0.418731689453125,0.725250244140625,0.3597412109375
1769657712442774000,12.25877392578125,0.462799072265625,0.710601806640625,0.3827667236328125
1769657712452761900,12.268761962890625,0.5121307373046875,0.7106781005859375,0.4035797119140625
1769657712462750000,12.27875,0.5470123291015625,0.72705078125,0.4209136962890625
1769657712472738000,12.288738037109376,0.560211181640625,0.764923095703125,0.4277496337890625
1769657712482726000,12.298725830078125,0.540802001953125,0.8286895751953125,0.4426422119140625
1769657712492714000,12.3087138671875,0.4946441650390625,0.902191162109375,0.451171875
1769657712502702000,12.3187021484375,0.4232635498046875,0.953765869140625,0.4470672607421875
1769657712512690000,12.32868994140625,0.34808349609375,0.991729736328125,0.4565887451171875
1769657712522678000,12.338677978515625,0.28509521484375,1.000885009765625,0.4618377685546875
1769657712532665900,12.348665771484375,0.2515716552734375,0.97943115234375,0.4525604248046875
1769657712542654000,12.358654052734375,0.239593505859375,0.9400482177734375,0.4472198486328125
1769657712552641800,12.368641845703126,0.2435760498046875,0.8964996337890625,0.4391326904296875
1769657712562630000,12.3786298828125,0.2659454345703125,0.8618316650390625,0.425933837890625
1769657712572618000,12.388617919921876,0.287109375,0.8422393798828125,0.41680908203125
1769657712582607000,12.398607177734375,0.295928955078125,0.8337860107421875,0.411773681640625
1769657712592595000,12.408594970703126,0.2974090576171875,0.8290557861328125,0.4125518798828125
1769657712602583000,12.4185830078125,0.3040771484375,0.8283843994140625,0.40777587890625
1769657712612571000,12.42857080078125,0.30987548828125,0.8276824951171875,0.40057373046875
1769657712622558700,12.438558837890625,0.3098602294921875,0.8290557861328125,0.396240234375
1769657712632546800,12.448546875,0.312164306640625,0.8280181884765625,0.3912353515625
1769657712642535000,12.458534912109375,0.3101043701171875,0.8260345458984375,0.3824615478515625
1769657712652523000,12.46852294921875,0.3051910400390625,0.8325958251953125,0.3765716552734375
1769657712662510800,12.4785107421875,0.29718017578125,0.8405303955078125,0.3687591552734375
1769657712672499000,12.4884990234375,0.287689208984375,0.8510284423828125,0.3561248779296875
1769657712682487000,12.498487060546875,0.277587890625,0.8612060546875,0.3486480712890625
1769657712692475000,12.508474853515626,0.274200439453125,0.8674163818359375,0.33740234375
1769657712702463000,12.518462890625,0.2730865478515625,0.8719024658203125,0.332305908203125
1769657712712451000,12.528451171875,0.2728729248046875,0.8710479736328125,0.3323822021484375
1769657712722439200,12.538439208984375,0.265960693359375,0.8746795654296875,0.3494415283203125
1769657712732427000,12.548427001953126,0.259185791015625,0.8858489990234375,0.3679656982421875
1769657712742414800,12.558414794921875,0.25396728515625,0.8930511474609375,0.382659912109375
1769657712752403000,12.56840283203125,0.2438812255859375,0.8959808349609375,0.398284912109375
1769657712762390800,12.578390869140625,0.241943359375,0.9083099365234375,0.41387939453125
1769657712772379000,12.58837890625,0.2375640869140625,0.909942626953125,0.4268951416015625
1769657712782367000,12.598366943359375,0.241851806640625,0.9035186767578125,0.4297637939453125
1769657712792355000,12.60835498046875,0.25506591796875,0.8950958251953125,0.43133544921875
1769657712802343000,12.618343017578125,0.2696075439453125,0.90008544921875,0.4361724853515625
1769657712812331000,12.6283310546875,0.277923583984375,0.913116455078125,0.4502716064453125
1769657712822319000,12.638319091796875,0.2832183837890625,0.9236907958984375,0.4616546630859375
1769657712832307000,12.648306884765624,0.2865142822265625,0.9313812255859375,0.47625732421875
1769657712842295000,12.658294921875,0.293060302734375,0.93731689453125,0.4874267578125
1769657712852283000,12.668282958984374,0.2901763916015625,0.9409637451171875,0.5018768310546875
1769657712862270700,12.678270751953125,0.2843475341796875,0.9505462646484375,0.509735107421875
1769657712872258800,12.6882587890625,0.2777862548828125,0.956817626953125,0.4981231689453125
1769657712882247000,12.698246826171875,0.266693115234375,0.962860107421875,0.4756927490234375
1769657712892235000,12.708235107421874,0.2535858154296875,0.963623046875,0.4560394287109375
1769657712902222800,12.718222900390625,0.2343902587890625,0.962554931640625,0.4290618896484375
1769657712912212000,12.7282119140625,0.219940185546875,0.9696044921875,0.4027099609375
1769657712922200000,12.738199951171875,0.2280731201171875,0.9849700927734375,0.3743896484375
1769657712932188200,12.748188232421874,0.2685699462890625,1.0094146728515625,0.340423583984375
1769657712942175700,12.75817578125,0.3304443359375,1.0418853759765625,0.3204803466796875
1769657712952163800,12.768163818359374,0.382537841796875,1.072174072265625,0.316192626953125
1769657712962152000,12.77815185546875,0.4080352783203125,1.083648681640625,0.315643310546875
1769657712972139800,12.788139892578124,0.3880767822265625,1.0562591552734375,0.3065948486328125
1769657712982127900,12.7981279296875,0.329803466796875,0.9897613525390625,0.2706756591796875
1769657712992116000,12.808115966796874,0.2468414306640625,0.8737030029296875,0.2394866943359375
1769657713002104000,12.81810400390625,0.227386474609375,0.760162353515625,0.1615142822265625
1769657713012092000,12.828091796875,0.266326904296875,0.6880340576171875,0.07421875
1769657713022080000,12.838080078125,0.2887420654296875,0.6201324462890625,0.014556884765625
1769657713032068000,12.848068115234375,0.31976318359375,0.5949554443359375,-0.0312042236328125
1769657713042056000,12.858055908203125,0.369293212890625,0.6304168701171875,-0.0698394775390625
1769657713052044000,12.8680439453125,0.3963623046875,0.6941070556640625,-0.0741119384765625
1769657713062032000,12.878031982421875,0.39190673828125,0.7936553955078125,-0.0601348876953125
1769657713072020000,12.88802001953125,0.3682403564453125,0.9375,-0.0238189697265625
1769657713082007800,12.8980078125,0.3099517822265625,1.1192779541015625,0.0339202880859375
1769657713091996000,12.907995849609375,0.1410980224609375,1.2600250244140625,0.154937744140625
1769657713101984000,12.91798388671875,-0.022216796875,1.349212646484375,0.25823974609375
1769657713111971800,12.927971923828125,-0.0887908935546875,1.34613037109375,0.2816314697265625
1769657713121960000,12.9379599609375,-0.0542449951171875,1.231231689453125,0.279815673828125
1769657713131948000,12.947947998046875,0.02545166015625,1.11029052734375,0.3044586181640625
1769657713141935900,12.957935791015625,0.0824127197265625,1.0029296875,0.30322265625
1769657713151924000,12.967924072265625,0.1391448974609375,0.921600341796875,0.299560546875
1769657713161912000,12.977912109375,0.22607421875,0.904632568359375,0.30621337890625
1769657713171900200,12.987900146484375,0.302581787109375,0.9211578369140625,0.3165435791015625
1769657713181887700,12.9978876953125,0.3281097412109375,0.939697265625,0.3170166015625
1769657713191875800,13.007875732421875,0.30389404296875,0.936187744140625,0.26544189453125
1769657713201864000,13.017864013671876,0.2758941650390625,0.948760986328125,0.226104736328125
1769657713211851800,13.027851806640625,0.2834930419921875,0.9605865478515625,0.2216796875
1769657713221840000,13.03783984375,0.30072021484375,0.954559326171875,0.1969757080078125
1769657713231829000,13.0478291015625,0.307586669921875,0.944000244140625,0.1668548583984375
1769657713241817000,13.057817138671876,0.289031982421875,0.9290771484375,0.151519775390625
1769657713251805000,13.067804931640625,0.252593994140625,0.9176025390625,0.1397552490234375
1769657713261793000,13.07779296875,0.20458984375,0.90118408203125,0.120574951171875
1769657713271780900,13.08778076171875,0.1552734375,0.904296875,0.1100616455078125
1769657713281769000,13.09776904296875,0.1175994873046875,0.9208526611328125,0.1125946044921875
1769657713291756800,13.1077568359375,0.0793914794921875,0.915313720703125,0.1262359619140625
1769657713301745000,13.117744873046876,0.059326171875,0.90118408203125,0.1251373291015625
1769657713311733000,13.12773291015625,0.0480804443359375,0.8746337890625,0.1246795654296875
1769657713321720800,13.137720947265626,0.04449462890625,0.8565826416015625,0.127105712890625
1769657713331709000,13.147708984375,0.0497589111328125,0.8365478515625,0.1297760009765625
