time,seconds_elapsed,z,y,x
1769657700252387000,0.068386962890625,0.031209981068968773,0.009105644188821316,0.052897922694683075
1769657700262375200,0.078375244140625,0.029224025085568428,0.03823469579219818,0.04420563206076622
1769657700272363300,0.08836328125,0.02780243009328842,0.057822778820991516,0.025355776771903038
1769657700282351000,0.09835107421875,0.016101373359560966,0.05952797085046768,-0.007903731428086758
1769657700292339200,0.108339111328125,0.0047424593940377235,0.07042455673217773,-0.03527463600039482
1769657700302327000,0.1183271484375,-0.007993309758603573,0.0474257692694664,-0.04174638167023659
1769657700312315100,0.128315185546875,-0.010165116749703884,0.016538159921765327,-0.03784112259745598
1769657700322303000,0.138302978515625,-0.00793570838868618,-0.011056918650865555,-0.021783240139484406
1769657700332291000,0.148291015625,-0.005929016973823309,-0.033742789179086685,0.006099258083850145
1769657700342279200,0.158279052734375,-0.0060219597071409225,-0.04870982468128204,0.03276477009057999
1769657700352267000,0.16826708984375,-0.005237125791609287,-0.054430026561021805,0.04279130697250366
1769657700362255000,0.178255126953125,-0.007775614969432354,-0.060826435685157776,0.033543042838573456
1769657700372243200,0.1882431640625,-0.010465406812727451,-0.055410899221897125,0.022047776728868484
1769657700382231000,0.19823095703125,-0.013384232297539711,-0.04205186665058136,0.006314256228506565
1769657700392219100,0.20821923828125,-0.005311392247676849,-0.017858382314443588,-0.010402405634522438
1769657700402207200,0.218207275390625,0.002875584177672863,0.007130905520170927,-0.021017760038375854
1769657700412196000,0.228196044921875,0.002349609974771738,0.02046641707420349,-0.025065764784812927
1769657700422184200,0.23818408203125,0.0018727194983512163,0.022177617996931076,-0.01880301721394062
1769657700432172000,0.248172119140625,0.0032202787697315216,0.0138363316655159,-0.013075620867311954
1769657700442160000,0.25816015625,0.005656494293361902,0.0006420023273676634,-0.0016332396771758795
1769657700452148200,0.268148193359375,0.006890336517244577,-0.004563678987324238,0.010080408304929733
1769657700462136000,0.278135986328125,0.008246494457125664,-0.010887201875448227,0.014169166795909405
1769657700472124200,0.288124267578125,0.00876314751803875,-0.0163248460739851,0.008382118307054043
1769657700482112300,0.2981123046875,0.010393497534096241,-0.011649737134575844,-0.0007599794771522284
1769657700492100000,0.30810009765625,0.0084017189219594,-0.005493307951837778,-0.014736782759428024
1769657700502088200,0.318088134765625,0.0034601851366460323,-0.005980480462312698,-0.02184077352285385
1769657700512076000,0.328075927734375,-0.0004749016370624304,-0.0006176729220896959,-0.025366000831127167
1769657700522064100,0.338064208984375,0.0011046576546505094,0.007000379264354706,-0.02603098191320896
1769657700532052000,0.348052001953125,0.00316461268812418,0.003278611693531275,-0.01645398885011673
1769657700542040000,0.3580400390625,0.0024422870483249426,-0.009049225598573685,-0.007675232365727425
1769657700552028200,0.368028076171875,0.0018534623086452484,-0.024520859122276306,-0.0029473223257809877
1769657700562016000,0.37801611328125,0.006739145144820213,-0.030329078435897827,0.007526976987719536
1769657700572004000,0.388004150390625,0.01635209284722805,-0.017902769148349762,0.014063439331948757
1769657700581992200,0.3979921875,0.016562331467866898,0.0017901359824463725,0.007639182265847921
1769657700591980300,0.407980224609375,0.014136191457509995,0.004772610031068325,-0.0078428378328681
1769657700601968000,0.417968017578125,0.008191253058612347,0.01649528183043003,-0.015542476437985897
1769657700611956200,0.427956298828125,0.0027349686715751886,0.03221858665347099,-0.020491961389780045
1769657700621944000,0.437944091796875,0.001660384121350944,0.03045300766825676,-0.023588772863149643
1769657700631932000,0.447931884765625,-0.0017726969672366977,0.015158738009631634,-0.014227231033146381
1769657700641920000,0.457919921875,-0.004625626839697361,-0.005174530204385519,-0.0028547351248562336
1769657700651908000,0.467908203125,-0.007494383957237005,-0.022726625204086304,0.002651350339874625
1769657700661896200,0.477896240234375,-0.010167665779590607,-0.029641088098287582,0.005539638921618462
1769657700671884000,0.487884033203125,-0.0033507724292576313,-0.02632678486406803,0.005494099110364914
1769657700681872100,0.4978720703125,0.0013299226993694901,-0.014185945503413677,0.005834796465933323
1769657700691860200,0.507860107421875,0.007824040949344635,-0.0060545168817043304,0.007055856287479401
1769657700701848000,0.51784814453125,0.015345683321356773,-0.0010578157380223274,0.0030681348871439695
1769657700711836200,0.527836181640625,0.014390140771865845,0.002043168991804123,-0.0008270044345408678
1769657700721824300,0.53782421875,0.00786513090133667,0.0031984481029212475,0.0032558878883719444
1769657700731812000,0.54781201171875,0.002020291518419981,-0.004091955255717039,0.006352877710014582
1769657700741800200,0.55780029296875,0.00607936829328537,-0.018663838505744934,-0.0006763618439435959
1769657700751788000,0.5677880859375,0.008991002105176449,-0.02826373465359211,-0.0033823999110609293
1769657700761776000,0.577776123046875,0.009863758459687233,-0.02580227702856064,0.004980635363608599
1769657700771764000,0.587763916015625,0.009367079474031925,-0.01966315694153309,0.01814703643321991
1769657700781752000,0.597751953125,0.009156572632491589,-0.02182926796376705,0.026444830000400543
1769657700791740200,0.607740234375,0.009757648222148418,-0.019035344943404198,0.030021987855434418
1769657700801729300,0.617729248046875,0.0066142454743385315,-0.01999065652489662,0.028519336134195328
1769657700811717000,0.627717041015625,0.005984941031783819,-0.019777869805693626,0.020856358110904694
1769657700821705200,0.637705322265625,0.00772325973957777,-0.021110747009515762,0.010929254814982414
1769657700831693000,0.647693115234375,0.01096752192825079,-0.00794594269245863,0.009570510126650333
1769657700841681000,0.657680908203125,0.009224141016602516,0.011045170947909355,0.013718909583985806
1769657700851669000,0.6676689453125,0.008787116035819054,0.0203435979783535,0.017651598900556564
1769657700861657000,0.677656982421875,0.005863726604729891,0.017394164577126503,0.017635006457567215
1769657700871645200,0.687645263671875,0.0011147776385769248,0.01346520334482193,0.020510153844952583
1769657700881633000,0.697633056640625,0.0009515635902062058,0.008958584628999233,0.01404434721916914
1769657700891621000,0.70762109375,-0.0008841533563099802,0.004416297189891338,0.006864465773105621
1769657700901609200,0.717609130859375,-0.00511751277372241,-0.0004647299647331238,0.004448983818292618
1769657700911597000,0.72759716796875,-0.007030195090919733,-0.007674972526729107,0.0059400880709290504
1769657700921585200,0.737585205078125,-0.009686699137091637,-0.009153656661510468,0.009708551689982414
1769657700931573200,0.7475732421875,-0.006906891241669655,-0.01404561661183834,0.013247625902295113
1769657700941561300,0.757561279296875,-0.007551376707851887,-0.01248234137892723,0.013614343479275703
1769657700951549000,0.767548828125,-0.005519917234778404,-0.008845794945955276,0.012051600031554699
1769657700961537000,0.777537109375,-0.005295907147228718,-0.00024521746672689915,0.008599522523581982
1769657700971525000,0.787525146484375,-0.006612840574234724,0.009042556397616863,0.0009226943366229534
1769657700981513000,0.797512939453125,-0.008937053382396698,0.010745356790721416,-0.003920369781553745
1769657700991501000,0.8075009765625,-0.008579124696552753,0.003236041171476245,-0.005363802891224623
1769657701001489200,0.8174892578125,-0.008443268947303295,-0.008668696507811546,-0.0019347886554896832
1769657701011477000,0.82747705078125,-0.006599828600883484,-0.01271936297416687,0.006724745500832796
1769657701021465000,0.837465087890625,-0.006496803369373083,-0.00807311199605465,0.013210678473114967
1769657701031453400,0.847453369140625,-0.00607016496360302,-0.005294103175401688,0.018564432859420776
1769657701041441300,0.857441162109375,-0.0067339385859668255,-0.01057644747197628,0.015898892655968666
1769657701051429400,0.867429443359375,-0.004628176800906658,-0.013472102582454681,0.007827382534742355
1769657701061417200,0.877417236328125,-0.005164271220564842,-0.00885684508830309,0.003931444603949785
1769657701071405300,0.8874052734375,-0.004477708600461483,0.00007939222268760204,0.003264589235186577
1769657701081393200,0.89739306640625,-0.005674038548022509,0.004455954767763615,0.004708541557192802
1769657701091381200,0.90738134765625,-0.00840218085795641,-0.0011241661850363016,0.0063003129325807095
1769657701101369300,0.917369384765625,-0.006971796974539757,-0.01652584969997406,0.005948611069470644
1769657701111357200,0.927357177734375,-0.00736967334523797,-0.0339282751083374,0.00963708944618702
1769657701121345300,0.93734521484375,-0.007116064429283142,-0.04170064628124237,0.012188486754894257
1769657701131333400,0.94733349609375,-0.005729089491069317,-0.04004868492484093,0.01199753861874342
1769657701141321500,0.957321533203125,-0.003104887204244733,-0.0270535908639431,0.013331692665815353
1769657701151309300,0.967309326171875,-0.0049307504668831825,-0.0222319383174181,0.01448058057576418
1769657701161297400,0.97729736328125,-0.0018331899773329496,-0.020446212962269783,0.007190439384430647
1769657701171285500,0.987285400390625,-0.000483766314573586,-0.014401370659470558,0.004023408517241478
1769657701181273300,0.9972734375,-0.0021663508377969265,-0.0055334861390292645,-0.0007368104998022318
1769657701191261200,1.00726123046875,-0.002640926279127598,0.0015955299604684114,-0.00559654738754034
1769657701201249300,1.017249267578125,-0.0029270262457430363,0.0031410737428814173,-0.009405406191945076
1769657701211237400,1.0272373046875,-0.0032170445192605257,-0.008267110213637352,-0.013312263414263725
1769657701221226200,1.037226318359375,-0.008599749766290188,-0.027476247400045395,-0.012886252254247665
1769657701231214300,1.04721435546875,-0.008808008395135403,-0.04509438946843147,-0.011446280404925346
1769657701241202400,1.057202392578125,-0.004800902679562569,-0.05498487502336502,-0.0008341127540916204
1769657701251190500,1.0671904296875,-0.0006192069267854095,-0.04992513731122017,0.004884226713329554
1769657701261178400,1.077178466796875,-0.0009188883122988045,-0.03851976618170738,0.010432930663228035
1769657701271166200,1.087166259765625,0.0023325651418417692,-0.03158516064286232,0.012372777797281742
1769657701281154300,1.097154296875,0.0024354392662644386,-0.021166808903217316,0.0018611035775393248
1769657701291142100,1.10714208984375,0.006478650029748678,-0.009055020287632942,-0.006766207050532103
1769657701301130200,1.117130126953125,0.002758670598268509,-0.0010135830380022526,-0.008027669042348862
1769657701311118300,1.127118408203125,0.003505687229335308,-0.005219513550400734,-0.00789930485188961
1769657701321106400,1.1371064453125,0.0006559540051966906,-0.011846814304590225,-0.0025641843676567078
1769657701331094300,1.14709423828125,-0.0008300897898152471,-0.013027393259108067,0.0034668100997805595
1769657701341082400,1.157082275390625,-0.00238743145018816,-0.021624913439154625,0.006337064318358898
1769657701351070500,1.167070556640625,-0.003458288498222828,-0.025733105838298798,0.0013697365066036582
1769657701361058300,1.177058349609375,-0.005139235872775316,-0.026386374607682228,-0.005204710643738508
1769657701371046400,1.18704638671875,-0.003398860339075327,-0.030146757140755653,-0.010104660876095295
1769657701381034500,1.197034423828125,0.0003294504713267088,-0.027073968201875687,-0.010019171983003616
1769657701391022000,1.20702197265625,0.0021396009251475334,-0.022570297122001648,-0.0042899129912257195
1769657701401010200,1.21701025390625,0.0038160604890435934,-0.016890939325094223,0.00019281054846942425
1769657701410998300,1.226998291015625,0.0048637473955750465,-0.0061501446180045605,-0.0015486306510865688
1769657701420986400,1.236986328125,0.005906261503696442,0.003358804155141115,-0.0023583206348121166
1769657701430974200,1.24697412109375,0.002925651613622904,0.008014542050659657,-0.012465549632906914
1769657701440962300,1.25696240234375,-0.0011865744600072503,0.007806462701410055,-0.021869175136089325
1769657701450950400,1.266950439453125,-0.0027130984235554934,0.008481839671730995,-0.02877182327210903
1769657701460938200,1.276938232421875,-0.002467630198225379,0.0068847788497805595,-0.032537467777729034
1769657701470926300,1.28692626953125,0.000029616057872772217,0.010460338555276394,-0.02697465568780899
1769657701480914400,1.29691455078125,0.0008726964006200433,0.01292245090007782,-0.016303785145282745
1769657701490902500,1.306902587890625,0.003092973493039608,0.023111971095204353,-0.007165947463363409
1769657701500890400,1.316890380859375,0.0013833758421242237,0.023156391456723213,-0.00632909731939435
1769657701510878200,1.326878173828125,-0.0005586011102423072,0.018064426258206367,-0.010902011767029762
1769657701520866300,1.3368662109375,-0.003012855537235737,0.026415357366204262,-0.01783457025885582
1769657701530854100,1.346854248046875,-0.006682691629976034,0.03867148980498314,-0.025088222697377205
1769657701540842200,1.35684228515625,-0.011573662981390953,0.0468800850212574,-0.031328096985816956
1769657701550830300,1.366830322265625,-0.013297527097165585,0.05783366784453392,-0.03316647559404373
1769657701560818400,1.376818359375,-0.014339013025164604,0.07567770779132843,-0.038688186556100845
1769657701570806300,1.38680615234375,-0.010083814151585102,0.10993315279483795,-0.037005867809057236
1769657701580794400,1.39679443359375,-0.01085936464369297,0.15035498142242432,-0.03465474396944046
1769657701590782500,1.406782470703125,-0.0044528646394610405,0.19495227932929993,-0.04096057638525963
1769657701600770300,1.416770263671875,0.0005867865402251482,0.23356539011001587,-0.04280446469783783
1769657701610758400,1.42675830078125,0.007113128900527954,0.27875229716300964,-0.04461967572569847
1769657701620746500,1.43674658203125,0.003555754665285349,0.3266364336013794,-0.05544391646981239
1769657701630734000,1.446734130859375,0.0020473403856158257,0.34108275175094604,-0.06756024062633514
1769657701640722200,1.45672216796875,0.0034915348514914513,0.341296911239624,-0.09046296775341034
1769657701650710300,1.466710205078125,0.00655203964561224,0.3515167832374573,-0.113643117249012
1769657701660698400,1.476698486328125,0.01081298291683197,0.34141695499420166,-0.11651472747325897
1769657701670686200,1.486686279296875,0.006362840533256531,0.3442404270172119,-0.11568941175937653
1769657701680675300,1.49667529296875,0.009188988246023655,0.3208160102367401,-0.1306333839893341
1769657701690663400,1.506663330078125,0.03457770124077797,0.3208191990852356,-0.1439124345779419
1769657701700651500,1.516651611328125,0.04363161325454712,0.3220490515232086,-0.13356003165245056
1769657701710639400,1.526639404296875,0.03958680480718613,0.2797391414642334,-0.12947793304920197
1769657701720627200,1.536627197265625,0.06269481778144836,0.2530146539211273,-0.1475812941789627
1769657701730615300,1.546615234375,0.07583831995725632,0.24329571425914764,-0.19091731309890747
1769657701740603100,1.55660302734375,0.0594547875225544,0.21211537718772888,-0.22591525316238403
1769657701750591200,1.56659130859375,0.051378749310970306,0.196340411901474,-0.24564288556575775
1769657701760579300,1.576579345703125,0.04507572948932648,0.17328330874443054,-0.2593861222267151
1769657701770567400,1.5865673828125,0.055288419127464294,0.08304955065250397,-0.3110450506210327
1769657701780555300,1.59655517578125,0.09533079713582993,-0.028436724096536636,-0.36812856793403625
1769657701790543400,1.60654345703125,0.12403913587331772,-0.11078672111034393,-0.37718653678894043
1769657701800531500,1.616531494140625,0.15957920253276825,-0.1357605755329132,-0.30909836292266846
1769657701810519300,1.626519287109375,0.18081524968147278,0.015004962682723999,-0.1746489554643631
1769657701820507400,1.63650732421875,0.1593269407749176,0.13622267544269562,-0.055694155395030975
1769657701830495200,1.6464951171875,0.13221275806427002,0.15231002867221832,-0.01763518899679184
1769657701840483300,1.6564833984375,0.11931207031011581,0.1325329691171646,-0.04549584910273552
1769657701850471200,1.66647119140625,0.10871987789869308,0.10932725667953491,-0.08677803725004196
1769657701860459300,1.676459228515625,0.09808382391929626,0.07921718060970306,-0.1076284721493721
1769657701870447400,1.686447265625,0.08957076072692871,0.03038305789232254,-0.10683831572532654
1769657701880435200,1.696435302734375,0.09478089213371277,-0.02318533882498741,-0.10018191486597061
1769657701890423300,1.70642333984375,0.09713832288980484,-0.039512649178504944,-0.08692363649606705
1769657701900411400,1.716411376953125,0.09498055279254913,-0.009173965081572533,-0.06279334425926208
1769657701910399500,1.7263994140625,0.09682478755712509,0.03298281133174896,-0.03810957446694374
1769657701920387300,1.73638720703125,0.09044443070888519,0.06560277938842773,-0.021725185215473175
1769657701930375400,1.74637548828125,0.0892992690205574,0.08880690485239029,-0.016649730503559113
1769657701940363500,1.756363525390625,0.0832773745059967,0.09733832627534866,-0.027958502992987633
1769657701950351400,1.766351318359375,0.08275406062602997,0.09817296266555786,-0.05332724004983902
1769657701960339200,1.776339111328125,0.08070217072963715,0.09120353311300278,-0.09103991091251373
1769657701970327300,1.786327392578125,0.0736842080950737,0.09374312311410904,-0.12918329238891602
1769657701980315100,1.796315185546875,0.06306903064250946,0.11000653356313705,-0.14887328445911407
1769657701990303200,1.80630322265625,0.05237004905939102,0.13832606375217438,-0.16393984854221344
1769657702000291300,1.816291259765625,0.04116704687476158,0.16203047335147858,-0.18923525512218475
1769657702010279400,1.826279541015625,0.032464634627103806,0.16308748722076416,-0.21907490491867065
1769657702020267300,1.836267333984375,0.03186146542429924,0.14920812845230103,-0.24011938273906708
1769657702030255600,1.846255615234375,0.026041127741336823,0.1392255276441574,-0.2481195330619812
1769657702040243500,1.856243408203125,0.018613535910844803,0.13021263480186462,-0.250046968460083
1769657702050231600,1.8662314453125,0.025418709963560104,0.12346150726079941,-0.25365740060806274
1769657702060219600,1.8762197265625,0.020031210035085678,0.11682797968387604,-0.26371854543685913
1769657702070207200,1.886207275390625,-0.0003883108729496598,0.11981924623250961,-0.28780069947242737
1769657702080195300,1.8961953125,-0.008088422939181328,0.10889153182506561,-0.30676454305648804
1769657702090183400,1.906183349609375,-0.022382406517863274,0.09945329278707504,-0.3173631429672241
1769657702100171300,1.916171142578125,-0.033965062350034714,0.1083594560623169,-0.31972944736480713
1769657702110159400,1.926159423828125,-0.04247839003801346,0.10999783128499985,-0.3291378617286682
1769657702120147500,1.9361474609375,-0.06103955954313278,0.09876053035259247,-0.33021557331085205
1769657702130135600,1.946135498046875,-0.07527229189872742,0.09336017817258835,-0.3222450017929077
1769657702140123400,1.956123291015625,-0.08329422771930695,0.09410372376441956,-0.29800134897232056
1769657702150111500,1.966111572265625,-0.08560451865196228,0.08910311013460159,-0.25893038511276245
1769657702160100400,1.976100341796875,-0.08109042048454285,0.0878165066242218,-0.21782705187797546
1769657702170088400,1.98608837890625,-0.07407485693693161,0.09004903584718704,-0.18423765897750854
1769657702180076300,1.996076171875,-0.062017280608415604,0.11195874959230423,-0.16352617740631104
1769657702190064400,2.006064453125,-0.048959534615278244,0.15223611891269684,-0.161472350358963
1769657702200052500,2.016052490234375,-0.04312778264284134,0.1849955916404724,-0.1689869910478592
1769657702210040300,2.026040283203125,-0.04126623272895813,0.21256676316261292,-0.18436701595783234
1769657702220028400,2.0360283203125,-0.041294123977422714,0.22811613976955414,-0.20169921219348907
1769657702230016500,2.0460166015625,-0.041066158562898636,0.2335101068019867,-0.21213586628437042
1769657702240004600,2.056004638671875,-0.05306008458137512,0.23855291306972504,-0.21673576533794403
1769657702249992400,2.065992431640625,-0.06680545210838318,0.23785197734832764,-0.22463923692703247
1769657702259980500,2.07598046875,-0.086982861161232,0.22409683465957642,-0.23436537384986877
1769657702269968400,2.085968505859375,-0.08435831218957901,0.19493070244789124,-0.2389792948961258
1769657702279956200,2.095956298828125,-0.07486440986394882,0.15690767765045166,-0.2309650480747223
1769657702289944300,2.1059443359375,-0.06710236519575119,0.13099858164787292,-0.21921251714229584
1769657702299932400,2.115932373046875,-0.0653173178434372,0.12345200031995773,-0.20514187216758728
1769657702309920500,2.12592041015625,-0.06376416236162186,0.12585017085075378,-0.196249321103096
1769657702319908400,2.135908447265625,-0.06961201131343842,0.1289738267660141,-0.1919514238834381
1769657702329896400,2.145896484375,-0.08519922196865082,0.13325059413909912,-0.1940782219171524
1769657702339884500,2.155884521484375,-0.09944234043359756,0.1396612823009491,-0.1991698294878006
1769657702349872400,2.165872314453125,-0.09645906835794449,0.15043270587921143,-0.19172416627407074
1769657702359860500,2.175860595703125,-0.09952805936336517,0.1517026424407959,-0.18016426265239716
1769657702369848600,2.1858486328125,-0.09591015428304672,0.15021100640296936,-0.17082589864730835
1769657702379836700,2.195836669921875,-0.09241052716970444,0.15422840416431427,-0.14464071393013
1769657702389824500,2.205824462890625,-0.09319376945495605,0.16569358110427856,-0.11663863807916641
1769657702399812400,2.215812255859375,-0.09008380025625229,0.1821025013923645,-0.10310579091310501
1769657702409800400,2.225800537109375,-0.08301231265068054,0.20469515025615692,-0.09240734577178955
1769657702419788300,2.235788330078125,-0.07420318573713303,0.23049330711364746,-0.08326924592256546
1769657702429776400,2.2457763671875,-0.0683964267373085,0.24698519706726074,-0.08998733758926392
1769657702439764500,2.255764404296875,-0.06397310644388199,0.25397107005119324,-0.10440141707658768
1769657702449752300,2.26575244140625,-0.06192274019122124,0.24713262915611267,-0.11909754574298859
1769657702459740400,2.275740478515625,-0.05809824913740158,0.21802520751953125,-0.13770292699337006
1769657702469728500,2.285728515625,-0.04346977174282074,0.18566246330738068,-0.1559746116399765
1769657702479716600,2.295716552734375,-0.03480540215969086,0.1793971061706543,-0.16699787974357605
1769657702489704400,2.305704345703125,-0.03121306747198105,0.2053363025188446,-0.155587300658226
1769657702499692500,2.315692626953125,-0.030263345688581467,0.22236309945583344,-0.14667564630508423
1769657702509680400,2.325680419921875,-0.026424400508403778,0.2027750164270401,-0.1690765619277954
1769657702519668200,2.335668212890625,-0.029762331396341324,0.16490119695663452,-0.20903214812278748
1769657702529656300,2.34565625,-0.033746954053640366,0.128497913479805,-0.241382896900177
1769657702539644400,2.35564453125,-0.039332322776317596,0.09916503727436066,-0.2507338523864746
1769657702549632500,2.365632568359375,-0.047511689364910126,0.0759744942188263,-0.24997645616531372
1769657702559620400,2.375620361328125,-0.050100091844797134,0.047833431512117386,-0.24343086779117584
1769657702569608400,2.3856083984375,-0.04808621108531952,0.0008765769889578223,-0.24051709473133087
1769657702579596500,2.395596435546875,-0.051041632890701294,-0.05794666334986687,-0.23359322547912598
1769657702589584400,2.40558447265625,-0.05770619586110115,-0.1177775114774704,-0.21976450085639954
1769657702599572500,2.415572509765625,-0.07024447619915009,-0.1577545404434204,-0.19913023710250854
1769657702609560600,2.425560546875,-0.0876021608710289,-0.16727480292320251,-0.17585793137550354
1769657702619548700,2.435548583984375,-0.09344931691884995,-0.14859434962272644,-0.15652215480804443
1769657702629536500,2.44553662109375,-0.09955674409866333,-0.126826211810112,-0.1334378719329834
1769657702639525400,2.455525390625,-0.09738409519195557,-0.11382244527339935,-0.11122018098831177
1769657702649513500,2.465513427734375,-0.09973966330289841,-0.10237111896276474,-0.09042754769325256
1769657702659501600,2.47550146484375,-0.0952257588505745,-0.09210795164108276,-0.07350999116897583
1769657702669489400,2.485489501953125,-0.09285528212785721,-0.06873498857021332,-0.06292765587568283
1769657702679477500,2.4954775390625,-0.08817428350448608,-0.04316570609807968,-0.06139856576919556
1769657702689465600,2.505465576171875,-0.0823555439710617,-0.01883692853152752,-0.06333895027637482
1769657702699453400,2.515453369140625,-0.0805627703666687,-0.009931465610861778,-0.06436105817556381
1769657702709441500,2.525441650390625,-0.07930948585271835,0.003312700428068638,-0.06092025339603424
1769657702719429400,2.535429443359375,-0.08134787529706955,0.019283495843410492,-0.05906971916556358
1769657702729417500,2.54541748046875,-0.0835212841629982,0.037771958857774734,-0.05633944645524025
1769657702739405300,2.5554052734375,-0.08674564957618713,0.05289013683795929,-0.05454535782337189
1769657702749393400,2.565393310546875,-0.09923001378774643,0.06924807280302048,-0.05178872123360634
1769657702759381500,2.575381591796875,-0.11616581678390503,0.08394303172826767,-0.0496220625936985
1769657702769369300,2.585369384765625,-0.13483324646949768,0.09744872152805328,-0.04654424637556076
1769657702779357400,2.595357421875,-0.1365569829940796,0.08761166036128998,-0.04470071941614151
1769657702789345500,2.605345458984375,-0.1408979445695877,0.07273417711257935,-0.03217081353068352
1769657702799333400,2.61533349609375,-0.14601445198059082,0.05823017656803131,-0.028729651123285294
1769657702809321500,2.625321533203125,-0.1604333370923996,0.0508313849568367,-0.041681669652462006
1769657702819309600,2.6353095703125,-0.16989204287528992,0.06412453204393387,-0.05989920347929001
1769657702829297700,2.645297607421875,-0.17624448239803314,0.05527298152446747,-0.0742856040596962
1769657702839285200,2.65528515625,-0.18404267728328705,0.06279256939888,-0.08676356822252274
1769657702849273300,2.6652734375,-0.18025219440460205,0.09166630357503891,-0.09296926856040955
1769657702859261400,2.675261474609375,-0.16812404990196228,0.12181627005338669,-0.08500038087368011
1769657702869249300,2.685249267578125,-0.14062397181987762,0.12270523607730865,-0.0718773901462555
1769657702879237400,2.6952373046875,-0.10481313616037369,0.13168582320213318,-0.056267980486154556
1769657702889225500,2.7052255859375,-0.06127551570534706,0.1818605661392212,-0.0428863950073719
1769657702899213600,2.715213623046875,-0.02902805805206299,0.22358687222003937,-0.021821679547429085
1769657702909201400,2.725201416015625,-0.011914318427443504,0.2055351734161377,-0.002562229987233877
1769657702919189500,2.735189453125,-0.003869595006108284,0.1773158311843872,0.0037664156407117844
1769657702929177600,2.745177490234375,0.005284221842885017,0.13612765073776245,-0.0017742908094078302
1769657702939165400,2.75516552734375,0.00886202696710825,0.09609204530715942,-0.013464502058923244
1769657702949153500,2.765153564453125,0.010634094476699829,0.06571203470230103,-0.03692428767681122
1769657702959141400,2.775141357421875,0.0005819167708978057,0.05643795430660248,-0.060928959399461746
1769657702969129500,2.78512939453125,-0.011340523138642311,0.06890580803155899,-0.08522392064332962
1769657702979117300,2.795117431640625,-0.008543974719941616,0.07133062928915024,-0.10984758287668228
1769657702989105400,2.80510546875,0.010344495065510273,0.06994658708572388,-0.1167941763997078
1769657702999093500,2.815093505859375,0.020945891737937927,0.06603647768497467,-0.10503730177879333
1769657703009081300,2.825081298828125,0.025986190885305405,0.05708453059196472,-0.08854620903730392
1769657703019069400,2.8350693359375,0.027441151440143585,0.03723445534706116,-0.08195159584283829
1769657703029058000,2.84505810546875,0.03290276229381561,0.01662425324320793,-0.07856911420822144
1769657703039046100,2.855046142578125,0.039817698299884796,-0.0005895320791751146,-0.0715562105178833
1769657703049034000,2.865033935546875,0.04304065927863121,-0.02160746604204178,-0.06274780631065369
1769657703059021800,2.875021728515625,0.041974443942308426,-0.053917501121759415,-0.058360517024993896
1769657703069010000,2.885010009765625,0.0406804122030735,-0.07950036227703094,-0.06754042953252792
1769657703078997800,2.894997802734375,0.03180082514882088,-0.08716865628957748,-0.0819736123085022
1769657703088985900,2.90498583984375,0.019698087126016617,-0.09014260768890381,-0.09931372106075287
1769657703098975000,2.91497509765625,0.011316320858895779,-0.09623582661151886,-0.11332523077726364
1769657703108963000,2.924963134765625,0.012400493957102299,-0.09334203600883484,-0.11509649455547333
1769657703118951000,2.934950927734375,0.012520908378064632,-0.10015520453453064,-0.10682862997055054
1769657703128939000,2.94493896484375,0.010788521729409695,-0.11405956745147705,-0.1050107553601265
1769657703138927000,2.954927001953125,0.013177337124943733,-0.12683236598968506,-0.11399609595537186
1769657703148915000,2.9649150390625,0.007444883231073618,-0.14100997149944305,-0.12324605137109756
1769657703158902800,2.97490283203125,-0.0023812679573893547,-0.15020492672920227,-0.13225142657756805
1769657703168891000,2.984890869140625,-0.011928434483706951,-0.15469419956207275,-0.13752049207687378
1769657703178879000,2.99487890625,-0.019505392760038376,-0.1573900282382965,-0.1491394191980362
1769657703188866800,3.00486669921875,-0.03451203927397728,-0.15416494011878967,-0.16827236115932465
1769657703198855000,3.01485498046875,-0.057299111038446426,-0.14555653929710388,-0.18987539410591125
1769657703208843000,3.024843017578125,-0.08832387626171112,-0.14162252843379974,-0.21596238017082214
1769657703218831000,3.0348310546875,-0.12479305267333984,-0.1519705206155777,-0.2454025000333786
1769657703228819000,3.04481884765625,-0.165523961186409,-0.17779412865638733,-0.26691895723342896
1769657703238807000,3.05480712890625,-0.20382307469844818,-0.2073991298675537,-0.27921149134635925
1769657703248795100,3.064795166015625,-0.2312171459197998,-0.2133246660232544,-0.2803012430667877
1769657703258783000,3.074782958984375,-0.2487441748380661,-0.21134115755558014,-0.27616262435913086
1769657703268770800,3.084770751953125,-0.25552669167518616,-0.20137400925159454,-0.2802862524986267
1769657703278759000,3.094759033203125,-0.2547476887702942,-0.18994636833667755,-0.2918131351470947
1769657703288746800,3.104746826171875,-0.2426321655511856,-0.17641139030456543,-0.3028140962123871
1769657703298734800,3.11473486328125,-0.22008010745048523,-0.1480552852153778,-0.30817192792892456
1769657703308723000,3.124722900390625,-0.19145992398262024,-0.10754966735839844,-0.3050866723060608
1769657703318711000,3.1347109375,-0.15920493006706238,-0.07810401916503906,-0.2940901219844818
1769657703328699000,3.144698974609375,-0.13135652244091034,-0.04090338572859764,-0.2692428231239319
1769657703338687000,3.15468701171875,-0.05040604993700981,0.08465437591075897,-0.2536400854587555
1769657703348675000,3.164675048828125,-0.0480363704264164,0.06156956031918526,-0.24696487188339233
1769657703358663000,3.174662841796875,-0.03708465397357941,0.0718475878238678,-0.2549150288105011
1769657703368651000,3.184651123046875,-0.030025945976376534,0.10654085129499435,-0.27219679951667786
1769657703378639000,3.19463916015625,-0.0418907068669796,0.1237555667757988,-0.29756447672843933
1769657703388627000,3.204626953125,-0.07859652489423752,0.13576242327690125,-0.3290662169456482
1769657703398614800,3.21461474609375,-0.11703427135944366,0.1451476365327835,-0.36222293972969055
1769657703408603000,3.224602783203125,-0.15329506993293762,0.1692761331796646,-0.39870184659957886
1769657703418591000,3.234591064453125,-0.18002700805664062,0.1760421097278595,-0.4197520911693573
1769657703428578800,3.244578857421875,-0.19621342420578003,0.1798166036605835,-0.4379529356956482
1769657703438567000,3.25456689453125,-0.19759930670261383,0.1881658136844635,-0.45770516991615295
1769657703448555000,3.264554931640625,-0.22926855087280273,0.17222705483436584,-0.46611329913139343
1769657703458543000,3.274543212890625,-0.25126948952674866,0.10395602881908417,-0.45926016569137573
1769657703468531000,3.284531005859375,-0.24823909997940063,0.021780993789434433,-0.4288790822029114
1769657703478519000,3.29451904296875,-0.2387646585702896,-0.11575207859277725,-0.37836143374443054
1769657703488507100,3.304507080078125,-0.20871061086654663,-0.23320786654949188,-0.3268295228481293
1769657703498495000,3.314494873046875,-0.16194327175617218,-0.27590805292129517,-0.29676395654678345
1769657703508482800,3.32448291015625,-0.1643023043870926,-0.2833468019962311,-0.2698460519313812
1769657703518471000,3.334470947265625,-0.16002313792705536,-0.2863577604293823,-0.2447718381881714
1769657703528460000,3.3444599609375,-0.1370837390422821,-0.2525899410247803,-0.22644662857055664
1769657703538448000,3.35444775390625,-0.09011352062225342,-0.17797237634658813,-0.2102479636669159
1769657703548436000,3.36443603515625,-0.028176646679639816,-0.13684889674186707,-0.19599711894989014
1769657703558424000,3.374424072265625,0.026601800695061684,-0.0823085606098175,-0.17987389862537384
1769657703568412000,3.384411865234375,0.07301830500364304,-0.014029372483491898,-0.15571635961532593
1769657703578400000,3.39439990234375,0.11739090085029602,0.03190223127603531,-0.13332894444465637
1769657703588387800,3.404387939453125,0.14860953390598297,0.06889273971319199,-0.12092526257038116
1769657703598376000,3.4143759765625,0.17948219180107117,0.08549382537603378,-0.12892256677150726
1769657703608363800,3.42436376953125,0.1940683275461197,0.07488885521888733,-0.13788144290447235
1769657703618351900,3.434351806640625,0.2033235877752304,0.06818009912967682,-0.16092213988304138
1769657703628340000,3.444340087890625,0.1980811506509781,0.04848974943161011,-0.19340656697750092
1769657703638327800,3.454327880859375,0.18397590517997742,0.019468799233436584,-0.23489108681678772
1769657703648316000,3.46431591796875,0.1636756956577301,-0.01570969447493553,-0.26597949862480164
1769657703658304000,3.474303955078125,0.14935991168022156,-0.0609755665063858,-0.2883317470550537
1769657703668292000,3.4842919921875,0.13641613721847534,-0.10756544023752213,-0.30920132994651794
1769657703678280000,3.494280029296875,0.13084736466407776,-0.15802466869354248,-0.3281312882900238
1769657703688268000,3.50426806640625,0.13224685192108154,-0.22622822225093842,-0.34232380986213684
1769657703698256100,3.514256103515625,0.12752823531627655,-0.2738034427165985,-0.35220712423324585
1769657703708244000,3.524243896484375,0.1145852580666542,-0.306601881980896,-0.3583451807498932
1769657703718231800,3.534231689453125,0.08902519196271896,-0.3485662341117859,-0.35708746314048767
1769657703728220000,3.544219970703125,0.0807102769613266,-0.403475821018219,-0.33751562237739563
1769657703738208000,3.5542080078125,0.07562305778265,-0.47135546803474426,-0.2881178855895996
1769657703748195800,3.56419580078125,0.07039260864257812,-0.5283169746398926,-0.1939871460199356
1769657703758184000,3.574183837890625,0.08091868460178375,-0.5881710052490234,-0.06006387248635292
1769657703768172000,3.584172119140625,0.07273691892623901,-0.6011437773704529,0.047434091567993164
1769657703778159900,3.594159912109375,0.03968267887830734,-0.5122300982475281,0.0631551742553711
1769657703788148000,3.60414794921875,0.013610062189400196,-0.347634494304657,-0.05058310925960541
1769657703798136000,3.614135986328125,-0.014226093888282776,-0.19166254997253418,-0.2380911409854889
1769657703808124000,3.6241240234375,-0.04330994188785553,-0.05158959701657295,-0.4159729778766632
1769657703818112000,3.634112060546875,-0.04877299815416336,0.10654165595769882,-0.560095489025116
1769657703828099800,3.644099853515625,-0.012626448646187782,0.33766886591911316,-0.6760510802268982
1769657703838088000,3.654087890625,0.05846827104687691,0.49159184098243713,-0.7602593302726746
1769657703848075800,3.66407568359375,0.12132473289966583,0.5099117755889893,-0.7855828404426575
1769657703858064000,3.67406396484375,0.2051074504852295,0.37004023790359497,-0.6784318685531616
1769657703868052000,3.684052001953125,0.25650325417518616,0.25365132093429565,-0.4679177403450012
1769657703878039800,3.694039794921875,0.2572494149208069,0.11410798877477646,-0.27668336033821106
1769657703888028000,3.70402783203125,0.25229036808013916,-0.05728107690811157,-0.16421939432621002
1769657703898016000,3.71401611328125,0.2099064439535141,-0.2640434205532074,-0.14328382909297943
1769657703908004000,3.724004150390625,0.1688077449798584,-0.3954898416996002,-0.157419353723526
1769657703917992000,3.733991943359375,0.11937621235847473,-0.443015992641449,-0.18746381998062134
1769657703927980000,3.74397998046875,0.07046246528625488,-0.460796594619751,-0.2404269129037857
1769657703937968000,3.753968017578125,0.026061901822686195,-0.42052119970321655,-0.32274654507637024
1769657703947957000,3.76395703125,0.0002052709460258484,-0.3183783292770386,-0.4580998420715332
1769657703957944800,3.77394482421875,-0.018803535029292107,-0.281378835439682,-0.6139832735061646
1769657703967933000,3.783932861328125,-0.03382882475852966,-0.2950515151023865,-0.7532119750976562
1769657703977921000,3.793921142578125,-0.03715328499674797,-0.3758353590965271,-0.8358165621757507
1769657703987908900,3.803908935546875,-0.05286407098174095,-0.4591433107852936,-0.8552662134170532
1769657703997897000,3.81389697265625,-0.055326543748378754,-0.5285822749137878,-0.8135946393013
1769657704007885000,3.823885009765625,-0.10267914831638336,-0.5498329997062683,-0.7241688966751099
1769657704017873200,3.833873046875,-0.14503790438175201,-0.6250272989273071,-0.5639486312866211
1769657704027860700,3.84386083984375,-0.16063843667507172,-0.6657822132110596,-0.3973042368888855
1769657704037848600,3.8538486328125,-0.16304878890514374,-0.629420816898346,-0.2212144136428833
1769657704047836400,3.86383642578125,-0.16459448635578156,-0.5928556323051453,-0.07069440931081772
1769657704057824500,3.873824462890625,-0.16787177324295044,-0.5838491916656494,0.0163193978369236
1769657704067812600,3.8838125,-0.18785320222377777,-0.5587963461875916,0.05988844484090805
1769657704077800400,3.893800537109375,-0.24945059418678284,-0.5838726758956909,0.05216359719634056
1769657704087788500,3.90378857421875,-0.2884238362312317,-0.6328977346420288,0.020195811986923218
1769657704097776600,3.913776611328125,-0.27113842964172363,-0.5619364976882935,-0.0590272918343544
1769657704107764500,3.923764404296875,-0.2635470926761627,-0.4447116255760193,-0.10963747650384903
1769657704117752600,3.933752685546875,-0.2231563776731491,-0.26611584424972534,-0.18541336059570312
1769657704127740700,3.94374072265625,-0.1839330643415451,-0.186418354511261,-0.20567069947719574
1769657704137728500,3.953728515625,-0.1444597989320755,-0.1562756896018982,-0.19729577004909515
1769657704147716600,3.963716552734375,-0.11881596595048904,-0.11442571878433228,-0.15662476420402527
1769657704157704700,3.97370458984375,-0.10016242414712906,-0.07459884136915207,-0.10132546722888947
1769657704167692500,3.983692626953125,-0.09360652416944504,-0.043692056089639664,-0.052402134984731674
1769657704177680400,3.993680419921875,-0.08505865186452866,-0.014612089842557907,-0.011056565679609776
1769657704187668500,4.00366845703125,-0.08072461932897568,-0.03354956582188606,0.008569067344069481
1769657704197656600,4.013656494140625,-0.08068904280662537,-0.08759374171495438,0.016147002577781677
1769657704207644400,4.02364453125,-0.08318176120519638,-0.11791276186704636,0.012019369751214981
1769657704217632500,4.033632568359375,-0.09971272945404053,-0.1304604709148407,0.00512986583635211
1769657704227620600,4.04362060546875,-0.13413435220718384,-0.16816391050815582,-0.00731242261826992
1769657704237608700,4.053608642578125,-0.16227304935455322,-0.1461392194032669,-0.033726274967193604
1769657704247596500,4.063596435546875,-0.15126940608024597,-0.053965870290994644,-0.031095337122678757
1769657704257584600,4.073584716796875,-0.173980712890625,-0.03701035678386688,-0.048410143703222275
1769657704267572700,4.08357275390625,-0.20305737853050232,-0.07289591431617737,-0.08089831471443176
1769657704277560600,4.093560546875,-0.21039758622646332,-0.1299983561038971,-0.06044258549809456
1769657704287548400,4.10354833984375,-0.2185351401567459,-0.19062308967113495,0.01645326055586338
1769657704297536500,4.11353662109375,-0.22509491443634033,-0.2492101788520813,0.06836777925491333
1769657704307524600,4.123524658203125,-0.24201318621635437,-0.26914846897125244,0.09992783516645432
1769657704317512400,4.133512451171875,-0.24780213832855225,-0.23452655971050262,0.1554357409477234
1769657704327500500,4.14350048828125,-0.21951910853385925,-0.16676722466945648,0.27359434962272644
1769657704337488600,4.153488525390625,-0.17651982605457306,-0.11305166035890579,0.4174824655056
1769657704347476500,4.1634765625,-0.09966205060482025,-0.12891584634780884,0.5209745168685913
1769657704357465600,4.173465576171875,-0.015963807702064514,-0.09843337535858154,0.5642887353897095
1769657704367453700,4.18345361328125,0.06101486459374428,-0.003141737077385187,0.5846531391143799
1769657704377441500,4.193441650390625,0.10505061596632004,0.09993960708379745,0.5958964824676514
1769657704387429400,4.203429443359375,0.1149463877081871,0.18276870250701904,0.5579528212547302
1769657704397417500,4.21341748046875,0.08913464844226837,0.18302343785762787,0.4645756483078003
1769657704407405600,4.223405517578125,0.06468256562948227,0.17918501794338226,0.36162424087524414
1769657704417393700,4.2333935546875,0.011976784095168114,0.1177046000957489,0.2097221463918686
1769657704427381500,4.243381591796875,-0.034642647951841354,0.016496218740940094,0.04912235960364342
1769657704437369600,4.25336962890625,-0.04904094710946083,-0.09906649589538574,-0.09034597128629684
1769657704447357700,4.263357666015625,-0.06596773117780685,-0.26385384798049927,-0.19456133246421814
1769657704457345500,4.273345458984375,-0.12659350037574768,-0.39100509881973267,-0.24706287682056427
1769657704467333600,4.283333740234375,-0.2036944031715393,-0.500678539276123,-0.2943672835826874
1769657704477321700,4.29332177734375,-0.30571967363357544,-0.683159589767456,-0.314701110124588
1769657704487309600,4.3033095703125,-0.42566126585006714,-0.9559671878814697,-0.33263537287712097
1769657704497297400,4.31329736328125,-0.5402676463127136,-1.2479510307312012,-0.3614860475063324
1769657704507285500,4.323285400390625,-0.6170234084129333,-1.4243910312652588,-0.3931047022342682
1769657704517273600,4.333273681640625,-0.5981168150901794,-1.4996824264526367,-0.3733793795108795
1769657704527261400,4.343261474609375,-0.5412284731864929,-1.3899871110916138,-0.3291964828968048
1769657704537249500,4.35324951171875,-0.3731134235858917,-1.0801845788955688,-0.24747808277606964
1769657704547237600,4.363237548828125,-0.1463359296321869,-0.44525691866874695,-0.14558126032352448
1769657704557225500,4.3732255859375,0.03587382286787033,0.3026316165924072,-0.012588233686983585
1769657704567213600,4.383213623046875,0.304741770029068,0.7778313755989075,0.08626191318035126
1769657704577201700,4.39320166015625,0.5192155838012695,1.0272090435028076,0.1769500970840454
1769657704587189800,4.403189697265625,0.6148220300674438,1.2801117897033691,0.25873976945877075
1769657704597177600,4.413177490234375,0.6658700704574585,1.442197561264038,0.28328073024749756
1769657704607165700,4.423165771484375,0.692573070526123,1.4117310047149658,0.2427481859922409
1769657704617153500,4.433153564453125,0.6996846795082092,1.336879849433899,0.1609019637107849
1769657704627141400,4.443141357421875,0.6787578463554382,1.2629880905151367,0.04908328503370285
1769657704637129500,4.45312939453125,0.6268771886825562,1.1800262928009033,-0.0828116163611412
1769657704647117600,4.46311767578125,0.5539920926094055,1.029572606086731,-0.17611120641231537
1769657704657105700,4.473105712890625,0.4891904294490814,0.8140220642089844,-0.21495962142944336
1769657704667093500,4.483093505859375,0.43311065435409546,0.6405765414237976,-0.21389196813106537
1769657704677081600,4.49308154296875,0.35544827580451965,0.5187693238258362,-0.1836710274219513
1769657704687069700,4.503069580078125,0.2662118971347809,0.4164546728134155,-0.12661786377429962
1769657704697057500,4.5130576171875,0.17541760206222534,0.2388140857219696,-0.03368055820465088
1769657704707045600,4.523045654296875,0.08671756088733673,0.15766863524913788,0.042996641248464584
1769657704717033700,4.53303369140625,0.016941791400313377,0.07912983000278473,0.1061263456940651
1769657704727021600,4.543021484375,-0.03041187673807144,-0.03668411448597908,0.1570960432291031
1769657704737009400,4.553009521484375,-0.04766329750418663,-0.13975998759269714,0.17787599563598633
1769657704746998500,4.56299853515625,-0.05783364549279213,-0.23579756915569305,0.18285156786441803
1769657704756986600,4.572986572265625,-0.06679876148700714,-0.34898895025253296,0.16319388151168823
1769657704766974700,4.582974609375,-0.05780339613556862,-0.4109950661659241,0.12066160887479782
1769657704776962600,4.592962646484375,-0.035598497837781906,-0.44419291615486145,0.07974045723676682
1769657704786950700,4.60295068359375,-0.020301299169659615,-0.46136948466300964,0.03324592486023903
1769657704796938800,4.612938720703125,-0.017285756766796112,-0.44725653529167175,0.0018750072922557592
1769657704806926600,4.622926513671875,-0.008091725409030914,-0.4033050537109375,-0.006130188703536987
1769657704816914400,4.63291455078125,0.009782492183148861,-0.3497881591320038,0.005074118729680777
1769657704826902500,4.642902587890625,0.03616456687450409,-0.3061770498752594,0.030290259048342705
1769657704836890400,4.652890380859375,0.0691414624452591,-0.27819162607192993,0.061560291796922684
1769657704846878500,4.66287841796875,0.1141134649515152,-0.23111894726753235,0.0877668634057045
1769657704856866600,4.672866455078125,0.16302287578582764,-0.17702312767505646,0.10415568947792053
1769657704866854700,4.682854736328125,0.21565411984920502,-0.12505578994750977,0.11358913779258728
1769657704876842500,4.692842529296875,0.26966923475265503,-0.10397912561893463,0.11844567954540253
1769657704886830600,4.70283056640625,0.3275461196899414,-0.10209387540817261,0.12354776263237
1769657704896818700,4.712818603515625,0.37334415316581726,-0.09598065167665482,0.12227095663547516
1769657704906806500,4.722806640625,0.39714351296424866,-0.08924151957035065,0.12627501785755157
1769657704916794600,4.732794677734375,0.40493080019950867,-0.06125017628073692,0.1442881077528
1769657704926782700,4.74278271484375,0.4003898501396179,-0.043744951486587524,0.15250343084335327
1769657704936770600,4.7527705078125,0.38470494747161865,-0.027087604627013206,0.15214577317237854
1769657704946758400,4.76275830078125,0.3935927152633667,-0.01590792089700699,0.1717306524515152
1769657704956746500,4.77274658203125,0.42490077018737793,-0.026190364733338356,0.22767746448516846
1769657704966734600,4.782734619140625,0.440885066986084,-0.03524218499660492,0.2960945963859558
1769657704976722400,4.792722412109375,0.4557516872882843,-0.004871861543506384,0.34498852491378784
1769657704986710500,4.80271044921875,0.4888100326061249,0.10130677372217178,0.3691428601741791
1769657704996698600,4.81269873046875,0.5411353707313538,0.25769251585006714,0.32496461272239685
1769657705006686700,4.822686767578125,0.5363739132881165,0.3788769841194153,0.19261081516742706
1769657705016674600,4.832674560546875,0.4462404251098633,0.4834935665130615,0.030389506369829178
1769657705026662100,4.842662109375,0.3214409649372101,0.5431065559387207,-0.09047885239124298
1769657705036650200,4.852650146484375,0.21992583572864532,0.5126286745071411,-0.11769237369298935
1769657705046638300,4.862638427734375,0.14404918253421783,0.35294708609580994,-0.04638490453362465
1769657705056626200,4.872626220703125,0.08919841051101685,0.16179125010967255,-0.002021519234403968
1769657705066614300,4.8826142578125,0.09850669652223587,-0.03229113668203354,-0.024655459448695183
1769657705076602000,4.89260205078125,0.16115398705005646,-0.16846215724945068,-0.14665602147579193
1769657705086590200,4.902590087890625,0.19965291023254395,-0.31124645471572876,-0.3663628101348877
1769657705096578000,4.912578125,0.18426379561424255,-0.4606360197067261,-0.5882169008255005
1769657705106566100,4.922566162109375,0.19734284281730652,-0.5512799024581909,-0.718783438205719
1769657705116554200,4.93255419921875,0.0931725725531578,-0.5797805190086365,-0.7604530453681946
1769657705126542000,4.9425419921875,-0.09459307044744492,-0.5079052448272705,-0.6951537132263184
1769657705136530200,4.9525302734375,-0.2373494952917099,-0.5552659630775452,-0.5211189985275269
1769657705146519300,4.962519287109375,-0.31322669982910156,-0.6866825819015503,-0.23756054043769836
1769657705156507100,4.972507080078125,-0.31941360235214233,-0.738871693611145,0.07600484043359756
1769657705166495000,4.982494873046875,-0.3083942234516144,-0.7335948944091797,0.34819188714027405
1769657705176483000,4.992483154296875,-0.27299413084983826,-0.7098666429519653,0.5113452076911926
1769657705186471200,5.00247119140625,-0.21560193598270416,-0.6513556838035583,0.5388740301132202
1769657705196459300,5.012459228515625,-0.16787417232990265,-0.5530140995979309,0.4542861580848694
1769657705206447000,5.022447021484375,-0.13205517828464508,-0.43349120020866394,0.3090280592441559
1769657705216435200,5.032435302734375,-0.10615384578704834,-0.32787269353866577,0.2035817950963974
1769657705226423300,5.04242333984375,-0.07753098756074905,-0.21256421506404877,0.1399434208869934
1769657705236411100,5.0524111328125,-0.042188260704278946,-0.09890977293252945,0.11410978436470032
1769657705246399200,5.062399169921875,-0.02584470435976982,-0.040578026324510574,0.11913143843412399
1769657705256387300,5.07238720703125,-0.05341656506061554,-0.2857936918735504,0.15499968826770782
1769657705266375400,5.08237548828125,-0.0771637037396431,-0.4851512908935547,0.18935713171958923
1769657705276363000,5.092363037109375,-0.13000363111495972,-0.49421945214271545,0.20932987332344055
1769657705286351000,5.10235107421875,-0.20622915029525757,-0.4613480567932129,0.20720839500427246
1769657705296339200,5.112339111328125,-0.2741120457649231,-0.4455413222312927,0.1837504655122757
1769657705306327000,5.1223271484375,-0.2782122492790222,-0.43700483441352844,0.18477845191955566
1769657705316315100,5.132315185546875,-0.2738480269908905,-0.4411502480506897,0.2093890756368637
1769657705326303200,5.14230322265625,-0.26834672689437866,-0.4765942692756653,0.21622595191001892
1769657705336291000,5.152291015625,-0.25544264912605286,-0.4265550673007965,0.2064148634672165
1769657705346279200,5.162279052734375,-0.22759878635406494,-0.3518187701702118,0.19378428161144257
1769657705356267300,5.172267333984375,-0.19962486624717712,-0.30410006642341614,0.15386323630809784
1769657705366255400,5.18225537109375,-0.1777248978614807,-0.2270929217338562,0.09468299895524979
1769657705376243200,5.1922431640625,-0.15523990988731384,-0.13249850273132324,0.03790583461523056
1769657705386231300,5.202231201171875,-0.13377270102500916,-0.07433665543794632,0.03837348520755768
1769657705396219100,5.21221923828125,-0.10651353001594543,-0.030264224857091904,0.09502921253442764
1769657705406207000,5.22220703125,-0.07676256448030472,0.012077108025550842,0.19469775259494781
1769657705416195000,5.232195068359375,-0.051928505301475525,0.02647688239812851,0.30390581488609314
1769657705426183200,5.24218310546875,-0.03504113480448723,0.02817198447883129,0.404633492231369
1769657705436171300,5.252171142578125,-0.0189554113894701,0.030487362295389175,0.4731200635433197
1769657705446159000,5.2621591796875,-0.002368712332099676,0.03508158028125763,0.5163793563842773
1769657705456147200,5.272147216796875,0.024702927097678185,0.0063209133222699165,0.5453412532806396
1769657705466135300,5.28213525390625,0.05316013842821121,-0.05048511177301407,0.5697981119155884
1769657705476123100,5.292123046875,0.07537081837654114,-0.06427067518234253,0.5795626640319824
1769657705486111200,5.302111328125,0.0740344449877739,0.0004095232579857111,0.5780521631240845
1769657705496099300,5.312099365234375,0.058406032621860504,0.05931518226861954,0.5182062983512878
1769657705506087400,5.32208740234375,0.04989643394947052,0.039023492485284805,0.3210170865058899
1769657705516076000,5.332075927734375,0.029890768229961395,0.048952456563711166,0.027953600510954857
1769657705526064000,5.342064208984375,0.018041031435132027,0.10275762528181076,-0.28640034794807434
1769657705536052200,5.35205224609375,-0.00031526084057986736,0.1560567021369934,-0.530426561832428
1769657705546040300,5.362040283203125,-0.0198263768106699,0.1805093139410019,-0.5729122757911682
1769657705556028200,5.372028076171875,-0.05962271988391876,0.20172658562660217,-0.46311014890670776
1769657705566016300,5.382016357421875,-0.15056194365024567,0.20582331717014313,-0.3736633360385895
1769657705576004400,5.39200439453125,-0.24659040570259094,0.23300229012966156,-0.40273725986480713
1769657705585992200,5.4019921875,-0.3082028925418854,0.21226824820041656,-0.5413579940795898
1769657705595980300,5.411980224609375,-0.2855878472328186,0.05845807492733002,-0.6660760045051575
1769657705605968100,5.421968017578125,-0.31854844093322754,-0.13585548102855682,-0.7749590873718262
1769657705615956200,5.431956298828125,-0.3534981906414032,-0.2040136605501175,-0.8415427207946777
1769657705625944000,5.441944091796875,-0.31936442852020264,-0.12953171133995056,-0.8128839135169983
1769657705635932200,5.45193212890625,-0.20242461562156677,0.15308722853660583,-0.6780015230178833
1769657705645920300,5.461920166015625,0.0504651702940464,0.5420344471931458,-0.3951769769191742
1769657705655908000,5.471908203125,0.3464704751968384,0.9559857249259949,0.019096460193395615
1769657705665896200,5.481896240234375,0.6306273937225342,1.3671178817749023,0.4694846570491791
1769657705675884300,5.49188427734375,0.8207006454467773,1.7414199113845825,0.8637917637825012
1769657705685872000,5.5018720703125,0.914797306060791,1.972210168838501,1.1117616891860962
1769657705695860200,5.511860107421875,0.9014804363250732,1.9357415437698364,1.1577954292297363
1769657705705848300,5.521848388671875,0.8084767460823059,1.784152626991272,1.026993989944458
1769657705715836200,5.531836181640625,0.7279068231582642,1.6692450046539307,0.8013602495193481
1769657705725824000,5.541823974609375,0.6415147185325623,1.4673185348510742,0.5523115396499634
1769657705735812000,5.55181201171875,0.521939218044281,1.164201259613037,0.2931447923183441
1769657705745800200,5.56180029296875,0.4027137756347656,0.9354303479194641,0.02129836194217205
1769657705755788000,5.5717880859375,0.31250420212745667,0.6526697278022766,-0.19091643393039703
1769657705765776100,5.581776123046875,0.18559125065803528,0.4641754627227783,-0.3328818082809448
1769657705775764200,5.59176416015625,0.07690727710723877,0.40345558524131775,-0.3372668921947479
1769657705785752300,5.60175244140625,-0.003536432981491089,0.4168877601623535,-0.2145252674818039
1769657705795740200,5.611740234375,-0.021471410989761353,0.4263148307800293,-0.031057529151439667
1769657705805728300,5.621728271484375,0.007918434217572212,0.3633739650249481,0.13186055421829224
1769657705815716400,5.63171630859375,0.06347045302391052,0.3661669194698334,0.23645460605621338
1769657705825704200,5.6417041015625,0.13930688798427582,0.43733030557632446,0.3075903058052063
1769657705835692300,5.6516923828125,0.20828600227832794,0.4839021563529968,0.31809061765670776
1769657705845680000,5.66168017578125,0.2430564910173416,0.5037828683853149,0.2628026008605957
1769657705855668200,5.671668212890625,0.2619116008281708,0.5102351903915405,0.2040957808494568
1769657705865656000,5.681656005859375,0.2643350660800934,0.49079063534736633,0.1416044384241104
1769657705875644200,5.69164404296875,0.2567928433418274,0.4613737463951111,0.09370172023773193
1769657705885632300,5.70163232421875,0.24928778409957886,0.4219866693019867,0.0998445674777031
1769657705895621400,5.711621337890625,0.2371145635843277,0.37562331557273865,0.1556609570980072
1769657705905609200,5.721609130859375,0.23635795712471008,0.31407687067985535,0.24466434121131897
1769657705915597300,5.731597412109375,0.24041852355003357,0.25351908802986145,0.32976034283638
1769657705925585200,5.741585205078125,0.25754106044769287,0.19080883264541626,0.3773196041584015
1769657705935573000,5.751572998046875,0.283274382352829,0.15515902638435364,0.3839672803878784
1769657705945561000,5.76156103515625,0.31215688586235046,0.13654272258281708,0.3614521026611328
1769657705955549200,5.771549072265625,0.35166868567466736,0.12924395501613617,0.317688912153244
1769657705965537300,5.781537353515625,0.3904813230037689,0.11163035035133362,0.30632254481315613
1769657705975525000,5.791525146484375,0.43758392333984375,0.09359006583690643,0.33290374279022217
1769657705985513200,5.80151318359375,0.48794591426849365,0.09376662969589233,0.38168779015541077
1769657705995501300,5.811501220703125,0.5328888297080994,0.09212542325258255,0.4198765456676483
1769657706005489200,5.8214892578125,0.5629029273986816,0.13355569541454315,0.41336482763290405
1769657706015477200,5.831477294921875,0.5645906925201416,0.26829880475997925,0.335320383310318
1769657706025465300,5.84146533203125,0.5350700616836548,0.334136962890625,0.21871520578861237
1769657706035453700,5.85145361328125,0.5804998278617859,0.32841137051582336,0.13829296827316284
1769657706045441800,5.86144189453125,0.5691710114479065,0.4167790412902832,0.027522524818778038
1769657706055430000,5.871429931640625,0.4448852837085724,0.38899534940719604,-0.053167980164289474
1769657706065417700,5.881417724609375,0.28891539573669434,0.2527959644794464,-0.04267112910747528
1769657706075405800,5.89140576171875,0.15584315359592438,-0.04530012607574463,0.04098648577928543
1769657706085394000,5.901393798828125,0.012730458751320839,-0.42232251167297363,0.12248639762401581
1769657706095381800,5.9113818359375,-0.09354382008314133,-0.6753149032592773,0.07562994956970215
1769657706105369900,5.921369873046875,-0.14910827577114105,-0.761577844619751,-0.06291061639785767
1769657706115358000,5.93135791015625,-0.17584660649299622,-0.7093110084533691,-0.2797001898288727
1769657706125345800,5.941345703125,-0.1596900075674057,-0.5706101655960083,-0.5579373836517334
1769657706135334000,5.951333984375,-0.1412961632013321,-0.4031124711036682,-0.8188897967338562
1769657706145321700,5.96132177734375,-0.12409720569849014,-0.248513326048851,-0.9770832061767578
1769657706155309800,5.971309814453125,-0.08778701722621918,-0.14091286063194275,-0.9659048318862915
1769657706165297700,5.981297607421875,-0.03720879182219505,-0.19904406368732452,-0.8218243718147278
1769657706175285800,5.99128564453125,-0.0164036862552166,-0.15222898125648499,-0.5434556007385254
1769657706185273900,6.00127392578125,0.0064438385888934135,-0.0029548117890954018,-0.16837356984615326
1769657706195261700,6.01126171875,0.016361260786652565,0.06422651559114456,0.1971607357263565
1769657706205249800,6.021249755859375,0.003954658750444651,-0.019327767193317413,0.4171346426010132
1769657706215238000,6.03123779296875,-0.03475746884942055,-0.13880130648612976,0.5086126923561096
1769657706225226000,6.04122607421875,-0.09869889914989471,-0.14119787514209747,0.48375266790390015
1769657706235213800,6.0512138671875,-0.17652490735054016,-0.15729497373104095,0.3867073953151703
1769657706245202700,6.06120263671875,-0.24028551578521729,-0.2052111029624939,0.2306903600692749
1769657706255190800,6.071190673828125,-0.2902526557445526,-0.2210930436849594,0.0031916177831590176
1769657706265179000,6.081178955078125,-0.3104577958583832,-0.14156466722488403,-0.21859776973724365
1769657706275166700,6.091166748046875,-0.3006833791732788,-0.032129544764757156,-0.3701189458370209
1769657706285154800,6.10115478515625,-0.27022427320480347,0.05156295374035835,-0.4773673713207245
1769657706295143000,6.111142822265625,-0.21215428411960602,0.10681705176830292,-0.506708562374115
1769657706305130800,6.121130859375,-0.15771128237247467,0.17003171145915985,-0.4881117343902588
1769657706315118800,6.131118896484375,-0.1029207706451416,0.22535516321659088,-0.481315940618515
1769657706325107000,6.14110693359375,-0.04281855374574661,0.2693295180797577,-0.4922386109828949
1769657706335095000,6.151094970703125,0.03202228248119354,0.326632022857666,-0.5097166895866394
1769657706345083000,6.161082763671875,0.06281295418739319,0.3946126699447632,-0.48913124203681946
1769657706355070700,6.17107080078125,0.07141237705945969,0.4605354964733124,-0.4046873152256012
1769657706365058800,6.181058837890625,0.08229085057973862,0.5126782655715942,-0.2728416621685028
1769657706375046700,6.191046630859375,0.10705943405628204,0.55111163854599,-0.12390117347240448
1769657706385034800,6.20103466796875,0.14066825807094574,0.5756226181983948,0.022210225462913513
1769657706395022800,6.21102294921875,0.1754811406135559,0.6071528792381287,0.16059580445289612
1769657706405010700,6.2210107421875,0.20871153473854065,0.6637112498283386,0.2992705702781677
1769657706414998800,6.230998779296875,0.24359354376792908,0.6812133193016052,0.4004758596420288
1769657706424987000,6.24098681640625,0.276436984539032,0.6503462195396423,0.4523544907569885
1769657706434975000,6.25097509765625,0.30376729369163513,0.6232312917709351,0.5061016082763672
1769657706444962800,6.260962890625,0.32414525747299194,0.6175472736358643,0.5556385517120361
1769657706454951000,6.270950927734375,0.3351835012435913,0.5849931836128235,0.5987386703491211
1769657706464938800,6.280938720703125,0.3341541886329651,0.5028964877128601,0.6287855505943298
1769657706474926600,6.290926513671875,0.30090007185935974,0.412421852350235,0.6227795481681824
1769657706484914700,6.300914794921875,0.22656242549419403,0.3099524676799774,0.5801809430122375
1769657706494902800,6.31090283203125,0.13241644203662872,0.23461832106113434,0.5043862462043762
1769657706504891000,6.320890869140625,0.04408686235547066,0.15693524479866028,0.38283002376556396
1769657706514878700,6.330878662109375,-0.0319797545671463,0.073720283806324,0.259858638048172
1769657706524866800,6.34086669921875,-0.05716659873723984,0.0417943112552166,0.15292181074619293
1769657706534855000,6.35085498046875,-0.046057604253292084,0.06673048436641693,0.05248131603002548
1769657706544842800,6.3608427734375,-0.01197180524468422,0.0740445926785469,-0.030902788043022156
1769657706554830800,6.370830810546875,-0.0472368523478508,0.05646400526165962,-0.09329187124967575
1769657706564819000,6.38081884765625,-0.15555080771446228,0.04091940075159073,-0.12415018677711487
1769657706574807000,6.39080712890625,-0.2687876224517822,0.006216476671397686,-0.14705407619476318
1769657706584795000,6.400794921875,-0.3450504243373871,-0.07837191224098206,-0.18066662549972534
1769657706594782700,6.41078271484375,-0.3537227511405945,-0.17867857217788696,-0.1819332242012024
1769657706604771800,6.420771728515625,-0.2769419550895691,-0.16941821575164795,-0.04834454879164696
1769657706614760000,6.430760009765625,-0.10091560333967209,0.036452680826187134,0.1918412446975708
1769657706624747800,6.440747802734375,0.16982509195804596,0.38305485248565674,0.5089483261108398
1769657706634735900,6.45073583984375,0.46595925092697144,0.7963661551475525,0.8580774068832397
1769657706644724000,6.460723876953125,0.7106201648712158,1.0888795852661133,1.0804808139801025
1769657706654711800,6.4707119140625,0.8537271618843079,1.2166783809661865,1.2005772590637207
1769657706664700000,6.480699951171875,0.859780490398407,1.1811140775680542,1.1713812351226807
1769657706674687700,6.490687744140625,0.7074543833732605,0.9063152074813843,1.0143731832504272
1769657706684675800,6.50067578125,0.40803468227386475,0.71349036693573,0.6744197010993958
1769657706694663700,6.51066357421875,0.09947250783443451,0.6790673732757568,0.23621723055839539
1769657706704651800,6.52065185546875,-0.05012044683098793,0.5976718664169312,-0.2013225555419922
1769657706714640000,6.530639892578125,-0.05049112066626549,0.4180622100830078,-0.5252819657325745
1769657706724627700,6.540627685546875,0.04891802370548248,0.22648398578166962,-0.6760134696960449
1769657706734615800,6.55061572265625,0.13343830406665802,0.09854943305253983,-0.6522200703620911
1769657706744604000,6.56060400390625,0.16402897238731384,-0.010065990500152111,-0.5168177485466003
1769657706754591700,6.570591796875,0.1169571503996849,-0.06528956443071365,-0.3661276698112488
1769657706764579800,6.580579833984375,0.03106461465358734,-0.02940239943563938,-0.20503705739974976
1769657706774568000,6.59056787109375,-0.0892510712146759,0.09953883290290833,-0.07698417454957962
1769657706784556000,6.60055615234375,-0.17912982404232025,0.12388039380311966,-0.00416270038112998
1769657706794543600,6.610543701171875,-0.19641107320785522,-0.015324593521654606,0.06375108659267426
1769657706804531700,6.62053173828125,-0.168466255068779,-0.22787867486476898,0.10806768387556076
1769657706814519800,6.630519775390625,-0.13192400336265564,-0.36037677526474,0.09678565710783005
1769657706824507600,6.640507568359375,-0.11143311113119125,-0.3128231167793274,0.04830387607216835
1769657706834495700,6.650495849609375,-0.10926681756973267,-0.2851051986217499,0.05528225004673004
1769657706844483800,6.66048388671875,-0.12497680634260178,-0.3299432396888733,0.04938521236181259
1769657706854472000,6.670471923828125,-0.13881541788578033,-0.3534630835056305,0.01092339027673006
1769657706864459800,6.680459716796875,-0.13310746848583221,-0.3284115195274353,-0.023928333073854446
1769657706874448000,6.69044775390625,-0.11154043674468994,-0.3168688416481018,-0.05802832916378975
1769657706884436000,6.70043603515625,-0.0768921822309494,-0.2992938458919525,-0.06960082799196243
1769657706894423800,6.710423828125,-0.04222177341580391,-0.27629557251930237,-0.03996296226978302
1769657706904412000,6.720411865234375,-0.00549705047160387,-0.26681074500083923,0.0035514933988451958
1769657706914399700,6.730399658203125,0.03149513155221939,-0.27039894461631775,0.043004900217056274
1769657706924387800,6.740387939453125,0.06164051592350006,-0.30047881603240967,0.07541158050298691
1769657706934375700,6.750375732421875,0.09223023056983948,-0.33848562836647034,0.11269369721412659
1769657706944363800,6.76036376953125,0.12574505805969238,-0.3868531584739685,0.17676429450511932
1769657706954353000,6.770352783203125,0.163007915019989,-0.45901715755462646,0.2404097616672516
1769657706964341000,6.780341064453125,0.22328190505504608,-0.5276257991790771,0.2925477921962738
1769657706974328800,6.790328857421875,0.2874722182750702,-0.5471928119659424,0.3117784857749939
1769657706984317000,6.80031689453125,0.3303206264972687,-0.49718740582466125,0.28065839409828186
1769657706994304800,6.8103046875,0.35473549365997314,-0.39690983295440674,0.19595219194889069
1769657707004292600,6.820292724609375,0.3464983403682709,-0.4251002073287964,0.12346255034208298
1769657707014280700,6.83028076171875,0.31158682703971863,-0.7607289552688599,0.07846273481845856
1769657707024268800,6.840268798828125,0.2799793779850006,-0.8619711399078369,-0.11979735642671585
1769657707034256400,6.85025634765625,0.3054012358188629,-0.5761366486549377,-0.44112831354141235
1769657707044244500,6.860244384765625,0.28379395604133606,-0.36517754197120667,-0.720452070236206
1769657707054232600,6.870232666015625,0.1910742223262787,-0.36372658610343933,-0.902111828327179
1769657707064220400,6.880220458984375,0.04346824809908867,-0.49713417887687683,-0.9604313373565674
1769657707074208500,6.89020849609375,-0.09670605510473251,-0.693120002746582,-0.9025893211364746
1769657707084196600,6.900196533203125,-0.17462855577468872,-1.0250284671783447,-0.6695201396942139
1769657707094184400,6.910184326171875,-0.27802759408950806,-1.3658276796340942,-0.4461086690425873
1769657707104172500,6.920172607421875,-0.347289502620697,-1.573783278465271,-0.36305081844329834
1769657707114160600,6.93016064453125,-0.4208538830280304,-1.5265165567398071,-0.35289815068244934
1769657707124148500,6.9401484375,-0.4600673317909241,-1.3104205131530762,-0.4342385530471802
1769657707134136300,6.95013623046875,-0.44045713543891907,-1.0975230932235718,-0.6143430471420288
1769657707144124400,6.96012451171875,-0.3895862400531769,-0.9961345195770264,-0.8568720817565918
1769657707154112500,6.970112548828125,-0.3524307310581207,-0.96034175157547,-1.0486173629760742
1769657707164100400,6.980100341796875,-0.3307533860206604,-0.9491572380065918,-1.104898452758789
1769657707174088400,6.99008837890625,-0.3281952440738678,-0.9989120960235596,-1.0828664302825928
1769657707184076500,7.00007666015625,-0.3723118305206299,-1.0356911420822144,-1.0091086626052856
1769657707194064400,7.010064453125,-0.37927117943763733,-0.9462023973464966,-0.7934387922286987
1769657707204052500,7.020052490234375,-0.3596697747707367,-0.8503467440605164,-0.4989917278289795
1769657707214040600,7.03004052734375,-0.34218308329582214,-0.8620932698249817,-0.17638665437698364
1769657707224028700,7.040028564453125,-0.3484300673007965,-0.9170268177986145,0.05395945906639099
1769657707234016500,7.0500166015625,-0.36892271041870117,-0.9293727278709412,0.15372306108474731
1769657707244004600,7.060004638671875,-0.4013056755065918,-0.9751103520393372,0.17043305933475494
1769657707253992400,7.069992431640625,-0.4211438298225403,-1.0869332551956177,0.11657090485095978
1769657707263980300,7.079980224609375,-0.43230247497558594,-1.1713520288467407,0.0017050412716343999
1769657707273968400,7.089968505859375,-0.43527474999427795,-1.2020153999328613,-0.11126795411109924
1769657707283956500,7.09995654296875,-0.4485553801059723,-1.1460716724395752,-0.227695494890213
1769657707293944600,7.109944580078125,-0.4473282992839813,-1.0329738855361938,-0.32319191098213196
1769657707303933400,7.119933349609375,-0.44101154804229736,-0.9369746446609497,-0.3813484311103821
1769657707313921500,7.129921630859375,-0.4446432888507843,-0.8993738293647766,-0.41003724932670593
1769657707323909600,7.13990966796875,-0.4510343372821808,-0.8764447569847107,-0.40876051783561707
1769657707333897500,7.1498974609375,-0.45397743582725525,-0.8530083298683167,-0.3840090036392212
1769657707343885300,7.15988525390625,-0.45390766859054565,-0.8459767699241638,-0.3420112431049347
1769657707353873400,7.169873291015625,-0.4539912939071655,-0.8531670570373535,-0.27852413058280945
1769657707363861500,7.179861572265625,-0.4528384208679199,-0.8677529096603394,-0.1992628574371338
1769657707373849300,7.189849365234375,-0.4559662342071533,-0.8650354146957397,-0.10289708524942398
1769657707383837400,7.19983740234375,-0.4503285884857178,-0.8475895524024963,-0.004049606621265411
1769657707393825500,7.209825439453125,-0.44401878118515015,-0.7980836629867554,0.09321604669094086
1769657707403813600,7.219813720703125,-0.444736510515213,-0.7422598004341125,0.1619112193584442
1769657707413801500,7.229801513671875,-0.4481344223022461,-0.7289403080940247,0.18406791985034943
1769657707423789600,7.23978955078125,-0.46631184220314026,-0.7061670422554016,0.16762183606624603
1769657707433777700,7.249777587890625,-0.48803988099098206,-0.6898050308227539,0.10751739889383316
1769657707443765500,7.259765625,-0.5071126222610474,-0.6647590398788452,0.013864144682884216
1769657707453753300,7.26975341796875,-0.5227463841438293,-0.6454359292984009,-0.09435492753982544
1769657707463741400,7.279741455078125,-0.5299587845802307,-0.6134361624717712,-0.17140603065490723
1769657707473729300,7.289729248046875,-0.5245471596717834,-0.5661662220954895,-0.20869533717632294
1769657707483717400,7.29971728515625,-0.49634161591529846,-0.4978087544441223,-0.1897384226322174
1769657707493705500,7.30970556640625,-0.4333922266960144,-0.41868188977241516,-0.09601388871669769
1769657707503693600,7.319693603515625,-0.32004544138908386,-0.3093135952949524,0.06027292087674141
1769657707513681400,7.329681396484375,-0.15706869959831238,-0.14310571551322937,0.2699543833732605
1769657707523669500,7.33966943359375,-0.002764072036370635,0.07010269910097122,0.47089388966560364
1769657707533657600,7.34965771484375,0.11256381124258041,0.30193912982940674,0.6038590669631958
1769657707543645400,7.3596455078125,0.21572162210941315,0.39326077699661255,0.632529616355896
1769657707553633500,7.369633544921875,0.2525988817214966,0.3984382450580597,0.5292911529541016
1769657707563621600,7.37962158203125,0.23891901969909668,0.3629758656024933,0.379216730594635
1769657707573609500,7.389609375,0.20900288224220276,0.3106329143047333,0.2294890284538269
1769657707583597300,7.399597412109375,0.15689973533153534,0.2112077921628952,0.06574589014053345
1769657707593585400,7.40958544921875,0.057704705744981766,0.04001864790916443,-0.16070659458637238
1769657707603573500,7.419573486328125,-0.06026480719447136,-0.10972157120704651,-0.3923158645629883
1769657707613561300,7.429561279296875,-0.1335504651069641,-0.1313769817352295,-0.5680957436561584
1769657707623549400,7.439549560546875,-0.2076377421617508,-0.1345040649175644,-0.6774813532829285
1769657707633537500,7.44953759765625,-0.26075509190559387,-0.17659537494182587,-0.7385794520378113
1769657707643525600,7.459525634765625,-0.34584149718284607,-0.24203483760356903,-0.7792685627937317
1769657707653514500,7.469514404296875,-0.4710165560245514,-0.2234979271888733,-0.8048446178436279
1769657707663502300,7.47950244140625,-0.5597842335700989,-0.062128473073244095,-0.791386067867279
1769657707673490400,7.489490478515625,-0.6187194585800171,0.1862209290266037,-0.7517412304878235
1769657707683478500,7.499478515625,-0.6761177778244019,0.5173842310905457,-0.683260977268219
1769657707693466400,7.50946630859375,-0.6432179808616638,0.7216796875,-0.5609331727027893
1769657707703454500,7.519454345703125,-0.5124053359031677,0.7772396206855774,-0.32641762495040894
1769657707713442600,7.529442626953125,-0.29412683844566345,0.788772463798523,0.015211251564323902
1769657707723430400,7.539430419921875,-0.04117393493652344,0.9087536931037903,0.38827481865882874
1769657707733418500,7.54941845703125,0.204543799161911,1.2856647968292236,0.7481879591941833
1769657707743406600,7.559406494140625,0.4249800145626068,1.757179617881775,0.9661620855331421
1769657707753394700,7.569394775390625,0.5888665914535522,2.094895362854004,1.004327654838562
1769657707763382500,7.579382568359375,0.7072955369949341,2.2448537349700928,0.9540756940841675
1769657707773370600,7.58937060546875,0.7768630385398865,2.284419059753418,0.8436217904090881
1769657707783358500,7.5993583984375,0.7222682237625122,2.2465600967407227,0.7098277807235718
1769657707793346300,7.60934619140625,0.607110321521759,2.114872455596924,0.5809150338172913
1769657707803334400,7.61933447265625,0.48893648386001587,1.932906985282898,0.46384942531585693
1769657707813322500,7.629322509765625,0.4111781418323517,1.60970938205719,0.32473084330558777
1769657707823310300,7.639310302734375,0.3582097291946411,1.3204243183135986,0.187267005443573
1769657707833298400,7.64929833984375,0.26449495553970337,1.1620815992355347,0.06519719213247299
1769657707843286500,7.65928662109375,0.1868848353624344,1.0641183853149414,-0.024507924914360046
1769657707853274600,7.669274658203125,0.16630403697490692,0.9445438981056213,-0.1067851334810257
1769657707863262500,7.679262451171875,0.18081294000148773,0.8256435990333557,-0.16222256422042847
1769657707873250600,7.68925048828125,0.20590171217918396,0.7759816646575928,-0.18390868604183197
1769657707883238700,7.69923876953125,0.2517586648464203,0.7869639992713928,-0.17213192582130432
1769657707893226500,7.7092265625,0.31422778964042664,0.8177350759506226,-0.13579139113426208
1769657707903214300,7.71921435546875,0.40479791164398193,0.8354914784431458,-0.10116923600435257
1769657707913202400,7.729202392578125,0.5024846196174622,0.8746097087860107,-0.05409936606884003
1769657707923190500,7.7391904296875,0.5950843691825867,0.9933603405952454,0.0013114260509610176
1769657707933178400,7.749178466796875,0.6932771801948547,1.1890581846237183,0.05678312107920647
1769657707943166500,7.75916650390625,0.771041214466095,1.3609628677368164,0.07622046023607254
1769657707953154600,7.769154541015625,0.828484058380127,1.3605998754501343,0.1379784494638443
1769657707963142400,7.779142333984375,0.8846037983894348,1.3338737487792969,0.21533262729644775
1769657707973130500,7.789130615234375,0.9162015914916992,1.3199338912963867,0.1633702665567398
1769657707983118600,7.79911865234375,0.9242211580276489,1.3228615522384644,0.09378533065319061
1769657707993106700,7.809106689453125,0.922320544719696,1.2913113832473755,0.07096771150827408
1769657708003094500,7.819094482421875,0.8816897869110107,1.1971646547317505,0.08271677792072296
1769657708013083400,7.82908349609375,0.8312519192695618,0.9643355011940002,0.027966909110546112
1769657708023071500,7.839071533203125,0.7784291505813599,0.805422306060791,0.018957966938614845
1769657708033059000,7.84905908203125,0.716166079044342,0.6884715557098389,0.012413428165018559
1769657708043047000,7.859046875,0.6635584831237793,0.5745282173156738,0.015078453347086906
1769657708053035000,7.869034912109375,0.6168296933174133,0.5110928416252136,0.03488526865839958
1769657708063023000,7.879023193359375,0.5843031406402588,0.4736655652523041,0.05660893768072128
1769657708073011200,7.88901123046875,0.577005922794342,0.474730908870697,0.03452654555439949
1769657708082999000,7.8989990234375,0.5973737835884094,0.48021116852760315,-0.028378915041685104
1769657708092987100,7.908987060546875,0.6230069994926453,0.4724424481391907,-0.10154706239700317
1769657708102975200,7.918975341796875,0.6481823921203613,0.5050472617149353,-0.1318330466747284
1769657708112963000,7.928963134765625,0.6751891374588013,0.5770840644836426,-0.11759801208972931
1769657708122951000,7.938950927734375,0.698221743106842,0.6816107630729675,-0.10161718726158142
1769657708132939000,7.94893896484375,0.6711856722831726,0.8073092103004456,-0.1207110732793808
1769657708142927000,7.958927001953125,0.6407095193862915,0.915763258934021,-0.1548679769039154
1769657708152915000,7.9689150390625,0.6333975195884705,0.9879040718078613,-0.2403583824634552
1769657708162903000,7.978903076171875,0.583814263343811,0.9098819494247437,-0.3794238567352295
1769657708172891100,7.98889111328125,0.45934000611305237,0.7232381105422974,-0.547283411026001
1769657708182879000,7.99887890625,0.2768644690513611,0.4864926338195801,-0.6634030938148499
1769657708192867000,8.0088671875,0.13176245987415314,0.25723838806152344,-0.5837558507919312
1769657708202855200,8.018855224609375,0.04808887094259262,0.0035371396224945784,-0.33986595273017883
1769657708212843300,8.02884326171875,-0.028828205540776253,-0.10542609542608261,-0.17789100110530853
1769657708222831000,8.0388310546875,-0.08621666580438614,-0.09335904568433762,-0.04255501553416252
1769657708232819200,8.048819091796876,-0.13800548017024994,-0.027960369363427162,0.08715549111366272
1769657708242807000,8.05880712890625,-0.17896276712417603,-0.010128908790647984,0.1666572391986847
1769657708252795000,8.068794921875,-0.18747994303703308,-0.004803884774446487,0.18063589930534363
1769657708262783000,8.078782958984375,-0.16885513067245483,0.027173222973942757,0.1423657387495041
1769657708272771000,8.08877099609375,-0.10370347648859024,0.06073568016290665,0.06725546717643738
1769657708282759000,8.098759033203125,-0.03944858908653259,0.022447146475315094,-0.023139677941799164
1769657708292747000,8.1087470703125,-0.0288968775421381,-0.031824249774217606,-0.053818583488464355
1769657708302735000,8.118735107421875,-0.06110168620944023,-0.05231301113963127,0.04057023674249649
1769657708312723200,8.12872314453125,-0.13404060900211334,-0.06301146000623703,0.2064787745475769
1769657708322711000,8.1387109375,-0.19658015668392181,-0.12790924310684204,0.36209526658058167
1769657708332699100,8.14869921875,-0.24193832278251648,-0.2449122965335846,0.4568428099155426
1769657708342688000,8.15868798828125,-0.2771455645561218,-0.3632171154022217,0.44686609506607056
1769657708352676000,8.168676025390624,-0.3147696852684021,-0.4442553222179413,0.3874898850917816
1769657708362664000,8.178663818359375,-0.3650442957878113,-0.45218223333358765,0.3228839933872223
1769657708372652000,8.188652099609374,-0.40871307253837585,-0.43648335337638855,0.28601887822151184
1769657708382640000,8.19864013671875,-0.4382467269897461,-0.4340556263923645,0.2687283158302307
1769657708392628000,8.2086279296875,-0.45609480142593384,-0.446033239364624,0.26890602707862854
1769657708402616000,8.218615966796875,-0.4651889503002167,-0.43234965205192566,0.25538888573646545
1769657708412604200,8.228604248046874,-0.46966102719306946,-0.3982260227203369,0.2224017232656479
1769657708422592300,8.23859228515625,-0.45112383365631104,-0.36832937598228455,0.18982353806495667
1769657708432580000,8.248580078125,-0.4183785319328308,-0.32347264885902405,0.18024656176567078
1769657708442568000,8.25856787109375,-0.3923666179180145,-0.2669800817966461,0.18531163036823273
1769657708452556000,8.26855615234375,-0.3770170211791992,-0.1999712884426117,0.199196457862854
1769657708462544000,8.2785439453125,-0.3851649761199951,-0.13815371692180634,0.2150406688451767
1769657708472532000,8.288531982421874,-0.3911397159099579,-0.09385053813457489,0.2313392162322998
1769657708482520000,8.29852001953125,-0.3919762074947357,-0.08363997936248779,0.248940572142601
1769657708492508200,8.308508056640624,-0.38995206356048584,-0.09307242929935455,0.24989807605743408
1769657708502496000,8.31849609375,-0.37443116307258606,-0.09938092529773712,0.24216797947883606
1769657708512484000,8.328484130859374,-0.36422160267829895,-0.10305661708116531,0.2243187576532364
1769657708522472200,8.33847216796875,-0.35805797576904297,-0.09545675665140152,0.20842261612415314
1769657708532460000,8.3484599609375,-0.3513477146625519,-0.07902511954307556,0.2016485035419464
1769657708542448000,8.3584482421875,-0.3523053824901581,-0.06236305460333824,0.21757368743419647
1769657708552436200,8.368436279296875,-0.35851743817329407,-0.0538497231900692,0.258585125207901
1769657708562424000,8.378424072265625,-0.34380000829696655,-0.0495295450091362,0.3342719078063965
1769657708572412000,8.388411865234374,-0.30149438977241516,-0.04692433774471283,0.4329511523246765
1769657708582400000,8.39839990234375,-0.21494539082050323,-0.02124028094112873,0.5378738641738892
1769657708592388000,8.40838818359375,-0.08662398159503937,0.05395744740962982,0.6398009061813354
1769657708602376000,8.4183759765625,0.03532642871141434,0.16603444516658783,0.7308096289634705
1769657708612364000,8.428364013671874,0.10817777365446091,0.2584770619869232,0.7885175347328186
1769657708622352100,8.43835205078125,0.1365513652563095,0.2854956388473511,0.7985224723815918
1769657708632340000,8.448340087890625,0.1253470629453659,0.2532244324684143,0.7598990201950073
1769657708642328000,8.458328125,0.09011157602071762,0.19721150398254395,0.6525677442550659
1769657708652316200,8.468316162109375,0.06681401282548904,0.15572243928909302,0.4783107340335846
1769657708662304300,8.47830419921875,0.05657069385051727,0.16544058918952942,0.2420063316822052
1769657708672293000,8.488293212890625,0.048764631152153015,0.2249751091003418,0.01160886138677597
1769657708682281000,8.498281005859376,0.052442725747823715,0.25060272216796875,-0.1573261022567749
1769657708692269000,8.50826904296875,0.010613629594445229,0.22439534962177277,-0.2762206196784973
1769657708702257200,8.518257080078126,-0.07448901236057281,0.1987171620130539,-0.3463837206363678
1769657708712245000,8.528244873046875,-0.15567433834075928,0.2020614594221115,-0.3724169433116913
1769657708722233000,8.538233154296876,-0.2600758373737335,0.2170228362083435,-0.36553797125816345
1769657708732221200,8.54822119140625,-0.3544650375843048,0.21149003505706787,-0.33340898156166077
1769657708742209000,8.558208984375,-0.3742331564426422,0.1918628066778183,-0.2903059720993042
1769657708752197000,8.568197021484375,-0.3174361288547516,0.1906815767288208,-0.22877158224582672
1769657708762185200,8.578185302734376,-0.22175703942775726,0.2554467022418976,-0.15569762885570526
1769657708772173000,8.588173095703125,-0.05498512461781502,0.4285876452922821,-0.05501505360007286
1769657708782161000,8.598160888671876,0.17497242987155914,0.744095504283905,0.09883496165275574
1769657708792149000,8.60814892578125,0.448116660118103,1.1293268203735352,0.2682834565639496
1769657708802137000,8.61813720703125,0.6451120376586914,1.5146175622940063,0.468346506357193
1769657708812125000,8.628125,0.7204561233520508,1.6781812906265259,0.6306076049804688
1769657708822113000,8.638113037109376,0.7064087390899658,1.6086735725402832,0.6742043495178223
1769657708832101000,8.64810107421875,0.6203128695487976,1.4320522546768188,0.6127520203590393
1769657708842089200,8.658089111328126,0.49975448846817017,1.2771388292312622,0.4678451120853424
1769657708852077000,8.6680771484375,0.399562805891037,1.1495282649993896,0.30931150913238525
1769657708862065200,8.678065185546876,0.336839497089386,1.0022320747375488,0.18541459739208221
1769657708872053200,8.68805322265625,0.31610676646232605,0.7557480335235596,0.07274113595485687
1769657708882041000,8.698041015625,0.290031760931015,0.5233203768730164,-0.004331812262535095
1769657708892029000,8.70802880859375,0.23731772601604462,0.423822283744812,-0.020626813173294067
1769657708902017000,8.71801708984375,0.18928176164627075,0.43748244643211365,0.01606835052371025
1769657708912005000,8.728005126953125,0.12844693660736084,0.42619895935058594,0.09286326169967651
1769657708921993000,8.737992919921876,0.0758441835641861,0.37763330340385437,0.17897312343120575
1769657708931981000,8.74798095703125,0.024975977838039398,0.4215709865093231,0.21714287996292114
1769657708941969200,8.75796923828125,-0.011504001915454865,0.4654220640659332,0.2254924178123474
1769657708951957000,8.76795703125,-0.024165280163288116,0.4703173339366913,0.19803787767887115
1769657708961945000,8.777945068359376,-0.0020831467118114233,0.47862693667411804,0.1348607838153839
1769657708971933200,8.78793310546875,0.03597833588719368,0.4643416404724121,0.06597848236560822
1769657708981921000,8.797921142578126,0.07092832773923874,0.3603702485561371,0.04909563437104225
1769657708991909000,8.8079091796875,0.07630909234285355,0.19011633098125458,0.05471686273813248
1769657709001898000,8.81789794921875,0.07025492936372757,0.04186641424894333,0.09076700359582901
1769657709011886000,8.827885986328125,0.07846374809741974,0.01045813038945198,0.13543015718460083
1769657709021874000,8.8378740234375,0.09687657654285431,0.03362257406115532,0.18155531585216522
1769657709031862800,8.84786279296875,0.12652447819709778,0.04573090001940727,0.23375140130519867
1769657709041851000,8.857850830078124,0.14881566166877747,0.021989883854985237,0.2748303711414337
1769657709051839000,8.8678388671875,0.15343572199344635,-0.017377495765686035,0.2910016179084778
1769657709061826800,8.877826904296874,0.14256176352500916,-0.06638125330209732,0.27234724164009094
1769657709071814700,8.887814697265625,0.11824356764554977,-0.12037600576877594,0.21832193434238434
1769657709081802800,8.897802734375,0.10943516343832016,-0.17661318182945251,0.13281048834323883
1769657709091790800,8.907790771484375,0.11531546711921692,-0.30367982387542725,0.03488429635763168
1769657709101778700,8.91777880859375,0.13890095055103302,-0.5159342885017395,0.016529526561498642
1769657709111766800,8.927766845703125,0.16005758941173553,-0.7404348254203796,0.06367013603448868
1769657709121755000,8.9377548828125,0.15267451107501984,-0.7985237240791321,0.09638866037130356
1769657709131742700,8.94774267578125,0.1339493691921234,-0.6756987571716309,0.12379597127437592
1769657709141730800,8.957730712890625,0.12919402122497559,-0.5233286619186401,0.09955774247646332
1769657709151719000,8.967718994140625,0.11409737169742584,-0.44983118772506714,0.01454875711351633
1769657709161707000,8.97770703125,0.09483446180820465,-0.39277270436286926,-0.1121511310338974
1769657709171694800,8.98769482421875,0.1339590698480606,-0.30884674191474915,-0.23316189646720886
1769657709181683000,8.997682861328125,0.13678975403308868,-0.24692773818969727,-0.34261247515678406
1769657709191670800,9.0076708984375,0.10713537782430649,-0.2656594514846802,-0.3867783546447754
1769657709201658600,9.01765869140625,0.09418468922376633,-0.3466491103172302,-0.2886906564235687
1769657709211646700,9.027646728515625,0.04718712344765663,-0.5307081341743469,-0.05437297746539116
1769657709221634800,9.037634765625,-0.05355573073029518,-0.6885648965835571,0.11970534920692444
1769657709231623000,9.047622802734375,-0.1284288913011551,-0.7146424055099487,0.14152106642723083
1769657709241610800,9.05761083984375,-0.18386578559875488,-0.6391580104827881,0.010812848806381226
1769657709251598800,9.067598876953125,-0.15188632905483246,-0.5372458696365356,-0.2634407877922058
1769657709261587000,9.0775869140625,-0.11173545569181442,-0.46228060126304626,-0.588676393032074
1769657709271574800,9.08757470703125,-0.16775429248809814,-0.49062076210975647,-0.8386507034301758
1769657709281563000,9.09756298828125,-0.2777694761753082,-0.6276721358299255,-0.9445816874504089
1769657709291551000,9.107551025390626,-0.3557063639163971,-0.8491931557655334,-0.8738645911216736
1769657709301538800,9.117538818359375,-0.37816986441612244,-1.1016775369644165,-0.7240654826164246
1769657709311526700,9.127526611328125,-0.3642255961894989,-1.1369686126708984,-0.5055612921714783
1769657709321514800,9.1375146484375,-0.34199485182762146,-1.003770112991333,-0.21165938675403595
1769657709331502800,9.1475029296875,-0.3238922357559204,-0.9356663227081299,0.04691680520772934
1769657709341491700,9.15749169921875,-0.30305325984954834,-1.0030368566513062,0.20815283060073853
1769657709351479800,9.167479736328126,-0.29937922954559326,-1.01886785030365,0.2335347980260849
1769657709361468000,9.177468017578125,-0.3199790418148041,-0.9846424460411072,0.16991694271564484
1769657709371456000,9.1874560546875,-0.33250755071640015,-0.9501468539237976,0.06585730612277985
1769657709381443800,9.19744384765625,-0.3382245600223541,-0.9185274243354797,-0.02926042303442955
1769657709391432000,9.207431884765626,-0.3347736597061157,-0.839812159538269,-0.07389767467975616
1769657709401419800,9.217419677734375,-0.35171934962272644,-0.8078803420066833,-0.0833931714296341
1769657709411407600,9.22740771484375,-0.3614012598991394,-0.7906554937362671,-0.06264707446098328
1769657709421395700,9.237395751953125,-0.3545023202896118,-0.7382394075393677,-0.03249849006533623
1769657709431383800,9.2473837890625,-0.34732934832572937,-0.650416374206543,-0.020361825823783875
1769657709441372000,9.257371826171875,-0.3455530107021332,-0.5803781747817993,-0.0043735383078455925
1769657709451359700,9.26735986328125,-0.3293611407279968,-0.5313498377799988,0.013773332349956036
1769657709461347800,9.277347900390625,-0.28806272149086,-0.4745709300041199,0.04914623498916626
1769657709471336000,9.2873359375,-0.23905767500400543,-0.38961300253868103,0.09539646655321121
1769657709481323800,9.29732373046875,-0.20913121104240417,-0.29750409722328186,0.13696202635765076
1769657709491311900,9.307311767578126,-0.17665554583072662,-0.2094428986310959,0.18090122938156128
1769657709501300000,9.317300048828125,-0.14373008906841278,-0.16140000522136688,0.2162642776966095
1769657709511287800,9.327287841796876,-0.1288050264120102,-0.16564393043518066,0.2168661653995514
1769657709521275600,9.337275634765625,-0.12923087179660797,-0.16980911791324615,0.1924324631690979
1769657709531263700,9.347263671875,-0.144839808344841,-0.1983916312456131,0.11862357705831528
1769657709541251800,9.357251953125,-0.17765474319458008,-0.25985363125801086,0.0020474297925829887
1769657709551239700,9.36723974609375,-0.20467829704284668,-0.26360130310058594,-0.10773241519927979
1769657709561227800,9.377227783203125,-0.2084203064441681,-0.23192618787288666,-0.15480512380599976
1769657709571216000,9.3872158203125,-0.21591906249523163,-0.2403203248977661,-0.1482176035642624
1769657709581204000,9.397203857421875,-0.2060461938381195,-0.28971797227859497,-0.10850536078214645
1769657709591191800,9.40719189453125,-0.1650657057762146,-0.3224563002586365,-0.04696698486804962
1769657709601180000,9.417179931640625,-0.09741795808076859,-0.27516600489616394,0.048398151993751526
1769657709611168000,9.42716796875,-0.03288576006889343,-0.20745712518692017,0.1471308469772339
1769657709621155800,9.43715576171875,0.009633739478886127,-0.14877116680145264,0.19779188930988312
1769657709631144000,9.44714404296875,0.010440446436405182,-0.10426072776317596,0.20167382061481476
1769657709641131800,9.4571318359375,-0.0006324448622763157,-0.056982167065143585,0.14768727123737335
1769657709651119600,9.46711962890625,0.007296968717128038,0.03302913159132004,0.05457897111773491
1769657709661108700,9.477108642578125,0.030867543071508408,0.10181405395269394,-0.03318869695067406
1769657709671096800,9.487096923828124,0.04401160776615143,0.038044776767492294,-0.07749177515506744
1769657709681085000,9.4970849609375,0.030223092064261436,-0.07208438217639923,-0.12414290755987167
1769657709691072800,9.50707275390625,-0.01859622821211815,-0.1296415627002716,-0.17475184798240662
1769657709701060900,9.517060791015625,-0.09015803039073944,-0.12367580831050873,-0.23653317987918854
1769657709711049000,9.527049072265624,-0.19957636296749115,-0.1435997039079666,-0.3160870671272278
1769657709721036800,9.537036865234375,-0.3068154752254486,-0.16696254909038544,-0.39652198553085327
1769657709731024600,9.547024658203124,-0.3916490375995636,-0.14076682925224304,-0.46926188468933105
1769657709741012700,9.5570126953125,-0.4556288421154022,-0.12195799499750137,-0.5065224170684814
1769657709751000800,9.567000732421874,-0.443389356136322,-0.10043413937091827,-0.5051884651184082
1769657709760988700,9.57698876953125,-0.3625600337982178,-0.02126261778175831,-0.45742732286453247
1769657709770976800,9.586976806640624,-0.22575515508651733,0.17426936328411102,-0.28799378871917725
1769657709780964900,9.59696484375,0.03368173912167549,0.47260332107543945,0.04784492775797844
1769657709790953000,9.606952880859374,0.36274564266204834,0.8644692301750183,0.4530423879623413
1769657709800940800,9.61694091796875,0.630263090133667,1.1975606679916382,0.716957688331604
1769657709810929000,9.626928955078125,0.7474703788757324,1.4180457592010498,0.7722573280334473
1769657709820917000,9.6369169921875,0.7562494874000549,1.5316855907440186,0.6984059810638428
1769657709830904800,9.64690478515625,0.6568514704704285,1.519202470779419,0.5549759268760681
1769657709840892700,9.656892578125,0.5040483474731445,1.5078603029251099,0.41436904668807983
1769657709850880800,9.666880859375,0.37006762623786926,1.4866825342178345,0.3010618984699249
1769657709860868900,9.676868896484375,0.2909426987171173,1.3097621202468872,0.21564343571662903
1769657709870856700,9.686856689453125,0.2927100658416748,0.9955119490623474,0.12548679113388062
1769657709880844800,9.6968447265625,0.28763169050216675,0.7508276104927063,0.03616304695606232
1769657709890833000,9.7068330078125,0.2232511341571808,0.6022202968597412,-0.03478958457708359
1769657709900820700,9.71682080078125,0.13188979029655457,0.5347962379455566,-0.0743580311536789
1769657709910808800,9.726808837890625,0.027953166514635086,0.4790237247943878,-0.07913219928741455
1769657709920797000,9.736796875,-0.024662373587489128,0.4612146317958832,-0.12118431180715561
1769657709930784800,9.74678466796875,-0.035860661417245865,0.5006704926490784,-0.1667214334011078
1769657709940772900,9.75677294921875,-0.012770256958901882,0.4717147648334503,-0.1856975257396698
1769657709950761000,9.766760986328125,0.016107993200421333,0.3519226312637329,-0.18953415751457214
1769657709960748800,9.776748779296875,0.029909027740359306,0.23911726474761963,-0.1779736429452896
1769657709970736600,9.786736572265625,0.03811220824718475,0.19652582705020905,-0.15640443563461304
1769657709980724700,9.796724853515625,0.028638280928134918,0.1715749353170395,-0.13442882895469666
1769657709990713900,9.8067138671875,0.0271487757563591,0.12790729105472565,-0.11736347526311874
1769657710000702000,9.816701904296876,0.019593654200434685,0.05799611657857895,-0.09283256530761719
1769657710010689800,9.826689697265625,0.013673942536115646,0.012153261341154575,-0.08223113417625427
1769657710020678000,9.836677978515626,0.03180740773677826,-0.008569328114390373,-0.054569415748119354
1769657710030666000,9.846666015625,0.059683892875909805,0.0009036059491336346,0.009376445785164833
1769657710040653800,9.85665380859375,0.09678039699792862,0.05156012251973152,0.08309860527515411
1769657710050641700,9.8666416015625,0.13479961454868317,0.11201994121074677,0.1498759388923645
1769657710060629500,9.87662939453125,0.16677752137184143,0.135896235704422,0.19182446599006653
1769657710070617600,9.88661767578125,0.2051171362400055,0.13566970825195312,0.19619452953338623
1769657710080605700,9.896605712890626,0.24267782270908356,0.15377867221832275,0.16804757714271545
1769657710090593500,9.906593505859375,0.2748977839946747,0.16946272552013397,0.12772174179553986
1769657710100581600,9.91658154296875,0.29837673902511597,0.061775412410497665,0.14126604795455933
1769657710110569700,9.92656982421875,0.3696320354938507,-0.21515217423439026,0.1859218180179596
1769657710120557800,9.936557861328126,0.4048989415168762,-0.40039315819740295,0.24084977805614471
1769657710130545700,9.946545654296875,0.41191065311431885,-0.349902868270874,0.27828195691108704
1769657710140533800,9.95653369140625,0.4049888253211975,-0.2269252985715866,0.3070789873600006
1769657710150521900,9.96652197265625,0.37809520959854126,-0.17498570680618286,0.293105810880661
1769657710160509700,9.976509765625,0.3343368172645569,-0.16686999797821045,0.21589092910289764
1769657710170497500,9.98649755859375,0.3053988218307495,-0.16448307037353516,0.11328528076410294
1769657710180485600,9.996485595703126,0.28562459349632263,-0.1444459706544876,0.0004801657050848007
1769657710190473700,10.0064736328125,0.286645770072937,-0.11894223839044571,-0.12391848117113113
1769657710200461600,10.016461669921876,0.2821820378303528,-0.05023295059800148,-0.23341675102710724
1769657710210449700,10.02644970703125,0.2953376770019531,0.06955352425575256,-0.28178197145462036
1769657710220437800,10.036437744140626,0.2203446626663208,0.1449769139289856,-0.2845548391342163
1769657710230425600,10.046425537109375,0.132246196269989,0.10288792848587036,-0.18806923925876617
1769657710240413700,10.05641357421875,0.11384695768356323,-0.04436543956398964,-0.005682122893631458
1769657710250401800,10.06640185546875,0.10008149594068527,-0.18093547224998474,0.18034552037715912
1769657710260390000,10.076389892578124,0.059721026569604874,-0.17525041103363037,0.2623351812362671
1769657710270377700,10.086377685546875,0.042992379516363144,-0.025885462760925293,0.28777027130126953
1769657710280365800,10.09636572265625,0.01371811144053936,0.17077140510082245,0.25133875012397766
1769657710290353700,10.106353759765625,-0.01927468553185463,0.21613924205303192,0.10171063989400864
1769657710300341500,10.116341552734376,-0.05202517658472061,0.12408522516489029,-0.15675154328346252
1769657710310329600,10.12632958984375,-0.05960894376039505,0.010686461813747883,-0.43412160873413086
1769657710320317700,10.136317626953126,-0.11648686975240707,-0.11950909346342087,-0.641070544719696
1769657710330306800,10.146306884765625,-0.21440468728542328,-0.20325948297977448,-0.7104685306549072
1769657710340294700,10.156294677734374,-0.30930295586586,-0.3267323970794678,-0.6402409672737122
1769657710350282800,10.16628271484375,-0.3471226990222931,-0.4215327799320221,-0.49156486988067627
1769657710360270800,10.176270751953124,-0.3191632330417633,-0.31622740626335144,-0.21701346337795258
1769657710370258700,10.1862587890625,-0.2699802815914154,-0.22869005799293518,0.06681353598833084
1769657710380246500,10.19624658203125,-0.22979265451431274,-0.3282475471496582,0.28418847918510437
1769657710390234600,10.206234619140625,-0.20939189195632935,-0.4419122338294983,0.42400994896888733
1769657710400222700,10.21622265625,-0.21077248454093933,-0.49475762248039246,0.4499560594558716
1769657710410210600,10.22621044921875,-0.23069827258586884,-0.4651812016963959,0.40292343497276306
1769657710420198700,10.23619873046875,-0.2494485229253769,-0.40967321395874023,0.35173001885414124
1769657710430186800,10.246186767578125,-0.27054908871650696,-0.30323129892349243,0.2836611866950989
1769657710440174600,10.256174560546874,-0.2890876233577728,-0.18426522612571716,0.20037241280078888
1769657710450162700,10.26616259765625,-0.286531537771225,-0.0627099797129631,0.12957829236984253
1769657710460150800,10.27615087890625,-0.2610807716846466,0.0076661803759634495,0.05418873578310013
1769657710470139000,10.286138916015625,-0.20874707400798798,0.08874744176864624,-0.0047373236157000065
1769657710480126700,10.296126708984374,-0.17513105273246765,0.17892631888389587,-0.06649283319711685
1769657710490114800,10.30611474609375,-0.16351532936096191,0.22974839806556702,-0.12471939623355865
1769657710500102700,10.3161025390625,-0.18070390820503235,0.23245683312416077,-0.16992202401161194
1769657710510090500,10.326090576171875,-0.20855075120925903,0.1874188929796219,-0.20123432576656342
1769657710520078600,10.33607861328125,-0.22484689950942993,0.12838593125343323,-0.20035786926746368
1769657710530066700,10.346066650390625,-0.23022699356079102,0.0870145857334137,-0.17756015062332153
1769657710540054800,10.3560546875,-0.22254323959350586,0.0860968604683876,-0.12529507279396057
1769657710550042600,10.366042724609375,-0.19674716889858246,0.1035553514957428,-0.06541319191455841
1769657710560030700,10.37603076171875,-0.1707501858472824,0.1345236450433731,-0.01103969942778349
1769657710570018800,10.386018798828125,-0.16703565418720245,0.16468511521816254,0.04478716850280762
1769657710580006700,10.396006591796874,-0.16433919966220856,0.19736449420452118,0.1120237335562706
1769657710589994800,10.405994873046875,-0.16222579777240753,0.21632054448127747,0.15575914084911346
1769657710599982800,10.41598291015625,-0.1612052619457245,0.19659556448459625,0.1734345406293869
1769657710609970700,10.425970703125,-0.15744948387145996,0.16148662567138672,0.17512786388397217
1769657710619958500,10.43595849609375,-0.15246936678886414,0.14111344516277313,0.16840045154094696
1769657710629946600,10.445946533203125,-0.14977939426898956,0.14654025435447693,0.16421262919902802
1769657710639935700,10.455935791015625,-0.142106831073761,0.14734692871570587,0.18785271048545837
1769657710649923800,10.465923828125,-0.11824817210435867,0.1574108898639679,0.2378207892179489
1769657710659911700,10.47591162109375,-0.08052396774291992,0.21531572937965393,0.3015187978744507
1769657710669899800,10.485899658203126,-0.027660677209496498,0.3349643349647522,0.35608771443367004
1769657710679888000,10.495887939453125,0.020874900743365288,0.4774876534938812,0.3578549921512604
1769657710689875700,10.505875732421876,0.060395486652851105,0.6071204543113708,0.3162840008735657
1769657710699863600,10.515863525390625,0.09365597367286682,0.7319214940071106,0.2613486051559448
1769657710709851600,10.5258515625,0.11849755793809891,0.7737231254577637,0.15993213653564453
1769657710719839700,10.53583984375,0.14149288833141327,0.7358750700950623,0.042979948222637177
1769657710729827600,10.54582763671875,0.16068945825099945,0.6675184965133667,-0.025243954733014107
1769657710739815700,10.555815673828125,0.13648346066474915,0.5980520844459534,-0.043231211602687836
1769657710749803800,10.5658037109375,0.053876642137765884,0.5082192420959473,-0.031473949551582336
1769657710759791600,10.57579150390625,-0.07234600931406021,0.42128247022628784,-0.03783038258552551
1769657710769779700,10.58577978515625,-0.18620900809764862,0.44118189811706543,-0.09065835922956467
1769657710779767800,10.595767822265625,-0.2693696618080139,0.48827433586120605,-0.16816620528697968
1769657710789755600,10.605755615234376,-0.3148112893104553,0.49270662665367126,-0.2415471374988556
1769657710799743700,10.61574365234375,-0.3320598006248474,0.48684126138687134,-0.2937650680541992
1769657710809731800,10.62573193359375,-0.32881003618240356,0.5068659782409668,-0.3355437219142914
1769657710819719700,10.6357197265625,-0.29285600781440735,0.5640824437141418,-0.3364364206790924
1769657710829707500,10.64570751953125,-0.19584108889102936,0.7062686681747437,-0.25376808643341064
1769657710839695600,10.655695556640625,-0.037138525396585464,0.9458032846450806,-0.10025977343320847
1769657710849683700,10.66568359375,0.1826993077993393,1.2358115911483765,0.12092407047748566
1769657710859671600,10.675671630859375,0.42503711581230164,1.5172667503356934,0.3630293905735016
1769657710869659600,10.68565966796875,0.5701615214347839,1.7329562902450562,0.5331619381904602
1769657710879647700,10.695647705078125,0.6108596920967102,1.8284387588500977,0.6184459328651428
1769657710889635800,10.7056357421875,0.5708695650100708,1.8029030561447144,0.6272732615470886
1769657710899623700,10.715623779296875,0.46134573221206665,1.6474192142486572,0.5464244484901428
1769657710909611800,10.72561181640625,0.31733474135398865,1.4826737642288208,0.38964104652404785
1769657710919599900,10.735599853515625,0.18604381382465363,1.3627657890319824,0.2322556972503662
1769657710929587700,10.745587646484376,0.12673045694828033,1.223247766494751,0.0979514941573143
1769657710939575600,10.755575439453125,0.11220504343509674,1.0664112567901611,-0.01752503775060177
1769657710949563600,10.765563720703126,0.08399444818496704,0.9883679151535034,-0.032906658947467804
1769657710959551700,10.7755517578125,0.05112358182668686,0.9601738452911377,0.021365102380514145
1769657710969540600,10.78554052734375,0.011732881888747215,0.9233295321464539,0.10759478807449341
1769657710979528700,10.79552880859375,-0.028214532881975174,0.8860183358192444,0.22202283143997192
1769657710989516800,10.805516845703124,-0.06477999687194824,0.8592967391014099,0.3426653742790222
1769657710999505000,10.8155048828125,-0.09690357744693756,0.837327778339386,0.40165039896965027
1769657711009492700,10.82549267578125,-0.10187319666147232,0.8645628094673157,0.38863605260849
1769657711019480800,10.835480712890625,-0.04910559207201004,0.9202234148979187,0.3546147048473358
1769657711029468700,10.84546875,0.016751110553741455,0.9359668493270874,0.31729841232299805
1769657711039456800,10.855456787109375,0.08770890533924103,0.9542412161827087,0.25141048431396484
1769657711049444900,10.86544482421875,0.14489074051380157,1.0164140462875366,0.1997593641281128
1769657711059432700,10.8754326171875,0.16799552738666534,1.0648196935653687,0.16004523634910583
1769657711069420800,10.8854208984375,0.1744070053100586,1.0549629926681519,0.15549850463867188
1769657711079409000,10.895408935546875,0.1673738658428192,1.0334120988845825,0.18514907360076904
1769657711089396700,10.905396728515624,0.16147810220718384,1.0167690515518188,0.2235386222600937
1769657711099384800,10.915384765625,0.17516514658927917,0.9976134896278381,0.26781898736953735
1769657711109373000,10.925373046875,0.19063206017017365,0.9865638613700867,0.3010324239730835
1769657711119361000,10.935361083984375,0.2084113210439682,0.9777362942695618,0.31341347098350525
1769657711129348900,10.945348876953124,0.22702494263648987,0.926048994064331,0.31804215908050537
1769657711139336700,10.955336669921875,0.25554341077804565,0.8501180410385132,0.3301219940185547
1769657711149324800,10.96532470703125,0.31237879395484924,0.8056157231330872,0.34798672795295715
1769657711159312600,10.975312744140625,0.39010873436927795,0.7954645156860352,0.37298208475112915
1769657711169300700,10.98530078125,0.4641224443912506,0.7693259716033936,0.4532527029514313
1769657711179288800,10.995288818359375,0.5653725862503052,0.6796187162399292,0.5615951418876648
1769657711189277000,11.00527685546875,0.6381051540374756,0.678248941898346,0.6199411153793335
1769657711199264800,11.0152646484375,0.6994342803955078,0.761329174041748,0.6402043104171753
1769657711209252900,11.0252529296875,0.7413803339004517,0.8150413036346436,0.6453089714050293
1769657711219241000,11.035240966796875,0.7451196908950806,0.7532857656478882,0.6225022077560425
1769657711229228800,11.045228759765624,0.7039451599121094,0.6402018666267395,0.5598394870758057
1769657711239217000,11.055216796875,0.6277350783348083,0.6294704079627991,0.43126180768013
1769657711249205000,11.065205078125,0.5494861602783203,0.717244029045105,0.2471517026424408
1769657711259192800,11.07519287109375,0.4955560863018036,0.7683868408203125,0.027831071987748146
1769657711269180700,11.0851806640625,0.46290478110313416,0.804087221622467,-0.1833818107843399
1769657711279168800,11.095168701171875,0.4421589970588684,0.8601076006889343,-0.3297851085662842
1769657711289158000,11.105157958984375,0.42459142208099365,0.9662541747093201,-0.37875762581825256
1769657711299146000,11.11514599609375,0.4032456576824188,1.0176256895065308,-0.3493430018424988
1769657711309133800,11.1251337890625,0.3707062900066376,1.010667085647583,-0.3048085868358612
1769657711319122000,11.135121826171876,0.3344571888446808,1.0151137113571167,-0.2803615629673004
1769657711329110000,11.145110107421875,0.2877117097377777,1.0699433088302612,-0.31762465834617615
1769657711339097900,11.155097900390626,0.23510093986988068,1.0591423511505127,-0.40435075759887695
1769657711349085700,11.165085693359375,0.17855864763259888,0.9266836643218994,-0.49347203969955444
1769657711359073800,11.17507373046875,0.14427150785923004,0.7904209494590759,-0.5573612451553345
1769657711369061600,11.1850615234375,0.1381707787513733,0.6897254586219788,-0.5548498630523682
1769657711379049700,11.1950498046875,0.14375171065330505,0.6230034232139587,-0.4661140739917755
1769657711389037800,11.205037841796875,0.17443101108074188,0.6474688053131104,-0.28301066160202026
1769657711399026000,11.21502587890625,0.1804249882698059,0.7509914636611938,-0.017420273274183273
1769657711409013800,11.225013671875,0.13862277567386627,0.9312567114830017,0.27830731868743896
1769657711419001900,11.235001953125,0.13748827576637268,1.151860237121582,0.518973708152771
1769657711428990000,11.244989990234375,0.2069929540157318,1.3494045734405518,0.643751323223114
1769657711438977800,11.254977783203126,0.30720797181129456,1.4947582483291626,0.6279447078704834
1769657711448966000,11.2649658203125,0.3819005489349365,1.6067675352096558,0.5093847513198853
1769657711458954000,11.2749541015625,0.42617854475975037,1.7441084384918213,0.39256811141967773
1769657711468941800,11.28494189453125,0.4647561013698578,1.7968703508377075,0.21408912539482117
1769657711478929700,11.2949296875,0.4678208827972412,1.877360463142395,0.04895662143826485
1769657711488917800,11.304917724609375,0.44659557938575745,2.006222724914551,-0.005897135473787785
1769657711498905900,11.31490576171875,0.42889460921287537,2.0474915504455566,0.012331136502325535
1769657711508893700,11.324893798828125,0.41028523445129395,2.038482427597046,0.04650764912366867
1769657711518881800,11.3348818359375,0.37621089816093445,2.0052382946014404,0.07992179691791534
1769657711528870000,11.344869873046875,0.3507940173149109,1.938355803489685,0.14313992857933044
1769657711538858000,11.35485791015625,0.3464887738227844,1.885468602180481,0.2122601419687271
1769657711548845800,11.364845703125,0.3645102083683014,1.886554479598999,0.26859790086746216
1769657711558834000,11.374833984375,0.3983334004878998,1.9200572967529297,0.33318832516670227
1769657711568822000,11.384822021484375,0.41799986362457275,1.9466419219970703,0.415872722864151
1769657711578809900,11.394809814453126,0.4353884160518646,1.9682561159133911,0.4970035254955292
1769657711588797700,11.404797607421875,0.4472038447856903,2.015758991241455,0.5743791460990906
1769657711598785800,11.414785888671876,0.46181365847587585,2.0784130096435547,0.6346515417098999
1769657711608773600,11.424773681640625,0.47077086567878723,2.1468758583068848,0.6750993132591248
1769657711618762800,11.4347626953125,0.47469475865364075,2.2058496475219727,0.6953590512275696
1769657711628750800,11.444750732421875,0.47629019618034363,2.2312188148498535,0.7094383239746094
1769657711638739000,11.454739013671874,0.4696860909461975,2.227099657058716,0.7217461466789246
1769657711648726800,11.464726806640625,0.4496505558490753,2.2225279808044434,0.7183875441551208
1769657711658715000,11.47471484375,0.4152882993221283,2.2243804931640625,0.6929734945297241
1769657711668702700,11.48470263671875,0.3755991458892822,2.207528829574585,0.6473273634910583
1769657711678690800,11.49469091796875,0.3424079120159149,2.177565813064575,0.5804370045661926
1769657711688678700,11.5046787109375,0.31968045234680176,2.1299407482147217,0.5068729519844055
1769657711698666800,11.514666748046874,0.29742199182510376,2.0881426334381104,0.4454668462276459
1769657711708654800,11.52465478515625,0.2665165960788727,2.0749340057373047,0.3988448679447174
1769657711718642700,11.534642578125,0.22855162620544434,2.067908525466919,0.3830600380897522
1769657711728630800,11.544630859375,0.18676994740962982,2.057785987854004,0.38307884335517883
1769657711738619000,11.554618896484374,0.14102962613105774,2.0354537963867188,0.38045457005500793
1769657711748607000,11.56460693359375,0.1044062003493309,1.9877257347106934,0.36000698804855347
1769657711758594800,11.5745947265625,0.08105587214231491,1.8945475816726685,0.3043147027492523
1769657711768583000,11.5845830078125,0.060049206018447876,1.7989189624786377,0.21591025590896606
1769657711778571000,11.594571044921874,0.03635106608271599,1.7135611772537231,0.1165676936507225
1769657711788558800,11.604558837890625,0.0021042576991021633,1.6665855646133423,0.04353522136807442
1769657711798546700,11.614546630859374,0.006066241767257452,1.5977036952972412,0.01195492409169674
1769657711808534800,11.62453466796875,0.03793492168188095,1.5298744440078735,0.04568251967430115
1769657711818523000,11.63452294921875,0.08214526623487473,1.5558770895004272,0.12341699749231339
1769657711828510700,11.6445107421875,0.10936760157346725,1.650363802909851,0.20651498436927795
1769657711838498800,11.654498779296874,0.12180695682764053,1.7636820077896118,0.2492360919713974
1769657711848487000,11.66448681640625,0.15723483264446259,1.8861790895462036,0.2697621285915375
1769657711858474800,11.674474853515624,0.20971108973026276,2.0212037563323975,0.26676714420318604
1769657711868462800,11.684462890625,0.27538689970970154,2.151437997817993,0.23246191442012787
1769657711878451000,11.694450927734374,0.35149258375167847,2.2602269649505615,0.18409118056297302
1769657711888438800,11.704438720703125,0.45228123664855957,2.3546390533447266,0.14721545577049255
1769657711898427000,11.714427001953124,0.5628801584243774,2.454841136932373,0.14124038815498352
1769657711908414700,11.724414794921875,0.6430791020393372,2.469679117202759,0.19564352929592133
1769657711918402800,11.73440283203125,0.7351775765419006,2.4304399490356445,0.3102915585041046
1769657711928390700,11.744390625,0.7950389385223389,2.457580089569092,0.4437367022037506
1769657711938378800,11.754378662109374,0.8155269026756287,2.475080966949463,0.567033588886261
1769657711948368000,11.764367919921876,0.8008177280426025,2.4119863510131836,0.6592718958854675
1769657711958356000,11.77435595703125,0.772844135761261,2.323267936706543,0.7030707597732544
1769657711968343800,11.78434375,0.743769109249115,2.2110280990600586,0.707278847694397
1769657711978332000,11.794331787109375,0.7171691656112671,2.065948963165283,0.6798408627510071
1769657711988320000,11.804320068359376,0.6990514993667603,1.8985999822616577,0.633387565612793
1769657711998307600,11.8143076171875,0.6874358654022217,1.7898194789886475,0.6013393998146057
1769657712008295700,11.824295654296876,0.6864109039306641,1.7274876832962036,0.578350841999054
1769657712018283800,11.83428369140625,0.7041853666305542,1.690985083580017,0.5514925718307495
1769657712028271900,11.84427197265625,0.7309673428535461,1.6820608377456665,0.530287504196167
1769657712038259000,11.854259033203125,0.7562721967697144,1.69120192527771,0.500328779220581
1769657712048246800,11.864246826171875,0.781695544719696,1.686370849609375,0.4799555242061615
1769657712058235000,11.87423486328125,0.8049033880233765,1.6901099681854248,0.4859132766723633
1769657712068223000,11.884222900390625,0.8150560259819031,1.7036784887313843,0.513033926486969
1769657712078210800,11.8942109375,0.8221808075904846,1.7203609943389893,0.539705753326416
1769657712088199000,11.904198974609375,0.8225369453430176,1.7098724842071533,0.5569130778312683
1769657712098187000,11.91418701171875,0.8187438249588013,1.695413589477539,0.5596137642860413
1769657712108175000,11.924175048828126,0.8071928024291992,1.6889333724975586,0.5463864207267761
1769657712118163000,11.934162841796875,0.7925198078155518,1.6695719957351685,0.5215306282043457
1769657712128151000,11.944151123046876,0.7747882008552551,1.6510190963745117,0.48554953932762146
1769657712138139100,11.95413916015625,0.7534953951835632,1.6473026275634766,0.4564334750175476
1769657712148126700,11.964126708984375,0.7359594702720642,1.6504597663879395,0.4337325096130371
1769657712158114800,11.97411474609375,0.7223278284072876,1.6681580543518066,0.4242601990699768
1769657712168103000,11.98410302734375,0.7102927565574646,1.658693552017212,0.41821053624153137
1769657712178091000,11.994091064453125,0.7015272378921509,1.6420866250991821,0.40448594093322754
1769657712188078800,12.004078857421876,0.6931143403053284,1.6268916130065918,0.40472644567489624
1769657712198067000,12.01406689453125,0.6858055591583252,1.6166245937347412,0.40635791420936584
1769657712208055000,12.024054931640626,0.6798881888389587,1.6008796691894531,0.40706416964530945
1769657712218043000,12.03404296875,0.6760433912277222,1.5762872695922852,0.4093496799468994
1769657712228031000,12.044031005859376,0.6698761582374573,1.5564465522766113,0.42122966051101685
1769657712238019000,12.05401904296875,0.6641847491264343,1.5399209260940552,0.447553426027298
1769657712248007200,12.064007080078126,0.6608220338821411,1.5351293087005615,0.4766816794872284
1769657712257995000,12.0739951171875,0.6670615673065186,1.563951015472412,0.48731115460395813
1769657712267984000,12.08398388671875,0.6803614497184753,1.6288096904754639,0.47247767448425293
1769657712277972000,12.093971923828125,0.6930695176124573,1.7051472663879395,0.4170226752758026
1769657712287960000,12.1039599609375,0.7005437016487122,1.8012338876724243,0.3190103769302368
1769657712297948000,12.113947998046875,0.6915754675865173,1.895467758178711,0.22892123460769653
1769657712307936000,12.12393603515625,0.68803870677948,1.9364941120147705,0.21386931836605072
1769657712317924000,12.133924072265625,0.7023428082466125,1.9308218955993652,0.28499382734298706
1769657712327912000,12.143911865234376,0.7090345621109009,1.887533187866211,0.42581358551979065
1769657712337900000,12.153900146484375,0.7111715078353882,1.8311573266983032,0.5814940333366394
1769657712347887900,12.163887939453126,0.6947616338729858,1.7840782403945923,0.7018799781799316
1769657712357876000,12.1738759765625,0.6591777801513672,1.739258050918579,0.7667862772941589
1769657712367863800,12.18386376953125,0.6323949098587036,1.6694566011428833,0.7762748599052429
1769657712377852000,12.193851806640625,0.6160188913345337,1.6048070192337036,0.7497338056564331
1769657712387840000,12.203840087890624,0.5953037738800049,1.5732256174087524,0.7155991792678833
1769657712397827800,12.213827880859375,0.5775285363197327,1.5799870491027832,0.6851528882980347
1769657712407816000,12.22381591796875,0.5660463571548462,1.583321452140808,0.6605431437492371
1769657712417804000,12.233803955078125,0.5550600290298462,1.5698210000991821,0.6059004068374634
1769657712427792000,12.2437919921875,0.5320625305175781,1.5650060176849365,0.504847526550293
1769657712437780000,12.253780029296875,0.5183824300765991,1.5505647659301758,0.35266628861427307
1769657712447768000,12.26376806640625,0.4954076409339905,1.5087100267410278,0.15970860421657562
1769657712457756200,12.273756103515625,0.4638230800628662,1.4398137331008911,-0.04467754811048508
1769657712467744000,12.283743896484374,0.4014347493648529,1.3350627422332764,-0.2209617793560028
1769657712477731800,12.29373193359375,0.3397069275379181,1.2020951509475708,-0.33124884963035583
