time,seconds_elapsed,acc_z,acc_y,acc_x,gyro_z,gyro_y,gyro_x
1.76966E+18,0.068386963,-0.223601835,0.172470198,-0.110422469,0.031209981,0.009105644,0.052897923
1.76966E+18,0.078375244,-0.093360275,0.087483053,-0.148024031,0.029224025,0.038234696,0.044205632
1.76966E+18,0.088363281,0.020405075,0.004319032,-0.133965257,0.02780243,0.057822779,0.025355777
1.76966E+18,0.098351074,0.089002226,-0.139848616,-0.00812047,0.016101373,0.059527971,-0.007903731
1.76966E+18,0.108339111,0.178761407,-0.223952548,0.033496611,0.004742459,0.070424557,-0.035274636
1.76966E+18,0.118327148,0.105240244,-0.152475458,0.1223473,-0.00799331,0.047425769,-0.041746382
1.76966E+18,0.128315186,0.124795131,-0.072671853,0.115436497,-0.010165117,0.01653816,-0.037841123
1.76966E+18,0.138302979,0.203747672,-0.041414545,0.02219152,-0.007935708,-0.011056919,-0.02178324
1.76966E+18,0.148291016,0.19944676,0.007417583,-0.066243573,-0.005929017,-0.033742789,0.006099258
1.76966E+18,0.158279053,0.17902678,0.048602411,-0.053929597,-0.00602196,-0.048709825,0.03276477
1.76966E+18,0.16826709,0.152412621,0.016252047,-0.040909956,-0.005237126,-0.054430027,0.042791307
1.76966E+18,0.178255127,0.194358497,-0.032848377,-0.004258096,-0.007775615,-0.060826436,0.033543043
1.76966E+18,0.188243164,0.155913031,-0.073160513,0.064885145,-0.010465407,-0.055410899,0.022047777
1.76966E+18,0.198230957,0.031433541,-0.103555652,0.120602063,-0.013384232,-0.042051867,0.006314256
1.76966E+18,0.208219238,-0.06962474,-0.09763386,0.109399994,-0.005311392,-0.017858382,-0.010402406
1.76966E+18,0.218207275,-0.10631591,-0.063242346,0.049048109,0.002875584,0.007130906,-0.02101776
1.76966E+18,0.228196045,-0.125396896,-0.041871641,-0.009575638,0.00234961,0.020466417,-0.025065765
1.76966E+18,0.238184082,-0.116916653,-0.055049103,-0.06572408,0.001872719,0.022177618,-0.018803017
1.76966E+18,0.248172119,-0.024325755,0.004827566,-0.071189652,0.003220279,0.013836332,-0.013075621
1.76966E+18,0.258160156,0.072747841,-0.009569792,-0.072826605,0.005656494,0.000642002,-0.00163324
1.76966E+18,0.268148193,0.116651864,-0.024981881,-0.048662032,0.006890337,-0.004563679,0.010080408
1.76966E+18,0.278135986,0.120169809,-0.003726327,0.015861148,0.008246494,-0.010887202,0.014169167
1.76966E+18,0.288124268,0.106370709,-0.019827567,0.042523383,0.008763148,-0.016324846,0.008382118
1.76966E+18,0.298112305,0.084337741,-0.031433249,0.041250587,0.010393498,-0.011649737,-0.000759979
1.76966E+18,0.308100098,0.051118485,-0.031079613,0.0412614,0.008401719,-0.005493308,-0.014736783
1.76966E+18,0.318088135,0.022664252,0.020459435,0.021270313,0.003460185,-0.00598048,-0.021840774
1.76966E+18,0.328075928,-0.028719314,-0.005646481,-0.024777152,-0.000474902,-0.000617673,-0.025366001
1.76966E+18,0.338064209,0.015431378,0.027852468,-0.019907208,0.001104658,0.007000379,-0.026030982
1.76966E+18,0.348052002,0.0360178,0.017760113,-0.024173341,0.003164613,0.003278612,-0.016453989
1.76966E+18,0.358040039,0.053751464,-0.039382162,-0.038028848,0.002442287,-0.009049226,-0.007675232
1.76966E+18,0.368028076,0.107992319,-0.073453359,-0.01881576,0.001853462,-0.024520859,-0.002947322
1.76966E+18,0.378016113,0.136330525,-0.063804071,0.001129004,0.006739145,-0.030329078,0.007526977
1.76966E+18,0.38800415,0.081547818,-0.04768588,-0.00744184,0.016352093,-0.017902769,0.014063439
1.76966E+18,0.397992188,-0.002685294,-0.092504096,-0.015383885,0.016562331,0.001790136,0.007639182
1.76966E+18,0.407980225,0.034895957,0.01533084,-0.098827162,0.014136191,0.00477261,-0.007842838
1.76966E+18,0.417968018,0.005885697,0.071788056,-0.077093323,0.008191253,0.016495282,-0.015542476
1.76966E+18,0.427956299,-0.082285338,-0.008601824,-0.043398704,0.002734969,0.032218587,-0.020491961
1.76966E+18,0.437944092,-0.027485973,-0.056529696,-0.021185704,0.001660384,0.030453008,-0.023588773
1.76966E+18,0.447931885,0.066597063,-0.04202537,0.034860739,-0.001772697,0.015158738,-0.014227231
1.76966E+18,0.457919922,0.074858842,-0.035283495,0.090256025,-0.004625627,-0.00517453,-0.002854735
1.76966E+18,0.467908203,0.094841161,-0.022248072,0.123782885,-0.007494384,-0.022726625,0.00265135
1.76966E+18,0.47789624,0.127265759,-0.00987199,0.106784404,-0.010167666,-0.029641088,0.005539639
1.76966E+18,0.487884033,0.114650462,-0.026240941,0.072074325,-0.003350772,-0.026326785,0.005494099
1.76966E+18,0.49787207,0.041226329,-0.015861001,-0.004249182,0.001329923,-0.014185946,0.005834796
1.76966E+18,0.507860107,-0.056969841,-0.010084172,-0.066572221,0.007824041,-0.006054517,0.007055856
1.76966E+18,0.517848145,-0.07591478,-0.034618893,-0.07590119,0.015345683,-0.001057816,0.003068135
1.76966E+18,0.527836182,-0.049717094,-0.054596683,-0.035686669,0.014390141,0.002043169,-0.000827004
1.76966E+18,0.537824219,-0.044960109,-0.035557636,0.01339315,0.007865131,0.003198448,0.003255888
1.76966E+18,0.547812012,-0.031359453,-0.056032268,0.047534928,0.002020292,-0.004091955,0.006352878
1.76966E+18,0.557800293,0.006276596,-0.022255086,0.067788026,0.006079368,-0.018663839,-0.000676362
1.76966E+18,0.567788086,0.112223088,0.01290975,0.058411272,0.008991002,-0.028263735,-0.0033824
1.76966E+18,0.577776123,0.12099194,0.030859833,-0.026020723,0.009863758,-0.025802277,0.004980635
1.76966E+18,0.587763916,0.021843583,0.027961189,-0.075212039,0.009367079,-0.019663157,0.018147036
1.76966E+18,0.597751953,-0.005709318,0.009888941,-0.071960636,0.009156573,-0.021829268,0.02644483
1.76966E+18,0.607740234,0.013087153,0.0018278,-0.02864771,0.009757648,-0.019035345,0.030021988
1.76966E+18,0.617729248,0.002729425,-0.05229542,0.02367226,0.006614245,-0.019990657,0.028519336
1.76966E+18,0.627717041,0.025937574,-0.083652681,0.037714521,0.005984941,-0.01977787,0.020856358
1.76966E+18,0.637705322,0.038618192,-0.086936525,0.033013212,0.00772326,-0.021110747,0.010929255
1.76966E+18,0.647693115,0.039174365,-0.050450669,0.014678952,0.010967522,-0.007945943,0.00957051
1.76966E+18,0.657680908,-0.021675679,-0.027701077,-0.019029256,0.009224141,0.011045171,0.01371891
1.76966E+18,0.667668945,-0.091734281,-0.010811317,-0.057125763,0.008787116,0.020343598,0.017651599
1.76966E+18,0.677656982,-0.056411331,-0.002878186,-0.044518941,0.005863727,0.017394165,0.017635006
1.76966E+18,0.687645264,-0.034256928,-0.018746786,-0.005469517,0.001114778,0.013465203,0.020510154
1.76966E+18,0.697633057,-0.021788638,-0.055765726,0.043322424,0.000951564,0.008958585,0.014044347
1.76966E+18,0.707621094,0.035671763,-0.056906129,0.04295286,-0.000884153,0.004416297,0.006864466
1.76966E+18,0.717609131,0.064696636,-0.049630585,0.039110798,-0.005117513,-0.00046473,0.004448984
1.76966E+18,0.727597168,0.057711015,-0.046052142,0.016165537,-0.007030195,-0.007674973,0.005940088
1.76966E+18,0.737585205,0.050232934,-0.043930912,0.004662439,-0.009686699,-0.009153657,0.009708552
1.76966E+18,0.747573242,0.026541385,-0.039897711,-0.006145955,-0.006906891,-0.014045617,0.013247626
1.76966E+18,0.757561279,0.023787849,-0.023263971,-0.029564387,-0.007551377,-0.012482341,0.013614343
1.76966E+18,0.767548828,-0.000441752,-0.016790976,-0.044202422,-0.005519917,-0.008845795,0.0120516
1.76966E+18,0.777537109,-0.006314444,-0.027685295,-0.021544454,-0.005295907,-0.000245217,0.008599523
1.76966E+18,0.787525146,-0.005749065,-0.031256139,-0.032521629,-0.006612841,0.009042556,0.000922694
1.76966E+18,0.797512939,0.004265987,-0.050275897,-0.028272447,-0.008937053,0.010745357,-0.00392037
1.76966E+18,0.807500977,0.04215908,-0.053825698,-0.028301235,-0.008579125,0.003236041,-0.005363803
1.76966E+18,0.817489258,0.069436524,-0.048676645,-0.012167554,-0.008443269,-0.008668697,-0.001934789
1.76966E+18,0.827477051,0.06600655,-0.021679332,-0.010322364,-0.006599829,-0.012719363,0.006724746
1.76966E+18,0.837465088,0.02086597,-0.016494623,0.018431144,-0.006496803,-0.008073112,0.013210678
1.76966E+18,0.847453369,-0.015241701,-0.017623919,0.014527415,-0.006070165,-0.005294103,0.018564433
1.76966E+18,0.857441162,-0.055804013,-0.045640054,0.001464958,-0.006733939,-0.010576447,0.015898893
1.76966E+18,0.867429443,-0.051762774,-0.044289224,-0.007938684,-0.004628177,-0.013472103,0.007827383
1.76966E+18,0.877417236,-0.046680795,-0.027349779,0.018337767,-0.005164271,-0.008856845,0.003931445
1.76966E+18,0.887405273,-0.079918463,-0.017664252,0.025704204,-0.004477709,7.93922E-05,0.003264589
1.76966E+18,0.897393066,-0.087794603,-0.006795651,0.031943098,-0.005674039,0.004455955,0.004708542
1.76966E+18,0.907381348,-0.058492959,-0.004281623,0.05569193,-0.008402181,-0.001124166,0.006300313
1.76966E+18,0.917369385,0.013814006,-0.040635377,0.061301441,-0.006971797,-0.01652585,0.005948611
1.76966E+18,0.927357178,0.087040716,-0.059842182,0.072168141,-0.007369673,-0.033928275,0.009637089
1.76966E+18,0.937345215,0.099392248,-0.099001641,0.070738839,-0.007116064,-0.041700646,0.012188487
1.76966E+18,0.947333496,0.075509414,-0.089850367,0.062229808,-0.005729089,-0.040048685,0.011997539
1.76966E+18,0.957321533,0.031077421,-0.066716744,0.040390609,-0.003104887,-0.027053591,0.013331693
1.76966E+18,0.967309326,-0.030676001,-0.048743865,0.034665071,-0.00493075,-0.022231938,0.014480581
1.76966E+18,0.977297363,-0.081446696,-0.040255438,0.011231004,-0.00183319,-0.020446213,0.007190439
1.76966E+18,0.9872854,-0.058413611,-0.00433423,-0.02530103,-0.000483766,-0.014401371,0.004023409
1.76966E+18,0.997273438,-0.057596157,-0.00010989,-0.038221594,-0.002166351,-0.005533486,-0.00073681
1.76966E+18,1.00726123,-0.069858403,0.002906243,-0.016582009,-0.002640926,0.00159553,-0.005596547
1.76966E+18,1.017249268,-0.016064123,-0.00598492,0.016568857,-0.002927026,0.003141074,-0.009405406
1.76966E+18,1.027237305,0.01834522,-0.056859367,0.056197834,-0.003217045,-0.00826711,-0.013312263
1.76966E+18,1.037226318,0.08252923,-0.090014617,0.066035045,-0.00859975,-0.027476247,-0.012886252
1.76966E+18,1.047214355,0.130331576,-0.113427642,0.053614686,-0.008808008,-0.045094389,-0.01144628
1.76966E+18,1.057202393,0.110121586,-0.101626729,0.046279374,-0.004800903,-0.054984875,-0.000834113
1.76966E+18,1.06719043,0.049645344,-0.082568978,0.009039777,-0.000619207,-0.049925137,0.004884227
1.76966E+18,1.077178467,-0.014306612,-0.054523033,-0.031727702,-0.000918888,-0.038519766,0.010432931
1.76966E+18,1.08716626,-0.109941407,-0.04538228,-0.049787236,0.002332565,-0.031585161,0.012372778
1.76966E+18,1.097154297,-0.096380499,-0.002058686,-0.043742111,0.002435439,-0.021166809,0.001861104
1.76966E+18,1.10714209,-0.047424307,0.005294015,-0.043742111,0.00647865,-0.00905502,-0.006766207
1.76966E+18,1.117130127,-0.051736617,0.016266075,-0.044790013,0.002758671,-0.001013583,-0.008027669
1.76966E+18,1.127118408,-0.028760231,0.013416531,-0.039955432,0.003505687,-0.005219514,-0.007899305
1.76966E+18,1.137106445,0.014520693,-0.00313596,-0.001721125,0.000655954,-0.011846814,-0.002564184
1.76966E+18,1.147094238,0.039816462,-0.038898178,0.037841947,-0.00083009,-0.013027393,0.00346681
1.76966E+18,1.157082275,0.034588791,-0.089523619,0.057495765,-0.002387431,-0.021624913,0.006337064
1.76966E+18,1.167070557,0.021462767,-0.088963063,0.053853025,-0.003458288,-0.025733106,0.001369737
1.76966E+18,1.17705835,0.034518063,-0.038007367,0.036259208,-0.005139236,-0.026386375,-0.005204711
1.76966E+18,1.187046387,0.013157295,-0.024631752,0.051723319,-0.00339886,-0.030146757,-0.010104661
1.76966E+18,1.197034424,-0.001648059,-0.014709493,0.030502252,0.00032945,-0.027073968,-0.010019172
1.76966E+18,1.207021973,-0.028095629,-0.012167408,-0.001110007,0.002139601,-0.022570297,-0.004289913
1.76966E+18,1.217010254,-0.063976944,-0.036571197,-0.000391484,0.00381606,-0.016890939,0.000192811
1.76966E+18,1.226998291,-0.07898995,-0.011958733,-0.014156682,0.004863747,-0.006150145,-0.001548631
1.76966E+18,1.236986328,-0.076216101,-0.004259996,0.00084215,0.005906262,0.003358804,-0.002358321
1.76966E+18,1.246974121,-0.068545713,-0.019853871,0.019790304,0.002925652,0.008014542,-0.01246555
1.76966E+18,1.256962402,-0.031723757,-0.016316344,0.005081395,-0.001186574,0.007806463,-0.021869175
1.76966E+18,1.266950439,0.004232085,-0.019724107,0.006666618,-0.002713098,0.00848184,-0.028771823
1.76966E+18,1.276938232,0.043999593,-0.016380057,0.00698416,-0.00246763,0.006884779,-0.032537468
1.76966E+18,1.28692627,0.060526657,-0.003120178,0.011239625,2.96161E-05,0.010460339,-0.026974656
1.76966E+18,1.296914551,0.055127428,-0.007868249,-0.031946752,0.000872696,0.012922451,-0.016303785
1.76966E+18,1.306902588,0.021006548,-0.024176994,-0.038794279,0.003092973,0.023111971,-0.007165947
1.76966E+18,1.316890381,0.008277707,-0.080203418,-0.076123747,0.001383376,0.023156391,-0.006329097
1.76966E+18,1.326878174,0.009312895,-0.136287124,-0.128886492,-0.000558601,0.018064426,-0.010902012
1.76966E+18,1.336866211,-0.00097016,-0.106833066,-0.077519147,-0.003012856,0.026415357,-0.01783457
1.76966E+18,1.346854248,-0.037916035,-0.100188221,-0.035558512,-0.006682692,0.03867149,-0.025088223
1.76966E+18,1.356842285,-0.05421309,-0.076122286,0.005706395,-0.011573663,0.046880085,-0.031328097
1.76966E+18,1.366830322,-0.041836862,-0.049475686,-0.005706249,-0.013297527,0.057833668,-0.033166476
1.76966E+18,1.376818359,-0.041478258,-0.04423837,-0.045007893,-0.014339013,0.075677708,-0.038688187
1.76966E+18,1.386806152,-0.043226563,-0.03344985,-0.064812518,-0.010083814,0.109933153,-0.037005868
1.76966E+18,1.396794434,-0.108240594,-0.023761984,-0.007887392,-0.010859365,0.150354981,-0.034654744
1.76966E+18,1.406782471,-0.138361592,-0.071239774,-0.043781274,-0.004452865,0.194952279,-0.040960576
1.76966E+18,1.416770264,-0.154388013,-0.085782679,-0.066202511,0.000586787,0.23356539,-0.042804465
1.76966E+18,1.426758301,-0.178046975,-0.058030749,-0.047823535,0.007113129,0.278752297,-0.044619676
1.76966E+18,1.436746582,-0.230989022,-0.105175362,-0.007905366,0.003555755,0.326636434,-0.055443916
1.76966E+18,1.446734131,-0.195192756,-0.131917238,-0.000418225,0.00204734,0.341082752,-0.067560241
1.76966E+18,1.456722168,-0.10518413,-0.181072022,0.006159546,0.003491535,0.341296911,-0.090462968
1.76966E+18,1.466710205,0.002581395,-0.233663794,-0.04062091,0.00655204,0.351516783,-0.113643117
1.76966E+18,1.476698486,0.001267828,-0.128961895,-0.036938715,0.010812983,0.341416955,-0.116514727
1.76966E+18,1.486686279,-0.050265229,-0.073179803,0.016519319,0.006362841,0.344240427,-0.115689412
1.76966E+18,1.496675293,-0.069768533,-0.071993223,0.152208916,0.009188988,0.32081601,-0.130633384
1.76966E+18,1.50666333,0.037093467,-0.030892566,0.21509105,0.034577701,0.320819199,-0.143912435
1.76966E+18,1.516651611,0.008486966,0.058774845,0.23330899,0.043631613,0.322049052,-0.133560032
1.76966E+18,1.526639404,-0.036195787,-0.037258594,0.142161277,0.039586805,0.279739141,-0.129477933
1.76966E+18,1.536627197,0.104399117,-0.164470431,0.158687902,0.062694818,0.253014654,-0.147581294
1.76966E+18,1.546615234,0.123708505,-0.214698397,0.462605529,0.07583832,0.243295714,-0.190917313
1.76966E+18,1.556603027,0.185443369,-0.176660051,0.516455339,0.059454788,0.212115377,-0.225915253
1.76966E+18,1.566591309,0.156990889,-0.352431628,0.320013021,0.051378749,0.196340412,-0.245642886
1.76966E+18,1.576579346,0.101449619,-0.306754165,0.394280181,0.045075729,0.173283309,-0.259386122
1.76966E+18,1.586567383,0.059407444,-0.18584289,0.390209716,0.055288419,0.083049551,-0.311045051
1.76966E+18,1.596555176,0.418180404,0.216616214,0.290698226,0.095330797,-0.028436724,-0.368128568
1.76966E+18,1.606543457,0.642358139,0.476591092,0.194988027,0.124039136,-0.110786721,-0.377186537
1.76966E+18,1.616531494,0.328930341,0.521609799,0.069942282,0.159579203,-0.135760576,-0.309098363
1.76966E+18,1.626519287,-0.13728198,0.320212782,0.210484579,0.18081525,0.015004963,-0.174648955
1.76966E+18,1.636507324,-0.820503898,-0.27122634,0.34358109,0.159326941,0.136222675,-0.055694155
1.76966E+18,1.646495117,-0.783406632,-0.524459343,0.325093832,0.132212758,0.152310029,-0.017635189
1.76966E+18,1.656483398,-0.273260915,-0.588532879,0.365744699,0.11931207,0.132532969,-0.045495849
1.76966E+18,1.666471191,0.056703446,-0.514092847,0.477102841,0.108719878,0.109327257,-0.086778037
1.76966E+18,1.676459229,0.012798253,-0.367949515,0.474153343,0.098083824,0.079217181,-0.107628472
1.76966E+18,1.686447266,-0.139727766,-0.245630711,0.407702557,0.089570761,0.030383058,-0.106838316
1.76966E+18,1.696435303,-0.015729484,-0.103657358,0.262082664,0.094780892,-0.023185339,-0.100181915
1.76966E+18,1.70642334,0.088045363,0.055806643,0.157389387,0.097138323,-0.039512649,-0.086923636
1.76966E+18,1.716411377,0.076273677,0.101137484,0.048142976,0.094980553,-0.009173965,-0.062793344
1.76966E+18,1.726399414,-0.038122372,0.026011224,-0.053370063,0.096824788,0.032982811,-0.038109574
1.76966E+18,1.736387207,-0.094793522,0.003804653,-0.02994418,0.090444431,0.065602779,-0.021725185
1.76966E+18,1.746375488,-0.103431295,-0.081187752,-0.011726386,0.089299269,0.088806905,-0.016649731
1.76966E+18,1.756363525,-0.100909667,-0.143687755,0.079378511,0.083277375,0.097338326,-0.027958503
1.76966E+18,1.766351318,-0.06942498,-0.160258366,0.135606302,0.082754061,0.098172963,-0.05332724
1.76966E+18,1.776339111,-0.061398325,-0.171271343,0.179458742,0.080702171,0.091203533,-0.091039911
1.76966E+18,1.786327393,-0.034324441,-0.144593764,0.230896229,0.073684208,0.093743123,-0.129183292
1.76966E+18,1.796315186,-0.03194003,-0.078315996,0.193751471,0.063069031,0.110006534,-0.148873284
1.76966E+18,1.806303223,-0.166386348,-0.126198276,0.179078802,0.052370049,0.138326064,-0.163939849
1.76966E+18,1.81629126,-0.169252405,-0.147454415,0.178402949,0.041167047,0.162030473,-0.189235255
1.76966E+18,1.826279541,-0.065992375,-0.086034608,0.157964118,0.032464635,0.163087487,-0.219074905
1.76966E+18,1.836267334,0.00820771,-0.005833528,0.172893246,0.031861465,0.149208128,-0.240119383
1.76966E+18,1.846255615,0.006824878,0.045921209,0.248191794,0.026041128,0.139225528,-0.248119533
1.76966E+18,1.856243408,-0.095683311,0.010517887,0.33646439,0.018613536,0.130212635,-0.250046968
1.76966E+18,1.866231445,-0.154005151,-0.057035892,0.403586938,0.02541871,0.123461507,-0.253657401
1.76966E+18,1.876219727,-0.165180771,-0.025678047,0.385116777,0.02003121,0.11682798,-0.263718545
1.76966E+18,1.886207275,-0.137602298,-0.066565353,0.306590499,-0.000388311,0.119819246,-0.287800699
1.76966E+18,1.896195313,-0.088199823,-0.071269,0.351250894,-0.008088423,0.108891532,-0.306764543
1.76966E+18,1.90618335,0.005749357,0.006419804,0.347529828,-0.022382407,0.099453293,-0.317363143
1.76966E+18,1.916171143,0.083277418,0.035195232,0.259376328,-0.033965062,0.108359456,-0.319729447
1.76966E+18,1.926159424,0.11357085,-0.047519876,0.183152481,-0.04247839,0.109997831,-0.329137862
1.76966E+18,1.936147461,0.12955387,-0.09786007,0.134080408,-0.06103956,0.09876053,-0.330215573
1.76966E+18,1.946135498,0.124682611,-0.117847796,-0.069310706,-0.075272292,0.093360178,-0.322245002
1.76966E+18,1.956123291,0.078578447,-0.058300798,-0.215037128,-0.083294228,0.094103724,-0.298001349
1.76966E+18,1.966111572,-0.033879985,-0.038970074,-0.334546866,-0.085604519,0.08910311,-0.258930385
1.76966E+18,1.976100342,-0.137307114,-0.04917115,-0.427474448,-0.08109042,0.087816507,-0.217827052
1.76966E+18,1.986088379,-0.165482239,-0.026339725,-0.456537315,-0.074074857,0.090049036,-0.184237659
1.76966E+18,1.996076172,-0.132640438,0.033520577,-0.484248329,-0.062017281,0.11195875,-0.163526177
1.76966E+18,2.006064453,-0.051760436,0.055316229,-0.444932217,-0.048959535,0.152236119,-0.16147235
1.76966E+18,2.01605249,0.055808543,0.07460662,-0.377704017,-0.043127783,0.184995592,-0.168986991
1.76966E+18,2.026040283,0.159450557,0.036743631,-0.313417861,-0.041266233,0.212566763,-0.184367016
1.76966E+18,2.03602832,0.213201437,-0.017390111,-0.253243524,-0.041294124,0.22811614,-0.201699212
1.76966E+18,2.046016602,0.239741142,-0.046014732,-0.196859812,-0.041066159,0.233510107,-0.212135866
1.76966E+18,2.056004639,0.178348808,-0.088229488,-0.145935388,-0.053060085,0.238552913,-0.216735765
1.76966E+18,2.065992432,0.12209727,-0.12560674,-0.192512284,-0.066805452,0.237851977,-0.224639237
1.76966E+18,2.075980469,0.136253222,-0.181306415,-0.279090205,-0.086982861,0.224096835,-0.234365374
1.76966E+18,2.085968506,0.174531222,-0.237928466,-0.378205829,-0.084358312,0.194930702,-0.238979295
1.76966E+18,2.095956299,0.20979309,-0.143387311,-0.270351019,-0.07486441,0.156907678,-0.230965048
1.76966E+18,2.105944336,0.135753455,0.052985156,-0.12859993,-0.067102365,0.130998582,-0.219212517
1.76966E+18,2.115932373,0.103488432,0.218327694,-0.022163901,-0.065317318,0.123452,-0.205141872
1.76966E+18,2.12592041,0.088913963,0.260673382,-0.028185353,-0.063764162,0.125850171,-0.196249321
1.76966E+18,2.135908447,0.123359253,0.225702606,0.004841449,-0.069612011,0.128973827,-0.191951424
1.76966E+18,2.145896484,0.156855865,0.117119482,-0.034799218,-0.085199222,0.133250594,-0.194078222
1.76966E+18,2.155884521,0.278859611,0.062267948,-0.170593736,-0.09944234,0.139661282,-0.199169829
1.76966E+18,2.165872314,0.306147578,0.022954175,-0.280983472,-0.096459068,0.150432706,-0.191724166
1.76966E+18,2.175860596,0.232469616,0.026850598,-0.27948242,-0.099528059,0.151702642,-0.180164263
1.76966E+18,2.185848633,0.165023316,0.107624508,-0.371290642,-0.095910154,0.150211006,-0.170825899
1.76966E+18,2.19583667,0.117788175,0.20253099,-0.470986111,-0.092410527,0.154228404,-0.144640714
1.76966E+18,2.205824463,-0.049058849,0.221776373,-0.52721624,-0.093193769,0.165693581,-0.116638638
1.76966E+18,2.215812256,-0.168059944,0.187314131,-0.582348345,-0.0900838,0.182102501,-0.103105791
1.76966E+18,2.225800537,-0.124942065,0.184289815,-0.617319121,-0.083012313,0.20469515,-0.092407346
1.76966E+18,2.23578833,-0.091979122,0.101988548,-0.602204115,-0.074203186,0.230493307,-0.083269246
1.76966E+18,2.245776367,-0.060165971,-0.010120412,-0.478153957,-0.068396427,0.246985197,-0.089987338
1.76966E+18,2.255764404,0.076061532,-0.0698264,-0.384983506,-0.063973106,0.25397107,-0.104401417
1.76966E+18,2.265752441,0.126225201,-0.09109949,-0.275319893,-0.06192274,0.247132629,-0.119097546
1.76966E+18,2.275740479,0.119273445,-0.107822661,-0.179884858,-0.058098249,0.218025208,-0.137702927
1.76966E+18,2.285728516,0.136533208,-0.102916185,-0.142642192,-0.043469772,0.185662463,-0.155974612
1.76966E+18,2.295716553,0.136312258,-0.025271219,-0.119152011,-0.034805402,0.179397106,-0.16699788
1.76966E+18,2.305704346,0.049453474,-0.003938508,-0.186508368,-0.031213067,0.205336303,-0.155587301
1.76966E+18,2.315692627,-0.121436724,-0.067015435,-0.17296105,-0.030263346,0.222363099,-0.146675646
1.76966E+18,2.32568042,-0.029288565,-0.1625947,-0.126199883,-0.026424401,0.202775016,-0.169076562
1.76966E+18,2.335668213,0.313253464,-0.133420044,-0.132883453,-0.029762331,0.164901197,-0.209032148
1.76966E+18,2.34565625,0.523117902,-0.140561732,-0.148610745,-0.033746954,0.128497913,-0.241382897
1.76966E+18,2.355644531,0.536602822,-0.172262108,-0.082593381,-0.039332323,0.099165037,-0.250733852
1.76966E+18,2.365632568,0.518130176,-0.218247614,-0.071308748,-0.047511689,0.075974494,-0.249976456
1.76966E+18,2.375620361,0.477445699,-0.241056243,-0.081711338,-0.050100092,0.047833432,-0.243430868
1.76966E+18,2.385608398,0.455341968,-0.168585465,-0.016189795,-0.048086211,0.000876577,-0.240517095
1.76966E+18,2.395596436,0.494516625,0.009582652,0.010178572,-0.051041633,-0.057946663,-0.233593225
1.76966E+18,2.405584473,0.447860672,0.00819149,-0.027279929,-0.057706196,-0.117777511,-0.219764501
1.76966E+18,2.41557251,0.373898231,-0.058240592,-0.007259031,-0.070244476,-0.15775454,-0.199130237
1.76966E+18,2.425560547,0.359696687,-0.042130584,-0.081729312,-0.087602161,-0.167274803,-0.175857931
1.76966E+18,2.435548584,0.315810747,-0.025541853,-0.15441797,-0.093449317,-0.14859435,-0.156522155
1.76966E+18,2.445536621,0.256546657,0.064489131,-0.209585146,-0.099556744,-0.126826212,-0.133437872
1.76966E+18,2.455525391,0.165889084,0.144368723,-0.293333835,-0.097384095,-0.113822445,-0.111220181
1.76966E+18,2.465513428,0.104106271,0.281468333,-0.337079745,-0.099739663,-0.102371119,-0.090427548
1.76966E+18,2.475501465,0.056664137,0.337377851,-0.364392115,-0.095225759,-0.092107952,-0.073509991
1.76966E+18,2.485489502,0.024666239,0.31390579,-0.34694969,-0.092855282,-0.068734989,-0.062927656
1.76966E+18,2.495477539,-0.043301948,0.1760615,-0.377888141,-0.088174284,-0.043165706,-0.061398566
1.76966E+18,2.505465576,-0.044092806,0.09423545,-0.371690017,-0.082355544,-0.018836929,-0.06333895
1.76966E+18,2.515453369,-0.019403195,0.005568156,-0.371820512,-0.08056277,-0.009931466,-0.064361058
1.76966E+18,2.52544165,-0.045805464,-0.060817165,-0.373889719,-0.079309486,0.0033127,-0.060920253
1.76966E+18,2.535429443,-0.0735311,-0.055101709,-0.33098362,-0.081347875,0.019283496,-0.059069719
1.76966E+18,2.54541748,-0.125043261,-0.035393385,-0.270200504,-0.083521284,0.037771959,-0.056339446
1.76966E+18,2.555405273,-0.131062083,0.01017185,-0.189399705,-0.08674565,0.052890137,-0.054545358
1.76966E+18,2.565393311,-0.106566524,0.013141221,-0.099232382,-0.099230014,0.069248073,-0.051788721
1.76966E+18,2.575381592,-0.102967623,0.033384968,-0.061862728,-0.116165817,0.083943032,-0.049622063
1.76966E+18,2.585369385,-0.095671036,0.062665423,-0.010764847,-0.134833246,0.097448722,-0.046544246
1.76966E+18,2.595357422,-0.148316584,0.081484105,0.075748192,-0.136556983,0.08761166,-0.044700719
1.76966E+18,2.605345459,-0.186834239,0.125886726,0.181012255,-0.140897945,0.072734177,-0.032170814
1.76966E+18,2.615333496,-0.248190917,0.036190673,0.210435771,-0.146014452,0.058230177,-0.028729651
1.76966E+18,2.625321533,-0.28250469,-0.034301498,0.221649824,-0.160433337,0.050831385,-0.04168167
1.76966E+18,2.63530957,-0.265568168,-0.094905312,0.201437203,-0.169892043,0.064124532,-0.059899203
1.76966E+18,2.645297607,-0.251640765,-0.124547002,0.219663618,-0.176244482,0.055272982,-0.074285604
1.76966E+18,2.655285156,-0.294425429,-0.150064889,0.230479319,-0.184042677,0.062792569,-0.086763568
1.76966E+18,2.665273438,-0.339698403,-0.14860943,0.208531691,-0.180252194,0.091666304,-0.092969269
1.76966E+18,2.675261475,-0.33863925,-0.157582425,0.253156869,-0.16812405,0.12181627,-0.085000381
1.76966E+18,2.685249268,-0.343909299,-0.178480252,0.230849029,-0.140623972,0.122705236,-0.07187739
1.76966E+18,2.695237305,-0.324939226,-0.132899235,0.323196912,-0.104813136,0.131685823,-0.05626798
1.76966E+18,2.705225586,-0.319443551,-0.104106271,0.406100382,-0.061275516,0.181860566,-0.042886395
1.76966E+18,2.715213623,-0.367754285,-0.175197577,0.477430757,-0.029028058,0.223586872,-0.02182168
1.76966E+18,2.725201416,-0.447021298,-0.220962718,0.50294996,-0.011914318,0.205535173,-0.00256223
1.76966E+18,2.735189453,-0.475923568,-0.212554371,0.608883593,-0.003869595,0.177315831,0.003766416
1.76966E+18,2.74517749,-0.448716412,-0.191615628,0.806357007,0.005284222,0.136127651,-0.001774291
1.76966E+18,2.755165527,-0.473169301,-0.199023858,0.950273895,0.008862027,0.096092045,-0.013464502
1.76966E+18,2.765153564,-0.554834023,-0.167532741,1.087112954,0.010634094,0.065712035,-0.036924288
1.76966E+18,2.775141357,-0.574194557,-0.144321962,1.196432575,0.000581917,0.056437954,-0.060928959
1.76966E+18,2.785129395,-0.56761401,-0.227491828,1.227088264,-0.011340523,0.068905808,-0.085223921
1.76966E+18,2.795117432,-0.471930114,-0.240538356,1.239312955,-0.008543975,0.071330629,-0.109847583
1.76966E+18,2.805105469,-0.297557882,-0.199826407,1.201000176,0.010344495,0.069946587,-0.116794176
1.76966E+18,2.815093506,-0.196411045,-0.143611183,1.144477347,0.020945892,0.066036478,-0.105037302
1.76966E+18,2.825081299,-0.209512519,-0.196201787,1.024173536,0.025986191,0.057084531,-0.088546209
1.76966E+18,2.835069336,-0.172280813,-0.252310043,0.956868471,0.027441151,0.037234455,-0.081951596
1.76966E+18,2.845058105,-0.083029005,-0.268973008,0.926613764,0.032902762,0.016624253,-0.078569114
1.76966E+18,2.855046143,-0.020429049,-0.326611543,0.959614116,0.039817698,-0.000589532,-0.071556211
1.76966E+18,2.865033936,-0.016886819,-0.317201909,0.982434435,0.043040659,-0.021607466,-0.062747806
1.76966E+18,2.875021729,-0.065205755,-0.336153278,1.01252533,0.041974444,-0.053917501,-0.058360517
1.76966E+18,2.88501001,-0.087636198,-0.254133751,1.079437012,0.040680412,-0.079500362,-0.06754043
1.76966E+18,2.894997803,-0.104118555,-0.18641689,1.056872129,0.031800825,-0.087168656,-0.081973612
1.76966E+18,2.90498584,-0.110285252,-0.113154085,1.023641329,0.019698087,-0.090142608,-0.099313721
1.76966E+18,2.914975098,-0.03539165,-0.048562663,0.946550052,0.011316321,-0.096235827,-0.113325231
1.76966E+18,2.924963135,0.028263953,-0.028843817,0.811446585,0.012400494,-0.093342036,-0.115096495
1.76966E+18,2.934950928,0.031939427,-0.085769235,0.768356654,0.012520908,-0.100155205,-0.10682863
1.76966E+18,2.944938965,0.076771105,-0.157362645,0.700746615,0.010788522,-0.114059567,-0.105010755
1.76966E+18,2.954927002,0.14671852,-0.249722364,0.631015638,0.013177337,-0.126832366,-0.113996096
1.76966E+18,2.964915039,0.181862296,-0.321091318,0.593771656,0.007444883,-0.141009971,-0.123246051
1.76966E+18,2.974902832,0.180517895,-0.425051459,0.535650307,-0.002381268,-0.150204927,-0.132251427
1.76966E+18,2.984890869,0.156337412,-0.551738395,0.493076363,-0.011928434,-0.1546942,-0.137520492
1.76966E+18,2.994878906,0.208688343,-0.64928107,0.438784216,-0.019505393,-0.157390028,-0.149139419
1.76966E+18,3.004866699,0.305590364,-0.639757455,0.357045844,-0.034512039,-0.15416494,-0.168272361
1.76966E+18,3.01485498,0.27345103,-0.569136689,0.339865284,-0.057299111,-0.145556539,-0.189875394
1.76966E+18,3.024843018,0.212298332,-0.527881719,0.268673587,-0.088323876,-0.141622528,-0.21596238
1.76966E+18,3.034831055,0.160174177,-0.441654803,0.229221428,-0.124793053,-0.151970521,-0.2454025
1.76966E+18,3.044818848,0.070929393,-0.378918069,0.128836516,-0.165523961,-0.177794129,-0.266918957
1.76966E+18,3.054807129,-0.092080939,-0.393255806,0.047277884,-0.203823075,-0.20739913,-0.279211491
1.76966E+18,3.064795166,-0.256109472,-0.382662516,-0.035989305,-0.231217146,-0.213324666,-0.280301243
1.76966E+18,3.074782959,-0.500983227,-0.364803034,-0.102736298,-0.248744175,-0.211341158,-0.276162624
1.76966E+18,3.084770752,-0.735050305,-0.318567937,-0.126919576,-0.255526692,-0.201374009,-0.280286252
1.76966E+18,3.094759033,-0.90375852,-0.208376793,-0.112521779,-0.254747689,-0.189946368,-0.291813135
1.76966E+18,3.104746826,-1.07719201,-0.071120532,-0.037304772,-0.242632166,-0.17641139,-0.302814096
1.76966E+18,3.114734863,-1.263026716,0.088531101,0.104210608,-0.220080107,-0.148055285,-0.308171928
1.76966E+18,3.1247229,-1.400585759,0.295193491,0.268030613,-0.191459924,-0.107549667,-0.305086672
1.76966E+18,3.134710938,-1.479250715,0.481663573,0.377559494,-0.15920493,-0.078104019,-0.294090122
1.76966E+18,3.144698975,-1.614276441,0.670894936,0.529374587,-0.131356522,-0.040903386,-0.269242823
1.76966E+18,3.154687012,-1.777159311,0.718356944,0.595920505,-0.05040605,0.084654376,-0.253640085
1.76966E+18,3.164675049,-1.87725167,0.553666148,0.963839917,-0.04803637,0.06156956,-0.246964872
1.76966E+18,3.174662842,-1.6521406,0.626111207,0.671865023,-0.037084654,0.071847588,-0.254915029
1.76966E+18,3.184651123,-1.721042871,0.648878919,0.873483574,-0.030025946,0.106540851,-0.2721968
1.76966E+18,3.19463916,-1.685754116,0.524763294,1.158893849,-0.041890707,0.123755567,-0.297564477
1.76966E+18,3.204626953,-1.557227104,0.253243524,1.058189788,-0.078596525,0.135762423,-0.329066217
1.76966E+18,3.214614746,-1.321153911,-0.054888944,0.962433558,-0.117034271,0.145147637,-0.36222294
1.76966E+18,3.224602783,-1.09234289,-0.374260014,0.912848785,-0.15329507,0.169276133,-0.398701847
1.76966E+18,3.234591064,-0.963251158,-0.613684856,0.882021977,-0.180027008,0.17604211,-0.419752091
1.76966E+18,3.244578857,-0.841130579,-0.847885826,0.820827942,-0.196213424,0.179816604,-0.437952936
1.76966E+18,3.254566895,-0.769297588,-0.965922423,0.732411846,-0.197599307,0.188165814,-0.45770517
1.76966E+18,3.264554932,-0.801622745,-0.950469418,0.71551098,-0.229268551,0.172227055,-0.466113299
1.76966E+18,3.274543213,-0.900425576,-0.958237129,0.355880307,-0.25126949,0.103956029,-0.459260166
1.76966E+18,3.284531006,-0.989769601,-0.852131793,0.206477681,-0.2482391,0.021780994,-0.428879082
1.76966E+18,3.294519043,-1.12595984,-0.852569015,0.136309847,-0.238764659,-0.115752079,-0.378361434
1.76966E+18,3.30450708,-1.126405319,-0.812076846,-0.138758044,-0.208710611,-0.233207867,-0.326829523
1.76966E+18,3.314494873,-1.111205338,-0.570976764,-0.224875581,-0.161943272,-0.275908053,-0.296763957
1.76966E+18,3.32448291,-1.206411314,-0.334992418,-0.077305066,-0.164302304,-0.283346802,-0.269846052
1.76966E+18,3.334470947,-1.243169484,-0.171957572,-0.366988488,-0.160023138,-0.28635776,-0.244771838
1.76966E+18,3.344459961,-1.325846599,0.076149174,-0.301528466,-0.137083739,-0.252589941,-0.226446629
1.76966E+18,3.354447754,-1.458535406,0.156376557,-0.194899764,-0.090113521,-0.177972376,-0.210247964
1.76966E+18,3.364436035,-1.585253906,0.200170106,-0.064222954,-0.028176647,-0.136848897,-0.195997119
1.76966E+18,3.374424072,-1.664405184,0.114039052,0.09385858,0.026601801,-0.082308561,-0.179873899
1.76966E+18,3.384411865,-1.784855418,-0.006719079,0.190327707,0.073018305,-0.014029372,-0.15571636
1.76966E+18,3.394399902,-1.985902453,-0.107748427,0.425090329,0.117390901,0.031902231,-0.133328944
1.76966E+18,3.404387939,-2.095469912,-0.149809453,0.618729499,0.148609534,0.06889274,-0.120925263
1.76966E+18,3.414375977,-2.067676334,-0.102216512,0.765472112,0.179482192,0.085493825,-0.128922567
1.76966E+18,3.42436377,-1.981557409,0.029863223,0.922692864,0.194068328,0.074888855,-0.137881443
1.76966E+18,3.434351807,-1.945379011,0.07344576,0.976669515,0.203323588,0.068180099,-0.16092214
1.76966E+18,3.444340088,-1.843624272,0.123942606,1.04436526,0.198081151,0.048489749,-0.193406567
1.76966E+18,3.454327881,-1.70634463,0.058517071,1.02283067,0.183975905,0.019468799,-0.234891087
1.76966E+18,3.464315918,-1.572023984,0.01881576,0.986069285,0.163675696,-0.015709694,-0.265979499
1.76966E+18,3.474303955,-1.538567851,-0.106355511,0.992294151,0.149359912,-0.060975567,-0.288331747
1.76966E+18,3.484291992,-1.52503047,-0.173483759,0.9948499,0.136416137,-0.10756544,-0.30920133
1.76966E+18,3.494280029,-1.505161548,-0.180769824,1.003449532,0.130847365,-0.158024669,-0.328131288
1.76966E+18,3.504268066,-1.538437064,-0.149236622,1.070834603,0.132246852,-0.226228222,-0.34232381
1.76966E+18,3.514256104,-1.583068671,-0.04407938,1.155400308,0.127528235,-0.273803443,-0.352207124
1.76966E+18,3.524243896,-1.675693325,0.12167583,1.114654456,0.114585258,-0.306601882,-0.358345181
1.76966E+18,3.534231689,-1.767027208,0.397653164,1.020867188,0.089025192,-0.348566234,-0.357087463
1.76966E+18,3.544219971,-1.830686172,0.720533119,0.927794425,0.080710277,-0.403475821,-0.337515622
1.76966E+18,3.554208008,-1.970420806,1.041827266,0.934722252,0.075623058,-0.471355468,-0.288117886
1.76966E+18,3.564195801,-2.223411378,1.188307283,0.857376123,0.070392609,-0.528316975,-0.193987146
1.76966E+18,3.574183838,-2.672377966,1.109713054,0.786519357,0.080918685,-0.588171005,-0.060063872
1.76966E+18,3.584172119,-3.030549599,1.048808796,0.694453214,0.072736919,-0.601143777,0.047434092
1.76966E+18,3.594159912,-2.891815666,1.231890404,0.419145303,0.039682679,-0.512230098,0.063155174
1.76966E+18,3.604147949,-2.21160652,1.628378031,0.221684164,0.013610062,-0.347634494,-0.050583109
1.76966E+18,3.614135986,-1.169069644,2.098763254,0.289319631,-0.014226094,-0.19166255,-0.238091141
1.76966E+18,3.624124023,-0.521222991,2.202853159,0.176878808,-0.043309942,-0.051589597,-0.415972978
1.76966E+18,3.634112061,-0.359207552,2.109932883,-0.195645468,-0.048772998,0.106541656,-0.560095489
1.76966E+18,3.644099854,-0.206904675,2.010654178,-0.355564227,-0.012626449,0.337668866,-0.67605108
1.76966E+18,3.654087891,0.084813249,2.021637345,-0.374445599,0.058468271,0.491591841,-0.76025933
1.76966E+18,3.664075684,0.437808357,2.190894426,-0.462122714,0.121324733,0.509911776,-0.78558284
1.76966E+18,3.674063965,0.692019265,2.096388926,-0.714146048,0.20510745,0.370040238,-0.678431869
1.76966E+18,3.684052002,0.417532169,1.332025433,-0.600052052,0.256503254,0.253651321,-0.46791774
1.76966E+18,3.694039795,-0.145971629,0.179163558,-0.661683163,0.257249415,0.114107989,-0.27668336
1.76966E+18,3.704027832,0.215877962,-0.451568294,-0.88278339,0.252290368,-0.057281077,-0.164219394
1.76966E+18,3.714016113,0.87608813,-0.65489891,-0.655230334,0.209906444,-0.264043421,-0.143283829
1.76966E+18,3.72400415,1.223980361,-0.916370164,-0.525882069,0.168807745,-0.395489842,-0.157419354
1.76966E+18,3.733991943,1.285840459,-1.176765898,-0.299781842,0.119376212,-0.443015993,-0.18746382
1.76966E+18,3.74397998,1.357139416,-1.3774422,-0.133482149,0.070462465,-0.460796595,-0.240426913
1.76966E+18,3.753968018,1.595073728,-1.563216116,0.05378975,0.026061902,-0.4205212,-0.322746545
1.76966E+18,3.763957031,1.876794428,-1.699475767,0.306098478,0.000205271,-0.318378329,-0.458099842
1.76966E+18,3.773944824,2.315396419,-1.57702603,0.513328731,-0.018803535,-0.281378835,-0.613983274
1.76966E+18,3.783932861,2.620864051,-1.309738783,0.627863311,-0.033828825,-0.295051515,-0.753211975
1.76966E+18,3.793921143,2.795912868,-0.997858945,0.562057544,-0.037153285,-0.375835359,-0.835816562
1.76966E+18,3.803908936,2.668810044,-0.633577889,0.503713054,-0.052864071,-0.459143311,-0.855266213
1.76966E+18,3.813896973,2.404586568,-0.336934784,0.384186218,-0.055326544,-0.528582275,-0.813594639
1.76966E+18,3.82388501,2.139520504,-0.108195586,0.36447424,-0.102679148,-0.549833,-0.724168897
1.76966E+18,3.833873047,1.917989046,0.098837391,-0.009453765,-0.145037904,-0.625027299,-0.563948631
1.76966E+18,3.84386084,1.456913504,0.234867325,-0.051773003,-0.160638437,-0.665782213,-0.397304237
1.76966E+18,3.853848633,1.110494268,0.435256626,0.137702982,-0.163048789,-0.629420817,-0.221214414
1.76966E+18,3.863836426,0.595683627,0.491098341,0.320723361,-0.164594486,-0.592855632,-0.070694409
1.76966E+18,3.873824463,0.207407363,0.497952444,0.449721205,-0.167871773,-0.583849192,0.016319398
1.76966E+18,3.8838125,0.074909695,0.48743748,0.753802936,-0.187853202,-0.558796346,0.059888445
1.76966E+18,3.893800537,-0.032865036,0.292732654,0.823942932,-0.249450594,-0.583872676,0.052163597
1.76966E+18,3.903788574,0.098570557,0.14999007,0.787597215,-0.288423836,-0.632897735,0.020195812
1.76966E+18,3.913776611,0.214656312,0.1233084,1.127217293,-0.27113843,-0.561936498,-0.059027292
1.76966E+18,3.923764404,0.091880996,0.03516659,1.128869005,-0.263547093,-0.444711626,-0.109637477
1.76966E+18,3.933752686,-0.088164606,-0.029264673,0.758296594,-0.223156378,-0.266115844,-0.185413361
1.76966E+18,3.943740723,-0.119913204,0.030538346,0.76514456,-0.183933064,-0.186418355,-0.205670699
1.76966E+18,3.953728516,-0.18078999,0.07035247,0.665540861,-0.144459799,-0.15627569,-0.19729577
1.76966E+18,3.963716553,-0.315607918,0.011072014,0.626462358,-0.118815966,-0.114425719,-0.156624764
1.76966E+18,3.97370459,-0.513650656,-0.122410574,0.602340163,-0.100162424,-0.074598841,-0.101325467
1.76966E+18,3.983692627,-0.610315379,-0.349524801,0.596963438,-0.093606524,-0.043692056,-0.052402135
1.76966E+18,3.99368042,-0.610383184,-0.622556729,0.585770428,-0.085058652,-0.01461209,-0.011056566
1.76966E+18,4.003668457,-0.579225537,-0.902049962,0.711203858,-0.080724619,-0.033549566,0.008569067
1.76966E+18,4.013656494,-0.473516799,-1.166293019,0.81275986,-0.080689043,-0.087593742,0.016147003
1.76966E+18,4.023644531,-0.407654918,-1.372667825,0.916787367,-0.083181761,-0.117912762,0.01201937
1.76966E+18,4.033632568,-0.423325073,-1.516771175,1.0608989,-0.099712729,-0.130460471,0.005129866
1.76966E+18,4.043620605,-0.418437301,-1.52433898,1.1543413,-0.134134352,-0.168163911,-0.007312423
1.76966E+18,4.053608643,-0.452947474,-1.402960672,1.062000286,-0.162273049,-0.146139219,-0.033726275
1.76966E+18,4.063596436,-0.651821694,-1.208278058,1.165154225,-0.151269406,-0.05396587,-0.031095337
1.76966E+18,4.073584717,-0.873541368,-1.111493508,1.629754288,-0.173980713,-0.037010357,-0.048410144
1.76966E+18,4.083572754,-0.400323552,-0.93874157,1.574334891,-0.203057379,-0.072895914,-0.080898315
1.76966E+18,4.093560547,-0.079907649,-0.725308663,1.668430348,-0.210397586,-0.129998356,-0.060442585
1.76966E+18,4.10354834,-0.026627602,-0.534282233,1.739758093,-0.21853514,-0.19062309,0.016453261
1.76966E+18,4.113536621,-0.032175007,-0.34316871,1.690851439,-0.225094914,-0.249210179,0.068367779
1.76966E+18,4.123524658,0.056570905,-0.279338335,1.695070518,-0.242013186,-0.269148469,0.099927835
1.76966E+18,4.133512451,0.111408995,-0.17455168,1.495955182,-0.247802138,-0.23452656,0.155435741
1.76966E+18,4.143500488,-0.124928694,-0.135858669,1.430504512,-0.219519109,-0.166767225,0.27359435
1.76966E+18,4.153488525,-0.442709865,-0.085409169,1.420021404,-0.176519826,-0.11305166,0.417482466
1.76966E+18,4.163476563,-0.446644866,0.072177347,1.398363846,-0.099662051,-0.128915846,0.520974517
1.76966E+18,4.173465576,-0.219446176,0.372107804,1.579696418,-0.015963808,-0.098433375,0.564288735
1.76966E+18,4.183453613,-0.308105287,0.531006573,1.791573328,0.061014865,-0.003141737,0.584653139
1.76966E+18,4.19344165,-0.626566841,0.588127805,1.970236243,0.105050616,0.099939607,0.595896482
1.76966E+18,4.203429443,-0.708764355,0.718827484,1.934736767,0.114946388,0.182768703,0.557952821
1.76966E+18,4.21341748,-0.389954865,0.932266821,1.723845215,0.089134648,0.183023438,0.464575648
1.76966E+18,4.223405518,0.219041979,1.324873808,1.408728149,0.064682566,0.179185018,0.361624241
1.76966E+18,4.233393555,0.66568933,1.625594538,1.354535517,0.011976784,0.1177046,0.209722146
1.76966E+18,4.243381592,1.208984014,1.961179661,1.183400952,-0.034642648,0.016496219,0.04912236
1.76966E+18,4.253369629,1.543129459,2.150593979,1.131384495,-0.049040947,-0.099066496,-0.090345971
1.76966E+18,4.263357666,1.450783622,2.118510157,1.287993107,-0.065967731,-0.263853848,-0.194561332
1.76966E+18,4.273345459,1.290328857,1.664585655,1.055464893,-0.1265935,-0.391005099,-0.247062877
1.76966E+18,4.28333374,0.891544643,0.726226947,0.247294845,-0.203694403,-0.500678539,-0.294367284
1.76966E+18,4.293321777,0.922701705,-0.03590718,-0.599718947,-0.305719674,-0.68315959,-0.31470111
1.76966E+18,4.30330957,1.016314055,-0.594011018,-1.42648534,-0.425661266,-0.955967188,-0.332635373
1.76966E+18,4.313297363,1.343163206,-0.989152492,-2.28362064,-0.540267646,-1.247951031,-0.361486048
1.76966E+18,4.3232854,1.692094717,-1.154789629,-2.945975419,-0.617023408,-1.424391031,-0.393104702
1.76966E+18,4.333273682,1.828572687,-1.25540455,-3.306556743,-0.598116815,-1.499682426,-0.37337938
1.76966E+18,4.343261475,1.682863947,-1.151779925,-3.230705968,-0.541228473,-1.389987111,-0.329196483
1.76966E+18,4.353249512,1.571893928,-0.790057906,-3.451669271,-0.373113424,-1.080184579,-0.247478083
1.76966E+18,4.363237549,1.312225047,0.141492876,-3.001560528,-0.14633593,-0.445256919,-0.14558126
1.76966E+18,4.373225586,0.86249975,1.168469194,-2.351707503,0.035873823,0.302631617,-0.012588234
1.76966E+18,4.383213623,-0.002487433,1.737392533,-2.014215378,0.30474177,0.777831376,0.086261913
1.76966E+18,4.39320166,-0.181150932,3.518115673,-0.887283405,0.519215584,1.027209044,0.176950097
1.76966E+18,4.403189697,-0.759581227,4.254900839,-0.68931892,0.61482203,1.28011179,0.258739769
1.76966E+18,4.41317749,-1.557740899,3.441109591,-0.835764157,0.66587007,1.442197561,0.28328073
1.76966E+18,4.423165771,-1.565426485,2.405111177,-0.654773091,0.692573071,1.411731005,0.242748186
1.76966E+18,4.433153564,-1.22281424,1.546367857,-0.370269483,0.69968468,1.336879849,0.160901964
1.76966E+18,4.443141357,-1.016022671,0.65739248,-0.13658713,0.678757846,1.262988091,0.049083285
1.76966E+18,4.453129395,-0.692845194,-0.186890353,-0.096394089,0.626877189,1.180026293,-0.082811616
1.76966E+18,4.463117676,-0.32972646,-0.665396923,-0.091834526,0.553992093,1.029572606,-0.176111206
1.76966E+18,4.473105713,-0.177228498,-0.918709421,0.007622604,0.489190429,0.814022064,-0.214959621
1.76966E+18,4.483093506,-0.167841953,-1.171190728,0.02767945,0.433110654,0.640576541,-0.213891968
1.76966E+18,4.493081543,-0.103537824,-1.362445706,-0.15332053,0.355448276,0.518769324,-0.183671027
1.76966E+18,4.50306958,-0.076379768,-1.474065422,-0.224765325,0.266211897,0.416454673,-0.126617864
1.76966E+18,4.513057617,-0.088828915,-1.619475763,-0.255609815,0.175417602,0.238814086,-0.033680558
1.76966E+18,4.523045654,-0.225845522,-1.852865417,-0.352330506,0.086717561,0.157668635,0.042996641
1.76966E+18,4.533033691,-0.26294951,-1.850720221,-0.408089218,0.016941791,0.07912983,0.106126346
1.76966E+18,4.543021484,-0.323367739,-1.861272011,-0.39296033,-0.030411877,-0.036684114,0.157096043
1.76966E+18,4.553009521,-0.509941573,-2.003147748,-0.564712151,-0.047663298,-0.139759988,0.177875996
1.76966E+18,4.562998535,-0.678136285,-2.062133606,-0.559986729,-0.057833645,-0.235797569,0.182851568
1.76966E+18,4.572986572,-0.846923411,-2.139417336,-0.564399724,-0.066798761,-0.34898895,0.163193882
1.76966E+18,4.582974609,-0.99724812,-2.150518576,-0.599936901,-0.057803396,-0.410995066,0.120661609
1.76966E+18,4.592962646,-1.167785596,-2.051879338,-0.544583409,-0.035598498,-0.444192916,0.079740457
1.76966E+18,4.602950684,-1.40471453,-1.839431935,-0.497996868,-0.020301299,-0.461369485,0.033245925
1.76966E+18,4.612938721,-1.501655732,-1.592470852,-0.579030891,-0.017285757,-0.447256535,0.001875007
1.76966E+18,4.622926514,-1.611601669,-1.373497261,-0.664626377,-0.008091725,-0.403305054,-0.006130189
1.76966E+18,4.632914551,-1.733261424,-1.073430027,-0.649606649,0.009782492,-0.349788159,0.005074119
1.76966E+18,4.642902588,-1.74811208,-0.766515703,-0.626366643,0.036164567,-0.30617705,0.030290259
1.76966E+18,4.652890381,-1.729132946,-0.592897504,-0.60118807,0.069141462,-0.278191626,0.061560292
1.76966E+18,4.662878418,-1.633411349,-0.480011129,-0.580595802,0.114113465,-0.231118947,0.087766863
1.76966E+18,4.672866455,-1.498733707,-0.434112133,-0.525649137,0.163022876,-0.177023128,0.104155689
1.76966E+18,4.682854736,-1.339265321,-0.414054848,-0.503517093,0.21565412,-0.12505579,0.113589138
1.76966E+18,4.692842529,-1.205452771,-0.304538827,-0.369451006,0.269669235,-0.103979126,0.11844568
1.76966E+18,4.702830566,-1.086133149,-0.063238254,-0.261449627,0.32754612,-0.102093875,0.123547763
1.76966E+18,4.712818604,-1.056909392,0.265345465,-0.103741383,0.373344153,-0.095980652,0.122270957
1.76966E+18,4.722806641,-1.130878299,0.654653411,0.034787236,0.397143513,-0.08924152,0.126275018
1.76966E+18,4.732794678,-1.352219203,0.915789734,0.067337798,0.4049308,-0.061250176,0.144288108
1.76966E+18,4.742782715,-1.59497582,0.981439725,0.033454234,0.40038985,-0.043744951,0.152503431
1.76966E+18,4.752770508,-1.598521384,1.009561073,-0.043546589,0.384704947,-0.027087605,0.152145773
1.76966E+18,4.762758301,-1.520722251,0.875960997,-0.247982827,0.393592715,-0.015907921,0.171730652
1.76966E+18,4.772746582,-1.48602357,0.896598711,-0.169844087,0.42490077,-0.026190365,0.227677464
1.76966E+18,4.782734619,-1.439577023,1.192171557,-0.051619713,0.440885067,-0.035242185,0.296094596
1.76966E+18,4.792722412,-1.064913543,1.721340393,-0.196925571,0.455751687,-0.004871862,0.344988525
1.76966E+18,4.802710449,-0.545452593,2.134602629,-0.125093676,0.488810033,0.101306774,0.36914286
1.76966E+18,4.81269873,-0.195343416,2.295581711,0.326110169,0.541135371,0.257692516,0.324964613
1.76966E+18,4.822686768,0.292605813,2.403824644,0.586056114,0.536373913,0.378876984,0.192610815
1.76966E+18,4.832674561,1.227665187,2.391870587,0.25181656,0.446240425,0.483493567,0.030389506
1.76966E+18,4.842662109,1.661202881,1.592560868,-0.110927203,0.321440965,0.543106556,-0.090478852
1.76966E+18,4.852650146,1.51655724,0.319794264,-0.292077113,0.219925836,0.512628675,-0.117692374
1.76966E+18,4.862638428,1.013356666,-1.080695634,-0.269975463,0.144049183,0.352947086,-0.046384905
1.76966E+18,4.872626221,0.650255176,-2.432195583,-0.402203083,0.089198411,0.16179125,-0.002021519
1.76966E+18,4.882614258,1.177808685,-2.798130836,-0.393328579,0.098506697,-0.032291137,-0.024655459
1.76966E+18,4.892602051,2.045412772,-2.481428693,0.114740478,0.161153987,-0.168462157,-0.146656021
1.76966E+18,4.902590088,3.247242385,-1.739304504,0.692020726,0.19965291,-0.311246455,-0.36636281
1.76966E+18,4.912578125,4.518665173,-0.653721098,0.944576122,0.184263796,-0.46063602,-0.588216901
1.76966E+18,4.922566162,4.977554604,0.432574255,0.963965005,0.197342843,-0.551279902,-0.718783438
1.76966E+18,4.932554199,4.368226774,1.315240887,1.317623837,0.093172573,-0.579780519,-0.760453045
1.76966E+18,4.942541992,3.482837439,2.184237306,0.658461425,-0.09459307,-0.507905245,-0.695153713
1.76966E+18,4.952530273,2.186560488,2.750137497,0.198623753,-0.237349495,-0.555265963,-0.521118999
1.76966E+18,4.962519287,1.072727431,3.144592742,-0.113173667,-0.3132267,-0.686682582,-0.23756054
1.76966E+18,4.97250708,-0.17492782,3.026249856,-0.093183311,-0.319413602,-0.738871694,0.07600484
1.76966E+18,4.982494873,-1.089815344,2.707075185,0.301271496,-0.308394223,-0.733594894,0.348191887
1.76966E+18,4.992483154,-1.400997263,2.31430687,0.356501946,-0.272994131,-0.709866643,0.511345208
1.76966E+18,5.002471191,-1.269748718,1.768949116,0.379187241,-0.215601936,-0.651355684,0.53887403
1.76966E+18,5.012459229,-0.841780641,1.134962062,0.442670556,-0.167874172,-0.5530141,0.454286158
1.76966E+18,5.022447021,-0.401338282,0.361471259,0.214599467,-0.132055178,-0.4334912,0.309028059
1.76966E+18,5.032435303,-0.088655312,-0.210838799,0.028263971,-0.106153846,-0.327872694,0.203581795
1.76966E+18,5.04242334,-0.106771983,-0.70070263,-0.122573217,-0.077530988,-0.212564215,0.139943421
1.76966E+18,5.052411133,0.040694998,-0.938377998,-0.262787013,-0.042188261,-0.098909773,0.114109784
1.76966E+18,5.06239917,0.203894825,-1.113132507,-0.226460585,-0.025844704,-0.040578026,0.119131438
1.76966E+18,5.072387207,0.387197821,-1.352901633,-0.287704012,-0.053416565,-0.285793692,0.154999688
1.76966E+18,5.082375488,0.8386194,-1.622261594,-0.150300744,-0.077163704,-0.485151291,0.189357132
1.76966E+18,5.092363037,0.76937343,-1.952432875,0.364850819,-0.130003631,-0.494219452,0.209329873
1.76966E+18,5.102351074,0.523418017,-2.201308852,0.467624234,-0.20622915,-0.461348057,0.207208395
1.76966E+18,5.112339111,0.565653085,-2.353351179,0.338345966,-0.274112046,-0.445541322,0.183750466
1.76966E+18,5.122327148,0.439679704,-2.507587801,0.485871692,-0.278212249,-0.437004834,0.184778452
1.76966E+18,5.132315186,0.168716398,-2.559308636,0.710099988,-0.273848027,-0.441150248,0.209389076
1.76966E+18,5.142303223,-0.122312374,-2.559474055,0.63325421,-0.268346727,-0.476594269,0.216225952
1.76966E+18,5.152291016,-0.252313258,-2.575724933,0.684185064,-0.255442649,-0.426555067,0.206414863
1.76966E+18,5.162279053,-0.415628674,-2.424189971,0.692882896,-0.227598786,-0.35181877,0.193784282
1.76966E+18,5.172267334,-0.585809884,-2.296328146,0.714865157,-0.199624866,-0.304100066,0.153863236
1.76966E+18,5.182255371,-0.667512454,-2.182578433,0.741955116,-0.177724898,-0.227092922,0.094682999
1.76966E+18,5.192243164,-0.641175213,-1.84770175,0.744207279,-0.15523991,-0.132498503,0.037905835
1.76966E+18,5.202231201,-0.600244359,-1.481629135,0.715056587,-0.133772701,-0.074336655,0.038373485
1.76966E+18,5.212219238,-0.810823046,-1.26553373,0.627334611,-0.10651353,-0.030264225,0.095029213
1.76966E+18,5.222207031,-1.007898255,-1.02730482,0.614108342,-0.076762564,0.012077108,0.194697753
1.76966E+18,5.232195068,-1.034642323,-0.764268216,0.635829468,-0.051928505,0.026476882,0.303905815
1.76966E+18,5.242183105,-0.905615107,-0.551779312,0.657393941,-0.035041135,0.028171984,0.404633492
1.76966E+18,5.252171143,-0.702343967,-0.391054497,0.709061293,-0.018955411,0.030487362,0.473120064
1.76966E+18,5.26215918,-0.461575893,-0.263436417,0.835000333,-0.002368712,0.03508158,0.516379356
1.76966E+18,5.272147217,-0.342349941,-0.171760588,0.987819782,0.024702927,0.006320913,0.545341253
1.76966E+18,5.282135254,-0.362878203,-0.143892338,1.2132538,0.053160138,-0.050485112,0.569798112
1.76966E+18,5.292123047,-0.592901742,-0.091240944,1.421796451,0.075370818,-0.064270675,0.579562664
1.76966E+18,5.302111328,-0.663530691,0.149106273,1.532736222,0.074034445,0.000409523,0.578052163
1.76966E+18,5.312099365,-0.498116841,0.729621265,1.453294729,0.058406033,0.059315182,0.518206298
1.76966E+18,5.322087402,0.334506826,1.593611254,1.151736086,0.049896434,0.039023492,0.321017087
1.76966E+18,5.332075928,1.735268965,2.595087805,0.717048054,0.029890768,0.048952457,0.027953601
1.76966E+18,5.342064209,2.636862416,3.389038043,0.36389381,0.018041031,0.102757625,-0.286400348
1.76966E+18,5.352052246,2.90373056,3.925000776,0.100761052,-0.000315261,0.156056702,-0.530426562
1.76966E+18,5.362040283,2.333316691,3.99336178,0.034008799,-0.019826377,0.180509314,-0.572912276
1.76966E+18,5.372028076,0.571752424,3.059664634,-0.158892923,-0.05962272,0.201726586,-0.463110149
1.76966E+18,5.382016357,-0.91839261,1.676601087,-0.622677141,-0.150561944,0.205823317,-0.373663336
1.76966E+18,5.392004395,-0.932448169,0.129100427,-1.652563648,-0.246590406,0.23300229,-0.40273726
1.76966E+18,5.401992188,-0.076289605,-1.236750119,-2.509029816,-0.308202893,0.212268248,-0.541357994
1.76966E+18,5.411980225,1.072075105,-2.041184926,-3.065671181,-0.285587847,0.058458075,-0.666076005
1.76966E+18,5.421968018,1.870349343,-2.393731705,-3.242794173,-0.318548441,-0.135855481,-0.774959087
1.76966E+18,5.431956299,2.482787414,-2.337472057,-4.148009321,-0.353498191,-0.204013661,-0.841542721
1.76966E+18,5.441944092,2.796201037,-1.612857222,-4.480596724,-0.319364429,-0.129531711,-0.812883914
1.76966E+18,5.451932129,2.794579573,-0.257334593,-4.078830863,-0.202424616,0.153087229,-0.678001523
1.76966E+18,5.461920166,2.465608023,1.354462891,-3.557856148,0.05046517,0.542034447,-0.395176977
1.76966E+18,5.471908203,1.587583956,2.93381824,-2.390299977,0.346470475,0.955985725,0.01909646
1.76966E+18,5.48189624,0.136304952,4.158513764,-1.44247669,0.630627394,1.367117882,0.469484657
1.76966E+18,5.491884277,-1.209259616,4.668113976,-0.555429212,0.820700645,1.741419911,0.863791764
1.76966E+18,5.50187207,-1.926406161,4.190044628,0.028273324,0.914797306,1.972210169,1.111761689
1.76966E+18,5.511860107,-1.82038485,3.180875185,0.27434871,0.901480436,1.935741544,1.157795429
1.76966E+18,5.521848389,-1.142129761,1.767720451,0.259630887,0.808476746,1.784152627,1.02699399
1.76966E+18,5.531836182,-0.707621761,0.612917379,0.387117888,0.727906823,1.669245005,0.80136025
1.76966E+18,5.541823975,-0.460916261,0.031534371,0.864730285,0.641514719,1.467318535,0.55231154
1.76966E+18,5.551812012,-0.214286602,-0.412663686,1.032090593,0.521939218,1.16420126,0.293144792
1.76966E+18,5.561800293,0.209600197,-0.700160193,0.822543587,0.402713776,0.935430348,0.021298362
1.76966E+18,5.571788086,0.736060359,-0.353470908,0.622831454,0.312504202,0.652669728,-0.190916434
1.76966E+18,5.581776123,0.755047968,-0.180050278,0.136407974,0.185591251,0.464175463,-0.332881808
1.76966E+18,5.59176416,0.384749843,-0.009819968,-0.440023695,0.076907277,0.403455585,-0.337266892
1.76966E+18,5.601752441,-0.389111546,0.122485977,-0.590750263,-0.003536433,0.41688776,-0.214525267
1.76966E+18,5.611740234,-1.062298392,0.050825932,-0.920169556,-0.021471411,0.426314831,-0.031057529
1.76966E+18,5.621728271,-1.4108184,-0.217543265,-1.16936965,0.007918434,0.363373965,0.131860554
1.76966E+18,5.631716309,-1.381764447,-0.64090078,-1.503927622,0.063470453,0.366166919,0.236454606
1.76966E+18,5.641704102,-1.307553255,-0.973659154,-1.67587175,0.139306888,0.437330306,0.307590306
1.76966E+18,5.651692383,-1.336637019,-1.352138832,-1.683068384,0.208286002,0.483902156,0.318090618
1.76966E+18,5.661680176,-1.153466271,-1.689981962,-1.703952182,0.243056491,0.503782868,0.262802601
1.76966E+18,5.671668213,-1.035476144,-1.955688662,-1.514125337,0.261911601,0.51023519,0.204095781
1.76966E+18,5.681656006,-1.146582941,-2.060565333,-1.159713641,0.264335066,0.490790635,0.141604438
1.76966E+18,5.691644043,-1.182337853,-2.037159323,-0.951588046,0.256792843,0.461373746,0.09370172
1.76966E+18,5.701632324,-1.273098174,-1.961870566,-0.723572048,0.249287784,0.421986669,0.099844567
1.76966E+18,5.711621338,-1.502898133,-1.721999149,-0.570861467,0.237114564,0.375623316,0.155660957
1.76966E+18,5.721609131,-1.702611727,-1.499706059,-0.520374412,0.236357957,0.314076871,0.244664341
1.76966E+18,5.731597412,-1.693069992,-1.286166184,-0.433635601,0.240418524,0.253519088,0.329760343
1.76966E+18,5.741585205,-1.480946706,-1.205838263,-0.359284855,0.25754106,0.190808833,0.377319604
1.76966E+18,5.751572998,-1.093324814,-1.233844461,-0.392130894,0.283274382,0.155159026,0.38396728
1.76966E+18,5.761561035,-0.730698978,-1.249898939,-0.488409248,0.312156886,0.136542723,0.361452103
1.76966E+18,5.771549072,-0.375766765,-1.156743101,-0.672413085,0.351668686,0.129243955,0.317688912
1.76966E+18,5.781537354,-0.166211284,-0.963707085,-0.745190591,0.390481323,0.11163035,0.306322545
1.76966E+18,5.791525146,-0.341883346,-0.704818833,-0.701526805,0.437583923,0.093590066,0.332903743
1.76966E+18,5.801513184,-0.714499684,-0.24772856,-0.518344952,0.487945914,0.09376663,0.38168779
1.76966E+18,5.811501221,-0.973150913,0.412760132,-0.240984054,0.53288883,0.092125423,0.419876546
1.76966E+18,5.821489258,-0.966306015,1.220517946,0.017926994,0.562902927,0.133555695,0.413364828
1.76966E+18,5.831477295,-0.672836133,2.088660963,0.294792509,0.564590693,0.268298805,0.335320383
1.76966E+18,5.841465332,-0.171695122,2.869902525,0.539505813,0.535070062,0.334136963,0.218715206
1.76966E+18,5.851453613,0.418494,3.285094853,0.787914757,0.580499828,0.328411371,0.138292968
1.76966E+18,5.861441895,0.631375849,3.032973611,1.554750485,0.569171011,0.416779041,0.027522525
1.76966E+18,5.871429932,0.651435471,2.690119958,1.619334601,0.444885284,0.388995349,-0.05316798
1.76966E+18,5.881417725,0.620238661,1.918624714,0.874753082,0.288915396,0.252795964,-0.042671129
1.76966E+18,5.891405762,0.176628633,0.489535329,0.524301522,0.155843154,-0.045300126,0.040986486
1.76966E+18,5.901393799,-0.17343802,-1.419829974,0.235467629,0.012730459,-0.422322512,0.122486398
1.76966E+18,5.911381836,-0.111325555,-3.089760497,-0.320460619,-0.09354382,-0.675314903,0.07562995
1.76966E+18,5.921369873,0.798964266,-3.262927445,-0.430270655,-0.149108276,-0.761577845,-0.062910616
1.76966E+18,5.93135791,1.724973196,-2.617678992,-0.401415147,-0.175846606,-0.709311008,-0.27970019
1.76966E+18,5.941345703,2.727807007,-1.649778547,-0.427279656,-0.159690008,-0.570610166,-0.557937384
1.76966E+18,5.951333984,3.64936305,-0.39700376,-0.418413336,-0.141296163,-0.403112471,-0.818889797
1.76966E+18,5.961321777,4.040983363,0.780782713,-0.574214431,-0.124097206,-0.248513326,-0.977083206
1.76966E+18,5.971309814,3.905395328,1.833548722,-0.814291015,-0.087787017,-0.140912861,-0.965904832
1.76966E+18,5.981297607,3.203950355,2.540996149,-0.820907803,-0.037208792,-0.199044064,-0.821824372
1.76966E+18,5.991285645,2.274052017,2.78795957,-0.714713619,-0.016403686,-0.152228981,-0.543455601
1.76966E+18,6.001273926,1.045693294,2.74815889,-0.61607292,0.006443839,-0.002954812,-0.16837357
1.76966E+18,6.011261719,-0.185854288,2.469381697,-0.223295545,0.016361261,0.064226516,0.197160736
1.76966E+18,6.021249756,-0.597288578,2.094182941,-0.018800562,0.003954659,-0.019327767,0.417134643
1.76966E+18,6.031237793,-0.290533975,1.563122592,0.058132748,-0.034757469,-0.138801306,0.508612692
1.76966E+18,6.041226074,-0.272770501,0.973524714,0.296752703,-0.098698899,-0.141197875,0.483752668
1.76966E+18,6.051213867,-0.392744788,0.539914102,0.469274924,-0.176524907,-0.157294974,0.386707395
1.76966E+18,6.061202637,-0.392673622,0.269427766,0.404162108,-0.240285516,-0.205211103,0.23069036
1.76966E+18,6.071190674,-0.240135621,0.042196051,0.405802276,-0.290252656,-0.221093044,0.003191618
1.76966E+18,6.081178955,0.059810764,-0.188084531,0.373402812,-0.310457796,-0.141564667,-0.21859777
1.76966E+18,6.091166748,0.032103257,-0.514843958,0.376139836,-0.300683379,-0.032129545,-0.370118946
1.76966E+18,6.101154785,-0.279155964,-1.096536177,0.399297424,-0.270224273,0.051562954,-0.477367371
1.76966E+18,6.111142822,-0.238935013,-1.439266495,0.271712955,-0.212154284,0.106817052,-0.506708562
1.76966E+18,6.121130859,-0.467691454,-1.769208644,0.322200156,-0.157711282,0.170031711,-0.488111734
1.76966E+18,6.131118896,-0.498892063,-2.006250975,0.158124862,-0.102920771,0.225355163,-0.481315941
1.76966E+18,6.141106934,-0.216433404,-1.968809425,0.101928927,-0.042818554,0.269329518,-0.492238611
1.76966E+18,6.151094971,-0.050090165,-1.962711693,0.210443662,0.032022282,0.326632023,-0.50971669
1.76966E+18,6.161082764,0.013980302,-1.842651481,0.359191332,0.062812954,0.39461267,-0.489131242
1.76966E+18,6.171070801,-0.120851947,-1.731203031,0.212145498,0.071412377,0.460535496,-0.404687315
1.76966E+18,6.181058838,-0.317447409,-1.579352427,0.105040337,0.082290851,0.512678266,-0.272841662
1.76966E+18,6.191046631,-0.380862919,-1.348768478,0.137848382,0.107059434,0.551111639,-0.123901173
1.76966E+18,6.201034668,-0.313145035,-1.19216162,0.249237211,0.140668258,0.575622618,0.022210225
1.76966E+18,6.211022949,-0.238256383,-1.125806111,0.365395155,0.175481141,0.607152879,0.160595804
1.76966E+18,6.221010742,-0.236049521,-1.158938565,0.488864006,0.208711535,0.66371125,0.29927057
1.76966E+18,6.230998779,-0.278247909,-1.145959256,0.610460925,0.243593544,0.681213319,0.40047586
1.76966E+18,6.240986816,-0.14553689,-1.086695751,0.774725605,0.276436985,0.65034622,0.452354491
1.76966E+18,6.250975098,-0.021892829,-1.027687097,0.944993324,0.303767294,0.623231292,0.506101608
1.76966E+18,6.260962891,-0.191387664,-1.02561789,1.093697739,0.324145257,0.617547274,0.555638552
1.76966E+18,6.270950928,-0.394232396,-0.98013215,1.27412854,0.335183501,0.584993184,0.59873867
1.76966E+18,6.280938721,-0.555552254,-0.909099881,1.491156257,0.334154189,0.502896488,0.628785551
1.76966E+18,6.290926514,-0.679711572,-0.84307638,1.620488739,0.300900072,0.412421852,0.622779548
1.76966E+18,6.300914795,-0.545099395,-0.698992903,1.620899658,0.226562425,0.309952468,0.580180943
1.76966E+18,6.310902832,-0.258880215,-0.611342677,1.427080675,0.132416442,0.234618321,0.504386246
1.76966E+18,6.320890869,0.468522644,-0.089290979,1.155346093,0.044086862,0.156935245,0.382830024
1.76966E+18,6.330878662,1.716198354,1.063276882,0.822981102,-0.031979755,0.073720284,0.259858638
1.76966E+18,6.340866699,2.446567807,1.643963139,0.524290708,-0.057166599,0.041794311,0.152921811
1.76966E+18,6.35085498,2.503827864,1.403968972,0.342511415,-0.046057604,0.066730484,0.052481316
1.76966E+18,6.360842773,2.168638462,0.819452928,-0.061544018,-0.011971805,0.074044593,-0.030902788
1.76966E+18,6.370830811,1.653999379,0.325590968,-0.435157842,-0.047236852,0.056464005,-0.093291871
1.76966E+18,6.380818848,1.122193035,0.04043664,-1.140406006,-0.155550808,0.040919401,-0.124150187
1.76966E+18,6.390807129,0.545632479,-0.273995805,-1.82111448,-0.268787622,0.006216477,-0.147054076
1.76966E+18,6.400794922,0.324298443,-0.483527613,-2.252560316,-0.345050424,-0.078371912,-0.180666625
1.76966E+18,6.410782715,0.563315728,-0.237132347,-2.617440799,-0.353722751,-0.178678572,-0.181933224
1.76966E+18,6.420771729,0.627573388,0.473233014,-2.668647255,-0.276941955,-0.169418216,-0.048344549
1.76966E+18,6.43076001,-0.002518413,1.450772224,-2.471728844,-0.100915603,0.036452681,0.191841245
1.76966E+18,6.440747803,-0.643089522,2.83109787,-1.931431588,0.169825092,0.383054852,0.508948326
1.76966E+18,6.45073584,-1.172806639,4.392487355,-1.137182076,0.465959251,0.796366155,0.858077407
1.76966E+18,6.460723877,-1.785997428,5.579126413,-0.355407137,0.710620165,1.088879585,1.080480814
1.76966E+18,6.470711914,-1.962574476,5.533556501,0.369821154,0.853727162,1.216678381,1.200577259
1.76966E+18,6.480699951,-1.952191906,4.273136169,0.8952245,0.85978049,1.181114078,1.171381235
1.76966E+18,6.490687744,-1.438744663,2.787812271,1.217479601,0.707454383,0.906315207,1.014373183
1.76966E+18,6.500675781,-0.818545603,1.301218792,1.494798121,0.408034682,0.713490367,0.674419701
1.76966E+18,6.510663574,0.320695597,-0.354516033,0.849077958,0.099472508,0.679067373,0.236217231
1.76966E+18,6.520651855,1.333790982,-1.477887026,0.337851022,-0.050120447,0.597671866,-0.201322556
1.76966E+18,6.530639893,1.930533032,-1.412901636,0.447342785,-0.050491121,0.41806221,-0.525281966
1.76966E+18,6.540627686,1.819911388,-0.879421951,0.813218417,0.048918024,0.226483986,-0.67601347
1.76966E+18,6.550615723,1.194349778,-0.462376104,0.925977366,0.133438304,0.098549433,-0.65222007
1.76966E+18,6.560604004,0.343348158,-0.136678753,0.538514756,0.164028972,-0.010065991,-0.516817749
1.76966E+18,6.570591797,-0.295783274,-0.024932781,0.071883041,0.11695715,-0.065289564,-0.36612767
1.76966E+18,6.580579834,-0.459996661,0.157353293,-0.427625109,0.031064615,-0.029402399,-0.205037057
1.76966E+18,6.590567871,-0.815767663,-0.199463419,-0.772644122,-0.089251071,0.099538833,-0.076984175
1.76966E+18,6.600556152,-0.82862656,-0.489531822,-1.307745271,-0.179129824,0.123880394,-0.0041627
1.76966E+18,6.610543701,-0.437074928,-0.376729619,-1.395016143,-0.196411073,-0.015324594,0.063751087
1.76966E+18,6.620531738,-0.375510014,-0.682969989,-1.35111358,-0.168466255,-0.227878675,0.108067684
1.76966E+18,6.630519775,-0.419828463,-1.048195632,-1.368178697,-0.131924003,-0.360376775,0.096785657
1.76966E+18,6.640507568,-0.608910773,-1.296750122,-1.226428631,-0.111433111,-0.312823117,0.048303876
1.76966E+18,6.65049585,-1.035878441,-1.353618256,-0.91341073,-0.109266818,-0.285105199,0.05528225
1.76966E+18,6.660483887,-1.423739694,-1.345492233,-0.714387748,-0.124976806,-0.32994324,0.049385212
1.76966E+18,6.670471924,-1.421795721,-1.386089032,-0.630123073,-0.138815418,-0.353463084,0.01092339
1.76966E+18,6.680459717,-1.303697895,-1.547613473,-0.541377744,-0.133107468,-0.32841152,-0.023928333
1.76966E+18,6.690447754,-1.298890495,-1.726080281,-0.515713434,-0.111540437,-0.316868842,-0.058028329
1.76966E+18,6.700436035,-1.205778642,-1.746803335,-0.550434327,-0.076892182,-0.299293846,-0.069600828
1.76966E+18,6.710423828,-1.196775982,-1.621980439,-0.456528547,-0.042221773,-0.276295573,-0.039962962
1.76966E+18,6.720411865,-1.235660424,-1.54380239,-0.415332321,-0.00549705,-0.266810745,0.003551493
1.76966E+18,6.730399658,-1.117875756,-1.527539238,-0.403090679,0.031495132,-0.270398945,0.0430049
1.76966E+18,6.740387939,-0.910534444,-1.415287069,-0.419066247,0.061640516,-0.300478816,0.075411581
1.76966E+18,6.750375732,-0.744227591,-1.279808924,-0.399409945,0.092230231,-0.338485628,0.112693697
1.76966E+18,6.76036377,-0.827112356,-1.236368426,-0.305882643,0.125745058,-0.386853158,0.176764295
1.76966E+18,6.770352783,-1.100591444,-1.307836164,-0.18500527,0.163007915,-0.459017158,0.240409762
1.76966E+18,6.780341064,-1.186746463,-1.22339847,-0.075598554,0.223281905,-0.527625799,0.292547792
1.76966E+18,6.790328857,-1.214520605,-0.989018636,0.236622352,0.287472218,-0.547192812,0.311778486
1.76966E+18,6.800316895,-1.147122017,-0.768446963,0.48989481,0.330320626,-0.497187406,0.280658394
1.76966E+18,6.810304688,-0.897483093,-0.484134347,0.616880437,0.354735494,-0.396909833,0.195952192
1.76966E+18,6.820292725,-0.50521396,0.077676529,0.760672822,0.34649834,-0.425100207,0.12346255
1.76966E+18,6.830280762,0.068010291,0.671896222,0.842040899,0.311586827,-0.760728955,0.078462735
1.76966E+18,6.840268799,1.1823814,1.087501222,0.884895706,0.279979378,-0.86197114,-0.119797356
1.76966E+18,6.850256348,2.055827783,1.75122992,1.553099211,0.305401236,-0.576136649,-0.441128314
1.76966E+18,6.860244385,2.706436887,2.875826654,2.377088613,0.283793956,-0.365177542,-0.72045207
1.76966E+18,6.870232666,2.6315269,2.93086582,2.152289385,0.191074222,-0.363726586,-0.902111828
1.76966E+18,6.880220459,2.347706305,2.457815177,1.475779824,0.043468248,-0.497134179,-0.960431337
1.76966E+18,6.890208496,1.937041099,1.646519837,0.750969758,-0.096706055,-0.693120003,-0.902589321
1.76966E+18,6.900196533,1.260407912,0.523217234,0.563980329,-0.174628556,-1.025028467,-0.66952014
1.76966E+18,6.910184326,-0.004526538,-1.021515715,0.7983701,-0.278027594,-1.36582768,-0.446108669
1.76966E+18,6.920172607,-0.392305227,-1.603925143,0.582821516,-0.347289503,-1.573783278,-0.363050818
1.76966E+18,6.930160645,0.119476128,-1.364765089,0.72197718,-0.420853883,-1.526516557,-0.352898151
1.76966E+18,6.940148438,0.390420875,-1.440749427,0.575210748,-0.460067332,-1.310420513,-0.434238553
1.76966E+18,6.95013623,1.085658079,-1.200613807,0.469620084,-0.440457135,-1.097523093,-0.614343047
1.76966E+18,6.960124512,2.269551344,-0.583834492,0.516833378,-0.38958624,-0.99613452,-0.856872082
1.76966E+18,6.970112549,3.255060949,0.120180623,0.499811808,-0.352430731,-0.960341752,-1.048617363
1.76966E+18,6.980100342,3.48645563,0.659162412,0.497892531,-0.330753386,-0.949157238,-1.104898453
1.76966E+18,6.990088379,2.981723316,0.999080011,0.51872343,-0.328195244,-0.998912096,-1.08286643
1.76966E+18,7.00007666,2.568207105,1.424411456,0.488114356,-0.372311831,-1.035691142,-1.009108663
1.76966E+18,7.010064453,2.118060952,1.526170872,0.191376266,-0.379271179,-0.946202397,-0.793438792
1.76966E+18,7.02005249,1.208189503,1.406967569,0.126507196,-0.359669775,-0.850346744,-0.498991728
1.76966E+18,7.030040527,0.640288639,1.138091592,0.100782387,-0.342183083,-0.86209327,-0.176386654
1.76966E+18,7.040028564,0.220769242,0.525588639,0.092066874,-0.348430067,-0.917026818,0.053959459
1.76966E+18,7.050016602,0.108988783,-0.018946693,0.292633578,-0.36892271,-0.929372728,0.153723061
1.76966E+18,7.060004639,0.029100861,-0.641064446,0.59539049,-0.401305676,-0.975110352,0.170433059
1.76966E+18,7.069992432,-0.12365093,-1.280983228,0.643439358,-0.42114383,-1.086933255,0.116570905
1.76966E+18,7.079980225,-0.150703626,-1.752068709,0.73823215,-0.432302475,-1.171352029,0.001705041
1.76966E+18,7.089968506,-0.220264361,-1.993544053,0.781215551,-0.43527475,-1.2020154,-0.111267954
1.76966E+18,7.099956543,-0.461482516,-2.114386355,0.850887054,-0.44855538,-1.146071672,-0.227695495
1.76966E+18,7.10994458,-0.522263148,-2.134122737,0.87326109,-0.447328299,-1.032973886,-0.323191911
1.76966E+18,7.11993335,-0.506166584,-2.00842715,0.907774185,-0.441011548,-0.936974645,-0.381348431
1.76966E+18,7.129921631,-0.456208814,-1.944714848,0.850819833,-0.444643289,-0.899373829,-0.410037249
1.76966E+18,7.139909668,-0.258278011,-1.89525962,0.722653472,-0.451034337,-0.876444757,-0.408760518
1.76966E+18,7.149897461,-0.135590374,-1.828482671,0.719218529,-0.453977436,-0.85300833,-0.384009004
1.76966E+18,7.159885254,-0.0252946,-1.77748372,0.769494426,-0.453907669,-0.84597677,-0.342011243
1.76966E+18,7.169873291,0.133906805,-1.723377452,0.790794112,-0.453991294,-0.853167057,-0.278524131
1.76966E+18,7.179861572,0.156877638,-1.607890539,0.879259454,-0.452838421,-0.86775291,-0.199262857
1.76966E+18,7.189849365,0.126717331,-1.471450855,0.950544236,-0.455966234,-0.865035415,-0.102897085
1.76966E+18,7.199837402,0.049441053,-1.359651107,1.084102812,-0.450328588,-0.847589552,-0.004049607
1.76966E+18,7.209825439,-0.078020813,-1.291507545,1.279255674,-0.444018781,-0.798083663,0.093216047
1.76966E+18,7.219813721,-0.194199068,-1.192404197,1.417275028,-0.444736511,-0.7422598,0.161911219
1.76966E+18,7.229801514,-0.170527101,-1.133916352,1.444797242,-0.448134422,-0.728940308,0.18406792
1.76966E+18,7.239789551,-0.030799481,-1.126800382,1.404851016,-0.466311842,-0.706167042,0.167621836
1.76966E+18,7.249777588,0.054461074,-1.111855327,1.300447515,-0.488039881,-0.689805031,0.107517399
1.76966E+18,7.259765625,0.265562323,-1.074471645,1.126708905,-0.507112622,-0.66475904,0.013864145
1.76966E+18,7.269753418,0.575640664,-0.891335676,0.951841583,-0.522746384,-0.645435929,-0.094354928
1.76966E+18,7.279741455,0.842660785,-0.633777211,0.801705674,-0.529958785,-0.613436162,-0.171406031
1.76966E+18,7.289729248,0.973827351,-0.301035787,0.684280779,-0.52454716,-0.566166222,-0.208695337
1.76966E+18,7.299717285,1.027727283,0.105615507,0.617477526,-0.496341616,-0.497808754,-0.189738423
1.76966E+18,7.309705566,0.901744403,0.445333784,0.649794134,-0.433392227,-0.41868189,-0.096013889
1.76966E+18,7.319693604,0.588932546,0.725982617,0.764549663,-0.320045441,-0.309313595,0.060272921
1.76966E+18,7.329681396,0.158951229,1.110337908,1.149538284,-0.1570687,-0.143105716,0.269954383
1.76966E+18,7.339669434,-0.391744232,1.422048819,1.625170029,-0.002764072,0.070102699,0.47089389
1.76966E+18,7.349657715,-0.714437871,1.662893464,1.868470105,0.112563811,0.30193913,0.603859067
1.76966E+18,7.359645508,-0.648342474,1.860889733,1.91281442,0.215721622,0.393260777,0.632529616
1.76966E+18,7.369633545,-0.17068989,2.218405533,2.185595588,0.252598882,0.398438245,0.529291153
1.76966E+18,7.379621582,0.606829729,2.643026199,2.19982402,0.23891902,0.362975866,0.379216731
1.76966E+18,7.389609375,0.815617149,2.652821032,2.181406758,0.209002882,0.310632914,0.229489028
1.76966E+18,7.399597412,0.894921864,2.559067813,2.027049579,0.156899735,0.211207792,0.06574589
1.76966E+18,7.409585449,1.046422631,2.285801491,1.405509187,0.057704706,0.040018648,-0.160706595
1.76966E+18,7.419573486,1.342352035,2.041506413,0.719081459,-0.060264807,-0.109721571,-0.392315865
1.76966E+18,7.429561279,1.274941756,1.702062861,-0.058844257,-0.133550465,-0.131376982,-0.568095744
1.76966E+18,7.439549561,0.91038013,1.58642105,-0.514945226,-0.207637742,-0.134504065,-0.677481353
1.76966E+18,7.449537598,0.883300254,1.558791285,-1.276177289,-0.260755092,-0.176595375,-0.738579452
1.76966E+18,7.459525635,1.168271188,1.307736795,-2.015908153,-0.345841497,-0.242034838,-0.779268563
1.76966E+18,7.469514404,1.536457726,0.964959131,-3.022840339,-0.471016556,-0.223497927,-0.804844618
1.76966E+18,7.479502441,1.660860497,0.66716744,-3.990007209,-0.559784234,-0.062128473,-0.791386068
1.76966E+18,7.489490479,1.653630108,0.411136331,-4.461262201,-0.618719459,0.186220929,-0.75174123
1.76966E+18,7.499478516,1.753191867,0.217799286,-4.874918697,-0.676117778,0.517384231,-0.683260977
1.76966E+18,7.509466309,1.726213406,0.205310391,-5.457091686,-0.643217981,0.721679688,-0.560933173
1.76966E+18,7.519454346,1.523578225,0.492115409,-5.363344896,-0.512405336,0.777239621,-0.326417625
1.76966E+18,7.529442627,1.026813237,1.079941601,-5.021757318,-0.294126838,0.788772464,0.015211252
1.76966E+18,7.53943042,0.285474646,1.884360625,-4.620369644,-0.041173935,0.908753693,0.388274819
1.76966E+18,7.549418457,-0.488744179,2.578042562,-3.899772812,0.204543799,1.285664797,0.748187959
1.76966E+18,7.559406494,-1.292211602,2.548261757,-2.841950981,0.424980015,1.757179618,0.966162086
1.76966E+18,7.569394775,-1.321463415,1.893123193,-2.01047473,0.588866591,2.094895363,1.004327655
1.76966E+18,7.579382568,-0.909869112,0.883211991,-1.416043002,0.707295537,2.244853735,0.954075694
1.76966E+18,7.589370605,-0.706711368,0.074048987,-0.829280348,0.776863039,2.28441906,0.84362179
1.76966E+18,7.599358398,-0.60770169,-0.609304449,-0.282209945,0.722268224,2.246560097,0.709827781
1.76966E+18,7.609346191,-0.740159026,-1.455617326,-0.148407916,0.607110322,2.114872456,0.580915034
1.76966E+18,7.619334473,-0.826568751,-2.07601074,0.039075142,0.488936484,1.932906985,0.463849425
1.76966E+18,7.62932251,-0.703141109,-2.398225509,0.273391263,0.411178142,1.609709382,0.324730843
1.76966E+18,7.639310303,-0.457334457,-2.706597631,0.204263659,0.358209729,1.320424318,0.187267005
1.76966E+18,7.64929834,-0.317716873,-3.080815559,-0.228266173,0.264494956,1.162081599,0.065197192
1.76966E+18,7.659286621,-0.274783886,-3.410027055,-0.849032658,0.186884835,1.064118385,-0.024507925
1.76966E+18,7.669274658,-0.218380739,-3.319832989,-1.212431086,0.166304037,0.944543898,-0.106785133
1.76966E+18,7.679262451,-0.214626063,-2.963075314,-1.385828043,0.18081294,0.825643599,-0.162222564
1.76966E+18,7.689250488,-0.308702377,-2.634791454,-1.786156418,0.205901712,0.775981665,-0.183908686
1.76966E+18,7.69923877,-0.522757946,-2.194543596,-2.063368554,0.251758665,0.786963999,-0.172131926
1.76966E+18,7.709226563,-0.725576666,-1.779833498,-2.175072002,0.31422779,0.817735076,-0.135791391
1.76966E+18,7.719214355,-0.843494605,-1.430591606,-2.214310519,0.404797912,0.835491478,-0.101169236
1.76966E+18,7.729202393,-0.818294405,-1.001003088,-2.170222517,0.50248462,0.874609709,-0.054099366
1.76966E+18,7.73919043,-0.992182361,-0.773355193,-1.986882988,0.595084369,0.993360341,0.001311426
1.76966E+18,7.749178467,-1.379920572,-0.685669896,-1.677203583,0.69327718,1.189058185,0.056783121
1.76966E+18,7.759166504,-1.641734649,-0.511108863,-1.379484811,0.771041214,1.360962868,0.07622046
1.76966E+18,7.769154541,-1.689516098,-0.424445894,-1.212041794,0.828484058,1.360599875,0.137978449
1.76966E+18,7.779142334,-1.765665272,-0.329372824,-0.894931362,0.884603798,1.333873749,0.215332627
1.76966E+18,7.789130615,-1.682160183,-0.443702968,-0.406118649,0.916201591,1.319933891,0.163370267
1.76966E+18,7.799118652,-1.311767366,-0.499035563,-0.125825936,0.924221158,1.322861552,0.093785331
1.76966E+18,7.809106689,-1.527952787,-0.613615298,0.114513391,0.922320545,1.291311383,0.070967712
1.76966E+18,7.819094482,-1.779255114,-0.454133761,0.347526028,0.881689787,1.197164655,0.082716778
1.76966E+18,7.829083496,-1.7712156,-0.38682022,0.357160703,0.831251919,0.964335501,0.027966909
1.76966E+18,7.839071533,-1.50021167,-0.517664276,0.475750257,0.778429151,0.805422306,0.018957967
1.76966E+18,7.849059082,-1.88707193,-0.410003527,0.690426442,0.716166079,0.688471556,0.012413428
1.76966E+18,7.859046875,-2.0828023,-0.242079156,0.822252203,0.663558483,0.574528217,0.015078453
1.76966E+18,7.869034912,-2.090597484,0.108872463,0.990013492,0.616829693,0.511092842,0.034885269
1.76966E+18,7.879023193,-2.128586876,0.471458405,1.038072005,0.584303141,0.473665565,0.056608938
1.76966E+18,7.88901123,-2.01323718,0.737618694,1.021714453,0.577005923,0.474730909,0.034526546
1.76966E+18,7.898999023,-1.845958706,1.010450131,0.95756376,0.597373784,0.480211169,-0.028378915
1.76966E+18,7.908987061,-1.709916789,1.230650048,0.899594678,0.623006999,0.472442448,-0.101547062
1.76966E+18,7.918975342,-1.704355648,1.477986394,0.892637114,0.648182392,0.505047262,-0.131833047
1.76966E+18,7.928963135,-1.862737115,1.910027566,0.998100937,0.675189137,0.577084064,-0.117598012
1.76966E+18,7.938950928,-1.874705639,2.475598671,1.094714222,0.698221743,0.681610763,-0.101617187
1.76966E+18,7.948938965,-1.640586063,3.054044456,1.027565224,0.671185672,0.80730921,-0.120711073
1.76966E+18,7.958927002,-1.067209837,3.341666635,0.716350573,0.640709519,0.915763259,-0.154867977
1.76966E+18,7.968915039,-0.420230322,3.505827854,0.644915276,0.63339752,0.987904072,-0.240358382
1.76966E+18,7.978903076,0.368804963,4.04557186,0.871050428,0.583814263,0.909881949,-0.379423857
1.76966E+18,7.988891113,1.320425596,3.967781933,0.491938591,0.459340006,0.723238111,-0.547283411
1.76966E+18,7.998878906,2.232355732,3.847482068,-0.164862353,0.276864469,0.486492634,-0.663403094
1.76966E+18,8.008867188,2.491595866,3.037044806,-0.967887293,0.13176246,0.257238388,-0.583755851
1.76966E+18,8.018855225,1.700161119,1.309158353,-1.171043429,0.048088871,0.00353714,-0.339865953
1.76966E+18,8.028843262,0.770286453,-0.155687405,-1.136680848,-0.028828206,-0.105426095,-0.177891001
1.76966E+18,8.038831055,1.180768119,-0.336443201,-1.199276713,-0.086216666,-0.093359046,-0.042555016
1.76966E+18,8.048819092,1.200770459,-0.445031586,-0.986958489,-0.13800548,-0.027960369,0.087155491
1.76966E+18,8.058807129,1.150209315,-0.603920418,-0.827981979,-0.178962767,-0.010128909,0.166657239
1.76966E+18,8.068794922,1.393311092,-0.803630505,-0.47929509,-0.187479943,-0.004803885,0.180635899
1.76966E+18,8.078782959,1.877118983,-0.743957834,-0.231738087,-0.168855131,0.027173223,0.142365739
1.76966E+18,8.088770996,2.368663607,-0.512329345,-0.028358664,-0.103703476,0.06073568,0.067255467
1.76966E+18,8.098759033,2.617451905,-0.075208093,0.400329398,-0.039448589,0.022447146,-0.023139678
1.76966E+18,8.10874707,2.431232875,0.533749149,0.744157156,-0.028896878,-0.03182425,-0.053818583
1.76966E+18,8.118735107,1.579426369,0.986731987,0.869580356,-0.061101686,-0.052313011,0.040570237
1.76966E+18,8.128723145,0.363510072,1.28938047,1.067702589,-0.134040609,-0.06301146,0.206478775
1.76966E+18,8.138710938,-0.468042167,1.287598847,1.055514139,-0.196580157,-0.127909243,0.362095267
1.76966E+18,8.148699219,-0.732106653,0.888795344,1.017771268,-0.241938323,-0.244912297,0.45684281
1.76966E+18,8.158687988,-0.622891368,0.380846406,0.87870182,-0.277145565,-0.363217115,0.446866095
1.76966E+18,8.168676025,-0.254902105,-0.086689272,0.735623429,-0.314769685,-0.444255322,0.387489885
1.76966E+18,8.178663818,-0.197935478,-0.549156562,0.518428538,-0.365044296,-0.452182233,0.322883993
1.76966E+18,8.1886521,-0.280176832,-0.876816737,0.239483002,-0.408713073,-0.436483353,0.286018878
1.76966E+18,8.198640137,-0.216171392,-0.93825934,0.002773556,-0.438246727,-0.434055626,0.268728316
1.76966E+18,8.20862793,-0.061541095,-0.842683581,-0.029525954,-0.456094801,-0.446033239,0.268906027
1.76966E+18,8.218615967,-0.02542831,-0.809342452,-0.008680442,-0.46518895,-0.432349652,0.255388886
1.76966E+18,8.228604248,-0.054007192,-0.857695272,0.041491702,-0.469661027,-0.398226023,0.222401723
1.76966E+18,8.238592285,-0.07450316,-1.045293481,0.187277599,-0.451123834,-0.368329376,0.189823538
1.76966E+18,8.248580078,-0.148580058,-1.155215745,0.325885567,-0.418378532,-0.323472649,0.180246562
1.76966E+18,8.258567871,-0.388902287,-1.294419049,0.429804206,-0.392366618,-0.266980082,0.18531163
1.76966E+18,8.268556152,-0.595318886,-1.331315824,0.392999201,-0.377017021,-0.199971288,0.199196458
1.76966E+18,8.278543945,-0.693785105,-1.362780637,0.299926949,-0.385164976,-0.138153717,0.215040669
1.76966E+18,8.288531982,-0.680908088,-1.416959971,0.152847506,-0.391139716,-0.093850538,0.231339216
1.76966E+18,8.29852002,-0.675849343,-1.426169698,0.126622347,-0.391976207,-0.083639979,0.248940572
1.76966E+18,8.308508057,-0.600548457,-1.477078632,0.074651044,-0.389952064,-0.093072429,0.249898076
1.76966E+18,8.318496094,-0.458116693,-1.470301685,0.06451485,-0.374431163,-0.099380925,0.242167979
1.76966E+18,8.328484131,-0.408422688,-1.423004512,0.213816061,-0.364221603,-0.103056617,0.224318758
1.76966E+18,8.338472168,-0.384355876,-1.412378488,0.261114404,-0.358057976,-0.095456757,0.208422616
1.76966E+18,8.348459961,-0.324040377,-1.327726275,0.260230607,-0.351347715,-0.07902512,0.201648504
1.76966E+18,8.358448242,-0.216813344,-1.181994446,0.334471024,-0.352305382,-0.062363055,0.217573687
1.76966E+18,8.368436279,-0.067227908,-0.992671898,0.367360902,-0.358517438,-0.053849723,0.258585125
1.76966E+18,8.378424072,0.06872107,-0.798010327,0.427068936,-0.343800008,-0.049529545,0.334271908
1.76966E+18,8.388411865,0.15204788,-0.56224693,0.611449936,-0.30149439,-0.046924338,0.432951152
1.76966E+18,8.398399902,0.11776231,-0.479012181,0.842714853,-0.214945391,-0.021240281,0.537873864
1.76966E+18,8.408388184,0.016128128,-0.31888884,1.234980187,-0.086623982,0.053957447,0.639800906
1.76966E+18,8.418375977,-0.244133897,-0.124543495,1.675256687,0.035326429,0.166034445,0.730809629
1.76966E+18,8.428364014,-0.544338348,-0.112270288,1.839248979,0.108177774,0.258477062,0.788517535
1.76966E+18,8.438352051,-0.630905017,-0.006979191,1.758934795,0.136551365,0.285495639,0.798522472
1.76966E+18,8.448340088,-0.492964719,0.16749124,1.631363769,0.125347063,0.253224432,0.75989902
1.76966E+18,8.458328125,-0.171260091,0.471748328,1.461178467,0.090111576,0.197211504,0.652567744
1.76966E+18,8.468316162,0.370267875,0.905099997,1.23121002,0.066814013,0.155722439,0.478310734
1.76966E+18,8.478304199,1.032492452,1.397307761,0.880560892,0.056570694,0.165440589,0.242006332
1.76966E+18,8.488293213,1.532312297,1.647141184,0.51369245,0.048764631,0.224975109,0.011608861
1.76966E+18,8.498281006,1.41313559,1.387853704,0.265170109,0.052442726,0.250602722,-0.157326102
1.76966E+18,8.508269043,0.969276409,1.04721422,-0.052770636,0.01061363,0.22439535,-0.27622062
1.76966E+18,8.51825708,0.749327983,0.738480864,-0.943313408,-0.074489012,0.198717162,-0.346383721
1.76966E+18,8.528244873,0.624789457,0.19031682,-1.862881492,-0.155674338,0.202061459,-0.372416943
1.76966E+18,8.538233154,0.627263153,-0.444568645,-2.474333474,-0.260075837,0.217022836,-0.365537971
1.76966E+18,8.548221191,0.902353183,-0.935423824,-3.338884895,-0.354465038,0.211490035,-0.333408982
1.76966E+18,8.558208984,1.198807488,-1.096262036,-3.932404915,-0.374233156,0.191862807,-0.290305972
1.76966E+18,8.568197021,1.425163736,-0.803365132,-3.998967345,-0.317436129,0.190681577,-0.228771582
1.76966E+18,8.578185303,1.513539792,-0.158474406,-3.916943727,-0.221757039,0.255446702,-0.155697629
1.76966E+18,8.588173096,1.349510091,0.723577309,-3.965256799,-0.054985125,0.428587645,-0.055015054
1.76966E+18,8.598160889,0.795334385,2.009903068,-3.425095152,0.17497243,0.744095504,0.098834962
1.76966E+18,8.608148926,-0.244822317,3.260605139,-2.362636747,0.44811666,1.12932682,0.268283457
1.76966E+18,8.618137207,-1.286884561,4.318689129,-1.042636683,0.645112038,1.514617562,0.468346506
1.76966E+18,8.628125,-2.187259722,4.684568267,-0.195894913,0.720456123,1.678181291,0.630607605
1.76966E+18,8.638113037,-2.218708169,3.967544618,0.229346224,0.706408739,1.608673573,0.67420435
1.76966E+18,8.648101074,-1.450862825,2.687930924,0.664938365,0.62031287,1.432052255,0.61275202
1.76966E+18,8.658089111,-0.813409702,1.212304244,1.003852048,0.499754488,1.277138829,0.467845112
1.76966E+18,8.668077148,-0.333438174,0.141721424,1.312689742,0.399562806,1.149528265,0.309311509
1.76966E+18,8.678065186,-0.048796033,-0.551506924,1.537146147,0.336839497,1.002232075,0.185414597
1.76966E+18,8.688053223,0.208085993,-0.837116595,1.407861596,0.316106766,0.755748034,0.072741136
1.76966E+18,8.698041016,0.526453001,-0.680493954,0.98179716,0.290031761,0.523320377,-0.004331812
1.76966E+18,8.708028809,0.26255072,-0.590137976,0.587839344,0.237317726,0.423822284,-0.020626813
1.76966E+18,8.71801709,-0.388875545,-0.487005518,0.292245455,0.189281762,0.437482446,0.016068351
1.76966E+18,8.728005127,-0.940118265,-0.24601065,-0.021926293,0.128446937,0.426198959,0.092863262
1.76966E+18,8.73799292,-1.382785168,-0.312398308,-0.460682744,0.075844184,0.377633303,0.178973123
1.76966E+18,8.747980957,-1.596503322,-0.542757801,-0.844838421,0.024975978,0.421570987,0.21714288
1.76966E+18,8.757969238,-1.654626279,-0.775299898,-1.184533902,-0.011504002,0.465422064,0.225492418
1.76966E+18,8.767957031,-1.621440341,-1.052593575,-1.435739783,-0.02416528,0.470317334,0.198037878
1.76966E+18,8.777945068,-1.546107306,-1.452579566,-1.656115056,-0.002083147,0.478626937,0.134860784
1.76966E+18,8.787933105,-1.464687791,-1.737247571,-1.816096944,0.035978336,0.46434164,0.065978482
1.76966E+18,8.797921143,-1.399084853,-1.830805561,-1.81471718,0.070928328,0.360370249,0.049095634
1.76966E+18,8.80790918,-1.366217187,-1.837234717,-1.697594191,0.076309092,0.190116331,0.054716863
1.76966E+18,8.817897949,-1.233110886,-1.839604369,-1.324754858,0.070254929,0.041866414,0.090767004
1.76966E+18,8.827885986,-1.181033492,-1.651747217,-0.873711757,0.078463748,0.01045813,0.135430157
1.76966E+18,8.837874023,-1.108829695,-1.516069165,-0.595355711,0.096876577,0.033622574,0.181555316
1.76966E+18,8.847862793,-1.025515452,-1.548288596,-0.493479975,0.126524478,0.0457309,0.233751401
1.76966E+18,8.85785083,-0.931299876,-1.605488739,-0.408937652,0.148815662,0.021989884,0.274830371
1.76966E+18,8.867838867,-0.898162453,-1.615192971,-0.42406274,0.153435722,-0.017377496,0.291001618
1.76966E+18,8.877826904,-0.899963804,-1.573682565,-0.419620081,0.142561764,-0.066381253,0.272347242
1.76966E+18,8.887814697,-0.863034734,-1.53515322,-0.368708517,0.118243568,-0.120376006,0.218321934
1.76966E+18,8.897802734,-0.740218793,-1.480930047,-0.328195889,0.109435163,-0.176613182,0.132810488
1.76966E+18,8.907790771,-0.626543022,-1.295458913,-0.115810445,0.115315467,-0.303679824,0.034884296
1.76966E+18,8.917778809,-0.547201482,-0.864629455,0.082067166,0.138900951,-0.515934289,0.016529527
1.76966E+18,8.927766846,-0.554599045,-0.233725754,0.329058059,0.160057589,-0.740434825,0.063670136
1.76966E+18,8.937754883,-0.732903794,0.016380057,0.398989966,0.152674511,-0.798523724,0.09638866
1.76966E+18,8.947742676,-0.802792885,0.294912336,0.318465353,0.133949369,-0.675698757,0.123795971
1.76966E+18,8.957730713,-0.726294313,0.862642665,0.352743471,0.129194021,-0.523328662,0.099557742
1.76966E+18,8.967718994,-0.101413233,1.928250036,0.457641769,0.114097372,-0.449831188,0.014548757
1.76966E+18,8.977707031,0.49845338,2.651978152,0.37572278,0.094834462,-0.392772704,-0.112151131
1.76966E+18,8.987694824,0.874828047,2.944755814,0.404135804,0.13395907,-0.308846742,-0.233161896
1.76966E+18,8.997682861,0.798947754,3.1224908,0.919522198,0.136789754,-0.246927738,-0.342612475
1.76966E+18,9.007670898,0.792758836,2.80733764,0.890748524,0.107135378,-0.265659451,-0.386778355
1.76966E+18,9.017658691,0.651967532,1.586270244,0.666232497,0.094184689,-0.34664911,-0.288690656
1.76966E+18,9.027646729,0.058047846,-0.085686817,0.800543352,0.047187123,-0.530708134,-0.054372977
1.76966E+18,9.037634766,-0.473142413,-2.056910902,0.754117993,-0.053555731,-0.688564897,0.119705349
1.76966E+18,9.047622803,0.011864479,-2.733667424,0.626230157,-0.128428891,-0.714642406,0.141521066
1.76966E+18,9.05761084,0.995642877,-2.122354558,1.058128705,-0.183865786,-0.63915801,0.010812849
1.76966E+18,9.067598877,2.060001416,-1.336941847,1.356608086,-0.151886329,-0.53724587,-0.263440788
1.76966E+18,9.077586914,3.228295692,-0.204114459,1.991085847,-0.111735456,-0.462280601,-0.588676393
1.76966E+18,9.087574707,4.059475298,0.834125596,2.174790263,-0.167754292,-0.490620762,-0.838650703
1.76966E+18,9.097562988,4.210257395,1.647880604,1.400649472,-0.277769476,-0.627672136,-0.944581687
1.76966E+18,9.107551025,3.732449329,2.49646318,0.709524818,-0.355706364,-0.849193156,-0.873864591
1.76966E+18,9.117538818,2.632780115,2.690487623,0.493878034,-0.378169864,-1.101677537,-0.724065483
1.76966E+18,9.127526611,1.534975671,2.333132567,0.413313382,-0.364225596,-1.136968613,-0.505561292
1.76966E+18,9.137514648,0.374991689,1.925048025,0.344376624,-0.341994852,-1.003770113,-0.211659387
1.76966E+18,9.14750293,-0.602553221,1.556620371,0.347130599,-0.323892236,-0.935666323,0.046916805
1.76966E+18,9.157491699,-0.681802699,1.005692708,0.093044487,-0.30305326,-1.003036857,0.208152831
1.76966E+18,9.167479736,-0.435862776,0.277224704,0.052807169,-0.29937923,-1.01886785,0.233534798
1.76966E+18,9.177468018,-0.064333502,-0.345859849,0.357651116,-0.319979042,-0.984642446,0.169916943
1.76966E+18,9.187456055,0.109997667,-0.86160397,0.463982078,-0.332507551,-0.950146854,0.065857306
1.76966E+18,9.197443848,0.13980843,-1.283183369,0.580086245,-0.33822456,-0.918527424,-0.029260423
1.76966E+18,9.207431885,0.201633164,-1.510501594,0.564219106,-0.33477366,-0.83981216,-0.073897675
1.76966E+18,9.217419678,0.149873751,-1.555336761,0.568557136,-0.35171935,-0.807880342,-0.083393171
1.76966E+18,9.227407715,0.271308319,-1.622251657,0.425225062,-0.36140126,-0.790655494,-0.062647074
1.76966E+18,9.237395752,0.271692642,-1.687450983,0.411338867,-0.35450232,-0.738239408,-0.03249849
1.76966E+18,9.247383789,0.218787712,-1.712110208,0.417883759,-0.347329348,-0.650416374,-0.020361826
1.76966E+18,9.257371826,0.325156814,-1.74559279,0.331971901,-0.345553011,-0.580378175,-0.004373538
1.76966E+18,9.267359863,0.369429525,-1.778728167,0.300687412,-0.329361141,-0.531349838,0.013773332
1.76966E+18,9.2773479,0.288884746,-1.769176495,0.428933561,-0.288062721,-0.47457093,0.049146235
1.76966E+18,9.287335938,0.070161185,-1.682457997,0.722374655,-0.239057675,-0.389613003,0.095396467
1.76966E+18,9.29732373,-0.133100457,-1.514475758,0.932613443,-0.209131211,-0.297504097,0.136962026
1.76966E+18,9.307311768,-0.210626618,-1.3725819,1.054687332,-0.176655546,-0.209442899,0.180901229
1.76966E+18,9.317300049,-0.362480436,-1.296433895,1.279439506,-0.143730089,-0.161400005,0.216264278
1.76966E+18,9.327287842,-0.43090603,-1.307408294,1.441357622,-0.128805026,-0.16564393,0.216866165
1.76966E+18,9.337275635,-0.40356648,-1.403878371,1.561951064,-0.129230872,-0.169809118,0.192432463
1.76966E+18,9.347263672,-0.442861841,-1.543316652,1.60555932,-0.144839808,-0.198391631,0.118623577
1.76966E+18,9.357251953,-0.278133124,-1.643555142,1.550746802,-0.177654743,-0.259853631,0.00204743
1.76966E+18,9.367239746,0.079899466,-1.66162096,1.425457458,-0.204678297,-0.263601303,-0.107732415
1.76966E+18,9.377227783,0.442268113,-1.437708745,1.205673282,-0.208420306,-0.231926188,-0.154805124
1.76966E+18,9.38721582,0.796911572,-1.0657611,0.878313697,-0.215919062,-0.240320325,-0.148217604
1.76966E+18,9.397203857,1.037972929,-0.763545747,0.573553044,-0.206046194,-0.289717972,-0.108505361
1.76966E+18,9.407191895,1.090489883,-0.358185077,0.56333794,-0.165065706,-0.3224563,-0.046966985
1.76966E+18,9.417179932,0.847154589,0.000893734,0.795717978,-0.097417958,-0.275166005,0.048398152
1.76966E+18,9.427167969,0.312334523,0.181657713,1.100687159,-0.03288576,-0.207457125,0.147130847
1.76966E+18,9.437155762,0.070195161,0.490807249,1.251511927,0.009633739,-0.148771167,0.197791889
1.76966E+18,9.447144043,0.309834011,1.102018408,1.258614745,0.010440446,-0.104260728,0.201673821
1.76966E+18,9.457131836,0.716796855,1.650645977,1.072327326,-0.000632445,-0.056982167,0.147687271
1.76966E+18,9.467119629,1.19456985,2.139365898,0.920035993,0.007296969,0.033029132,0.054578971
1.76966E+18,9.477108643,1.434244868,2.449875617,0.832577782,0.030867543,0.101814054,-0.033188697
1.76966E+18,9.487096924,1.328210259,2.384221533,0.898782923,0.044011608,0.038044777,-0.077491775
1.76966E+18,9.497084961,1.006679819,1.994515529,0.503372423,0.030223092,-0.072084382,-0.124142908
1.76966E+18,9.507072754,0.876940655,1.573169354,-0.111196376,-0.018596228,-0.129641563,-0.174751848
1.76966E+18,9.517060791,0.792928493,0.947614613,-0.722686352,-0.09015803,-0.123675808,-0.23653318
1.76966E+18,9.527049072,0.836768804,0.167239896,-1.39246412,-0.199576363,-0.143599704,-0.316087067
1.76966E+18,9.537036865,1.230984395,-0.495057892,-2.305785126,-0.306815475,-0.166962549,-0.396521986
1.76966E+18,9.547024658,1.575627707,-0.850977947,-3.03461904,-0.391649038,-0.140766829,-0.469261885
1.76966E+18,9.557012695,1.686387883,-0.836497586,-3.594500409,-0.455628842,-0.121957995,-0.506522417
1.76966E+18,9.567000732,1.900644236,-0.564247748,-4.030853014,-0.443389356,-0.100434139,-0.505188465
1.76966E+18,9.57698877,2.012571848,0.282984582,-4.071415326,-0.362560034,-0.021262618,-0.457427323
1.76966E+18,9.586976807,1.759361934,1.559895447,-3.928117447,-0.225755155,0.174269363,-0.287993789
1.76966E+18,9.596964844,0.823595873,2.857319522,-3.660765903,0.033681739,0.472603321,0.047844928
1.76966E+18,9.606952881,-0.524640106,4.153682106,-2.5627088,0.362745643,0.86446923,0.453042388
1.76966E+18,9.616940918,-1.536895095,4.94993536,-1.459547944,0.63026309,1.197560668,0.716957688
1.76966E+18,9.626928955,-1.635397555,4.267158263,-0.878273073,0.747470379,1.418045759,0.772257328
1.76966E+18,9.636916992,-1.229142128,2.780501656,-0.467507622,0.756249487,1.531685591,0.698405981
1.76966E+18,9.646904785,-0.993670992,1.305946989,-0.03816095,0.65685147,1.519202471,0.554975927
1.76966E+18,9.656892578,-0.779297443,-0.017583587,0.138314976,0.504048347,1.507860303,0.414369047
1.76966E+18,9.666880859,-0.644518239,-0.828889449,0.318834333,0.370067626,1.486682534,0.301061898
1.76966E+18,9.676868896,-0.426021765,-1.1632424,0.541920619,0.290942699,1.30976212,0.215643436
1.76966E+18,9.686856689,-0.149396781,-1.245382923,0.650721916,0.292710066,0.995511949,0.125486791
1.76966E+18,9.696844727,0.168113026,-0.816200063,0.781609665,0.287631691,0.75082761,0.036163047
1.76966E+18,9.706833008,0.071090575,-0.79576927,0.717506611,0.223251134,0.602220297,-0.034789585
1.76966E+18,9.716820801,-0.167539171,-1.010935869,0.169229462,0.13188979,0.534796238,-0.074358031
1.76966E+18,9.726808838,-0.491725533,-1.02477384,-0.274806098,0.027953167,0.479023725,-0.079132199
1.76966E+18,9.736796875,-0.735994892,-1.191993278,-0.664208005,-0.024662374,0.461214632,-0.121184312
1.76966E+18,9.746784668,-0.772295017,-1.352643274,-0.808820913,-0.035860661,0.500670493,-0.166721433
1.76966E+18,9.756772949,-0.838997001,-1.464203953,-0.911427301,-0.012770257,0.471714765,-0.185697526
1.76966E+18,9.766760986,-0.781266113,-1.605523226,-1.19941466,0.016107993,0.351922631,-0.189534158
1.76966E+18,9.776748779,-0.655596098,-1.573082845,-1.530126332,0.029909028,0.239117265,-0.177973643
1.76966E+18,9.786736572,-0.691774788,-1.609137324,-1.786926233,0.038112208,0.196525827,-0.156404436
1.76966E+18,9.796724854,-0.818879073,-1.81757783,-1.830563715,0.028638281,0.171574935,-0.134428829
1.76966E+18,9.806713867,-0.856270939,-1.916906804,-1.781460077,0.027148776,0.127907291,-0.117363475
1.76966E+18,9.816701904,-0.877391906,-1.878652769,-1.545956353,0.019593654,0.057996117,-0.092832565
1.76966E+18,9.826689697,-0.783721104,-1.790153232,-1.535617038,0.013673943,0.012153261,-0.082231134
1.76966E+18,9.836677979,-0.691545071,-1.57724581,-1.484095817,0.031807408,-0.008569328,-0.054569416
1.76966E+18,9.846666016,-0.785182555,-1.28892162,-1.295458475,0.059683893,0.000903606,0.009376446
1.76966E+18,9.856653809,-1.016349272,-1.081101877,-1.195613222,0.096780397,0.051560123,0.083098605
1.76966E+18,9.866641602,-1.179699906,-0.87783965,-1.100822768,0.134799615,0.112019941,0.149875939
1.76966E+18,9.876629395,-1.226684798,-0.771061529,-0.954534767,0.166777521,0.135896236,0.191824466
1.76966E+18,9.886617676,-1.160473812,-0.692322339,-0.879829509,0.205117136,0.135669708,0.19619453
1.76966E+18,9.896605713,-1.014871455,-0.539192802,-0.734235189,0.242677823,0.153778672,0.168047577
1.76966E+18,9.906593506,-0.877378901,-0.307998028,-0.601335954,0.274897784,0.169462726,0.127721742
1.76966E+18,9.916581543,-0.868364404,0.031969256,-0.441132825,0.298376739,0.061775412,0.141266048
1.76966E+18,9.926569824,-0.96881829,0.388300814,-0.036986499,0.369632035,-0.215152174,0.185921818
1.76966E+18,9.936557861,-0.791831784,0.690856358,0.400919472,0.404898942,-0.400393158,0.240849778
1.76966E+18,9.946545654,-0.988846056,0.684555212,0.510316251,0.411910653,-0.349902868,0.278281957
1.76966E+18,9.956533691,-1.46816818,0.694606066,0.8874337,0.404988825,-0.226925299,0.307078987
1.76966E+18,9.966521973,-1.631822473,0.798477944,1.11358405,0.37809521,-0.174985707,0.293105811
1.76966E+18,9.976509766,-1.344237703,0.81897362,0.997745256,0.334336817,-0.166869998,0.215890929
1.76966E+18,9.986497559,-0.897314897,0.931853564,0.682521953,0.305398822,-0.16448307,0.113285281
1.76966E+18,9.996485596,-0.427288132,1.484621887,0.457269428,0.285624593,-0.144445971,0.000480166
1.76966E+18,10.00647363,0.031281273,2.165158511,0.282801335,0.28664577,-0.118942238,-0.123918481
1.76966E+18,10.01646167,0.416325716,2.786851901,0.214173789,0.282182038,-0.050232951,-0.233416751
1.76966E+18,10.02644971,0.634520869,3.253266467,0.160647366,0.295337677,0.069553524,-0.281781971
1.76966E+18,10.03643774,0.541812044,3.584436696,0.20436405,0.220344663,0.144976914,-0.284554839
1.76966E+18,10.04642554,0.442890044,3.485205338,-0.333149128,0.132246196,0.102887928,-0.188069239
1.76966E+18,10.05641357,0.120778589,2.304680379,-0.764329883,0.113846958,-0.04436544,-0.005682123
1.76966E+18,10.06640186,-0.243601689,0.251805016,-0.454272877,0.100081496,-0.180935472,0.18034552
1.76966E+18,10.07638989,-0.208169434,-1.69892807,-0.420051166,0.059721027,-0.175250411,0.262335181
1.76966E+18,10.08637769,0.357374199,-2.462942019,-0.356872825,0.04299238,-0.025885463,0.287770271
1.76966E+18,10.09636572,0.883056946,-2.433473932,0.074053955,0.013718111,0.170771405,0.25133875
1.76966E+18,10.10635376,1.530113472,-1.997665517,0.180265089,-0.019274686,0.216139242,0.10171064
1.76966E+18,10.11634155,2.628619488,-1.327909815,0.314851547,-0.052025177,0.124085225,-0.156751543
1.76966E+18,10.12632959,3.653621876,-0.319496158,0.667148735,-0.059608944,0.010686462,-0.434121609
1.76966E+18,10.13631763,4.147932164,0.793868404,1.02865565,-0.11648687,-0.119509093,-0.641070545
1.76966E+18,10.14630688,4.017165265,1.93355691,0.879549377,-0.214404687,-0.203259483,-0.710468531
1.76966E+18,10.15629468,3.247473855,2.608985982,0.350588631,-0.309302956,-0.326732397,-0.640240967
1.76966E+18,10.16628271,2.227922718,2.489029815,-0.113874216,-0.347122699,-0.42153278,-0.49156487
1.76966E+18,10.17627075,1.305472357,1.99036367,-0.267318811,-0.319163233,-0.316227406,-0.217013463
1.76966E+18,10.18625879,0.223094616,1.670290589,-0.172914727,-0.269980282,-0.228690058,0.066813536
1.76966E+18,10.19624658,-0.150387984,1.320046242,-0.33946401,-0.229792655,-0.328247547,0.284188479
1.76966E+18,10.20623462,-0.158444011,0.82737846,-0.368403104,-0.209391892,-0.441912234,0.424009949
1.76966E+18,10.21622266,-0.363293214,0.313912805,0.159649879,-0.210772485,-0.494757622,0.449956059
1.76966E+18,10.22621045,-0.314650617,-0.091978026,0.402464364,-0.230698273,-0.465181202,0.402923435
1.76966E+18,10.23619873,-0.302824278,-0.573308422,0.453633702,-0.249448523,-0.409673214,0.351730019
1.76966E+18,10.24618677,-0.507368507,-0.918340003,0.571624414,-0.270549089,-0.303231299,0.283661187
1.76966E+18,10.25617456,-0.49159913,-0.992381391,0.594985708,-0.289087623,-0.184265226,0.200372413
1.76966E+18,10.2661626,-0.303786547,-1.165520866,0.579134936,-0.286531538,-0.06270998,0.129578292
1.76966E+18,10.27615088,-0.206541979,-1.374879656,0.537013996,-0.261080772,0.00766618,0.054188736
1.76966E+18,10.28613892,-0.078863693,-1.634011069,0.474614823,-0.208747074,0.088747442,-0.004737324
1.76966E+18,10.29612671,-0.023505963,-1.851838412,0.402564609,-0.175131053,0.178926319,-0.066492833
1.76966E+18,10.30611475,0.057986617,-2.041939543,0.187216808,-0.163515329,0.229748398,-0.124719396
1.76966E+18,10.31610254,0.136705349,-2.165695687,0.133930624,-0.180703908,0.232456833,-0.169922024
1.76966E+18,10.32609058,0.231548994,-2.19269826,0.049694005,-0.208550751,0.187418893,-0.201234326
1.76966E+18,10.33607861,0.315478154,-2.175750632,0.083889705,-0.2248469,0.128385931,-0.200357869
1.76966E+18,10.34606665,0.259655145,-2.248277524,0.16992402,-0.230226994,0.087014586,-0.177560151
1.76966E+18,10.35605469,0.216132668,-2.25583773,0.282428994,-0.22254324,0.08609686,-0.125295073
1.76966E+18,10.36604272,0.128662474,-2.147542191,0.406514516,-0.196747169,0.103555351,-0.065413192
1.76966E+18,10.37603076,0.143406454,-1.883991207,0.550711098,-0.170750186,0.134523645,-0.011039699
1.76966E+18,10.3860188,0.261411925,-1.533847398,0.601631722,-0.167035654,0.164685115,0.044787169
1.76966E+18,10.39600659,0.28173239,-1.300889121,0.496251486,-0.1643392,0.197364494,0.112023734
1.76966E+18,10.40599487,0.255569191,-1.145989067,0.528354743,-0.162225798,0.216320544,0.155759141
1.76966E+18,10.41598291,0.457529687,-0.859742852,0.607523557,-0.161205262,0.196595564,0.173434541
1.76966E+18,10.4259707,0.683729283,-0.560189997,0.679276249,-0.157449484,0.161486626,0.175127864
1.76966E+18,10.4359585,0.725754069,-0.319541166,0.731749948,-0.152469367,0.141113445,0.168400452
1.76966E+18,10.44594653,0.675033789,0.023246436,0.801599145,-0.149779394,0.146540254,0.164212629
1.76966E+18,10.45593579,0.568260345,0.307264453,0.795764447,-0.142106831,0.147346929,0.18785271
1.76966E+18,10.46592383,0.268490632,0.425845239,0.747092333,-0.118248172,0.15741089,0.237820789
1.76966E+18,10.47591162,-0.068717855,0.377908015,0.727319272,-0.080523968,0.215315729,0.301518798
1.76966E+18,10.48589966,-0.396286114,0.175901926,0.722830582,-0.027660677,0.334964335,0.356087714
1.76966E+18,10.49588794,-0.552036355,0.095227968,0.747423318,0.020874901,0.477487653,0.357854992
1.76966E+18,10.50587573,-0.21485746,0.387936657,0.683929043,0.060395487,0.607120454,0.316284001
1.76966E+18,10.51586353,0.496246371,0.999333109,0.615684944,0.093655974,0.731921494,0.261348605
1.76966E+18,10.52585156,1.237493631,1.733799477,0.46435661,0.118497558,0.773723125,0.159932137
1.76966E+18,10.53583984,2.106061595,2.476270872,0.360117068,0.141492888,0.73587507,0.042979948
1.76966E+18,10.54582764,2.401951105,2.930087821,0.43270022,0.160689458,0.667518497,-0.025243955
1.76966E+18,10.55581567,1.896021837,3.08109496,0.520795414,0.136483461,0.598052084,-0.043231212
1.76966E+18,10.56580371,1.093453116,2.839793218,0.304540873,0.053876642,0.508219242,-0.03147395
1.76966E+18,10.5757915,0.375661697,2.144145534,-0.218792827,-0.072346009,0.42128247,-0.037830383
1.76966E+18,10.58577979,0.093996819,1.210724282,-1.049570428,-0.186209008,0.441181898,-0.090658359
1.76966E+18,10.59576782,0.113094464,0.272137025,-1.729978165,-0.269369662,0.488274336,-0.168166205
1.76966E+18,10.60575562,0.401726551,-0.433553914,-2.357304593,-0.314811289,0.492706627,-0.241547137
1.76966E+18,10.61574365,0.851496418,-1.146951775,-2.912244122,-0.332059801,0.486841261,-0.293765068
1.76966E+18,10.62573193,1.240271279,-1.542575479,-3.428081182,-0.328810036,0.506865978,-0.335543722
1.76966E+18,10.63571973,1.581357483,-1.376475985,-3.826998083,-0.292856008,0.564082444,-0.336436421
1.76966E+18,10.64570752,1.738549448,-0.75089494,-3.858691444,-0.195841089,0.706268668,-0.253768086
1.76966E+18,10.65569556,1.656042722,0.318809345,-3.555186052,-0.037138525,0.945803285,-0.100259773
1.76966E+18,10.66568359,1.330692139,1.688079928,-3.013469285,0.182699308,1.235811591,0.12092407
1.76966E+18,10.67567163,0.57630132,2.995113544,-2.234466002,0.425037116,1.51726675,0.363029391
1.76966E+18,10.68565967,-0.384076474,3.802040752,-1.36597315,0.570161521,1.73295629,0.533161938
1.76966E+18,10.69564771,-0.979508027,3.624946986,-0.889388487,0.610859692,1.828438759,0.618445933
1.76966E+18,10.70563574,-1.045658223,2.853983656,-0.306917977,0.570869565,1.802903056,0.627273262
1.76966E+18,10.71562378,-0.719922732,1.705846471,0.227242091,0.461345732,1.647419214,0.546424448
1.76966E+18,10.72561182,-0.162468882,0.432851903,0.481102139,0.317334741,1.482673764,0.389641047
1.76966E+18,10.73559985,0.248479086,-0.52291679,0.752892982,0.186043814,1.362765789,0.232255697
1.76966E+18,10.74558765,0.418761857,-1.121285418,0.888283595,0.126730457,1.223247766,0.097951494
1.76966E+18,10.75557544,0.765360249,-1.217849019,0.637490679,0.112205043,1.066411257,-0.017525038
1.76966E+18,10.76556372,0.922894597,-1.061564817,0.236933025,0.083994448,0.988367915,-0.032906659
1.76966E+18,10.77555176,0.325382147,-1.034559906,-0.016226328,0.051123582,0.960173845,0.021365102
1.76966E+18,10.78554053,-0.093749128,-0.785416802,-0.403012499,0.011732882,0.923329532,0.107594788
1.76966E+18,10.79552881,-0.251816706,-0.514922284,-0.93561847,-0.028214533,0.886018336,0.222022831
1.76966E+18,10.80551685,-0.527236553,-0.526150949,-1.365212394,-0.064779997,0.859296739,0.342665374
1.76966E+18,10.81550488,-0.727546213,-0.644439475,-1.662081417,-0.096903577,0.837327778,0.401650399
1.76966E+18,10.82549268,-0.681873864,-0.871830181,-1.963271957,-0.101873197,0.864562809,0.388636053
1.76966E+18,10.83548071,-0.681792031,-1.012828551,-2.146261065,-0.049105592,0.920223415,0.354614705
1.76966E+18,10.84546875,-0.871247412,-1.069109241,-2.071056478,0.016751111,0.935966849,0.317298412
1.76966E+18,10.85545679,-0.837993962,-1.15818044,-2.198854152,0.087708905,0.954241216,0.251410484
1.76966E+18,10.86544482,-0.761953509,-1.237689446,-2.219125664,0.144890741,1.016414046,0.199759364
1.76966E+18,10.87543262,-0.877056537,-1.281501699,-2.012596398,0.167995527,1.064819694,0.160045236
1.76966E+18,10.8854209,-0.907027312,-1.173693066,-1.671757885,0.174407005,1.054962993,0.155498505
1.76966E+18,10.89540894,-0.89678532,-0.944152489,-1.399727097,0.167373866,1.033412099,0.185149074
1.76966E+18,10.90539673,-0.877908916,-0.8474223,-1.241548021,0.161478102,1.016769052,0.223538622
1.76966E+18,10.91538477,-0.765143684,-0.906517463,-1.117985208,0.175165147,0.99761349,0.267818987
1.76966E+18,10.92537305,-0.661468205,-0.877206028,-1.099548803,0.19063206,0.986563861,0.301032424
1.76966E+18,10.93536108,-0.445273578,-0.792611098,-1.0868242,0.208411321,0.977736294,0.313413471
1.76966E+18,10.94534888,-0.157539171,-0.700378804,-1.054812274,0.227024943,0.926048994,0.318042159
1.76966E+18,10.95533667,0.027045682,-0.723314859,-1.086254875,0.255543411,0.850118041,0.330121994
1.76966E+18,10.96532471,0.114514852,-0.740588065,-1.033401091,0.312378794,0.805615723,0.347986728
1.76966E+18,10.97531274,0.129439888,-0.558815202,-0.823537567,0.390108734,0.795464516,0.372982085
1.76966E+18,10.98530078,0.052689972,-0.24188451,-0.579926086,0.464122444,0.769325972,0.453252703
1.76966E+18,10.99528882,-0.262916631,0.03192074,-0.26995369,0.565372586,0.679618716,0.561595142
1.76966E+18,11.00527686,-0.529639668,0.328272754,-0.044055415,0.638105154,0.678248942,0.619941115
1.76966E+18,11.01526465,-0.691918435,0.342723889,-0.030001024,0.69943428,0.761329174,0.64020431
1.76966E+18,11.02525293,-0.889164031,0.357998615,0.105308925,0.741380334,0.815041304,0.645308971
1.76966E+18,11.03524097,-0.847404837,0.431466586,0.090799046,0.745119691,0.753285766,0.622502208
1.76966E+18,11.04522876,-0.684616806,0.267893981,-0.081293697,0.70394516,0.640201867,0.559839487
1.76966E+18,11.0552168,-0.509961666,0.055483402,-0.232425193,0.627735078,0.629470408,0.431261808
1.76966E+18,11.06520508,-0.220272471,0.023785365,-0.301246215,0.54948616,0.717244029,0.247151703
1.76966E+18,11.07519287,0.412861839,0.158142397,-0.493378853,0.495556086,0.768386841,0.027831072
1.76966E+18,11.08518066,1.23887091,0.373490198,-0.836017109,0.462904781,0.804087222,-0.183381811
1.76966E+18,11.0951687,1.722023699,0.532139961,-0.874632378,0.442158997,0.860107601,-0.329785109
1.76966E+18,11.10515796,1.62754991,0.531038721,-0.698656803,0.424591422,0.966254175,-0.378757626
1.76966E+18,11.115146,1.247674687,0.342160994,-0.63498308,0.403245658,1.01762569,-0.349343002
1.76966E+18,11.12513379,1.16983756,-0.084340079,-0.683576723,0.37070629,1.010667086,-0.304808587
1.76966E+18,11.13512183,1.305479372,-0.669012191,-0.847969412,0.334457189,1.015113711,-0.280361563
1.76966E+18,11.14511011,1.540951677,-1.18673375,-1.070753209,0.28771171,1.069943309,-0.317624658
1.76966E+18,11.1550979,2.099550167,-1.43660166,-1.257354516,0.23510094,1.059142351,-0.404350758
1.76966E+18,11.16508569,2.80476399,-1.173292669,-1.425615279,0.178558648,0.926683664,-0.49347204
1.76966E+18,11.17507373,3.351446271,-0.588770779,-1.563722896,0.144271508,0.790420949,-0.557361245
1.76966E+18,11.18506152,3.666898706,0.22787469,-1.459126503,0.138170779,0.689725459,-0.554849863
1.76966E+18,11.1950498,3.627425943,1.279811847,-1.333841543,0.143751711,0.623003423,-0.466114074
1.76966E+18,11.20503784,3.278709536,2.538970781,-1.175165185,0.174431011,0.647468805,-0.283010662
1.76966E+18,11.21502588,2.475912267,3.552593113,-0.915012612,0.180424988,0.750991464,-0.017420273
1.76966E+18,11.22501367,1.261957333,4.085549066,-0.838450181,0.138622776,0.931256711,0.278307319
1.76966E+18,11.23500195,-0.125601625,3.896115458,-1.03612584,0.137488276,1.151860237,0.518973708
1.76966E+18,11.24498999,-0.755438428,3.164723676,-0.888033712,0.206992954,1.349404573,0.643751323
1.76966E+18,11.25497778,-0.692241237,2.2015865,-0.818067611,0.307207972,1.494758248,0.627944708
1.76966E+18,11.26496582,-0.210467628,1.287219492,-0.784518685,0.381900549,1.606767535,0.509384751
1.76966E+18,11.2749541,0.181439102,0.581046323,-0.661306439,0.426178545,1.744108438,0.392568111
1.76966E+18,11.28494189,0.391790994,0.253212545,-0.534010723,0.464756101,1.796870351,0.214089125
1.76966E+18,11.29492969,0.969111282,0.158973587,-0.422488038,0.467820883,1.877360463,0.048956621
1.76966E+18,11.30491772,1.058057393,0.122560796,-0.241877496,0.446595579,2.006222725,-0.005897135
1.76966E+18,11.31490576,0.812997468,0.233861363,-0.125228262,0.428894609,2.04749155,0.012331137
1.76966E+18,11.3248938,0.998185693,0.274449978,-0.351838631,0.410285234,2.038482428,0.046507649
1.76966E+18,11.33488184,1.394526605,0.197478967,-0.750121617,0.376210898,2.005238295,0.079921797
1.76966E+18,11.34486987,1.607982309,-0.042017772,-0.962910674,0.350794017,1.938355803,0.143139929
1.76966E+18,11.35485791,1.540374462,-0.221675835,-1.017868883,0.346488774,1.885468602,0.212260142
1.76966E+18,11.3648457,1.453852362,-0.337228798,-1.083380343,0.364510208,1.88655448,0.268597901
1.76966E+18,11.37483398,1.35378543,-0.406024687,-1.080095914,0.3983334,1.920057297,0.333188325
1.76966E+18,11.38482202,1.121120291,-0.407781759,-0.966254139,0.417999864,1.946641922,0.415872723
1.76966E+18,11.39480981,0.972306571,-0.467114238,-0.809526285,0.435388416,1.968256116,0.497003525
1.76966E+18,11.40479761,0.960383493,-0.558464488,-0.652070701,0.447203845,2.015758991,0.574379146
1.76966E+18,11.41478589,1.043269866,-0.719177028,-0.565651477,0.461813658,2.07841301,0.634651542
1.76966E+18,11.42477368,1.194227613,-0.951210007,-0.471266974,0.470770866,2.146875858,0.675099313
1.76966E+18,11.4347627,1.337488083,-1.173593698,-0.451006861,0.474694759,2.205849648,0.695359051
1.76966E+18,11.44475073,1.436520119,-1.329088795,-0.417413511,0.476290196,2.231218815,0.709438324
1.76966E+18,11.45473901,1.46029467,-1.459232594,-0.302691446,0.469686091,2.227099657,0.721746147
1.76966E+18,11.46472681,1.416965524,-1.590716702,-0.272405905,0.449650556,2.222527981,0.718387544
1.76966E+18,11.47471484,1.501684958,-1.68054661,-0.308464184,0.415288299,2.224380493,0.692973495
1.76966E+18,11.48470264,1.618824021,-1.754412641,-0.341568873,0.375599146,2.20752883,0.647327363
1.76966E+18,11.49469092,1.719068356,-1.796288958,-0.324504926,0.342407912,2.177565813,0.580437005
1.76966E+18,11.50467871,1.717359068,-1.661725005,-0.167709559,0.319680452,2.129940748,0.506872952
1.76966E+18,11.51466675,1.584562855,-1.366910869,0.015769524,0.297421992,2.088142633,0.445466846
1.76966E+18,11.52465479,1.422205763,-0.994708372,0.101817868,0.266516596,2.074934006,0.398844868
1.76966E+18,11.53464258,1.217725977,-0.663377984,0.082785835,0.228551626,2.067908525,0.383060038
1.76966E+18,11.54463086,1.078308446,-0.365683908,0.023149697,0.186769947,2.057785988,0.383078843
1.76966E+18,11.5546189,0.937292541,-0.254462252,-0.11514146,0.141029626,2.035453796,0.38045457
1.76966E+18,11.56460693,0.7979377,-0.423446362,-0.305851517,0.1044062,1.987725735,0.360006988
1.76966E+18,11.57459473,0.671705229,-0.821655991,-0.466464835,0.081055872,1.894547582,0.304314703
1.76966E+18,11.58458301,0.737260967,-1.152989301,-0.688190208,0.060049206,1.798918962,0.215910256
1.76966E+18,11.59457104,0.947690893,-1.257023092,-0.927116161,0.036351066,1.713561177,0.116567694
1.76966E+18,11.60455884,1.046938326,-1.116983337,-1.25532301,0.002104258,1.666585565,0.043535221
1.76966E+18,11.61454663,0.914032076,-0.674510204,-1.373121998,0.006066242,1.597703695,0.011954924
1.76966E+18,11.62453467,0.664017743,0.0177455,-1.334174282,0.037934922,1.529874444,0.04568252
1.76966E+18,11.63452295,0.130927058,0.619229046,-1.377194947,0.082145266,1.55587709,0.123416997
1.76966E+18,11.64451074,-0.609586481,1.059713052,-1.348200031,0.109367602,1.650363803,0.206514984
1.76966E+18,11.65449878,-1.166797462,1.413960205,-1.444960908,0.121806957,1.763682008,0.249236092
1.76966E+18,11.66448682,-1.475831554,1.723744531,-1.550701356,0.157234833,1.88617909,0.269762129
1.76966E+18,11.67447485,-1.807121026,1.778618277,-1.377753311,0.20971109,2.021203756,0.266767144
1.76966E+18,11.68446289,-1.890282709,1.697448645,-1.336403648,0.2753869,2.151437998,0.232461914
1.76966E+18,11.69445093,-1.584133816,1.615423273,-1.348014007,0.351492584,2.260226965,0.184091181
1.76966E+18,11.70443872,-1.246933367,1.445778069,-1.391058199,0.452281237,2.354639053,0.147215456
1.76966E+18,11.714427,-0.910200828,1.416023567,-1.383570766,0.562880158,2.454841137,0.141240388
1.76966E+18,11.72441479,-0.69771017,1.302674251,-1.321093851,0.643079102,2.469679117,0.195643529
1.76966E+18,11.73440283,-0.582136456,1.119246606,-1.394974203,0.735177577,2.430439949,0.310291559
1.76966E+18,11.74439063,-0.452539185,0.992393666,-1.282945468,0.795038939,2.45758009,0.443736702
1.76966E+18,11.75437866,-0.411369847,1.018330655,-1.097864065,0.815526903,2.475080967,0.567033589
1.76966E+18,11.76436792,-0.300332608,1.092675994,-0.808381498,0.800817728,2.411986351,0.659271896
1.76966E+18,11.77435596,-0.264221138,1.079963228,-0.52628875,0.772844136,2.323267937,0.70307076
1.76966E+18,11.78434375,-0.292290171,0.926058614,-0.18127865,0.743769109,2.211028099,0.707278848
1.76966E+18,11.79433179,-0.37119595,0.6849182,0.010980244,0.717169166,2.065948963,0.679840863
1.76966E+18,11.80432007,-0.41173868,0.49844695,0.074389617,0.699051499,1.898599982,0.633387566
1.76966E+18,11.81430762,-0.484703671,0.404006917,0.153224961,0.687435865,1.789819479,0.6013394
1.76966E+18,11.82429565,-0.726924866,0.334877851,0.20204759,0.686410904,1.727487683,0.578350842
1.76966E+18,11.83428369,-0.87298315,0.301981544,0.080340488,0.704185367,1.690985084,0.551492572
1.76966E+18,11.84427197,-0.826194219,0.307968802,-0.157611067,0.730967343,1.682060838,0.530287504
1.76966E+18,11.85425903,-0.837933464,0.264378082,-0.441020304,0.756272197,1.691201925,0.500328779
1.76966E+18,11.86424683,-0.806040781,0.299295081,-0.706327191,0.781695545,1.68637085,0.479955524
1.76966E+18,11.87423486,-0.810930306,0.39987084,-0.907790552,0.804903388,1.690109968,0.485913277
1.76966E+18,11.8842229,-0.959936626,0.415175377,-1.03039431,0.815056026,1.703678489,0.513033926
1.76966E+18,11.89421094,-1.075834458,0.43159109,-1.182389145,0.822180808,1.720360994,0.539705753
1.76966E+18,11.90419897,-1.118472991,0.464586181,-1.229585634,0.822536945,1.709872484,0.556913078
1.76966E+18,11.91418701,-1.133266364,0.483582558,-1.145243948,0.818743825,1.695413589,0.559613764
1.76966E+18,11.92417505,-1.207720716,0.451385923,-1.044560198,0.807192802,1.688933372,0.546386421
1.76966E+18,11.93416284,-1.288008305,0.351796837,-1.011459601,0.792519808,1.669571996,0.521530628
1.76966E+18,11.94415112,-1.289161566,0.226664145,-1.079095651,0.774788201,1.651019096,0.485549539
1.76966E+18,11.95413916,-1.319707511,0.122819739,-1.104235499,0.753495395,1.647302628,0.456433475
1.76966E+18,11.96412671,-1.415188285,0.023272155,-1.201070026,0.73595947,1.650459766,0.43373251
1.76966E+18,11.97411475,-1.456308231,-0.068114336,-1.229439065,0.722327828,1.668158054,0.424260199
1.76966E+18,11.98410303,-1.487776844,-0.172182029,-1.26175202,0.710292757,1.658693552,0.418210536
1.76966E+18,11.99409106,-1.474527486,-0.254405554,-1.324545307,0.701527238,1.642086625,0.404485941
1.76966E+18,12.00407886,-1.466004572,-0.274547593,-1.325392863,0.69311434,1.626891613,0.404726446
1.76966E+18,12.01406689,-1.530319516,-0.324728213,-1.295864279,0.685805559,1.616624594,0.406357914
1.76966E+18,12.02405493,-1.550765799,-0.324074718,-1.267637425,0.679888189,1.600879669,0.40706417
1.76966E+18,12.03404297,-1.531474239,-0.249503753,-1.272485157,0.676043391,1.57628727,0.40934968
1.76966E+18,12.04403101,-1.5519138,-0.193498373,-1.204194003,0.669876158,1.556446552,0.421229661
1.76966E+18,12.05401904,-1.623382415,-0.048815761,-1.207786182,0.664184749,1.539920926,0.447553426
1.76966E+18,12.06400708,-1.706051638,0.198137723,-1.164018352,0.660822034,1.535129309,0.476681679
1.76966E+18,12.07399512,-1.684290181,0.4982751,-1.089172663,0.667061567,1.563951015,0.487311155
1.76966E+18,12.08398389,-1.450945827,0.831958189,-0.944928735,0.68036145,1.62880969,0.472477674
1.76966E+18,12.09397192,-1.116152439,1.014341293,-0.809520147,0.693069518,1.705147266,0.417022675
1.76966E+18,12.10395996,-0.673067604,1.068403138,-0.812832633,0.700543702,1.801233888,0.319010377
1.76966E+18,12.113948,-0.223197638,1.176986263,-0.87404961,0.691575468,1.895467758,0.228921235
1.76966E+18,12.12393604,-0.053006199,1.247912733,-0.958848539,0.688038707,1.936494112,0.213869318
1.76966E+18,12.13392407,-0.228660579,1.252002633,-0.916567148,0.702342808,1.930821896,0.284993827
1.76966E+18,12.14391187,-0.553138909,1.291222883,-0.716762953,0.709034562,1.887533188,0.425813586
1.76966E+18,12.15390015,-0.829157452,1.267987553,-0.555053803,0.711171508,1.831157327,0.581494033
1.76966E+18,12.16388794,-0.973794471,1.134437745,-0.360445423,0.694761634,1.78407824,0.701879978
1.76966E+18,12.17387598,-0.871838948,0.949248351,-0.193026371,0.65917778,1.739258051,0.766786277
1.76966E+18,12.18386377,-0.608987638,0.750146167,-0.008622575,0.63239491,1.669456601,0.77627486
1.76966E+18,12.19385181,-0.260013749,0.480360673,0.215375274,0.616018891,1.604807019,0.749733806
1.76966E+18,12.20384009,0.033469723,0.116306412,0.427967931,0.595303774,1.573225617,0.715599179
1.76966E+18,12.21382788,0.225999836,-0.357773574,0.372022464,0.577528536,1.579987049,0.685152888
1.76966E+18,12.22381592,0.42573418,-0.782610513,0.466187771,0.566046357,1.583321452,0.660543144
1.76966E+18,12.23380396,0.7064628,-1.235344344,0.532260957,0.555060029,1.569821,0.605900407
1.76966E+18,12.24379199,1.138370993,-1.669748737,0.5573802,0.532062531,1.565006018,0.504847527
