time,seconds_elapsed,z,y,x
1769667884480579300,0.072579345703125,0.3867927474528551,-1.391727330121398,-0.5286749147802591
1769667884490568400,0.082568359375,0.49478258205056186,-1.5536796410530804,-0.5071989960312843
1769667884500557300,0.092557373046875,0.538227756023407,-1.868044281154871,-0.38928953270465133
1769667884510545200,0.102545166015625,0.705779786658287,-2.012642137181759,-0.2940817305296659
1769667884520534300,0.1125341796875,0.9643781158745288,-2.2213386636316774,-0.3020128157898784
1769667884530523400,0.1225234375,1.2093044780910014,-2.436156303310394,-0.3807759713813662
1769667884540511500,0.132511474609375,1.37225281432271,-2.684287599048018,-0.527903053624928
1769667884550500400,0.142500244140625,1.3918027334451675,-2.8092314910560843,-0.6061334175139665
1769667884560488200,0.15248828125,1.320221013790369,-2.859775098857283,-0.6259367268756032
1769667884570477300,0.162477294921875,1.3003835098981857,-2.6287363922178746,-0.586680529025197
1769667884580466200,0.172466064453125,1.1955682867486028,-2.166616893362999,-0.4559779273599386
1769667884590454300,0.182454345703125,0.9587726240176707,-1.5796446879148482,0.3444976202979684
1769667884600443400,0.192443359375,0.3644973290145397,-1.1791700365900992,0.6374205361813307
1769667884610432500,0.2024326171875,-0.14615743349380791,-0.9563216506689787,0.7590431748121976
1769667884620420000,0.212420166015625,-0.1899031247831881,-1.243448155233264,1.1018535726755856
1769667884630409200,0.2224091796875,-0.4759564471580088,-1.5886708749353884,1.4994003538548946
1769667884640398300,0.2323984375,-0.42349093138352034,-1.9071376896589993,1.4855724656410514
1769667884650386400,0.242386474609375,-1.1906325108468532,-2.384555295410752,1.6255742260493338
1769667884660375300,0.252375244140625,-0.7243596917048096,-2.7562136020958423,1.0152304973639548
1769667884670363400,0.26236328125,1.1207669474601745,-2.1383084982454776,-0.038665684611350296
1769667884680352300,0.272352294921875,2.038351309586316,-2.2814047175377605,0.10216039779186248
1769667884690341000,0.282341064453125,2.2715467558681963,-3.1303093650609255,-0.26451032973900435
1769667884700329200,0.2923291015625,2.4489520719975233,-2.7653835815012453,-0.011199293275922536
1769667884710318300,0.302318359375,2.4282015449136494,-2.5732412994891405,-0.3022971856892109
1769667884720307500,0.312307373046875,1.7268763995766638,-2.397712883147597,-0.039349136830866334
1769667884730295300,0.32229541015625,1.3457830328091978,-2.3116034564465284,0.037396979849785565
1769667884740284400,0.332284423828125,0.8461407357677817,-2.5961288386017083,-0.1875923636227846
1769667884750272300,0.342272216796875,0.16069178947657345,-2.9127374582380057,-0.46955520181357857
1769667884760261400,0.352261474609375,-0.053007952088117594,-2.862332966646552,-0.7611625050537287
1769667884770250200,0.362250244140625,-0.5399836597800255,-2.547677819165587,-1.1233483422555028
1769667884780238300,0.37223828125,-1.1598922124072908,-2.413684943783283,-1.5748993930839001
1769667884790227500,0.3822275390625,-1.9162161913886666,-2.3582003724485636,-1.6690123857595025
1769667884800216300,0.39221630859375,-2.1524396071895957,-2.44134802673459,-1.6426754368454217
1769667884810204200,0.4022041015625,-0.7803469518646597,-1.9067747015655039,-0.9895306773096323
1769667884820193300,0.412193359375,0.08273205922245978,-1.0753647942006588,-0.8787691860415041
1769667884830181400,0.422181396484375,0.15333528923392295,-1.0176263064593076,-1.01638156709522
1769667884840170500,0.43217041015625,-0.41703298741579053,-1.256642567849159,-0.8080861687920987
1769667884850159400,0.442159423828125,-0.5781140684708953,-0.7908698071837424,-0.6119755676709115
1769667884860147200,0.452147216796875,-1.0168813333109021,-0.8725380365669727,-0.17476064683943987
1769667884870136300,0.46213623046875,-1.0325038498565553,-0.3463748123466968,0.4807037878155708
1769667884880125200,0.472125244140625,-0.3568202185153961,0.11070844590663909,0.4406196147084236
1769667884890113300,0.48211328125,0.20916122135221957,0.5837035590410232,0.28831279173940416
1769667884900102400,0.492102294921875,0.7923650141775608,0.9937181921273469,0.05680690597966313
1769667884910090500,0.502090576171875,0.5362403815984725,0.803358701878786,-0.28737068858370185
1769667884920079000,0.5120791015625,-0.2503729371845722,0.6577525455921888,-0.37815935914218424
1769667884930068200,0.522068115234375,-0.8618295955479145,0.8804758438289165,-0.1333490245208144
1769667884940056300,0.532056396484375,-0.11641454859375953,0.6454927834779024,-0.4975421098917722
1769667884950045400,0.54204541015625,0.46785921155065296,0.6657838763564825,-0.43688335078954693
1769667884960034300,0.552034423828125,0.8358426291152834,0.49740650081336496,-0.43573958758190273
1769667884970022400,0.5620224609375,0.4832876668289304,0.37944238469004626,-0.6721389444716275
1769667884980011300,0.57201123046875,0.08209668392837047,0.30413141537904737,-0.2851582732312381
1769667884989999400,0.581999267578125,0.268991712936759,1.038009753796458,-0.21208894536718725
1769667884999988200,0.59198828125,0.35618250513374805,1.8295219505369662,-0.45092999632060526
1769667885009977300,0.601977294921875,0.04398118054568767,2.1572493455588817,-0.35161782756671306
1769667885019965400,0.61196533203125,3.0776246535778045,2.9635704043745994,-0.7547559990122914
1769667885029954600,0.62195458984375,-1.9368653039246797,3.763011056026816,0.7164791675880551
1769667885039943200,0.631943115234375,-4.626735671541095,2.487174542886019,-0.7779223550662397
1769667885049931300,0.64193115234375,-0.997350995671749,0.6398211675822735,-1.4493926064960658
1769667885059920400,0.65192041015625,0.3971779478669166,0.6278273629277944,-1.2486582910969852
1769667885069908500,0.661908447265625,0.7569032401740551,1.1599696615576744,-0.6441244177341461
1769667885079897300,0.6718974609375,0.5438298138141632,0.6422299822896719,-0.8077310717441141
1769667885089886500,0.681886474609375,0.7653747159212827,0.31334874105751515,-1.1382101035617291
1769667885099874300,0.691874267578125,0.49168929221034047,0.03461012561023235,-0.4781622866392135
1769667885109863200,0.70186328125,0.770059074345231,-0.02618541161417961,-0.37323081669881936
1769667885119852300,0.711852294921875,1.08192722145617,0.05772387469410896,-0.5896823411896824
1769667885129840400,0.72184033203125,1.2295453020870686,0.2505494627952575,-0.4081878560505807
1769667885139829500,0.73182958984375,1.3324521343320608,0.28778409169018265,-0.3755591135159135
1769667885149818400,0.741818359375,1.4708622416347263,-0.03220540255606174,-0.5691976254351436
1769667885159806200,0.75180615234375,1.6486603564739226,-0.042052842831611634,-0.4575023604482412
1769667885169795300,0.76179541015625,1.6800111880272626,-0.18728899676203728,-0.3461719832509756
1769667885179783400,0.771783447265625,1.661696363657713,-0.4154179534345865,-0.2244911846920848
1769667885189772300,0.781772216796875,1.4844319173038005,-0.37483050698041914,-0.05673880917951464
1769667885199761400,0.791761474609375,0.8473129944175481,-0.30836744551360606,0.3436645304746926
1769667885209749200,0.801749267578125,0.04279986180663108,-0.7201561025351285,0.6363758494339883
1769667885219738400,0.81173828125,-0.11104454599320888,-0.6820832692503929,0.6527946309238671
1769667885229727200,0.821727294921875,0.06023790334165096,-0.3416887003570795,1.0976486683316529
1769667885239715300,0.83171533203125,0.5433189416825771,-0.2791290760695934,0.9703449153244494
1769667885249704400,0.841704345703125,0.9985001657068728,0.7696148377090692,0.46910029765293
1769667885259692500,0.851692626953125,1.0392787508189678,2.700744812852144,0.7473121127471327
1769667885269681200,0.86168115234375,1.2091519178777932,3.135502257528901,0.9081317663870752
1769667885279670300,0.871670166015625,1.0562485903203487,2.2300836956232786,0.7863529142811894
1769667885289658400,0.881658447265625,0.975153776910901,1.5364379988729953,0.23287805089578031
1769667885299647200,0.891647216796875,1.1559341224312782,1.1511994951248168,0.02563976043015718
1769667885309636400,0.90163623046875,1.3800117578864097,1.2848404883295297,-0.050775078469514845
1769667885319624400,0.91162451171875,0.6091325993299483,0.7908820821434259,0.4233366176046431
1769667885329613600,0.921613525390625,0.7314093179553747,0.838963683745265,0.5491277740918099
1769667885339601200,0.93160107421875,1.188926291450858,0.7754372602522372,0.6630595659591257
1769667885349590300,0.94159033203125,1.4346435117840766,0.5653174230009317,0.7264715692922472
1769667885359579400,0.951579345703125,1.6505016004264355,0.271574715167284,0.5649826380886137
1769667885369567500,0.9615673828125,1.7650795812427997,0.11996318098604679,0.2808133758947253
1769667885379556400,0.971556396484375,1.852663172149658,0.36507074498832226,-0.07410612356588243
1769667885389545500,0.98154541015625,1.785883299818635,0.574444147786498,-0.13468728738725186
1769667885399533300,0.991533203125,1.710596295905113,0.9562292962104082,-0.33631869775652884
1769667885409522200,1.001522216796875,1.7014011820584534,1.3719558772027491,-0.45753699337020515
1769667885419510300,1.01151025390625,1.5029589231193066,1.7326649198502302,-0.3806641815699637
1769667885429499400,1.02149951171875,1.347606448844075,1.8466513645142315,-0.35529213216528294
1769667885439488500,1.031488525390625,1.2423030768513679,1.6386252846717833,-0.18486878387778996
1769667885449476600,1.0414765625,1.2814397399753332,1.1379752718925475,-0.11597250391468406
1769667885459465200,1.05146533203125,1.2782307148009537,0.7394061619281769,0.14457476741224526
1769667885469454300,1.061454345703125,1.159478078648448,0.8073468947321176,0.38803237225040793
1769667885479442400,1.0714423828125,1.4179068965166806,1.1029524738281964,0.5429582916766404
1769667885489431300,1.081431396484375,1.4157038335144518,1.2911591699570417,0.6086350250713527
1769667885499419400,1.09141943359375,1.7226795324087143,1.5085831927418707,0.4947666538290679
1769667885509408500,1.101408447265625,1.8510399548619985,1.5890642581671475,0.4383262430742383
1769667885519397400,1.1113974609375,1.9239391868561506,1.5576011984109877,0.33620939216315743
1769667885529385200,1.12138525390625,2.026954155650735,1.593733419021964,-0.08520546359866857
1769667885539374300,1.131374267578125,1.7835569026976823,1.5072054746478796,-0.08570347624868153
1769667885549363500,1.141363525390625,1.622924442192912,1.3565525563657284,-0.1749701979368925
1769667885559351600,1.1513515625,1.6018243710190057,1.2470505636394023,-0.16713891978934406
1769667885569340400,1.16134033203125,1.461502292615175,1.163331246945262,-0.14779606754630803
1769667885579328300,1.171328369140625,1.3244710724502802,1.262315937310457,-0.20367241467759012
1769667885589317400,1.1813173828125,1.089047867116332,1.3395616740763188,-0.20923180237039923
1769667885599306200,1.19130615234375,0.7896756289631128,1.1529086371302604,-0.18106442315876484
1769667885609294300,1.20129443359375,0.6291928060621023,0.9982377153784036,-0.2735176659286022
1769667885619283500,1.211283447265625,0.568222496792674,0.9104787679046392,-0.22662775832936166
1769667885629272600,1.2212724609375,0.46422903835475443,0.7946855660796165,-0.17800518171861768
1769667885639260400,1.231260498046875,0.3790536776334047,0.7039701068878174,-0.15667758539915083
1769667885649249300,1.241249267578125,0.29570319425165653,0.6142576872587203,-0.20701178823336958
1769667885659237400,1.2512373046875,0.13601122946739197,0.49266602828800676,-0.21910130834728478
1769667885669226500,1.2612265625,0.06952420260310173,0.45862756508588787,-0.2917303450979292
1769667885679215400,1.27121533203125,-0.001998480340838432,0.39468846913874145,-0.3644609425269067
1769667885689203200,1.281203125,-0.2673053672850132,0.33257015887796876,-0.37603213785514233
1769667885699192300,1.2911923828125,-0.4833440731912851,0.19823884532153604,-0.46829614166319367
1769667885709181200,1.30118115234375,-0.7037129172563552,0.046587563651800154,-0.3623061025805771
1769667885719169300,1.311169189453125,-0.7081131980419159,-0.04152735765278339,-0.3619206103943288
1769667885729158400,1.321158447265625,-0.8722387613594531,-0.21256839944720268,-0.30223975641354917
1769667885739146500,1.331146484375,-0.8186988943517207,-0.288781286033988,-0.40258492147699
1769667885749135400,1.34113525390625,-0.8986807780832051,-0.2127501857548952,-0.2745876332476735
1769667885759124200,1.351124267578125,-0.8583230487316846,-0.34206104080080985,-0.3995046372488141
1769667885769112300,1.3611123046875,-0.6743307554274797,-0.28744857612550256,-0.4058594131030142
1769667885779101400,1.371101318359375,-0.578793575167656,-0.37628479744195936,-0.3682482059806585
1769667885789090300,1.38109033203125,-0.5776952585369348,-0.4682312597334385,-0.4122200341761112
1769667885799078400,1.391078369140625,-0.5283744705289602,-0.43585576130747794,-0.40125834904834623
1769667885809067500,1.401067626953125,-0.5332867924898863,-0.4195078530967235,-0.47387350340411066
1769667885819055400,1.411055419921875,-0.535987868142128,-0.38975861152112484,-0.525114884211123
1769667885829044200,1.421044189453125,-0.48356385342180724,-0.3380757705569267,-0.542896770747751
1769667885839033300,1.431033447265625,-0.44152737720310686,-0.22073592381179333,-0.44756972610726947
1769667885849021400,1.441021484375,-0.41654491163790225,-0.14168518345057962,-0.30514848346710205
1769667885859010600,1.451010498046875,-0.35634792482852934,-0.1319014560610056,-0.24575945203974842
1769667885868999400,1.46099951171875,-0.4299930067539215,-0.07989595901370047,-0.2209329076886177
1769667885878987300,1.4709873046875,-0.47954643447399137,-0.038918051937222475,-0.23363734483048318
1769667885888976400,1.480976318359375,-0.5073410348504781,0.08375321896374226,-0.2634844938226044
1769667885898964500,1.490964599609375,-0.4832569794297218,0.22784955520927905,-0.2536019822336733
1769667885908953300,1.500953369140625,-0.4184586363047361,0.18539923749268053,-0.2787624347142875
1769667885918942500,1.5109423828125,-0.30060733290612696,0.17510405344963073,-0.31273353176862
1769667885928930300,1.520930419921875,-0.19891455262601374,0.22149989392161368,-0.258618495221436
1769667885938919400,1.53091943359375,-0.16102058303952216,0.3829530231595039,-0.16661811078563332
1769667885948908300,1.540908203125,-0.07876315559148787,0.4706967730641365,-0.11024024387300013
1769667885958896400,1.550896484375,-0.017619243320822715,0.4994003049790859,-0.07928907916173339
1769667885968885500,1.560885498046875,0.03520107724070549,0.455872713419795,-0.12854381619617342
1769667885978873300,1.570873291015625,0.11065876154601573,0.4084516215533018,-0.13998013309836388
1769667885988862200,1.5808623046875,0.16984394096434116,0.5169944138586521,-0.1648208521053195
1769667885998851300,1.590851318359375,0.11751461879014968,0.6541109742194414,-0.28285189598500726
1769667886008839400,1.60083935546875,0.1183762040555477,0.8037368875414133,-0.23684563935250041
1769667886018828300,1.610828369140625,0.10391571702659129,0.7491086407750844,-0.12561623831167817
1769667886028817400,1.6208173828125,0.22565175290405748,0.6733066730767489,-0.10630261216312646
1769667886038805500,1.630805419921875,0.23426643651425838,0.4911895259946584,0.0352976694829762
1769667886048794400,1.64079443359375,0.2731687063604593,0.25194822367727754,0.053243076018244025
1769667886058782500,1.650782470703125,0.36647009039223194,0.2167149977326393,0.17367840456068515
1769667886068771300,1.660771240234375,0.3823644096165895,0.18632219755649565,0.2279404483631253
1769667886078760400,1.670760498046875,0.32650223714113236,0.11148059932291507,0.24455212207660076
1769667886088748500,1.68074853515625,0.2158914063900709,0.059541737771034234,0.2016457311555743
1769667886098737400,1.6907373046875,0.035839959666132924,-0.0473392588019371,0.08882116987779735
1769667886108726300,1.700726318359375,-0.10240589698553085,-0.08637772224843501,-0.0007315291449427605
1769667886118714400,1.71071435546875,-0.22025603134036062,-0.055821255943179125,-0.09305573870763183
1769667886128703200,1.720703125,-0.2842740377426147,-0.014440613284707068,-0.09415449372977018
1769667886138691300,1.73069140625,-0.3194622555017471,-0.055368251478672026,-0.023098551514744756
1769667886148680400,1.740680419921875,-0.3290396466642618,-0.1614589744567871,0.0850084797218442
1769667886158669600,1.750669677734375,-0.3268699014097452,-0.2599140879899263,0.16911401925459504
1769667886168657400,1.760657470703125,-0.353785965386033,-0.2721580680131912,0.214818808722496
1769667886178646300,1.770646240234375,-0.3540998536407947,-0.31229660165607925,0.23537074449434875
1769667886188635400,1.780635498046875,-0.312063961943984,-0.3134101158559322,0.21875629430189727
1769667886198623500,1.79062353515625,-0.26378186933398245,-0.33411037405729294,0.23239757390245794
1769667886208612400,1.8006123046875,-0.20737258436977862,-0.3363888403832912,0.32582112300917504
1769667886218600200,1.81060009765625,-0.128920394423604,-0.2944569935828447,0.2981764524973929
1769667886228589300,1.82058935546875,-0.05721475612819194,-0.19583529131114483,0.2905056256085634
1769667886238578400,1.830578369140625,0.11224281586706637,-0.13812135348916052,0.2571140820078552
1769667886248566300,1.840566162109375,0.1498778422564268,-0.1511760653734207,0.23027166778966784
1769667886258555400,1.850555419921875,0.07382277657985686,-0.09073884006738663,0.12261179579868912
1769667886268544500,1.86054443359375,-0.006147416713833808,0.05188508553802967,-0.04654124029204249
1769667886278532400,1.870532470703125,-0.065717211535573,0.17585633312165735,-0.030875030735135076
1769667886288521200,1.880521240234375,0.005154898545145988,0.20073124665915965,-0.004500964681059122
1769667886298510300,1.89051025390625,0.011433832684159278,0.22454233035743235,0.07777677490264177
1769667886308498400,1.90049853515625,-0.031495792981982226,0.28247020319104194,0.21143340406790376
1769667886318487300,1.9104873046875,-0.04630640862286091,0.3374345500439405,0.30726562175154687
1769667886328475100,1.92047509765625,0.011751228070259094,0.3068850980013609,0.3218680014692247
1769667886338464300,1.93046435546875,0.11422668316066265,0.26859657613933086,0.2795281583897769
1769667886348453400,1.940453369140625,0.2162795289248228,0.33766894332170483,0.24245704949349164
1769667886358441500,1.95044140625,0.33966976175010205,0.40754444358050823,0.17142098102271555
1769667886368430300,1.960430419921875,0.41671909916102884,0.4434060305565595,0.12305530178248882
1769667886378418400,1.97041845703125,0.48638358701765533,0.2941664862036705,0.13059578028991817
1769667886388407300,1.9804072265625,0.3552507772415876,0.21219021378457545,0.17219649543985724
1769667886398396200,1.990396240234375,0.29158932919204233,0.07566168244481086,0.19464739670082926
1769667886408384300,2.00038427734375,0.3318067732900381,0.06051262862980365,0.2275644546575844
1769667886418373400,2.010373291015625,0.5263251367837191,-0.12296703897714614,0.25828940939754247
1769667886428362500,2.020362548828125,0.8254565519183874,-0.37666473667025563,0.28337095142304897
1769667886438350300,2.030350341796875,0.9529776009380817,-0.5147492652803659,0.3493962059944868
1769667886448339200,2.040339111328125,0.823939133092761,-0.5216518842756748,0.23691212871745226
1769667886458327300,2.050327392578125,0.6719400608986615,-0.4509370105832815,0.09802826642319559
1769667886468316400,2.06031640625,0.5301309588074684,-0.3885094882428646,0.030315058764815328
1769667886478305300,2.07030517578125,0.4630576564878225,-0.41441783648133274,-0.007932108173519373
1769667886488293400,2.08029345703125,0.33226620749533176,-0.42745851984024047,0.02308437685891986
1769667886498282500,2.090282470703125,0.20658289529681204,-0.42624622144103047,0.03676277359947562
1769667886508271000,2.10027099609375,0.23085575128793714,-0.4960141696721315,0.041831528231129046
1769667886518259200,2.11025927734375,0.17529110045433044,-0.4375830234915018,-0.015261501213535665
1769667886528248300,2.120248291015625,0.01581833137869835,-0.31543373063802715,-0.1521137115497142
1769667886538236400,2.130236328125,0.012865326792001723,-0.38272564414441584,-0.2727588103853166
1769667886548225300,2.140225341796875,-0.04392506644427776,-0.1960842976361513,-0.21068412007056175
1769667886558214400,2.15021435546875,-0.08881342496275901,-0.15300971054136753,-0.1929188924077898
1769667886568202200,2.1602021484375,-0.07994681241810321,-0.2694610840141773,-0.45409890868030484
1769667886578191400,2.17019140625,-0.21028291885852812,-0.29114392351210117,-0.614568068382144
1769667886588180200,2.18018017578125,-0.2819008788704872,0.05605564922094345,-0.5499919897057116
1769667886598168300,2.190168212890625,-0.3874889130234718,0.04331190298199653,-0.733954983850196
1769667886608157400,2.200157470703125,-0.5877899515718221,-0.01830664106309414,-0.7481341697197407
1769667886618146300,2.210146240234375,-0.6570166325330734,-0.0770978527277708,-0.6803768306586891
1769667886628134100,2.220134033203125,-0.39509938802719113,-0.002475450202822685,-0.5454612874735146
1769667886638123300,2.230123291015625,-0.03958616045713424,0.12265022811293601,-0.4177579406894743
1769667886648111400,2.240111328125,0.14472820440828799,0.19220774846374988,-0.31161599898077547
1769667886658100500,2.2501005859375,0.12020049687325954,0.20241233161389827,-0.25583134872093793
1769667886668089300,2.26008935546875,-0.023463293173909185,0.20283084928691386,-0.15830745162330567
1769667886678077200,2.2700771484375,-0.06859539732038974,0.16448329071402548,-0.12230550632849335
1769667886688066300,2.28006640625,0.03770049284100532,0.18494097233116627,-0.1646121777907014
1769667886698055200,2.29005517578125,0.2511877606987953,0.235244341635704,-0.0733659727230668
1769667886708043300,2.300043212890625,0.34443419967293737,0.21178338654935358,-0.0025710925970226523
1769667886718032400,2.310032470703125,0.3203057205885649,0.05153846405744552,0.07153788051307201
1769667886728020500,2.3200205078125,0.3328051366776228,-0.03758125037550926,0.20057072233520448
1769667886738009000,2.330009033203125,0.4355664229720831,-0.04738251342177391,0.20849800820313394
1769667886747998200,2.339998291015625,0.5011901110053062,-0.10932838972508907,0.07742576950788498
1769667886757986300,2.349986328125,0.4311877694964409,-0.15312661491930485,0.02987769026085734
1769667886767975400,2.359975341796875,0.3554752336472273,-0.07973404645025729,0.06347893108949065
1769667886777963500,2.369963623046875,0.30379765338003634,-0.15866320625841618,0.08808343018777667
1769667886787952400,2.379952392578125,0.08043664176166057,-0.3179839996427297,0.07986950939819216
1769667886797941500,2.38994140625,-0.07863514529764652,-0.17617372850775717,0.050001902139931914
1769667886807929300,2.399929443359375,-0.09712240362465381,-0.09667115272581576,0.03801635385714471
1769667886817918200,2.409918212890625,0.16472469825446603,-0.4231248745501041,-0.04383782655224204
1769667886827907300,2.4199072265625,0.18339374288916588,-0.29075697002112866,-0.00469166494756937
1769667886837895400,2.4298955078125,0.1870312226086855,0.04673135603666305,0.045762364874035115
1769667886847884500,2.439884521484375,0.13273790688514708,-0.01366319917142391,-0.1310488578196615
1769667886857873400,2.449873291015625,-0.015228548792004585,-0.08470248251259327,-0.17964739596769214
1769667886867861200,2.459861328125,-0.09735504333674908,-0.153689509499073,-0.14934037437886
1769667886877850400,2.469850341796875,0.06404138727784156,-0.17336042465269563,-0.024755524941533803
1769667886887838500,2.47983837890625,0.238178057000041,-0.15564531974196433,-0.025506562504544854
1769667886897827300,2.489827392578125,0.07677519664466381,-0.08889408898353576,0.02376125320717692
1769667886907816400,2.49981640625,0.029653379985690113,-0.20492285313010214,-0.07158420387282967
1769667886917804300,2.50980419921875,-0.03450900332331657,-0.08802782754302024,-0.03186908327378332
1769667886927793200,2.519793212890625,-0.15912907020449638,-0.028607670325040815,0.1082045733269304
1769667886937782300,2.5297822265625,-0.046972179055213927,-0.14974983196258543,0.19937574039697645
1769667886947770400,2.539770263671875,-0.035331425622105596,-0.11749942122101784,0.21637465986236928
1769667886957759500,2.549759521484375,0.03844575825035572,-0.19876257693469523,0.1120856525439769
1769667886967747300,2.559747314453125,0.02709375863075256,-0.06467150187492371,0.13471322554610668
1769667886977736200,2.569736083984375,-0.15124328539073467,0.03763736447691917,0.06346366045512258
1769667886987725300,2.579725341796875,-0.23035306246280668,0.02512450438439846,-0.2653681156121194
1769667886997713400,2.58971337890625,-0.5094681100070476,0.019808277797698972,-0.3372284330125898
1769667887007702300,2.599702392578125,-0.6056991177499293,-0.0150187054336071,-0.4428470084343105
1769667887017691400,2.60969140625,-0.5631774883627891,0.15026830287873744,-0.4378226774662733
1769667887027679500,2.619679443359375,-0.48987318269908425,0.26108839246630666,-0.5132135070804507
1769667887037668400,2.62966845703125,-0.34848668993413445,0.22533552656173705,-0.5530092186350375
1769667887047656200,2.63965625,-0.31853695735037324,0.20509236447811124,-0.6847826644022017
1769667887057645300,2.649645263671875,-0.39475393559038635,0.32252865733504293,-0.7759380493812262
1769667887067634400,2.659634521484375,-0.46120355305373667,0.43589784688353533,-0.7855486852262169
1769667887077622500,2.66962255859375,-0.4227583793252706,0.3704097679287195,-0.6062806439649313
1769667887087611400,2.679611328125,-0.17402677960693835,0.25624387504458424,-0.32839396917186675
1769667887097600300,2.689600341796875,0.0028676643908023833,0.17171499553322792,-0.16389051245264707
1769667887107588400,2.69958837890625,0.08036649913489818,0.10547346786260604,-0.017582564572244882
1769667887117577200,2.7095771484375,0.09580079963207244,0.08335632860064505,0.02226962640993297
1769667887127565300,2.7195654296875,0.018542787906527518,0.08698328692615032,-0.01258884793817997
1769667887137554400,2.729554443359375,-0.08745850322246551,0.04909048638343811,-0.03764415954388678
1769667887147543600,2.73954345703125,-0.08297755841612815,0.013344050219655037,-0.07484254808165132
1769667887157531100,2.74953125,0.031248540222644804,0.005086509484052658,-0.07255896718911826
1769667887167520300,2.759520263671875,0.1887432872235775,0.014088731107115745,-0.018490400132164356
1769667887177509400,2.76950927734375,0.3253928145945072,0.024485037437081334,-0.0927848858769983
1769667887187497500,2.77949755859375,0.2842021415501833,0.0038140053302049633,-0.19335604171603918
1769667887197486300,2.789486328125,0.06356266385018826,-0.0044184009641408915,-0.28447116774991155
1769667887207475500,2.799475341796875,-0.04625964687168598,-0.019890110862255096,-0.3882745104432106
1769667887217463300,2.80946337890625,-0.1118190374970436,0.017162731724977492,-0.41993645377233624
1769667887227452200,2.8194521484375,-0.15159750565588473,0.09787702138423919,-0.4022703025698662
1769667887237440300,2.829440185546875,-0.04207213205397129,0.09789572608470916,-0.39541437226049597
1769667887247429400,2.839429443359375,0.1553817003697157,0.07197218027710914,-0.29290596474856134
1769667887257418500,2.84941845703125,0.2815191860765219,0.0602840805709362,-0.17889343579523265
1769667887267406300,2.85940625,0.4346966544002294,-0.04587327790260315,-0.08112783889621496
1769667887277395200,2.869395263671875,0.5200806894361972,-0.15293021556437014,0.07140534017458558
1769667887287384300,2.87938427734375,0.4551794704586267,-0.17748305754065513,0.15437610352374612
1769667887297372400,2.889372314453125,0.3626654374122619,-0.19679741434156894,0.11674911431036888
1769667887307361300,2.899361328125,0.19478315190970896,-0.10013502944409847,0.07309000532589853
1769667887317349400,2.909349365234375,-0.003231821528077125,-0.019444705182313917,0.04581365666985512
1769667887327338500,2.91933837890625,-0.08577566470205783,0.009914660292863845,0.07954210407473146
1769667887337327400,2.929327392578125,-0.038109073641896245,0.021041618984937668,0.13337298991829155
1769667887347315500,2.9393154296875,0.02007072812616825,-0.003950783452391624,0.08384995733648538
1769667887357304600,2.9493046875,0.05223930580317974,-0.008017302238941192,0.0960319780394435
1769667887367293700,2.959293701171875,0.10248363839685916,-0.042483050942420955,0.047215997748449444
1769667887377281500,2.969281494140625,0.10514087490737438,-0.10098960044682025,-0.019928323980793354
1769667887387270400,2.9792705078125,-0.045485155367851256,-0.018963059145212173,-0.11202632357217371
1769667887397258500,2.989258544921875,-0.22301672822535037,0.014119710767269134,-0.17483436966277657
1769667887407247600,2.99924755859375,-0.21892273690998554,0.00158814597427845,-0.1854462915048003
1769667887417236500,3.009236572265625,-0.18149404674768446,0.007521043154597282,-0.030537688539549707
1769667887427224300,3.019224365234375,-0.170543613666296,0.004015665382146835,0.0697022625837475
1769667887437213400,3.02921337890625,-0.07244038231074809,-0.0421498734652996,0.07174187865257263
1769667887447202600,3.03920263671875,-0.005467033234238625,-0.12696575322449208,0.08846008148044347
1769667887457190400,3.0491904296875,0.053556233620643615,-0.14219079488515854,0.07708060933202504
1769667887467179500,3.059179443359375,0.05027648129761219,-0.07042144370377064,0.09463986609391868
1769667887477167600,3.069167724609375,-0.12646072631180286,-0.10285305623114109,-0.007760843259841203
1769667887487156500,3.079156494140625,0.12233926246762275,0.01056932480931282,0.07166837502494454
1769667887497145300,3.089145263671875,0.05364683451354503,-0.04360007227361202,0.12193448105901479
1769667887507133400,3.099133544921875,-0.06364215882718563,-0.05426759676039219,-0.06379983360692858
1769667887517122600,3.10912255859375,-0.03539572302997112,-0.0661526803433895,-0.08422324762828648
1769667887527111400,3.119111328125,0.004165887507796288,-0.05826748005151748,-0.11100530996136367
1769667887537099500,3.129099609375,0.03201484842002392,-0.0332616336107254,-0.08795710039436817
1769667887547088400,3.13908837890625,0.04691840304136276,0.010437807384133338,-0.08672953136079013
1769667887557077500,3.149077392578125,0.09479483745992183,0.0173322430729866,-0.046565351819992065
1769667887567065600,3.159065673828125,0.05849369002282619,0.015062544575333594,-0.04365940124541521
1769667887577054500,3.169054443359375,0.07738251488804816,0.01634557012319565,-0.06383388200700282
1769667887587042600,3.17904248046875,0.10615794299542904,0.03131751380562782,-0.05534194799363613
1769667887597031700,3.18903173828125,0.15891864232420921,0.015132687202095985,-0.06446991488821804
1769667887607020300,3.199020263671875,0.20706571037769317,-0.015507950255274771,-0.011870105209574103
1769667887617008400,3.20900830078125,0.19784137043654917,-0.04227554567158222,0.03757854696176946
1769667887626997500,3.21899755859375,0.12637772420346735,-0.04950958857834339,-0.00402677129805088
1769667887636986400,3.228986328125,0.09425357019007205,-0.0560708467900753,-0.051370998536050316
1769667887646974500,3.238974365234375,0.024714754539728163,-0.043345805251598354,-0.10962532684504986
1769667887656963600,3.248963623046875,-0.20254501808285713,-0.10284954909980297,-0.18779482739232478
1769667887666951400,3.258951416015625,0.046941199395060536,0.01771101325750351,-0.2572079708363861
1769667887676940500,3.2689404296875,0.1218839199155569,0.0016109423279762267,-0.08237045936845243
1769667887686929400,3.278929443359375,-0.05488835900723934,0.0059761518001556395,-0.14472513566836714
1769667887696917500,3.28891748046875,-0.04482406111061573,-0.03744271868765354,-0.13695143292695283
1769667887706906600,3.29890673828125,0.10130407322347164,-0.053009705653786654,-0.1326866881545633
1769667887716895500,3.3088955078125,0.13462065189182756,-0.007254501172900199,-0.14053469824120401
1769667887726883300,3.31888330078125,0.1064817681223154,0.02878302689194679,-0.1520494872070849
1769667887736872400,3.32887255859375,0.08474339904487133,0.006435586005449295,-0.14517667882815002
1769667887746860500,3.338860595703125,0.05680559080541134,-0.005291092145442962,-0.13104878475442527
1769667887756849400,3.348849365234375,0.020205168160796164,-0.03412321887612343,-0.14654519070237873
1769667887766838500,3.358838623046875,0.053122518378496165,-0.08134323521256447,-0.13178046002984045
1769667887776826400,3.368826416015625,0.11822364384233951,-0.12921791606545446,-0.0762053608674556
1769667887786815500,3.3788154296875,0.11764730525910853,-0.13651391829252243,-0.04262457830496132
1769667887796804400,3.388804443359375,0.07006020917594433,-0.10704875435531139,-0.0394670641221106
1769667887806792400,3.39879248046875,-0.0033966567009687423,-0.07499474296867847,-0.07032280563488602
1769667887816781600,3.408781494140625,-0.06136603058874607,-0.0971884545981884,-0.05054243875741958
1769667887826769700,3.418769775390625,-0.2749257791608572,-0.1271218205690384,-0.13956629160046577
1769667887836758500,3.428758544921875,0.23358371494710445,0.038681320571899415,-0.06022796646952629
1769667887846747400,3.438747314453125,0.345341377645731,0.04983925892412662,0.012160977914929389
1769667887856735500,3.448735595703125,0.14970482377707958,0.04575871161222458,-0.14808080277182162
1769667887866724600,3.458724609375,0.10832768824994564,0.04615151032209396,-0.10821012628488241
1769667887876713500,3.46871337890625,0.16617606610655783,0.017186112600564955,-0.017869564820080994
1769667887886701600,3.47870166015625,0.1275736559897661,-0.004205050474405289,0.049027431084588166
1769667887896690700,3.488690673828125,0.10975275261700153,0.003944353711605072,0.015695581781864164
1769667887906679300,3.49867919921875,0.046698038288950916,-0.030929975792765615,-0.0027989100035279986
1769667887916667400,3.50866748046875,-0.051100657162070275,-0.039302082818746566,-0.01598170524686575
1769667887926656500,3.518656494140625,-0.09542670562267302,0.00566109450161457,-0.02025448719523847
1769667887936644600,3.52864453125,-0.048208442851901054,0.04070610439777374,-0.028437720585614442
1769667887946633500,3.538633544921875,0.014597265151143074,0.06351414853334426,-0.028855434541031715
1769667887956622600,3.54862255859375,0.06395546256005763,0.07491524799168109,-0.07226524493955075
1769667887966610400,3.5586103515625,0.1455780992358923,0.052580082064867015,-0.09863507320992648
1769667887976599600,3.568599609375,0.1358306122034788,0.03502279806435108,-0.12334580916166304
1769667887986588400,3.57858837890625,0.02701718626320362,0.01840016456544399,-0.11428477002345025
1769667887996576500,3.588576416015625,-0.06875789440572261,-0.03097147684693336,-0.0855816764999181
1769667888006565600,3.598565673828125,-0.09032675213515758,-0.08344751401543617,-0.036793680194392796
1769667888016553500,3.608553466796875,-0.1476169115871191,-0.06052548811137676,-0.01533018253557384
1769667888026542300,3.618542236328125,-0.14602701204717158,-0.039539983227849004,0.01588167893849313
1769667888036531500,3.628531494140625,-0.0379021528929472,-0.011601590466499327,0.041626141852140426
1769667888046519600,3.63851953125,0.011872224101424217,0.07954875301122664,0.10538798153623938
1769667888056508400,3.64850830078125,-0.0022059856116771696,0.07212240240275859,0.09740297413170337
1769667888066497500,3.65849755859375,-0.03030629093647003,0.05108253698348999,0.06422419649884105
1769667888076485400,3.6684853515625,0.003880640825629234,0.017812720066308973,0.028565803944692013
1769667888086474500,3.678474609375,-0.021994974187016486,-0.007673603367805481,-0.03639642450511455
1769667888096462600,3.688462646484375,-0.27091420543193817,-0.07279635614156722,-0.14728453782759607
1769667888106451500,3.698451416015625,-0.005959785187244415,0.09032967474460601,-0.09091448889523744
1769667888116440600,3.708440673828125,0.10629062946438789,-0.07982406282126903,0.01973608934432268
1769667888126428700,3.7184287109375,-0.12142097857892513,-0.16185235768854617,-0.11066321852542459
1769667888136417300,3.728417236328125,-0.08176759810447692,-0.14832418307363987,-0.05906520630046725
1769667888146406400,3.738406494140625,0.10423720406591892,-0.1889122140496969,0.03576886719129979
1769667888156394500,3.74839453125,0.11194763231277464,-0.12959434816241264,0.08779613767899572
1769667888166383600,3.758383544921875,0.12131225750744343,-0.1076233393728733,0.07725026681050658
1769667888176372500,3.76837255859375,0.10095452913343905,-0.08451952716112136,0.051719592778012156
1769667888186360600,3.778360595703125,0.00575695609152317,-0.09265431829988956,-0.008939385519921779
1769667888196349400,3.788349365234375,-0.06983925990164279,-0.021912556600570676,-0.052217824623733755
1769667888206337500,3.798337646484375,-0.015578092882037162,0.04379647162854671,-0.07872055855877697
1769667888216326400,3.808326416015625,0.0999900680154562,0.09835457576811313,-0.0763181005269289
1769667888226315500,3.8183154296875,0.09773615160882472,0.1435860486358404,0.019896613668277857
1769667888236303600,3.8283037109375,0.09508008414208888,0.13810031070113182,0.14427023150771856
1769667888246292500,3.83829248046875,0.12120353643596171,0.06392565194368362,0.2343496578183025
1769667888256281300,3.84828125,0.1739203966230154,0.0020189386069774627,0.2411735855542123
1769667888266269400,3.85826953125,0.17110007850527761,-0.050769233250617975,0.14229944289140403
1769667888276258600,3.868258544921875,0.17972119185626506,-0.04752046058773994,-0.003745104812458157
1769667888286247400,3.878247314453125,0.14028291543722152,0.005551204386353492,-0.07583484705463052
1769667888296235500,3.888235595703125,0.09027180707752704,0.05328969163894653,-0.099332553954795
1769667888306224600,3.898224609375,0.0524894811719656,0.052071548020839686,-0.11084544322453438
1769667888316212000,3.9082119140625,0.01738718813061714,0.05834639050662517,-0.14796375226341188
1769667888326201000,3.918201171875,0.004558686217665672,0.10264905809164046,-0.19609050818122922
1769667888336190000,3.92818994140625,0.027222937968373297,0.11585808375477791,-0.23634689605012535
1769667888346178000,3.938177978515625,0.009588497078418731,0.0817559076666832,-0.2918638352844864
1769667888356167200,3.948167236328125,-0.11385258915126323,0.07285539285242557,-0.21882482949346302
1769667888366156000,3.958156005859375,-0.28789865798056125,-0.034039632245898246,-0.1021929118219763
1769667888376144000,3.968143798828125,-0.43353754749298096,-0.1411895088881254,-0.031244156308472156
1769667888386133000,3.978133056640625,-0.07887070761919021,-0.12414368154108524,0.3620345190975815
1769667888396121000,3.98812109375,-0.21165771434307099,-0.2275993798404932,0.3539809034362435
1769667888406110000,3.99810986328125,-0.17153437826931475,-0.2610007141828537,0.15974237979725003
1769667888416099000,4.00809912109375,0.07812368864417076,-0.20911504412293433,0.03548427809625864
1769667888426087000,4.0180869140625,0.23474282185435294,-0.2023287449836731,-0.08912475593425333
1769667888436076000,4.028075927734375,0.19330255796313284,-0.21564707624018192,-0.19979162772148845
1769667888446065000,4.03806494140625,0.0547246928781271,-0.22413316503465175,-0.2759097486969083
1769667888456053000,4.048052978515625,-0.07676058359742165,-0.1630833607882261,-0.3243085264891386
1769667888466042000,4.0580419921875,-0.15415128179192542,-0.07399462601542472,-0.3420600909527391
1769667888476031000,4.068031005859375,-0.20424831486940384,-0.06903904943466187,-0.2681047740343958
1769667888486018800,4.078018798828125,-0.1182154605358839,-0.13998422475159167,-0.1722401884511113
1769667888496008000,4.088008056640625,-0.020600304958224295,-0.1996434514224529,-0.16000921403989196
1769667888505996000,4.09799609375,0.03953355348706245,-0.19523849446177483,-0.19583477985449135
1769667888515985000,4.10798486328125,-0.022079729861021042,-0.19321955585479736,-0.23649799495860932
1769667888525974000,4.11797412109375,-0.08032908973395823,-0.13591302978992462,-0.24878742155879735
1769667888535962000,4.127962158203125,-0.08363865267336368,-0.07617021648883819,-0.20897695082649587
1769667888545951000,4.137950927734375,0.021889760246872902,-0.05241057071685791,-0.13075104391686618
1769667888555939800,4.14793994140625,0.189139593064785,-0.04581599475741386,0.02481134678199887
1769667888565928000,4.157927978515625,0.38993163000047204,-0.1000812534302473,0.1582151702299714
1769667888575917000,4.1679169921875,0.4588888463705778,-0.08413140462636948,0.2535801357280463
1769667888585905200,4.1779052734375,0.46896834183633324,-0.028282676154375075,0.27877953197956085
1769667888595894000,4.18789404296875,0.39473756897747514,-0.003464461240172386,0.24272132645286618
1769667888605883000,4.1978828125,0.19892390497624873,0.015329671078920363,0.12387005223147571
1769667888615871000,4.20787109375,-0.0027560207098722457,-0.014683774390816688,-0.012127879362925887
1769667888625860000,4.217860107421875,-0.11299451101720333,-0.07275076343417167,-0.15975757736638188
1769667888635849000,4.227848876953125,-0.15910510480701923,-0.06183773975372314,-0.25080519112199545
1769667888645837000,4.237837158203125,-0.11304711798727511,-0.02383563361763954,-0.30086576464660464
1769667888655826200,4.247826171875,-0.059550505599379536,0.0790367118358612,-0.24853856136426328
1769667888665814800,4.257814697265625,0.00886310541331768,0.1440963362455368,-0.10202128158211707
1769667888675803000,4.267802978515625,0.034437107130885124,0.17627835792601107,0.003792304955050349
1769667888685792000,4.2777919921875,0.012250409764051437,0.16069558886885643,0.07493950565010309
1769667888695780000,4.287780029296875,0.008535773155093192,0.140884388461709,0.12923523252643643
1769667888705769000,4.29776904296875,-0.010789689561724661,0.13710077826976774,0.12281769363433122
1769667888715758000,4.307758056640625,0.002718026787042618,0.07239537412524223,0.08905220215469599
1769667888725746000,4.317745849609375,0.057279638057947155,0.037193712362647055,-0.03395882209464907
1769667888735735000,4.327735107421875,0.09676233814060688,-0.014600187760591505,-0.16907675598412752
1769667888745724000,4.337723876953125,0.11008593009412287,-0.03649287061691284,-0.22691936168707905
1769667888755712000,4.3477119140625,0.11428279726207255,0.028147067075967785,-0.24283413917757568
1769667888765701000,4.357701171875,0.09195815272927284,0.09015840983092785,-0.17838241753317416
1769667888775689000,4.36768896484375,0.05997369944751262,0.08890870203077793,-0.07262677172832191
1769667888785677800,4.377677734375,0.05050912100970745,0.08261573936641216,0.03884549815766513
1769667888795667000,4.3876669921875,0.0011018237620592116,0.0461713840663433,0.1255273909844458
1769667888805655000,4.397655029296875,-0.02636485983431339,0.008768412867188453,0.16841610011830924
1769667888815644000,4.407643798828125,-0.08886778549849987,0.0043278000712394715,0.13838533818759025
1769667888825633000,4.417633056640625,-0.1380389359027147,-0.02098082870841026,0.10636069902591407
1769667888835620900,4.427620849609375,-0.16552549324333668,-0.03579144434928894,0.058523135313019156
1769667888845610000,4.43760986328125,-0.1016407578319311,-0.02381225274205208,-0.012424305026233196
1769667888855598800,4.447598876953125,-0.028029578176140782,-0.0041489363729953765,-0.0575722643289715
1769667888865587000,4.4575869140625,0.005647650498151779,0.02543605455160141,-0.054755526407808064
1769667888875576000,4.467576171875,-0.02786123587191105,0.028459201765060425,-0.012265680398419498
1769667888885564200,4.477564208984375,-0.02192600060403347,0.0078080434024333945,0.03901778598465025
1769667888895553000,4.487552978515625,0.019188684594631192,-0.030067221483588216,0.04662453466132283
1769667888905542000,4.4975419921875,0.03477729887068271,-0.07083820781111717,0.0183846747353673
1769667888915530000,4.507530029296875,0.04535597603023052,-0.09468144021332263,-0.02749393692947924
1769667888925519000,4.51751904296875,0.062136430439352984,-0.09119242905378341,-0.05829378353655338
1769667888935508000,4.527508056640625,0.062457917478680604,-0.06807926449179649,-0.06177570736818015
1769667888945496000,4.53749609375,0.018208441385626793,-0.06512275277376174,-0.04195939239449799
1769667888955485200,4.547485107421875,-0.012505261307954787,-0.07291209147572517,0.014711173854395746
1769667888965473800,4.557473876953125,0.028970658418536185,-0.06623977410495281,0.04127170239128172
1769667888975462000,4.5674619140625,0.11327975769937038,-0.06319266149401664,0.006792509684339166
1769667888985451000,4.577450927734375,0.13691314674317837,-0.051044543060660356,-0.0034358927328139543
1769667888995439000,4.587439208984375,0.14263970769643783,-0.037409400939941405,-0.03456745551228523
1769667889005428000,4.597427978515625,0.11334931580424308,-0.03892915785312653,-0.03889445186592638
1769667889015417000,4.6074169921875,0.05740647930800914,-0.03145195384025574,-0.010892273153364657
1769667889025405000,4.617405029296875,0.04816051205694675,-0.020399813950061796,-0.003018105712160468
1769667889035394000,4.62739404296875,0.0598790069013834,0.0070960957407951355,-0.00526252363808453
1769667889045383000,4.6373828125,0.07844342211782931,0.036866380104422565,-0.020133418098837137
1769667889055371000,4.64737109375,0.08876257155835628,0.061978609529137606,-0.023804727022722363
1769667889065360100,4.657360107421875,0.07809738515913486,0.05472060122489929,0.004883095866441726
1769667889075348000,4.667347900390625,0.08797580509483814,-0.008756722429394721,0.0385482687767595
1769667889085336800,4.6773369140625,0.10177227525711059,-0.05467734660506248,0.026685689286515116
1769667889095326000,4.687325927734375,0.07005728656649589,-0.05969488250613212,-0.03592873392812908
1769667889105314000,4.69731396484375,0.049883682587742804,-0.058007367810606954,-0.0854311621133238
1769667889115303000,4.707302978515625,0.053937341892719266,-0.019657471150159835,-0.10909377725161612
1769667889125292000,4.7172919921875,0.06204524502456188,0.01839724195599556,-0.0661107408978045
1769667889135279900,4.72727978515625,0.01993862617909908,0.009582651859521864,-0.005544190123677253
1769667889145269000,4.73726904296875,-0.024207974061369895,-0.009543488892912864,0.026134631275013087
1769667889155257000,4.747257080078125,-0.03083002254962921,-0.030544775867462157,0.013001374261826276
1769667889165246000,4.757245849609375,-0.020939327654242515,-0.0489122072070837,-0.00989288685247302
1769667889175235000,4.767235107421875,-0.005370002600550651,-0.028964813199639318,-0.037397272110730406
1769667889185223200,4.77722314453125,-0.021050386813282966,-0.007694061633944511,-0.047543914528563616
1769667889195211800,4.787211669921875,-0.054582069537043566,0.008282675176858902,-0.023306056785583496
1769667889205201000,4.797200927734375,-0.07483575301468372,-0.00902384893298149,-0.031897651781141755
1769667889215189000,4.80718896484375,-0.042885202002525324,0.003804652979969978,-0.021793314135074616
1769667889225178000,4.81717822265625,-0.015530162087082862,-0.005374678775668144,-0.03659530807808041
1769667889235167000,4.8271669921875,-0.027974633118510246,-0.03820785784125328,-0.03515197740197182
1769667889245155000,4.837155029296875,-0.016969254979491234,-0.034171149671077726,-0.03543525132276117
1769667889255144000,4.84714404296875,0.011696283012628554,-0.03738602006435394,-0.0469747363384813
1769667889265132000,4.857132080078125,0.024426585248112677,-0.055309214767813676,-0.07002469947114587
1769667889275121000,4.867120849609375,0.07065642150342465,-0.02205634898543358,-0.10510763022489845
1769667889285110000,4.877110107421875,0.1303407826155424,-0.007731471034884452,-0.1200226560883224
1769667889295098000,4.88709814453125,0.16416297271847724,-0.011424480333924293,-0.1252742930062115
1769667889305087000,4.8970869140625,0.139563953512907,-0.07206628830134869,-0.0757138510234654
1769667889315076000,4.907076171875,0.04648351875543594,-0.11393617578148842,-0.03172872495502233
1769667889325064200,4.917064208984375,-0.021115268743038176,-0.14482114338874816,0.0164161511413753
1769667889335053000,4.927052978515625,-0.029417233142256735,-0.11261807892024517,0.014289075984805822
1769667889345042000,4.9370419921875,-0.05459609806239605,-0.09713117145299911,-0.005518909551948309
1769667889355030000,4.947030029296875,-0.04074409832060337,-0.06433657083213329,-0.011009908183664083
1769667889365019100,4.95701904296875,0.01859364131093025,-0.03492693647444248,-0.04543152548447251
1769667889375007200,4.96700732421875,-0.0510036265283823,-0.03491933768987655,-0.025828195674344894
1769667889384996000,4.97699609375,0.07518997327983379,-0.044911739394068714,-0.1624243123576045
1769667889394985000,4.98698486328125,0.3639735974013805,0.054579731449484824,-0.004354176621511579
1769667889404973000,4.99697314453125,0.125330260977149,-0.0009369885891675948,-0.08104958602823317
1769667889414962200,5.006962158203125,0.059543491336703294,-0.007438625568151474,-0.06837400965467096
1769667889424951000,5.016950927734375,0.07784253361523151,-0.008403086686134337,-0.029457492087408898
1769667889434939100,5.026939208984375,0.059819970190525054,-0.013258710023760795,-0.07905198247022927
1769667889444928300,5.03692822265625,0.10567395887076854,-0.019890695384144782,-0.05472103961631655
1769667889454917000,5.046917236328125,0.07765314852297306,-0.02028290957212448,-0.06144362586960196
1769667889464905000,5.056905029296875,0.02448971361219883,-0.03162438779771328,-0.07320961311757564
1769667889474894000,5.06689404296875,0.01575637205839157,-0.03108838122487068,-0.047787148699909444
1769667889484882200,5.076882080078125,0.040839959910511967,-0.028924481189250943,-0.04170921702571213
1769667889494871000,5.08687109375,0.06445405973196029,-0.03212941471040249,-0.04838577218018472
1769667889504860200,5.096860107421875,0.047999184015393256,-0.03249006471633911,-0.059817047581076616
1769667889514848000,5.106847900390625,0.0343073432713747,-0.026781623941659925,-0.06054791913889348
1769667889524837000,5.116837158203125,-0.0029886604219675063,-0.056870472735166544,-0.04445946558192372
1769667889534826000,5.126825927734375,-0.04003799587786198,-0.05802607251107692,-0.03223579769432545
1769667889544814000,5.13681396484375,-0.02443301498889923,-0.06457973193824292,-0.045389147647470235
1769667889554803200,5.14680322265625,-0.0099994159668684,-0.05097615399956703,-0.0531821396112442
1769667889564792000,5.1567919921875,0.01750701511800289,-0.05402443565428257,-0.046076106998324394
1769667889574780000,5.16677978515625,0.01916764180660248,-0.048396658900380134,-0.02852349917292595
1769667889584769000,5.17676904296875,0.018885902255773544,-0.05319675265848636,-0.02318228427544236
1769667889594757000,5.186757080078125,0.048238837990164755,-0.03866670752465725,-0.017087182270735503
1769667889604746000,5.19674609375,0.037657822743058206,-0.020562311035394666,-0.02405329495631158
1769667889614735000,5.206735107421875,0.014717092138528823,-0.014985387685894965,-0.04268646456003189
1769667889624723200,5.21672314453125,-0.01634849273264408,-0.02571779410243034,-0.04048880838528275
1769667889634712000,5.226712158203125,-0.04292670305669308,-0.04142623536586761,-0.04789265490099787
1769667889644701000,5.236700927734375,-0.02598725869357586,-0.040051439881324764,-0.06248655905127525
1769667889654689000,5.24668896484375,0.004644026413559914,-0.0667412938863039,-0.053867126200720664
1769667889664678100,5.25667822265625,0.02929623711109161,-0.049282209563255304,-0.036640900785475966
1769667889674666200,5.266666259765625,0.03426993387043476,-0.03666530457437038,-0.035261721386760474
1769667889684655000,5.276655029296875,0.04333002316057682,-0.030517303338646887,-0.027930940107256174
1769667889694644000,5.28664404296875,0.029063012877106664,-0.04651800554692745,-0.04027114704661071
1769667889704632000,5.296632080078125,0.01617079807817936,-0.03128887223303318,-0.024896029390767214
1769667889714621200,5.30662109375,-0.000841126999258995,-0.01834872663915157,-0.016393939309567212
1769667889724610000,5.316610107421875,-0.007584171518683433,-0.019379823252558707,-0.016284925977140666
1769667889734598100,5.32659814453125,-0.007711597290635109,-0.010719546934962272,0.003541691194847226
1769667889744587300,5.336587158203125,0.02603869661986828,0.026475334471464156,0.017762378118559716
1769667889754576000,5.346575927734375,0.04525602278709411,0.030074820268154143,0.027113413179293274
1769667889764564000,5.35656396484375,0.03431377301216125,-0.0009276362389326095,0.06415215417593717
1769667889774553000,5.366552978515625,0.02882569698989391,-0.0006844751328229904,0.09845635564215481
1769667889784541200,5.376541259765625,0.018058803781867028,-0.022779987084865568,0.0887539498604834
1769667889794530000,5.386530029296875,0.004730535653233528,-0.03014028671979904,0.08006846603639424
1769667889804519200,5.396519287109375,-0.026540216401219365,-0.030155484288930893,0.06096716746427119
1769667889814507000,5.406507080078125,-0.03640110068023204,-0.0249222598105669,0.04625803943648934
1769667889824496000,5.41649609375,-0.024895371803641316,0.008790624698996543,0.06936112099587917
1769667889834485000,5.426485107421875,-0.030718963390588758,0.0064244800895452495,0.07178104161918163
1769667889844473000,5.43647314453125,-0.0500929414242506,-0.019338322198390958,0.039287323641031976
1769667889854462200,5.446462158203125,-0.008547463592886924,-0.04314414519965648,0.010588029509782791
1769667889864451000,5.456451171875,0.019056582647562027,-0.060469374009966846,0.00358114642240107
1769667889874439000,5.46643896484375,0.03839548936784267,-0.07160217792093754,-0.01775003009364009
1769667889884428000,5.476427978515625,0.06196341196000576,-0.04703647646307945,-0.012783785988390445
1769667889894416100,5.486416015625,0.05882803654372692,-0.01988075851202011,-0.02134111338816583
1769667889904405000,5.496405029296875,0.06760755532681942,-0.01247545069158077,-0.010899725807458162
1769667889914394000,5.50639404296875,0.07106558682620524,-0.00395312153995037,0.00048186523281037807
1769667889924382000,5.5163818359375,0.04957271694242954,-0.019610124877095222,0.03172163762710988
1769667889934371000,5.52637109375,0.03986965357363224,-0.04917173492610454,0.06402699342630803
1769667889944360000,5.53635986328125,0.047988662621378894,-0.0760609108954668,0.06146262283101678
1769667889954348000,5.54634814453125,0.03857435306608677,-0.07527823608517646,-0.00029752164185047145
1769667889964337200,5.556337158203125,0.05175824428796768,-0.06957797861695289,-0.0481884960424155
1769667889974326000,5.566325927734375,0.04231003246307373,-0.04547288040816783,-0.028665464926883575
1769667889984313900,5.57631396484375,0.032520459854602814,-0.03500058623254299,-0.018018910162895918
1769667889994303000,5.586302978515625,0.026925416326522827,-0.05060498259961605,0.002131897462159395
1769667890004291000,5.596291015625,0.015136778855323791,-0.07091711826622486,0.009146890790760517
1769667890014280200,5.6062802734375,-0.25471476578116414,-0.11543021373152733,-0.028316505358740685
1769667890024269000,5.61626904296875,0.1796066255658865,-0.029699557214975355,-0.029578488118574022
1769667890034257200,5.626257080078125,0.2019569890618324,-0.027341595911979672,-0.021086407974734902
1769667890044246300,5.636246337890625,0.25662790592610835,0.021859949630498886,-0.06635594783052802
1769667890054235000,5.64623486328125,0.12710019325911998,-0.023995792615413663,-0.03838073019012809
1769667890064223000,5.656222900390625,0.033922727867960925,-0.0316232187539339,-0.0758536978855729
1769667890074212000,5.666212158203125,0.0838426508128643,-0.017341010901331902,-0.07969232620038091
1769667890084201200,5.676201171875,0.09231763369143009,-0.025441899770498273,-0.07983852973803877
1769667890094189000,5.68618896484375,0.08934358631670475,-0.01112228251695633,-0.07610014692731201
1769667890104178200,5.69617822265625,0.06356324837207794,-0.011451368340849876,-0.06429601962603629
1769667890114166000,5.706166015625,0.054416065320372575,-0.01152092644572258,-0.05130085590928793
1769667890124155100,5.716155029296875,0.08243687566816807,-0.023006781578063965,-0.04823328503221273
1769667890134144000,5.72614404296875,0.06292495046854019,-0.04937807115316391,-0.07452880595736205
1769667890144132000,5.736132080078125,0.03164192345440388,-0.031711481559276576,-0.0818605370849371
1769667890154121200,5.746121337890625,0.02457154667675495,-0.028836802905797956,-0.080709540418908
1769667890164110000,5.756110107421875,0.047319385057687756,-0.01135141509771347,-0.07657339046224951
1769667890174098000,5.766097900390625,0.055501522469520566,-0.0022188450932502744,-0.08950966359861194
1769667890184087000,5.776087158203125,0.06252455297410488,0.021216391029953954,-0.09350348247513174
1769667890194076200,5.786076171875,0.060060208687186235,0.028982348856329915,-0.08829948409125209
1769667890204064300,5.796064208984375,0.06422551167309284,0.03277121974527836,-0.0679747081387788
1769667890214053000,5.80605322265625,0.04910568395256996,0.0010772738426923752,-0.040492826973274346
1769667890224041000,5.816041015625,0.032961773881316186,-0.012470189994573593,-0.022610987193509936
1769667890234030000,5.826030029296875,0.030839959421753882,-0.011592822638154029,-0.037286505212634796
1769667890244019000,5.83601904296875,-0.01680558885037899,-0.004130231672525406,-0.10129347876422107
1769667890254007000,5.846007080078125,-0.05808218661248683,-0.013436404678225516,-0.08833703962266444
1769667890263996200,5.85599609375,-0.05008826524913311,-0.041647184640169144,-0.04491071648076177
1769667890273985000,5.865985107421875,-0.06396773751974105,-0.06541735180616379,-0.028471842050924897
1769667890283972900,5.875972900390625,-0.04804243863523006,-0.038864275923371314,-0.06774338360093533
1769667890293962000,5.8859619140625,-0.031253800919651985,-0.011929507246613501,-0.14504545366391539
1769667890303951000,5.895951171875,-0.007374328160285949,0.018155834415555,-0.16729827506951986
1769667890313939200,5.905939208984375,0.005203998383879661,0.02203179906606674,-0.15000877515971658
1769667890323928600,5.915928466796875,-0.007823825493454933,0.023078677770495413,-0.13005027523636817
1769667890333916700,5.925916748046875,-0.03779401634335518,0.017687632381916046,-0.10686981759183108
1769667890343905800,5.93590576171875,-0.03420797455012798,-0.01590484061837196,-0.04561652666255831
1769667890353894700,5.945894775390625,-0.023261633121967315,-0.03951894043982029,-0.018447510838508607
1769667890363882800,5.9558828125,-0.02049509101808071,-0.03048457011282444,-0.03491678040660918
1769667890373871900,5.965871826171875,-0.046318683582544325,0.002139350116252899,-0.03884199102632701
1769667890383860500,5.975860595703125,-0.039676761350035665,0.01906593499779701,-0.057974561519548294
1769667890393848600,5.9858486328125,-0.01631225237548351,-0.001499298647046089,-0.060241045146808024
1769667890403837700,5.995837646484375,0.0015799626678228377,-0.01579553502500057,-0.055733139268308876
1769667890413826800,6.005826904296875,0.03864917186796665,0.0010877952367067335,-0.0758043057858944
1769667890423814700,6.015814697265625,0.06446516564786434,0.008036006939411163,-0.08351984859928488
1769667890433803800,6.0258037109375,0.06694821463525295,-0.007239303603768349,-0.06276910231970251
1769667890443791600,6.03579150390625,0.06352291636168957,-0.013398410755395888,-0.0362407955519855
1769667890453780700,6.04578076171875,0.03526946630179882,-0.02971124765276909,-0.019532456531003117
1769667890463769600,6.05576953125,0.025471125864982604,-0.012868249401450156,-0.02886193734705448
1769667890473757700,6.0657578125,0.03917231895923614,0.0030430209577083584,-0.05251344656944275
1769667890483746800,6.075746826171875,0.062415831902623176,0.010474632263183592,-0.042436581452190876
1769667890493735700,6.085735595703125,0.0968792425185442,0.020052607947587966,-0.00892353036366403
1769667890503723500,6.0957236328125,0.08459902213811873,0.028558570486307142,0.02609064600281417
1769667890513712600,6.105712646484375,0.06246025556623935,0.010020458754897116,0.04002075248211622
1769667890523701800,6.11570166015625,0.024341245052218435,0.0027308862686157226,0.008933174974843859
1769667890533689900,6.12568994140625,-0.03574000642299652,0.025333178699016568,-0.04040500255934894
1769667890543678700,6.1356787109375,-0.08994447481930255,0.03376841408908367,-0.07431114461869001
1769667890553666600,6.14566650390625,-0.10624445223510265,0.05605272661149501,-0.0754816497027874
1769667890563655700,6.15565576171875,-0.1188993511468172,0.04299392307400703,-0.06654460227042436
1769667890573644500,6.16564453125,-0.12849427796602247,0.01671615700125694,-0.04276413290612399
1769667890583632600,6.175632568359375,-0.16559212873876095,-0.00947568435370922,-0.07844539487920701
1769667890593621800,6.185621826171875,-0.13893851509094238,-0.012829086434841156,-0.10829488195888698
1769667890603611000,6.19561083984375,-0.09450725269019603,-0.013685411003232001,-0.11403152591474354
1769667890613598500,6.205598388671875,0.0004693710774183273,0.01357435184419155,-0.13725991435423493
1769667890623587600,6.215587646484375,0.05569558373689651,-0.019496727630496025,-0.09254727772884071
1769667890633576700,6.22557666015625,0.0645884997665882,-0.04462181653678417,-0.060260553564876314
1769667890643564800,6.235564697265625,0.01617196712195873,-0.07549976988136768,-0.04348148739524185
1769667890653553700,6.2455537109375,-0.05354746579229831,-0.06323123993873596,-0.057625601951405404
1769667890663541800,6.255541748046875,-0.0971405238032341,-0.05157119728326797,-0.07834697600603104
1769667890673531000,6.26553076171875,-0.0735994892179966,-0.01817453911602497,-0.08078143661133945
1769667890683519500,6.27551953125,-0.00003799392282962799,-0.012175006440281867,-0.06163702954985201
1769667890693507600,6.285507568359375,0.061229836988449096,-0.013001520392298698,-0.04417465729117393
1769667890703496700,6.29549658203125,0.08131926981508732,-0.01882978815436363,-0.01491224938444793
1769667890713485800,6.30548583984375,0.0802308900564909,-0.023208441630005835,-0.014204393376037478
1769667890723473700,6.3154736328125,0.08712824835479259,-0.025559973192214966,-0.029986995854228732
1769667890733462800,6.325462890625,0.09291969123780727,-0.01680383528470993,-0.023139029655605554
1769667890743451600,6.33545166015625,0.1054448262900114,-0.018502455896139143,-0.022341668732836842
1769667890753439700,6.345439697265625,0.08129588893949985,-0.013905775755643843,-0.006549567773938178
1769667890763428600,6.3554287109375,0.07598959922492504,-0.04217442338466644,-0.00987783541381359
1769667890773416700,6.365416748046875,0.056550739261507985,-0.04025076184570789,-0.01962327661961317
1769667890783405800,6.37540576171875,0.02015957545340061,-0.04219488165080547,-0.024206731952354312
1769667890793394700,6.385394775390625,0.005796703580021858,-0.03480184879004955,-0.02426343057565391
1769667890803382500,6.395382568359375,0.026184827092289923,0.004385667738318443,-0.04520677681788802
1769667890813371600,6.40537158203125,0.05597206259071827,0.03996317707598209,-0.06045059624426066
1769667890823360800,6.41536083984375,0.09411562302410602,0.03569616728127002,-0.03670987436845898
1769667890833348900,6.425348876953125,0.13375088331997395,0.054624155113101,-0.006037818859517574
1769667890843337700,6.435337646484375,0.10983458568155764,0.02831950103342533,0.00042509354427456853
1769667890853326800,6.445326904296875,0.06598959873616694,0.026579963889718054,0.011732596435025333
1769667890863314700,6.455314697265625,0.04065174386203289,0.02553133161962032,0.018585092678293585
1769667890873303600,6.465303466796875,0.0013864859223365782,0.005806055930256843,0.019075360413268207
1769667890883292700,6.475292724609375,-0.03887771992683411,-0.01129471647441387,0.018643106475844978
1769667890893280800,6.48528076171875,-0.048237668946385384,-0.027402970710396764,0.008475494335219264
1769667890903270000,6.495269775390625,-0.0381546663492918,-0.03775602242052555,-0.014041896290704608
1769667890913257500,6.505257568359375,-0.03576806347370148,-0.07046352927982807,-0.0038704847577959297
1769667890923246600,6.51524658203125,-0.040347207957506175,-0.08210136010348797,0.01796878741085529
1769667890933235700,6.525235595703125,-0.03512333582937717,-0.07737140897214412,0.035181349626928565
1769667890943223800,6.535223876953125,-0.05229658894836902,-0.07214578327834606,0.03824278302416205
1769667890953212700,6.545212646484375,-0.08064063990116119,-0.04850128831863403,0.04882072953134775
1769667890963201800,6.555201904296875,-0.06945464449822902,-0.05605798730850219,0.04817468671277165
1769667890973189600,6.565189697265625,-0.04265490037798881,-0.062494157835841176,0.03797835993431508
1769667890983178500,6.575178466796875,-0.006824293062090874,-0.0552168603092432,0.015200345610827207
1769667890993167600,6.585167724609375,0.017867080602049827,-0.07777998977303505,-0.007712912464886903
1769667891003155700,6.59515576171875,-0.005226210215687752,-0.07798457243442534,-0.01227905133664608
1769667891013144800,6.605144775390625,-0.02305880402624607,-0.09750175833106041,-0.013835779259353875
1769667891023133000,6.6151328125,-0.005430792877078056,-0.08568506380915641,0.0008203764721751212
1769667891033121500,6.62512158203125,-0.0005406827479600906,-0.08937222788929938,0.0022448563173413276
1769667891043110700,6.635110595703125,0.051019408619403836,-0.07896773825287819,0.019921090522408483
1769667891053098800,6.6450986328125,0.13294891928732394,-0.04576689491868019,0.04877433310635387
1769667891063087600,6.655087646484375,0.15361761330664156,-0.06453121662139892,0.05129208808094263
1769667891073076700,6.66507666015625,0.11985445991456507,-0.08075988236665725,0.04363083273805678
1769667891083064800,6.67506494140625,0.07466974879801273,-0.08245207323729992,0.023042218217626212
1769667891093053700,6.6850537109375,0.03906768954098224,-0.05619125829935073,-0.013386501121893525
1769667891103042600,6.69504248046875,0.022808628657460212,-0.00980593922138214,-0.007725845011696219
1769667891113030700,6.70503076171875,0.04732815288603306,0.021201193460822103,0.0016861995212733745
1769667891123019800,6.715019775390625,0.07822247284352779,0.060818918099999425,0.006638634296879172
1769667891133008000,6.7250078125,0.0876245074391365,0.07507482246756553,0.010710706041380762
1769667891142996700,6.734996826171875,0.06093582247793674,0.06793722567260264,0.02193929847702384
1769667891152985900,6.74498583984375,0.04957622407376766,0.023753216031193732,0.041747941600903865
1769667891162973700,6.7549736328125,0.020157237365841865,-0.0417360319674015,0.05839395597539842
1769667891172962600,6.764962646484375,0.036247955945134164,-0.05487433048188686,0.05476582860611379
1769667891182951700,6.77495166015625,0.05119242709875107,-0.04080664216279983,0.028450433936715123
1769667891192939800,6.784939697265625,0.05261690694391727,-0.008712883287668227,-0.0014168079953640698
1769667891202929000,6.794928955078125,0.05162321973145008,0.0065127428948879235,-0.008991481033340095
1769667891212917800,6.804917724609375,0.022522212931513786,0.014234277057647704,-0.018615049425140022
1769667891222905600,6.814905517578125,-0.010653495961427688,0.00865267753303051,-0.027839900822937486
1769667891232894700,6.824894775390625,-0.02877951976060867,-0.021892682856321333,-0.03898790230304003
1769667891242882800,6.8348828125,-0.03257189778089523,-0.028516484910249707,-0.03287709127254784
1769667891252871700,6.84487158203125,0.017124737802147863,-0.03252572055160999,-0.020569471428543328
1769667891262860800,6.85486083984375,0.038238837501406664,-0.04596855497062206,0.01079568091109395
1769667891272848600,6.8648486328125,0.03144084792435169,-0.05559679953753948,0.023990751114115118
1769667891282837500,6.87483740234375,0.02395370703935623,-0.06894844854176044,0.023686580535769462
1769667891292826600,6.88482666015625,-0.252704595002532,-0.1113660330325365,-0.01931888684555888
1769667891302814700,6.894814697265625,-0.04742284543216228,-0.07985095082819461,-0.06509184617884457
1769667891312803800,6.904803955078125,0.18340835593640803,-0.03545300617516041,-0.004395969936624169
1769667891322792400,6.91479248046875,0.18522329640388488,-0.01798983019888401,-0.024973624671623108
1769667891332780300,6.9247802734375,0.0337801045268774,-0.04608370578289032,-0.020592267782241106
1769667891342769400,6.934769287109375,0.023231237983703613,-0.06366320161521434,0.014090849998965859
1769667891352757500,6.944757568359375,0.023527006059885024,-0.09492050966620445,0.02921235821992159
1769667891362746400,6.954746337890625,0.06580079816579819,-0.07746142534315585,0.01313661801405251
1769667891372735500,6.964735595703125,0.08771861546337605,-0.05910217730998993,-0.004627221409231424
1769667891382723600,6.9747236328125,0.11655366480350493,-0.04894318686723709,-0.030017464057728645
1769667891392712400,6.98471240234375,0.1140934121698141,-0.027801030117273327,-0.03137691584266722
1769667891402701300,6.994701416015625,0.10037234533131122,-0.015895488268136977,-0.008407105274125934
1769667891412689400,7.004689453125,0.05582943924963474,-0.013601239851117133,0.0034822891578078267
1769667891422678500,7.014678466796875,0.01871054568886757,-0.011163783571124077,-0.011927242224290967
1769667891432667400,7.02466748046875,-0.008328852406144142,-0.012283727511763572,-0.028834610948711634
1769667891442655500,7.034655517578125,0.023853753796219825,-0.016395254483819007,-0.03437375957109034
1769667891452644400,7.044644287109375,0.03488192828893661,-0.015240823751688002,-0.027940000196546314
1769667891462632400,7.054632568359375,0.03682195644080639,-0.016209376522898673,0.004207388561964035
1769667891472621600,7.06462158203125,0.04407411952614784,-0.012577742022275924,0.019419716871529817
1769667891482610400,7.0746103515625,0.03404489294290542,0.007326981887221336,0.00048303427658975124
1769667891492598500,7.0845986328125,0.029237200400233268,0.004188683861494064,-0.019388664146140218
1769667891502587600,7.094587646484375,0.01383972478210926,0.002949497455358505,-0.0189754071701318
1769667891512576300,7.104576171875,0.006816694277524947,0.013678396740555763,-0.01895224549025297
1769667891522564400,7.114564453125,-0.0017903905481100081,0.004623568147420883,0.0054300622247159475
1769667891532553500,7.124553466796875,-0.008668459624052048,-0.004044891476631164,0.014571692318469285
1769667891542542300,7.134542236328125,-0.02320259641110897,-0.0035188217759132383,0.0034419571474194523
1769667891552530400,7.144530517578125,-0.030512042641639706,-0.008265724042057991,-0.019901509039103985
1769667891562519600,7.15451953125,-0.029041970089077947,-0.013402502408623694,-0.028708135024830696
1769667891572507400,7.16450732421875,-0.027696400699019432,-0.012883446970582007,-0.04675166817232966
1769667891582496500,7.17449658203125,-0.01953998225033283,-0.008225976553559302,-0.03109451870471239
1769667891592485400,7.1844853515625,-0.0010363573104143142,-0.027828502646088597,-0.009322831879556178
1769667891602473500,7.194473388671875,-0.0038502456873655317,-0.02801613417267799,-0.020562311035394666
1769667891612462600,7.204462646484375,-0.025658757391571998,-0.041376551005244254,-0.03826696761734783
1769667891622451500,7.214451416015625,-0.02971533930599689,-0.04095160359144211,-0.0431773168168962
1769667891632439300,7.224439208984375,-0.011586977419257164,-0.04056581914424896,-0.04137530889622867
1769667891642428400,7.234428466796875,0.002081482449173927,-0.02793780823945999,-0.036143618787825106
1769667891652417500,7.24441748046875,0.017179682859778403,-0.02092471460700035,-0.026655221083015202
1769667891662405400,7.2544052734375,0.036435587471723554,-0.023140052568912505,-0.019248305827379224
1769667891672394500,7.26439453125,0.03657528820335865,-0.03537409572005272,-0.030894904479384422
1769667891682383600,7.274383544921875,0.01398001003563404,-0.04493628931343555,-0.04845123863182962
1769667891692371500,7.284371337890625,0.014522446349263191,-0.028420623320341107,-0.05478139150142669
1769667891702360300,7.2943603515625,0.0166220489770174,-0.030225042393803594,-0.05514474492110312
1769667891712348400,7.304348388671875,0.047153965362906454,-0.02858078231811523,-0.03296652312166989
1769667891722337500,7.314337646484375,0.06115794079601764,-0.01770224542915821,-0.02975749794729054
1769667891732326400,7.324326416015625,0.07474982829689979,-0.01717208407521248,-0.03236863029375672
1769667891742314200,7.334314208984375,0.07067629524767398,-0.021411621341109275,-0.061828533533960575
1769667891752303400,7.344303466796875,0.06272153685092925,-0.01938625299334526,-0.06444105411991477
1769667891762292500,7.35429248046875,0.05382862082123756,-0.008073416340351105,-0.058256081874668596
1769667891772280600,7.364280517578125,0.03883563435077667,-0.008335282146930694,-0.03295344444438815
1769667891782269400,7.37426953125,0.03971475527286529,-0.012186112356185913,-0.02675802387036383
1769667891792258600,7.384258544921875,0.06943067910075187,-0.006413374173641204,-0.031111762100458143
1769667891802246700,7.39424658203125,0.0812543878853321,-0.010128595304489136,-0.022597104798629877
1769667891812235300,7.4042353515625,0.03571837911307812,-0.014829320341348647,-0.047848231237381696
1769667891822223400,7.414223388671875,-0.04235796325802803,-0.019321955585479736,-0.0336565512124449
1769667891832212500,7.42421240234375,-0.1644651705354452,-0.0664274056315422,-0.11307247162424028
1769667891842201300,7.434201416015625,0.2423129648476839,0.06361760890781878,0.017397344198450446
1769667891852189400,7.444189453125,0.10438917975723742,0.004841594812273979,-0.014712781289592384
1769667891862178600,7.454178466796875,0.009072364249825477,-0.03856090906262397,-0.021194252263382077
1769667891872167400,7.46416748046875,0.029720600003004072,-0.03569675180315971,-0.016636808154731987
1769667891882155500,7.474155517578125,0.025691490617394445,-0.023836218139529228,-0.0647869449481368
1769667891892144400,7.484144287109375,0.07854162179529667,-0.002280219891667366,-0.06928666752018034
1769667891902133500,7.494133544921875,0.03412964861690998,0.0004354688078165054,-0.07549100205302238
1769667891912121600,7.50412158203125,0.044048985084891315,-0.002090250277519226,-0.06808028740510344
1769667891922110500,7.5141103515625,0.05158931746184826,-0.008604162216186522,-0.04935549399517476
1769667891932099300,7.524099365234375,0.028287936851382253,-0.03746668408513069,-0.0237448865942657
1769667891942087400,7.53408740234375,0.006503975066542625,-0.06355740315318108,0.0005329378329217433
1769667891952076500,7.54407666015625,0.010424947902560234,-0.0809410841524601,0.00011368950754404068
1769667891962064400,7.554064453125,0.04375029439926147,-0.0749497347831726,0.005663578719645739
1769667891972053500,7.564053466796875,0.037219431325793265,-0.046020577418804165,0.0025493191566318273
1769667891982042600,7.574042724609375,0.012546762362122535,-0.02918400890827179,-0.015724954006820915
1769667891992030500,7.584030517578125,-0.009829320096969603,-0.0014811784684658049,-0.055700113781541584
1769667892002019300,7.594019287109375,-0.0014133739292621612,0.0033522330373525616,-0.04531703225933015
1769667892012008400,7.604008544921875,0.020324995148181913,-0.022181436669826506,-0.042662426097318525
1769667892021996500,7.61399658203125,0.019445289704203606,-0.015199907219409942,-0.03178871151395142
1769667892031985400,7.6239853515625,0.03522854976952076,-0.0048024318456649775,-0.018829130567237732
1769667892041974500,7.633974609375,0.03644318625628948,-0.024851532661914824,-0.028653701423853633
1769667892051962400,7.64396240234375,0.01258884793817997,-0.03176058139801025,-0.03486643845885992
1769667892061951500,7.653951416015625,-0.003909866920113563,-0.02969020486474037,-0.035522052823379634
1769667892071939600,7.663939697265625,-0.02372808158993721,-0.030892566391825676,-0.06468121955133974
1769667892081928400,7.673928466796875,-0.03906359788775444,-0.028816344639658927,-0.06442899835593999
1769667892091917600,7.68391748046875,-0.02560907303094864,-0.00012508768439292906,-0.05021591021679341
1769667892101905400,7.693905517578125,-0.003415361401438713,0.00595043283700943,-0.036416079053655265
1769667892111894300,7.703894287109375,-0.017438041535019874,0.023840309792757034,-0.022687121169641614
1769667892121883400,7.71388330078125,-0.001294131463766098,0.010541267758607864,-0.014879662289097904
1769667892131871500,7.72387158203125,-0.022972879308462143,-0.005934066224098205,-0.043981253610923886
1769667892141860600,7.733860595703125,-0.04297580289542675,-0.007077391040325165,-0.04540661023892462
1769667892151849500,7.743849365234375,-0.04714695110023021,0.007670680758357047,-0.028471915116161105
1769667892161837300,7.75383740234375,-0.07012567562758922,-0.007843699237704277,-0.024067031220719216
1769667892171826400,7.763826416015625,-0.10737433304786681,-0.010602058035135269,-0.023537089062482117
1769667892181815300,7.773815185546875,-0.10709551610648631,0.007766542348265648,-0.04219802345596253
1769667892191803400,7.783803466796875,-0.05629705676138401,0.026165537869930266,-0.05433664340861141
1769667892201792500,7.79379248046875,-0.022214754417538642,0.035543607068061825,-0.051526481358706945
1769667892211780600,7.803780517578125,0.018171616506576536,0.05870061077177524,-0.01613002767637372
1769667892221769500,7.81376953125,0.030839959421753882,0.043027240821719166,0.040829949973151085
1769667892231758300,7.82375830078125,0.02377425881922245,0.03034428485929966,0.035183979975432156
1769667892241746400,7.833746337890625,-0.030754034703969955,0.010051438415050505,0.0061106649000197645
1769667892251735600,7.843735595703125,-0.06981646354794502,-0.01407937875688076,-0.036347543862089514
1769667892261724400,7.853724365234375,-0.05904840129613876,-0.014603110370039939,-0.0775691235013306
1769667892271712500,7.86371240234375,-0.034869653329253195,0.019607786789536476,-0.109117304257676
1769667892281701600,7.87370166015625,0.023511808490753173,0.027249241453409193,-0.10728672782965004
1769667892291690200,7.883690185546875,0.0333446357190609,0.006972761622071266,-0.07510448695346712
1769667892301678300,7.89367822265625,0.05302256513535976,0.0017284312278032302,-0.02808350032046437
1769667892311667500,7.90366748046875,0.054959670677781104,0.005575754305720329,-0.0003285743672400713
1769667892321656000,7.913656005859375,0.05006488437354564,-0.006023498073220252,-0.006768763482570648
1769667892331645000,7.92364501953125,-0.007954758396744728,-0.014375731354951857,-0.02472768708653748
1769667892341634000,7.933634033203125,-0.05622048439383506,-0.005609072053432464,-0.05981726677678525
1769667892351622000,7.943621826171875,-0.033304303708672524,-0.004156535157561302,-0.07179090542607008
1769667892361611000,7.953611083984375,0.02995733136832714,0.015324410381913183,-0.07000139166079461
1769667892371600000,7.963599853515625,0.06862696150243282,0.020940496698021886,-0.056080418336018914
1769667892381588000,7.973587890625,0.06696107411682606,0.0050981999218463895,-0.04102547254525125
1769667892391577000,7.9835771484375,0.07290449269115924,0.00827624543607235,0.0005593874484300613
1769667892401566000,7.99356591796875,0.08645955531299114,-0.009631751698255538,0.0232770498868078
1769667892411553800,8.0035537109375,0.06172258894145488,-0.015452420675754546,0.025630846471339463
1769667892421543000,8.01354296875,0.046937692263722415,-0.0388736282736063,0.00519055438041687
1769667892431532000,8.023531982421876,0.03859598037600517,-0.05797229649722576,-0.014149302187934518
1769667892441519900,8.033519775390625,0.02729892581403255,-0.03937164092361927,-0.03560249764844775
1769667892451509000,8.043509033203126,0.016575287225842474,-0.046615036180615424,-0.03046783817373216
1769667892461497000,8.0534970703125,-0.01341010119318962,-0.06196691909134388,-0.013553674382343887
1769667892471486000,8.06348583984375,-0.030954525712132454,-0.05726151787936687,0.010250833444669842
1769667892481474800,8.073474853515625,-0.02302957793176174,-0.035223289072513576,0.0324305896140635
1769667892491463000,8.083462890625,-0.010603227078914642,-0.034008652585744856,0.02886632126122713
1769667892501452000,8.0934521484375,0.010660510224103926,-0.016354337951540947,0.008049304812401533
1769667892511441000,8.10344091796875,0.026374212184548378,-0.010817162090539931,0.019411898891255257
1769667892521429000,8.113428955078126,0.03096738519370556,-0.011656535524129867,0.0330935105022043
1769667892531417900,8.12341796875,0.006838906109333038,-0.011924246549606322,0.014531068047136067
1769667892541407000,8.133406982421874,-0.02684767491519451,-0.02089373494684696,0.020447525549307465
1769667892551394800,8.143394775390625,-0.04391162244081497,-0.046211716076731676,0.005382131429761648
1769667892561384000,8.153384033203125,-0.03047054158747196,-0.05594225197434425,0.020209844335913656
1769667892571372000,8.1633720703125,-0.00417056368291378,-0.0472433972120285,0.013107026593387127
1769667892581361200,8.173361083984375,-0.0020510873109102247,-0.03319499811530113,0.03159903416074812
1769667892591349800,8.183349853515624,-0.01075403372645378,-0.0201338564902544,0.052864305833727115
1769667892601337900,8.193337890625,-0.021463059267401694,-0.007601122653484344,0.05075308583341539
1769667892611327000,8.203326904296874,-0.020814824491739273,-0.004334229812026024,0.027572335927933452
1769667892621315800,8.21331591796875,-0.0003267477363348007,-0.015344284126162528,0.031006986551731824
1769667892631304000,8.223303955078125,0.012001987960934638,-0.019244798696041107,0.03002316314615309
1769667892641293000,8.23329296875,0.03439911320805549,-0.024380992540717124,0.001144639990478754
1769667892651282200,8.2432822265625,0.01983633484840393,-0.015312719944119452,0.01529554961360991
1769667892661270000,8.25327001953125,0.023097382470965384,-0.010000000488758086,-0.014577172211185097
1769667892671259000,8.2632587890625,0.029317864421010014,-0.020205168160796164,-0.0020082710824906825
1769667892681248000,8.273248046875,0.030170097336173055,-0.002424012276530266,-0.007742650016024709
1769667892691236000,8.283236083984375,0.02656535084247589,0.00857727420926094,-0.01877097063921392
1769667892701225000,8.293224853515625,0.048430561169981956,0.01861468409895897,-0.023410978464782236
1769667892711212800,8.303212890625,0.04843523734509945,-0.0012654898911714553,0.012977628060057759
1769667892721202000,8.313201904296875,0.05560089119076728,-0.023786533778905865,0.02602649472542107
1769667892731191000,8.32319091796875,0.07871405575275421,-0.008324176231026648,-0.0031350831553339955
1769667892741179000,8.333178955078125,-0.12244213832020759,-0.00931669439971447,0.005751183937862515
1769667892751168000,8.34316796875,-0.1222147593051195,-0.05875789391696453,-0.12956534126363695
1769667892761157000,8.3531572265625,0.3568862694889307,0.08407879765629768,-0.01278071724846959
1769667892771145000,8.36314501953125,0.17092530646026133,0.029767946276068685,-0.023179069405049085
1769667892781133800,8.3731337890625,-0.0510556489765644,-0.025284663382172584,-0.013840309303998946
1769667892791123000,8.383123046875,0.0416010074108839,-0.026292963641881942,0.029541663239523768
1769667892801111000,8.393111083984374,0.04214519729018211,-0.03974982658624649,0.02331467848345637
1769667892811100000,8.403099853515625,0.07888298257887363,-0.05849018289148807,0.05186075481437146
1769667892821087700,8.413087646484374,-0.007650807014107704,-0.06387070688605308,0.046846360718458886
1769667892831076900,8.423076904296876,-0.03178337775170803,-0.049859717190265655,0.038079482221230865
1769667892841066000,8.43306591796875,0.02646773568689823,-0.037674189355969424,0.041302389790490265
1769667892851054000,8.44305419921875,0.04352992964684963,-0.019297990188002587,0.03999627562798559
1769667892861043000,8.45304296875,0.012038228318095206,-0.025212767189741133,0.01689421698190272
1769667892871032000,8.463031982421874,-0.020617256093025206,-0.022604630517959592,-0.01758439120315015
1769667892881020200,8.473020263671875,-0.018555062866210937,-0.01102291379570961,-0.03550049857869744
1769667892891008800,8.4830087890625,-0.014523615393042564,-0.011882745495438576,-0.03661116323433816
1769667892900998000,8.492997802734376,-0.0011480009913444518,-0.025819500911235808,-0.037283290342241523
1769667892910986000,8.502986083984375,0.014276947155594825,-0.04254267217516899,-0.03211363261938095
1769667892920974800,8.512974853515624,0.024266426250338553,-0.054418403407931325,-0.01241137247942388
1769667892930964000,8.5229638671875,0.054119128200411794,-0.05307400306165218,-0.007601999436318874
1769667892940952000,8.5329521484375,0.0363987625926733,-0.041896775487065316,-0.008414704058691859
1769667892950941000,8.54294091796875,0.019411387434601784,-0.03177928609848022,-0.009365648107975721
1769667892960929000,8.552928955078125,0.015861585998535155,-0.013273323071002959,-0.010829656245931983
1769667892970918000,8.56291796875,0.023902853634953498,0.00021685762107372282,-0.005078764569014311
1769667892980907000,8.572906982421875,0.028522330129146574,0.009622399348020554,-0.02503046942539513
1769667892990895000,8.58289501953125,0.01650923625230789,0.03128887223303318,-0.037111879298090934
1769667893000884000,8.592884033203125,0.009504325926303863,0.01741115352809429,-0.02519318570643663
1769667893010872800,8.602872802734375,0.004724105912446976,-0.017992168286442754,-0.010080810640007256
1769667893020861000,8.61286083984375,-0.0005570493608713149,-0.024008067575097082,-0.005613455967605114
1769667893030850000,8.62285009765625,0.00826397047638893,-0.04903086515069008,-0.009420154774188994
1769667893040839000,8.6328388671875,0.0068657941162586205,-0.03524024020731449,-0.01359912095926702
1769667893050827000,8.642826904296875,0.004466331759095192,-0.016706804651021957,-0.03300013313032687
1769667893060816100,8.652816162109374,0.027156886994838713,-0.01217091478705406,-0.0325325156185776
1769667893070804700,8.6628046875,0.030911271092295644,-0.008595394387841224,-0.017862769753113388
1769667893080792800,8.672792724609375,0.0017938976794481276,-0.006570610561966896,0.012833324218541383
1769667893090782000,8.682781982421876,-0.018582535395026207,0.0021066168904304503,0.006236848562955856
1769667893100770000,8.69277001953125,-0.013128361642360687,-0.0007072714865207671,-0.00394954134337604
1769667893110759000,8.702759033203124,-0.008995791882276534,-0.015965630894899368,-0.007636851553991436
1769667893120748000,8.712748046875,0.007812135055661201,-0.0380371774494648,-0.01779094662591815
1769667893130735900,8.72273583984375,0.005060205999016762,-0.04863455930948257,-0.027779987329244613
1769667893140725000,8.73272509765625,0.011411620852351189,-0.0476876338481903,-0.022914573249965906
1769667893150713900,8.7427138671875,0.032280805879831315,-0.044184009641408915,-0.005610387227684259
1769667893160702000,8.752701904296876,0.019715338817238807,-0.02790039883852005,0.005998144436255097
1769667893170691000,8.762691162109375,0.011745967373251915,-0.023531682235002516,0.0027239450711756944
1769667893180680000,8.772679931640624,0.012228782454133034,-0.031232173609733578,-0.016639146242290733
1769667893190667800,8.782667724609375,-0.005323825371265411,-0.024079963767528533,-0.033176585675776006
1769667893200657000,8.792656982421875,0.01409808345735073,-0.015909516793489457,-0.049910862855613226
1769667893210646000,8.80264599609375,0.04044248502552509,0.005985504150390624,-0.042843481752648946
1769667893220633900,8.8126337890625,0.053093876805901524,-0.005548866298794746,-0.024099326055124402
1769667893230623000,8.822623046875,0.06432371135056018,-0.015225626182556152,-0.007973390031978488
1769667893240610800,8.83261083984375,0.07289630938470364,-0.047538580766320226,0.011440043229237197
1769667893250600000,8.842599853515624,0.05936345859467983,-0.04127776680588722,-0.00721548433676362
1769667893260588800,8.8525888671875,0.035272973433136935,-0.029141338810324668,-0.03463986316137015
1769667893270577000,8.862576904296875,0.03398819431960583,-0.02022621094882488,-0.037933863205462694
1769667893280566000,8.87256591796875,0.05499123485982418,-0.010385784935951232,-0.039347017939016224
1769667893290555000,8.882554931640625,0.06788812583386898,-0.01262275020778179,-0.027931889955326913
1769667893300543000,8.89254296875,0.05807575687170028,-0.0006359598159790038,0.0013736264407634734
1769667893310531800,8.90253173828125,0.060170098802447315,-0.0026420389413833617,0.024291706822067497
1769667893320520400,8.9125205078125,0.04538169499337673,-0.004226093262434005,-0.005385492430627346
1769667893330508500,8.922508544921875,0.04471417099535465,-0.01248071138858795,-0.04652735789716243
1769667893340497200,8.9324970703125,0.04953823015093803,-0.02011865892112255,-0.04254632543697953
1769667893350486300,8.942486328125,0.029710078608989714,-0.02183130805790424,-0.033925942738354205
1769667893360474400,8.952474365234375,0.014531798699498175,-0.029708325043320653,-0.014540055071189998
1769667893370463500,8.96246337890625,0.0012374328404664992,-0.038725159713625903,-0.01648885105140507
1769667893380451300,8.972451416015625,0.006983283016085624,-0.0474742833584547,-0.01019194286428392
1769667893390440400,8.9824404296875,0.009473930788040161,-0.039355274310708045,-0.0028269670542329546
1769667893400429600,8.9924296875,0.026913725888729093,-0.033173955327272416,-0.004967047822847962
1769667893410417400,9.00241748046875,0.035846973928809166,-0.03345277226865291,-0.01630121952481568
1769667893420406300,9.01240625,0.015327917513251304,-0.027470190727710724,-0.01336392396390438
1769667893430395400,9.0223955078125,0.007028875723481178,-0.035379356417059894,-0.014785554264858364
1769667893440383500,9.032383544921874,-0.007250409519672393,-0.03850771757066249,-0.015266981106251477
1769667893450372400,9.042372314453125,0.006254384219646454,-0.028248189362883567,-0.010130421935394405
1769667893460361500,9.052361572265625,0.03990823201835155,-0.03858136732876301,-0.0007415390823036432
1769667893470349300,9.062349365234375,-0.000045008185505867,-0.04744213465452194,0.005413914807513356
1769667893480338400,9.07233837890625,-0.003468552893400192,-0.04044365406930446,-0.013688260547444224
1769667893490327300,9.082327392578126,-0.013961305335164069,-0.031018823119997978,-0.02944718988910317
1769667893500315400,9.0923154296875,0.011555413237214087,-0.037975802651047705,-0.006471241840720177
1769667893510304500,9.102304443359374,0.021921324428915975,-0.0019131401449441908,-0.012033698273450135
1769667893520292400,9.112292236328125,0.06340075128674506,-0.0011298808127641678,0.00032068332172930237
1769667893530281200,9.12228125,0.07533844183981418,-0.03527414247691631,0.027611498894542456
1769667893540270300,9.132270263671876,0.03397065866291523,-0.06428454838395119,-0.0006775339353829622
1769667893550258400,9.142258544921875,0.0034638767182826992,-0.05347790768742561,-0.021892682856321333
1769667893560247300,9.152247314453126,-0.009048983374238014,-0.02698620660305023,-0.06541837471947073
1769667893570236400,9.162236328125,-0.02648994751870632,0.0018365677773952483,-0.06753280959017574
1769667893580224300,9.172224365234374,-0.006058569386601448,0.027490064471960066,-0.03871310394965112
1769667893590213400,9.18221337890625,0.009525953236222266,0.06113631348609924,-0.0322631971579045
1769667893600202200,9.1922021484375,0.045233226433396334,0.054306759727001185,-0.010482450243458152
1769667893610190300,9.2021904296875,0.04204582856893539,0.04343932875394821,-0.0000469078816473484
1769667893620179500,9.212179443359375,0.040654081949591636,0.017760113096237182,0.022713936111330983
1769667893630168300,9.222168212890624,0.037032384321093556,-0.026333880174160003,0.047228638034313916
1769667893640156200,9.23215625,0.025234979021549222,-0.05969254441857338,0.03910020357109606
1769667893650145300,9.242145263671874,0.024266426250338553,-0.04789806172847748,0.02443937166444957
1769667893660133400,9.25213330078125,0.03164309249818325,-0.016727847439050675,0.009050736939907074
1769667893670122500,9.26212255859375,0.03177285635769367,0.006892682123184204,-0.0051033144883811474
1769667893680111400,9.272111328125,0.03172258747518063,-0.00013794716596603394,-0.011861410446465015
1769667893690099500,9.282099365234375,0.023780104038119313,-0.016304653590917588,0.012990560606867074
1769667893700088300,9.29208837890625,0.017137597283720968,-0.03074935852885246,0.0033590281043201684
1769667893710077200,9.3020771484375,0.0047153380841016765,-0.03807283328473568,0.0060247401822358364
1769667893720065300,9.312065185546874,0.0007663081973791122,-0.039379824230074884,-0.022276275346428155
1769667893730054400,9.322054443359375,0.020675123760104178,-0.02263794826567173,-0.031217560562491416
1769667893740043500,9.33204345703125,-0.005416764351725578,-0.01570025795698166,-0.03219670779295265
1769667893750031400,9.34203125,-0.019356442376971244,-0.02496025373339653,-0.01848272828236222
1769667893760020200,9.352020263671875,-0.024321371307969093,-0.03077157036066055,-0.016906418876349926
1769667893770009300,9.36200927734375,-0.028937925192713737,-0.025848727005720138,0.0027308862686157226
1769667893779997400,9.37199755859375,-0.013605916026234626,-0.03263736423254013,-0.011222381890565156
1769667893789986300,9.381986328125,0.018621698361635207,-0.051073184633255005,-0.019562632473558186
1769667893799975400,9.391975341796876,0.044233694002032274,-0.02652443431019783,-0.04416610865853727
1769667893809963500,9.401963623046875,0.0017354454904794693,-0.036411037552356716,-0.0621979513682425
1769667893819952400,9.411952392578126,-0.05712707784473896,-0.02921440404653549,-0.04218501784391701
1769667893829940200,9.421940185546875,-0.05051262814104557,-0.025848727005720138,-0.028736338206008075
1769667893839929300,9.431929443359374,-0.014019173002243042,-0.013283259943127632,-0.029676395535096524
1769667893849918500,9.44191845703125,0.006196516552567481,0.00705751729607582,-0.01452076584883034
1769667893859906600,9.451906494140625,0.014023264655470847,0.002070376533269882,-0.03188062758110463
1769667893869895400,9.4618955078125,0.027843700215220448,0.0038151743739843367,-0.041214273115620016
1769667893879884500,9.471884521484375,0.04713759874999523,0.01461480080783367,-0.017462079997733235
1769667893889872400,9.481872314453126,0.047864159458875656,0.00312660758793354,-0.0013625205248594284
1769667893899861200,9.491861328125,0.014666823256015777,0.005959200665354728,0.00014335399344563485
1769667893909850400,9.501850341796874,-0.006935936743021011,-0.006560089167952537,-0.0015275018282234667
1769667893919838500,9.51183837890625,-0.0043324762463569635,-0.002586509361863136,-0.020067440190538764
1769667893929827300,9.521827392578125,-0.013383797708153724,-0.014357026654481887,-0.036859877298399804
1769667893939816400,9.53181640625,0.012429273462295531,-0.01941197195649147,-0.053037105117365715
1769667893949804300,9.54180419921875,0.03145487644970417,-0.014394436055421829,-0.06060162208750844
1769667893959793400,9.55179345703125,0.05526420658230781,-0.019677929416298864,-0.03645494975931942
1769667893969782300,9.5617822265625,0.0406423915117979,-0.03485562480390072,-0.02613127027414739
1769667893979770400,9.571770263671874,0.027329320952296256,-0.03596563187241554,-0.008020444044098258
1769667893989759500,9.581759521484376,0.034791327396035195,-0.018655016109347344,-0.003138371090963483
1769667893999747300,9.591747314453125,0.043455110844969745,-0.011524433577060698,-0.005292918776348233
1769667894009736200,9.601736083984376,0.06326046603322029,-0.0026654198169708252,-0.011753420027345418
1769667894019725300,9.611725341796875,0.06372282284796238,0.0009936872124671936,-0.015791589502245188
1769667894029713400,9.62171337890625,0.032955344140529634,0.007903904992341995,-0.021513839606568216
1769667894039702500,9.63170263671875,0.039383331361413,-0.00008475567400455475,-0.023923384966328738
1769667894049691400,9.64169140625,0.03979249668419361,-0.01941197195649147,-0.021696356566622853
1769667894059679200,9.65167919921875,0.01949088241159916,-0.018003858724236488,-0.027609818394109604
1769667894069668400,9.66166845703125,0.004610708665847778,-0.02997603606879711,-0.02493636140115559
1769667894079657200,9.6716572265625,0.01270867492556572,-0.03335574163496494,-0.02700052738934755
1769667894089645300,9.681645263671875,0.02003331872522831,-0.018732172998785972,-0.01790273643732071
1769667894099634400,9.691634521484374,0.01814239041209221,-0.029316695377230643,-0.005472293931245803
1769667894109623600,9.70162353515625,0.011278349861502647,-0.028343466430902478,-0.009497092467918992
1769667894119611100,9.711611083984375,0.0016389993786811827,-0.022814473876357075,-0.004389540195837617
1769667894129600300,9.721600341796876,0.0007996259450912475,-0.02010287683010101,0.00314699278883636
1769667894139588400,9.73158837890625,0.00263210206925869,-0.01004559319615364,0.0072710139162838455
1769667894149577500,9.741577392578124,0.01790098287165165,0.0028986440509557723,0.015501812775433062
1769667894159566300,9.75156640625,0.0017892215043306349,0.007578910821676253,0.004487155351415276
1769667894169554400,9.761554443359374,-0.012000818917155265,-0.012648469170928,-0.0008894961856305599
1769667894179543300,9.771543212890625,-0.03796411221325397,-0.018920389047265052,-0.02150266062542796
1769667894189532200,9.7815322265625,-0.056687517383694645,-0.013141805645823477,-0.03221365892775357
1769667894199520300,9.791520263671876,-0.055877370044589036,-0.004145429241657257,-0.03540522151067853
1769667894209509400,9.80150927734375,-0.03850537948310375,-0.008245265775918961,-0.04218655221387744
1769667894219498500,9.81149853515625,-0.016111761367321013,0.008099135303497314,-0.03492854390963912
1769667894229486600,9.821486572265625,0.0011064999371767042,-0.004326046505570411,-0.0018467969104647636
1769667894239475500,9.831475341796875,-0.01271861179769039,-0.011559504890441894,-0.010575754550099372
1769667894249464300,9.84146435546875,-0.041809097203612325,-0.01161503446996212,0.001522825653105974
1769667894259452400,9.851452392578125,-0.05016133048534393,-0.016247954967617988,0.006453852314502
1769667894269441300,9.861441162109376,-0.0073369187593460075,-0.0006873977422714233,-0.0002408230185508728
1769667894279430400,9.871430419921875,0.001359013393521309,0.009786649999022482,-0.011332345071062445
1769667894289418500,9.88141845703125,0.002493570381402969,0.004046060520410537,-0.006864332811534405
1769667894299407400,9.891407470703125,0.0020697920113801954,0.007091419565677643,0.010689955514296889
1769667894309395200,9.901395263671875,-0.010977321088314056,0.014692542219161987,0.0013281067986041306
1769667894319384300,9.91138427734375,-0.02329845800101757,0.01243628772497177,0.022830475163087248
1769667894329373200,9.921373291015625,-0.007573650124669075,0.011029928058385848,0.023241028725355863
1769667894339361300,9.931361328125,0.011080781462788581,-0.000016366612911224363,0.026335999066010116
1769667894349350000,9.941349853515625,-0.008535773155093192,0.0013397241711616515,0.020183760046586393
1769667894359339000,9.951339111328124,-0.011654781958460807,-0.0001537292569875717,-0.015736498314142228
1769667894369327000,9.9613271484375,0.007638532054424285,0.0129360539406538,-0.029214988568425176
1769667894379316000,9.97131591796875,0.0016594576448202133,0.010593874728679656,-0.05358509438894689
1769667894389305000,9.98130517578125,-0.006705635118484497,0.018121932145953177,-0.05160341905243695
1769667894399293200,9.991293212890625,0.013631050467491149,0.021656536012887955,-0.027820246274396776
1769667894409282000,10.001281982421874,0.015789105284214018,0.0194324302226305,-0.013523206178843974
1769667894419271000,10.01127099609375,0.011951719078421592,0.009546996024250983,0.00014963760375976562
1769667894429259000,10.021259033203124,0.01260404550731182,-0.003231821528077125,0.03730345634743571
1769667894439248100,10.031248046875,-0.02764671633839607,-0.020422610303759574,0.05408193799518048
1769667894449237000,10.041237060546875,-0.02460018824934959,-0.03764262517392635,-0.00658697717487812
1769667894459225000,10.05122509765625,-0.029186346995830535,-0.01329553490281105,-0.03842420400567353
1769667894469214000,10.0612138671875,-0.04298749333322048,0.014703648135066031,-0.04323416157066822
1769667894479202000,10.0712021484375,-0.019447627791762352,0.04906535194218158,-0.06301606281809509
1769667894489191200,10.081191162109375,0.017398294046521184,0.07238777534067631,-0.0731991647887975
1769667894499180000,10.091179931640625,0.06674597006142138,0.0840951642692089,-0.07400975051932036
1769667894509168000,10.101168212890625,0.06969312942922115,0.07430208452939986,-0.07475209331922232
1769667894519157200,10.1111572265625,0.0882341637700796,0.08262976789176464,-0.08624386673569678
1769667894529146000,10.12114599609375,0.08253215273618697,0.06872282309234141,-0.1184173397835344
1769667894539134000,10.131134033203125,0.09676350718438624,0.06438859328031539,-0.16173399200588465
1769667894549123000,10.141123046875,0.07832885582745075,0.04836041854321956,-0.1646589395418763
1769667894559112200,10.1511123046875,0.034570378121733664,0.031389409998059274,-0.18480521712228654
1769667894569100000,10.16110009765625,0.024848025530576703,-0.01059679733812809,-0.17710173007287083
1769667894579089200,10.171089111328126,-0.007406476864218712,-0.03182254071831703,-0.19684658724553883
1769667894589078300,10.181078369140625,-0.033035423639416694,-0.019996493846178055,-0.18890929144024848
1769667894599066000,10.191066162109376,-0.1903150665849447,-0.09593056349158287,-0.18835326499268412
1769667894609055000,10.201054931640625,0.24203648599386213,0.02458031450510025,-0.3255852684266865
1769667894619044000,10.211044189453125,0.1485965702742338,0.028155834904313087,-0.28302608350813385
1769667894629032200,10.2210322265625,0.021219898161292074,-0.0026730186015367506,-0.3013151158493012
1769667894639021000,10.23102099609375,0.04387012138664722,0.010510288098454475,-0.28724216683320697
1769667894649009000,10.2410087890625,-0.0020645313143730164,0.03947627034187317,-0.31016251223683355
1769667894658998000,10.250998046875,-0.020324410626292227,0.03257891204357147,-0.33066286395192146
1769667894668987100,10.260987060546874,-0.007527472895383834,0.08500468032956122,-0.3696146720282733
1769667894678975200,10.270975341796875,-0.053230070406198496,0.022295418438315392,-0.37159028295017776
1769667894688964000,10.280964111328124,-0.05788578725755214,-0.052774143332242965,-0.4206992548383772
1769667894698953200,10.290953125,0.0637912119090557,-0.012389525973796844,-0.38339053779393434
1769667894708941000,10.300941162109375,0.02331540913581848,-0.013862521135807037,-0.29589111803919077
1769667894718930000,10.310929931640626,-0.007291910573840141,-0.03237257581651211,-0.30943324811421336
1769667894728919000,10.3209189453125,-0.024986557218432424,-0.06939560778737068,-0.32373540277630086
1769667894738907100,10.3309072265625,-0.03367255249917507,-0.06741349405944347,-0.3396056835379451
1769667894748896000,10.34089599609375,-0.034328970581293104,-0.08606091138422489,-0.39547428575418886
1769667894758885000,10.350885009765625,-0.05580664289593696,-0.11146715531945228,-0.40498884081356223
1769667894768873000,10.360873046875,-0.06635024874210357,-0.12799918792545795,-0.3807711490757763
1769667894778862000,10.370862060546875,-0.04738426698744297,-0.1357259827852249,-0.35929610710963605
1769667894788851000,10.380850830078124,-0.03760170864164829,-0.09163082047104835,-0.34041305439807473
1769667894798839000,10.390839111328125,-0.031363106513023375,-0.033113749572634694,-0.33433716855049134
1769667894808828200,10.400828125,-0.045480479192733764,0.034651626664400095,-0.3165620770808309
1769667894818816300,10.410816162109375,-0.05726560953259468,0.03645663025975227,-0.26674254577048123
1769667894828804900,10.420804931640625,-0.06067103406190872,0.019448212313652038,-0.23773155534155666
1769667894838794000,10.4307939453125,-0.0355535439401865,0.004366378515958786,-0.20345029635950923
1769667894848782000,10.440781982421875,-0.01314998895227909,0.01148819321990013,-0.14500935943722723
1769667894858771200,10.450771240234374,0.021852935367822644,0.025737083324789998,-0.09639438161104917
1769667894868760000,10.460760009765625,0.011101824250817299,0.05222703084349632,-0.06541121432632208
1769667894878748200,10.470748046875,0.03145136931836605,0.061493456360697744,0.037232144676893945
1769667894888737000,10.480737060546875,0.05353460631072521,0.020592121651768682,0.07929477825015784
1769667894898726000,10.490725830078125,-0.04625730878412723,0.017404723787307737,0.023638942001760005
1769667894908714000,10.5007138671875,-0.13100012330710886,0.024607202512025833,-0.03945551981478929
1769667894918703000,10.510703125,-0.13191256197690962,0.017967033845186234,-0.08789806368350982
1769667894928692200,10.520692138671874,-0.37867607649266716,-0.043132454761862754,-0.20638722659423947
1769667894938680000,10.53068017578125,-0.0072153382062911985,0.004780804535746574,-0.27562837447226046
1769667894948669200,10.540669189453125,0.2265279512166977,0.1800894406467676,0.09536810730323195
1769667894958658000,10.550657958984376,0.40917175252139565,0.16311200236082077,0.09085735188052058
1769667894968646100,10.560646240234375,0.27102935624420643,0.03378127357065677,0.049489860964566465
1769667894978635000,10.570635009765626,0.09494096793234348,-0.03434767528176307,0.015217442876100539
1769667894988623000,10.580623046875,0.10106967994570731,-0.008348726150393485,-0.01331876964792609
1769667894998612200,10.5906123046875,0.08411445349156856,0.07750935613811015,-0.035689299149066205
1769667895008601000,10.60060107421875,0.1313777244478464,0.13187164544463156,0.03291764247864484
1769667895018589000,10.6105888671875,0.11274842730164528,0.0918506007015705,0.143649323130399
1769667895028578000,10.620578125,0.0763660313218832,0.027355039915442466,0.21520824643149972
1769667895038567200,10.630567138671875,0.030129180803894994,-0.0713163467168808,0.14322379119470716
1769667895048555000,10.640554931640626,0.006672901892662048,-0.1150695637255907,0.07937938779368996
1769667895058544000,10.650544189453125,0.027940730848908423,-0.09084756113886833,0.041000118908286094
1769667895068533200,10.660533203125,0.026308161211013793,-0.050398061850666996,0.10636150274351239
1769667895078521000,10.67052099609375,0.01178454581797123,-0.04371288499832153,0.24191081378757953
1769667895088510000,10.680510009765625,-0.07661036147177219,-0.07494915026128292,0.33081630094796416
1769667895098499000,10.6904990234375,-0.2311982811152935,-0.16525076795518398,0.30265155208483335
1769667895108487200,10.700487060546875,-0.4640390687406063,-0.24045535428225992,0.060612435742467635
1769667895118476000,10.71047607421875,-0.46268356247842307,-0.0896329246520996,0.3802282743707299
1769667895128465200,10.720465087890625,-0.18782149620354174,-0.12428455131649971,0.5101142989560962
1769667895138453000,10.730452880859374,-0.13982523479759693,-0.16748305705189703,0.5393257803931832
1769667895148442000,10.740442138671876,-0.08727204073965548,-0.2959206363946199,0.4551460065804422
1769667895158430200,10.75043017578125,-0.038980595779418946,-0.2450795069515705,0.438244702270627
1769667895168419000,10.760419189453126,-0.06275134746730328,-0.22100948005616664,0.42995369765684005
1769667895178408200,10.770408203125,-0.034518355673551555,-0.13963292709589004,0.4280782591737807
1769667895188396000,10.78039599609375,0.017615736189484595,-0.12006605683863163,0.4902111824817955
1769667895198385000,10.790385009765625,0.04264847063720226,-0.08507423843443393,0.5630874719917773
1769667895208374000,10.8003740234375,-0.0012526304095983505,-0.09176642954945564,0.6917233503855764
1769667895218362000,10.810362060546876,-0.09265840995311736,-0.11890168923437594,0.7138004498980939
1769667895228351200,10.820351318359375,-0.138174544981122,-0.18510697654783725,0.6591441460810601
1769667895238340000,10.830340087890624,-0.23569617705643175,-0.2878472200542688,0.6002379297345877
1769667895248328000,10.840327880859375,-0.36837212462127206,-0.24336861138045787,0.43304508780092
1769667895258317000,10.850317138671874,-0.4376818076908588,-0.09813011936247348,0.306174319383502
1769667895268306000,10.860305908203125,-0.3059171297520399,-0.04781739770770073,0.20425649817585945
1769667895278294000,10.8702939453125,-0.1814525456935167,0.05321428831517696,0.19721008679568766
1769667895288283100,10.880283203125,-0.08824936133921146,0.14135668214857577,0.2538306764230132
1769667895298272300,10.890272216796875,0.08312193532288074,0.1416512811809778,0.3497951421841979
1769667895308259800,10.900259765625,0.10596563529372215,0.06416647496223449,0.4846621700525284
1769667895318249000,10.9102490234375,0.11324702447354792,0.1909685620576143,0.6526581450626253
1769667895328237000,10.920237060546874,0.07372808403372764,0.18131985922455787,0.6571575023084879
1769667895338226200,10.93022607421875,-0.0016600421667098998,0.11100246041715145,0.6292135565891862
1769667895348215000,10.940215087890625,-0.06453939992785454,0.043722237348556514,0.49808337716162204
1769667895358203100,10.950203125,-0.14560732533037662,-0.033065818777680396,0.30035014327466486
1769667895368192300,10.960192138671875,-0.16185703386366365,0.016999650117754936,0.28404256707429887
1769667895378181000,10.97018115234375,-0.08015256412327289,0.08763970500826836,0.29558102917671203
1769667895388169000,10.9801689453125,-0.1052004961401224,0.14233750987946986,0.27477438799142834
1769667895398158000,10.990157958984375,-0.08365385024249553,0.1260153206318617,0.3131128864750266
1769667895408147200,11.000147216796876,-0.16872516606748103,0.11385960341393947,0.34347879864424463
1769667895418135000,11.010135009765625,-0.32871582153737544,0.03793079446554184,0.31303572958558795
1769667895428124200,11.020124267578124,-0.4481307209908962,-0.00429039067029953,0.28743776247054337
1769667895438113300,11.03011328125,-0.4722516012907028,0.008522913673520087,0.273389363373816
1769667895448101000,11.04010107421875,-0.4224158494979143,-0.0041273090630769725,0.22228359164521097
1769667895458090000,11.050090087890625,-0.4158750495523214,0.004684942945837974,0.15670681149363516
1769667895468079000,11.0600791015625,-0.3400578842848539,-0.08931552926599978,0.22135639379769562
1769667895478067200,11.070067138671876,-0.20233926637768745,-0.04206687135696411,0.19958149210214612
1769667895488056000,11.08005615234375,-0.10974456931054591,-0.0230967979490757,0.1431101016871631
1769667895498045200,11.090045166015624,-0.0027852468043565747,0.014967852029204368,0.09707476509064436
1769667895508033000,11.100032958984375,0.031058570608496663,-0.01146247425675392,0.10504150618612766
1769667895518022100,11.110022216796875,0.08586918820440768,-0.0032359131813049316,0.19573811454698442
1769667895528010200,11.12001025390625,0.11940554710328578,0.02422024902105331,0.32518662449792024
1769667895537999000,11.1299990234375,0.2693108618885279,0.20538813255429267,0.6060996613748372
1769667895547988200,11.13998828125,0.35309622955620285,0.2525093646913767,0.5138895797111094
1769667895557976000,11.14997607421875,0.44148879875838754,0.279273452976346,0.4754185408890247
1769667895567965000,11.15996484375,0.5564186617523431,0.23873452183902263,0.438913249181956
1769667895577954000,11.1699541015625,0.7243225745648145,0.1895055037677288,0.6532210396423935
1769667895587942100,11.179942138671874,0.7344009009867906,0.11919804183244705,0.544877423170954
1769667895597931300,11.18993115234375,1.2506290066480636,0.26317279752492906,0.5242766798213124
1769667895607920000,11.199920166015625,1.3316881642222405,0.3255173177570104,0.49368879546448585
1769667895617908000,11.209907958984376,0.977835563340783,0.3533136716991663,0.4178178541831672
1769667895627897000,11.21989697265625,0.7655892354547977,0.44637657079994675,0.34856413908451794
1769667895637886000,11.229885986328124,0.74990008341372,0.44100832176506516,0.38688027960583565
1769667895647874000,11.2398740234375,0.6552256574630737,0.3489437860518694,0.5160509955286979
1769667895657863200,11.24986328125,0.7524579512029885,0.20091770914196966,0.5867021563351154
1769667895667851300,11.259851318359376,0.7936492087692022,0.13671440930068493,0.6044482409060001
1769667895677840100,11.269840087890625,0.8676876739263534,0.23804887766242025,0.5600595024727285
1769667895687829000,11.2798291015625,1.072986374631524,0.33229134193658827,0.5030687643587589
1769667895697817000,11.289817138671875,1.0784224282056092,0.2231412313878536,0.3391948377147317
1769667895707806200,11.29980615234375,1.1710346609294413,0.2310539042085409,0.22396569951325654
1769667895717795000,11.309795166015626,1.1141314549684525,0.2320563592493534,0.16340470169708132
1769667895727783200,11.319783203125,0.8555763803720474,0.1771621550232172,0.07659238742366432
1769667895737772300,11.329772216796876,0.44268180793523787,0.09369535178542136,-0.01966594671756029
1769667895747761000,11.339760986328125,0.10804828678667544,0.1254565177053213,-0.023164164096862075
1769667895757749000,11.3497490234375,-0.035302199527621266,0.1991033531963825,0.09100961983278394
1769667895767738000,11.359738037109375,0.049178164666891094,0.24081191263496873,0.1732864826336503
1769667895777727200,11.369727294921875,0.34051848753392694,0.23559973094463346,0.34448943699151274
1769667895787715000,11.379715087890625,0.6453682803153992,0.2218780795842409,0.39037922763749955
1769667895797704200,11.3897041015625,0.7528203547745943,0.14511398885548113,0.33238837257027626
1769667895807693000,11.399693115234374,0.8501490946263074,-0.009911153161525726,0.28985454128868876
1769667895817681200,11.40968115234375,0.8000579067677259,-0.20838030010759828,0.21049510030448434
1769667895827670000,11.419669921875,0.48982116025090217,-0.4422089297264814,0.029052491483092305
1769667895837658000,11.429658203125,0.08916998331546783,-0.6293547186255455,-0.23566724322289226
1769667895847647200,11.439647216796875,-0.13911854783296584,-0.607682400521636,-0.38306269407905635
1769667895857636000,11.449635986328126,-0.43086102176010604,-0.6348059697687626,-0.47102395919188855
1769667895867624000,11.4596240234375,-0.6977069548398256,-0.4480547331452369,-0.6102907563891261
1769667895877613000,11.469613037109376,-0.588569703772664,-0.6195657305389642,-0.5684344590429217
1769667895887602200,11.479602294921875,-0.9874392579883337,-0.327431626945734,-0.4387754481464624
1769667895897590300,11.48959033203125,-1.1122720908373593,-0.34403964739739895,-0.6500187364697456
1769667895907579100,11.4995791015625,-0.8946779721826315,-0.3700789285391569,-0.4321250503465533
1769667895917568300,11.509568359375,-0.740427906191349,-0.3498486259371042,-0.2686854234665632
1769667895927556000,11.51955615234375,-0.38790567713081836,-0.46460196332037446,-0.15489077504761517
1769667895937545000,11.529544921875,0.212851308041811,-0.43002632450163364,-0.02515672615356743
1769667895947534000,11.5395341796875,0.48945992572307584,-0.7048591646820306,0.1976261567832902
1769667895957522200,11.549522216796875,0.7768921352356671,-0.7162830604940652,0.3770322913410142
1769667895967511300,11.55951123046875,0.9394617012828588,-0.7031681428551674,0.33720362736489623
1769667895977500200,11.569500244140626,0.7617454195082187,-0.7968079650610684,0.10843151395060122
1769667895987488000,11.579488037109375,0.5822925231993198,-0.857199597659707,-0.166165727375634
1769667895997477000,11.58947705078125,0.573886513903737,-0.5900409453690052,-0.346638614382036
1769667896007466000,11.599466064453125,0.5090092603236437,-0.2624374689877033,-0.4789612184645608
1769667896017454000,11.6094541015625,0.46940790229737756,-0.20494097330868244,-0.45891083900667723
1769667896027443200,11.619443115234375,0.4492775529384613,-0.14248597843945027,-0.30785682911034673
1769667896037431000,11.62943115234375,0.5521680185705423,-0.05204992071092129,-0.2415400442464277
1769667896047420000,11.639419921875,0.6533417434126139,-0.044077626657485956,-0.424629653089866
1769667896057409000,11.649408935546875,0.8550392047554254,0.04870645550191402,-0.7483795227829366
1769667896067397000,11.659397216796876,1.1349316664129494,0.4999012402385473,-0.8044066765617579
1769667896077386200,11.66938623046875,1.372903387185931,0.8503653677254914,-0.7065203758925199
1769667896087375000,11.679375,1.3380822491735218,0.8676981953203677,-0.5208376087507233
1769667896097363200,11.68936328125,1.1171826592326164,0.8864075719654559,-0.39710119283627715
1769667896107352000,11.69935205078125,1.0748749648571014,0.8981038549780845,-0.16164762889668344
1769667896117341000,11.7093408203125,1.0407640209406614,0.7330863112568855,0.06721168787702918
1769667896127329000,11.7193291015625,0.941757118743658,0.6785825676530599,0.2240686849636957
1769667896137318100,11.729318115234374,0.6483692156970501,0.4467231922805309,0.3225774649128318
1769667896147307300,11.739307373046875,0.4095008383452892,0.017915595918893815,0.32495219468753783
1769667896157295000,11.749295166015624,0.394939229029417,-0.12736731976270674,0.29112678971420974
1769667896167284000,11.759283935546875,0.5881289742678404,-0.053204935964941975,0.287708651833795
1769667896177273000,11.769273193359375,0.583345831644535,0.3127496061205864,0.4471430251277983
1769667896187261200,11.77926123046875,0.49951077961623663,0.46726387600600716,0.460714308232069
1769667896197250000,11.78925,0.428598922047019,0.4827034372001886,0.4434969237104058
1769667896207239200,11.7992392578125,0.09612228667140006,0.4845259764522314,0.4884992639973759
1769667896217227300,11.809227294921875,-0.5003413852214813,0.46829380357563494,0.4722009670820087
1769667896227216100,11.819216064453125,-1.07500823584795,0.2894347815066576,0.5913247746344655
1769667896237204000,11.829203857421875,-1.827956016394496,-0.3733651106029749,0.8149328928817063
1769667896247193000,11.839193115234375,-2.3350439532667395,-1.0227928954422474,1.2091777829714119
1769667896257182200,11.84918212890625,-2.6101269688159228,-1.4821283165365458,1.2221318109601735
1769667896267170300,11.85917041015625,-2.4832734437942503,-1.8615099109500646,1.0741735385894775
1769667896277159200,11.8691591796875,-2.443864393469691,-1.9445985285252332,1.1433077189616858
1769667896287148300,11.879148193359375,-2.358148934522271,-1.8130191440254448,0.9152685594644397
1769667896297136000,11.88913623046875,-2.3243986406117676,-1.3128268118858337,0.5546914361009374
1769667896307125000,11.899125,-2.1188228765308854,-0.7764999210476875,0.3180761349055916
1769667896317114000,11.909114013671875,-1.77475867921412,-0.7209761867463589,0.07970186121370643
1769667896327102500,11.9191025390625,-1.499457052478194,-1.1173089159607887,0.08888550381828099
1769667896337091300,11.92909130859375,-1.1074167597606777,-1.6173954496383667,0.05992196926027536
1769667896347080200,11.939080078125,-0.7901257108181714,-2.239545351451635,-0.1295455771172419
1769667896357068300,11.949068359375,-0.4314870447039604,-2.594467627391219,-0.41160007564686235
1769667896367057400,11.959057373046875,0.0470563502073288,-2.7574270695388314,-0.6850736832380294
1769667896377046300,11.96904638671875,0.3993172979831695,-2.749949281004071,-0.9858699628449976
1769667896387034400,11.979034423828125,0.38204789101332426,-2.528144266656041,-1.1847813736658543
1769667896397023500,11.9890234375,0.4257780194073915,-2.0628782864689827,-0.8859544944357126
1769667896407011300,11.99901123046875,0.2785775796666741,-1.6403811884284019,-1.0132701570764184
1769667896417000200,12.009000244140625,0.13592325892299412,-1.0545856255441903,-1.3333360775597394
1769667896426989300,12.0189892578125,0.026752105586230753,-0.4928215111106634,-1.3896248048841953
1769667896436977400,12.028977294921875,0.22175708355307577,0.32727672864496704,-1.638968983542919
1769667896446966500,12.038966552734376,0.34456834744662046,1.4389946927309036,-2.1108941293582317
1769667896456955400,12.048955322265625,-0.02294073060452938,2.3807494733870027,-2.2042586417540906
1769667896466943200,12.058943115234374,-0.5879059791669249,1.8860569077074527,-2.0403955287650226
1769667896476932400,12.068932373046875,-1.1753981168359517,0.8565396724462508,-1.8940834161661564
1769667896486921200,12.078921142578125,-1.7144111780181526,0.24444705426692961,-1.9903663002267478
1769667896496909300,12.088909423828126,-1.8286147725641726,-0.015090601626038551,-1.4127949603304266
1769667896506898400,12.0988984375,-1.6093524284362792,-0.5880711066007613,-1.0916982354946434
1769667896516887600,12.108887451171874,-0.9262333863973617,-0.6114940677642822,-1.852098231743276
1769667896526875100,12.118875244140625,-1.2715119279399514,-0.7519301279366016,-0.8749254431601613
1769667896536864300,12.1288642578125,-0.8438686991825699,-0.8019482505589723,-1.137460015846789
1769667896546853400,12.138853271484376,-0.20059534531980752,-0.010630115085840225,-1.0942811646599322
1769667896556841500,12.148841552734375,-0.12848784822523593,0.5053057296305895,-0.19896785371582953
1769667896566830300,12.158830322265626,0.4422296802535653,0.19419746097624302,0.4130389858761802
