time,seconds_elapsed,z,y,x
1769667884480579300,0.072579345703125,-0.16496700048446655,0.3351346254348755,-0.8241454362869263
1769667884490568400,0.082568359375,-0.15783019363880157,0.5244510769844055,-0.8265846967697144
1769667884500557300,0.092557373046875,-0.16359460353851318,0.5948114991188049,-0.8044871091842651
1769667884510545200,0.102545166015625,-0.18541017174720764,0.5736712217330933,-0.7806912660598755
1769667884520534300,0.1125341796875,-0.2173215001821518,0.4873075783252716,-0.7751356363296509
1769667884530523400,0.1225234375,-0.2493082731962204,0.3517991304397583,-0.8011760711669922
1769667884540511500,0.132511474609375,-0.2724434435367584,0.21715262532234192,-0.8526821732521057
1769667884550500400,0.142500244140625,-0.28400659561157227,0.048935603350400925,-0.9422456622123718
1769667884560488200,0.15248828125,-0.2831946015357971,-0.13319264352321625,-1.125132441520691
1769667884570477300,0.162477294921875,-0.32869428396224976,-0.3274502158164978,-1.3730524778366089
1769667884580466200,0.172466064453125,-0.3016272485256195,-0.44304925203323364,-1.596806526184082
1769667884590454300,0.182454345703125,-0.28426486253738403,-0.5627599954605103,-1.705983281135559
1769667884600443400,0.192443359375,-0.3014449179172516,-0.6427012085914612,-1.721837043762207
1769667884610432500,0.2024326171875,-0.3171548843383789,-0.7077155709266663,-1.7451987266540527
1769667884620420000,0.212420166015625,-0.3311484754085541,-0.6661487221717834,-1.7361716032028198
1769667884630409200,0.2224091796875,-0.39271578192710876,-0.4653501510620117,-1.8366730213165283
1769667884640398300,0.2323984375,-0.41690102219581604,0.2546037435531616,-1.8347915410995483
1769667884650386400,0.242386474609375,-0.3669014275074005,0.6815077066421509,-1.6755191087722778
1769667884660375300,0.252375244140625,-0.4718976318836212,0.33919990062713623,-1.4347916841506958
1769667884670363400,0.26236328125,-0.5782077312469482,-0.05783781409263611,-1.2219889163970947
1769667884680352300,0.272352294921875,-0.6454735994338989,-0.30275169014930725,-1.0214462280273438
1769667884690341000,0.282341064453125,-0.6589726209640503,-0.3777688145637512,-0.9547286629676819
1769667884700329200,0.2923291015625,-0.7094925045967102,-0.5407412052154541,-0.9904145002365112
1769667884710318300,0.302318359375,-0.707767128944397,-0.7823482751846313,-0.9844608902931213
1769667884720307500,0.312307373046875,-0.650535523891449,-0.9391652941703796,-0.9769259691238403
1769667884730295300,0.32229541015625,-0.5536175966262817,-0.8825049996376038,-0.9720878601074219
1769667884740284400,0.332284423828125,-0.3978080153465271,-0.6590908169746399,-0.9651910662651062
1769667884750272300,0.342272216796875,-0.23528216779232025,-0.4781254827976227,-0.9832844734191895
1769667884760261400,0.352261474609375,-0.11458425968885422,-0.3940390944480896,-0.9856546521186829
1769667884770250200,0.362250244140625,-0.023800687864422798,-0.35611721873283386,-0.9710627198219299
1769667884780238300,0.37223828125,0.02179902233183384,-0.24205537140369415,-0.9055396318435669
1769667884790227500,0.3822275390625,0.008940628729760647,-0.2950495779514313,-0.5107036232948303
1769667884800216300,0.39221630859375,0.06632855534553528,-0.4097149074077606,-0.3011471927165985
1769667884810204200,0.4022041015625,0.042262524366378784,-0.3606412410736084,-0.3383108675479889
1769667884820193300,0.412193359375,-0.015146973542869091,-0.1306208372116089,-0.5592203140258789
1769667884830181400,0.422181396484375,-0.0045664627104997635,0.1514383852481842,-0.7974804043769836
1769667884840170500,0.43217041015625,0.02771451137959957,0.20675118267536163,-1.0392850637435913
1769667884850159400,0.442159423828125,0.04480184242129326,0.3157447278499603,-1.18397855758667
1769667884860147200,0.452147216796875,0.10069067776203156,0.41812437772750854,-1.2700470685958862
1769667884870136300,0.46213623046875,0.11076368391513824,0.3979472815990448,-1.359391689300537
1769667884880125200,0.472125244140625,0.03960482031106949,0.1471414417028427,-1.3767043352127075
1769667884890113300,0.48211328125,-0.04478703439235687,-0.28151291608810425,-1.4177170991897583
1769667884900102400,0.492102294921875,-0.11602605879306793,-0.5368623733520508,-1.369850754737854
1769667884910090500,0.502090576171875,-0.13984723389148712,-0.3868902623653412,-1.2935618162155151
1769667884920079000,0.5120791015625,-0.16980940103530884,-0.11177373677492142,-1.008785367012024
1769667884930068200,0.522068115234375,-0.24803906679153442,0.11720495671033859,-0.7506784796714783
1769667884940056300,0.532056396484375,-0.2964164614677429,0.14869390428066254,-0.5697891116142273
1769667884950045400,0.54204541015625,-0.28556984663009644,-0.21119025349617004,-0.5891208648681641
1769667884960034300,0.552034423828125,-0.29150497913360596,-0.5274629592895508,-0.7620940208435059
1769667884970022400,0.5620224609375,-0.25786668062210083,-0.4148077964782715,-0.9840638041496277
1769667884980011300,0.57201123046875,-0.21361957490444183,-0.24824734032154083,-1.1111201047897339
1769667884989999400,0.581999267578125,-0.07396824657917023,-0.11823809146881104,-1.2098702192306519
1769667884999988200,0.59198828125,0.06897745281457901,0.23387041687965393,-1.2814314365386963
1769667885009977300,0.601977294921875,0.10537253320217133,-0.15562203526496887,-1.4430676698684692
1769667885019965400,0.61196533203125,0.17794154584407806,0.7937033176422119,-0.9652422070503235
1769667885029954600,0.62195458984375,0.15227626264095306,1.757227897644043,-0.5941506624221802
1769667885039943200,0.631943115234375,0.11149021238088608,2.004234552383423,-0.6433565616607666
1769667885049931300,0.64193115234375,0.01776726171374321,1.9846760034561157,-0.762382984161377
1769667885059920400,0.65192041015625,0.01663062535226345,1.8586426973342896,-0.8884708881378174
1769667885069908500,0.661908447265625,0.07563179731369019,1.2880871295928955,-0.9400819540023804
1769667885079897300,0.6718974609375,0.1477712243795395,0.902394711971283,-1.0111756324768066
1769667885089886500,0.681886474609375,0.27537986636161804,0.8130107522010803,-1.0371723175048828
1769667885099874300,0.691874267578125,0.3957347571849823,0.7294604778289795,-1.0091465711593628
1769667885109863200,0.70186328125,0.4567382037639618,0.5968363881111145,-0.9745410084724426
1769667885119852300,0.711852294921875,0.46877968311309814,0.49378061294555664,-0.9004550576210022
1769667885129840400,0.72184033203125,0.43965286016464233,0.4692951738834381,-0.8151381015777588
1769667885139829500,0.73182958984375,0.3609119951725006,0.4630644619464874,-0.7257014513015747
1769667885149818400,0.741818359375,0.2615568935871124,0.3720202147960663,-0.6543875336647034
1769667885159806200,0.75180615234375,0.14058493077754974,0.17271296679973602,-0.6082786321640015
1769667885169795300,0.76179541015625,0.036612436175346375,-0.09191931039094925,-0.5977039933204651
1769667885179783400,0.771783447265625,-0.05908266454935074,-0.3443920314311981,-0.613166868686676
1769667885189772300,0.781772216796875,-0.1536899209022522,-0.509673535823822,-0.5974332690238953
1769667885199761400,0.791761474609375,-0.1927821934223175,-0.439401239156723,-0.5146422386169434
1769667885209749200,0.801749267578125,-0.1975664347410202,-0.30758151412010193,-0.43707075715065
1769667885219738400,0.81173828125,-0.174979105591774,-0.34748420119285583,-0.3722326159477234
1769667885229727200,0.821727294921875,-0.17956863343715668,-0.4024181067943573,-0.3959942162036896
1769667885239715300,0.83171533203125,-0.26203688979148865,-0.44433411955833435,-0.47440141439437866
1769667885249704400,0.841704345703125,-0.3334410786628723,-0.5072282552719116,-0.5495719909667969
1769667885259692500,0.851692626953125,-0.33745524287223816,-0.5563684105873108,-0.6124047636985779
1769667885269681200,0.86168115234375,-0.31837406754493713,-0.5422194004058838,-0.6174829006195068
1769667885279670300,0.871670166015625,-0.330046683549881,-0.488826185464859,-0.5674481987953186
1769667885289658400,0.881658447265625,-0.329833060503006,-0.47128820419311523,-0.5058497190475464
1769667885299647200,0.891647216796875,-0.23384472727775574,-0.5459712147712708,-0.4689875841140747
1769667885309636400,0.90163623046875,-0.21346122026443481,-0.41691017150878906,-0.33779671788215637
1769667885319624400,0.91162451171875,-0.24120762944221497,-0.2960444688796997,-0.22322645783424377
1769667885329613600,0.921613525390625,-0.24962906539440155,-0.3189310133457184,-0.15568257868289948
1769667885339601200,0.93160107421875,-0.2462836056947708,-0.37168264389038086,-0.1216319277882576
1769667885349590300,0.94159033203125,-0.2621851861476898,-0.3855186402797699,-0.10988076776266098
1769667885359579400,0.951579345703125,-0.26989102363586426,-0.44489967823028564,-0.06533567607402802
1769667885369567500,0.9615673828125,-0.2943944036960602,-0.5050528645515442,-0.010613029822707176
1769667885379556400,0.971556396484375,-0.30777543783187866,-0.5068451762199402,0.06134984269738197
1769667885389545500,0.98154541015625,-0.31773123145103455,-0.5097335577011108,0.11595816165208817
1769667885399533300,0.991533203125,-0.3110581636428833,-0.49050813913345337,0.14506518840789795
1769667885409522200,1.001522216796875,-0.27690160274505615,-0.43996480107307434,0.1619359254837036
1769667885419510300,1.01151025390625,-0.23484283685684204,-0.37465691566467285,0.17576971650123596
1769667885429499400,1.02149951171875,-0.18371005356311798,-0.3152928352355957,0.18659767508506775
1769667885439488500,1.031488525390625,-0.18790745735168457,-0.26873067021369934,0.19854116439819336
1769667885449476600,1.0414765625,-0.22262521088123322,-0.30866605043411255,0.21734412014484406
1769667885459465200,1.05146533203125,-0.2685322165489197,-0.4102291464805603,0.2507718503475189
1769667885469454300,1.061454345703125,-0.3239586651325226,-0.4823281466960907,0.2504328787326813
1769667885479442400,1.0714423828125,-0.3709386885166168,-0.5451758503913879,0.2572532296180725
1769667885489431300,1.081431396484375,-0.4077901244163513,-0.547228217124939,0.2367974817752838
1769667885499419400,1.09141943359375,-0.42077651619911194,-0.5263537764549255,0.19623354077339172
1769667885509408500,1.101408447265625,-0.38831835985183716,-0.5028493404388428,0.1794157773256302
1769667885519397400,1.1113974609375,-0.3639211654663086,-0.48750394582748413,0.16188286244869232
1769667885529385200,1.12138525390625,-0.3166581988334656,-0.43312621116638184,0.175490140914917
1769667885539374300,1.131374267578125,-0.28949716687202454,-0.3308829367160797,0.17795675992965698
1769667885549363500,1.141363525390625,-0.2649325132369995,-0.21027667820453644,0.1631857007741928
1769667885559351600,1.1513515625,-0.2370641529560089,-0.11850601434707642,0.14655107259750366
1769667885569340400,1.16134033203125,-0.21033161878585815,-0.08042734116315842,0.12353816628456116
1769667885579328300,1.171328369140625,-0.1798996776342392,-0.0856495276093483,0.10118545591831207
1769667885589317400,1.1813173828125,-0.1506354808807373,-0.09770309925079346,0.10098139941692352
1769667885599306200,1.19130615234375,-0.153029665350914,-0.10058730095624924,0.10453245788812637
1769667885609294300,1.20129443359375,-0.15256282687187195,-0.11465227603912354,0.09255654364824295
1769667885619283500,1.211283447265625,-0.13957832753658295,-0.13406139612197876,0.08259445428848267
1769667885629272600,1.2212724609375,-0.11588212847709656,-0.1770392656326294,0.06957677751779556
1769667885639260400,1.231260498046875,-0.10242410749197006,-0.21517732739448547,0.044868502765893936
1769667885649249300,1.241249267578125,-0.08314508199691772,-0.17906470596790314,0.0413411520421505
1769667885659237400,1.2512373046875,-0.05708711966872215,-0.15287065505981445,0.03181049972772598
1769667885669226500,1.2612265625,-0.03554370626807213,-0.0956709161400795,0.022710662335157394
1769667885679215400,1.27121533203125,-0.00805269181728363,-0.053064603358507156,0.031310006976127625
1769667885689203200,1.281203125,0.019079362973570824,-0.03902798518538475,0.04635467752814293
1769667885699192300,1.2911923828125,0.04233674705028534,0.027508428320288658,0.07347124814987183
1769667885709181200,1.30118115234375,0.04695088416337967,0.07845532894134521,0.06030549481511116
1769667885719169300,1.311169189453125,0.06825324147939682,0.12177377194166183,0.08382146805524826
1769667885729158400,1.321158447265625,0.07901766151189804,0.11993599683046341,0.08195396512746811
1769667885739146500,1.331146484375,0.07104922086000443,0.1046137660741806,0.08927952498197556
1769667885749135400,1.34113525390625,0.05685293674468994,0.076375313103199,0.09010355919599533
1769667885759124200,1.351124267578125,0.03162507712841034,0.05347931757569313,0.07773078233003616
1769667885769112300,1.3611123046875,0.015483963303267956,0.016786912456154823,0.07199718058109283
1769667885779101400,1.371101318359375,0.004659279249608517,0.01688757911324501,0.07587794214487076
1769667885789090300,1.38109033203125,0.00021955836564302444,0.028914177790284157,0.06431732326745987
1769667885799078400,1.391078369140625,-0.01189968828111887,0.008249646052718163,0.05197437107563019
1769667885809067500,1.401067626953125,-0.022405343130230904,-0.016065027564764023,0.05524584650993347
1769667885819055400,1.411055419921875,-0.0395963154733181,-0.02320230007171631,0.05922460928559303
1769667885829044200,1.421044189453125,-0.05794805288314819,-0.036298718303442,0.0718693882226944
1769667885839033300,1.431033447265625,-0.07742054760456085,-0.055160824209451675,0.07799838483333588
1769667885849021400,1.441021484375,-0.09200422465801239,-0.08164644241333008,0.07594173401594162
1769667885859010600,1.451010498046875,-0.09879528731107712,-0.09945313632488251,0.06491278111934662
1769667885868999400,1.46099951171875,-0.10336357355117798,-0.1160305067896843,0.06378420442342758
1769667885878987300,1.4709873046875,-0.10326157510280609,-0.12435580790042877,0.06380737572908401
1769667885888976400,1.480976318359375,-0.08228348195552826,-0.10416737198829651,0.061810847371816635
1769667885898964500,1.490964599609375,-0.05235487222671509,-0.04690248519182205,0.05068948492407799
1769667885908953300,1.500953369140625,-0.01081102341413498,0.022555584087967873,0.024214742705225945
1769667885918942500,1.5109423828125,0.026768308132886887,0.0919429212808609,-0.008960787206888199
1769667885928930300,1.520930419921875,0.05340031906962395,0.1359132081270218,-0.039484065026044846
1769667885938919400,1.53091943359375,0.07620149850845337,0.14371387660503387,-0.06363014876842499
1769667885948908300,1.540908203125,0.10225983709096909,0.1562645584344864,-0.0856565460562706
1769667885958896400,1.550896484375,0.12129451334476471,0.16490598022937775,-0.1097528263926506
1769667885968885500,1.560885498046875,0.13541123270988464,0.16150707006454468,-0.13420966267585754
1769667885978873300,1.570873291015625,0.15613248944282532,0.15644679963588715,-0.1473022848367691
1769667885988862200,1.5808623046875,0.1791173368692398,0.1905873715877533,-0.14379814267158508
1769667885998851300,1.590851318359375,0.2051774263381958,0.23659028112888336,-0.1430455446243286
1769667886008839400,1.60083935546875,0.23685351014137268,0.30226457118988037,-0.132610023021698
1769667886018828300,1.610828369140625,0.24561716616153717,0.353882759809494,-0.13866685330867767
1769667886028817400,1.6208173828125,0.23445948958396912,0.37268227338790894,-0.1361989676952362
1769667886038805500,1.630805419921875,0.2029668092727661,0.35096099972724915,-0.12491410225629807
1769667886048794400,1.64079443359375,0.16962933540344238,0.3139623999595642,-0.10929431021213531
1769667886058782500,1.650782470703125,0.130972221493721,0.2513570785522461,-0.09594228863716125
1769667886068771300,1.660771240234375,0.09950568526983261,0.18021216988563538,-0.083987757563591
1769667886078760400,1.670760498046875,0.07211028039455414,0.12189852446317673,-0.08564157783985138
1769667886088748500,1.68074853515625,0.04473186284303665,0.08493933826684952,-0.08376498520374298
1769667886098737400,1.6907373046875,0.02486468106508255,0.08211265504360199,-0.08814535290002823
1769667886108726300,1.700726318359375,0.013577345758676529,0.1071808710694313,-0.09322546422481537
1769667886118714400,1.71071435546875,0.006943943444639444,0.1418112963438034,-0.09707000106573105
1769667886128703200,1.720703125,-0.0011952659115195274,0.16283996403217316,-0.09951946884393692
1769667886138691300,1.73069140625,-0.014099080115556717,0.1679076999425888,-0.1023823693394661
1769667886148680400,1.740680419921875,-0.029761582612991333,0.15875007212162018,-0.10399241000413895
1769667886158669600,1.750669677734375,-0.053326565772295,0.13901765644550323,-0.10665583610534668
1769667886168657400,1.760657470703125,-0.07173378020524979,0.1220126524567604,-0.10285447537899017
1769667886178646300,1.770646240234375,-0.08316193521022797,0.11300930380821228,-0.10257431119680405
1769667886188635400,1.780635498046875,-0.09274500608444214,0.10768874734640121,-0.10661789774894714
1769667886198623500,1.79062353515625,-0.09560257941484451,0.08942292630672455,-0.11952144652605057
1769667886208612400,1.8006123046875,-0.10480380058288574,0.04762408137321472,-0.12962786853313446
1769667886218600200,1.81060009765625,-0.10647333413362503,0.010547815822064877,-0.12759321928024292
1769667886228589300,1.82058935546875,-0.10358189791440964,-0.01936471275985241,-0.1273251175880432
1769667886238578400,1.830578369140625,-0.09135159850120544,-0.04559924453496933,-0.13181787729263306
1769667886248566300,1.840566162109375,-0.07900448143482208,-0.0581216998398304,-0.12551024556159973
1769667886258555400,1.850555419921875,-0.06038738787174225,-0.052204955369234085,-0.10040303319692612
1769667886268544500,1.86054443359375,-0.028211072087287903,-0.019206056371331215,-0.06926803290843964
1769667886278532400,1.870532470703125,-0.0005024786223657429,0.025321196764707565,-0.052418217062950134
1769667886288521200,1.880521240234375,0.018758637830615044,0.05846428871154785,-0.042604055255651474
1769667886298510300,1.89051025390625,0.02806452102959156,0.07791441679000854,-0.031166579574346542
1769667886308498400,1.90049853515625,0.022369395941495895,0.09297835826873779,-0.008591068908572197
1769667886318487300,1.9104873046875,0.014674724079668522,0.09787803888320923,0.020537255331873894
1769667886328475100,1.92047509765625,-0.0016570931766182184,0.09697896987199783,0.04560527577996254
1769667886338464300,1.93046435546875,-0.01997857727110386,0.10105361044406891,0.06643891334533691
1769667886348453400,1.940453369140625,-0.032656438648700714,0.12899884581565857,0.08706196397542953
1769667886358441500,1.95044140625,-0.035851433873176575,0.1931554526090622,0.10481299459934235
1769667886368430300,1.960430419921875,-0.033511869609355927,0.20793597400188446,0.12019866704940796
1769667886378418400,1.97041845703125,-0.035066891461610794,0.22482335567474365,0.14572586119174957
1769667886388407300,1.9804072265625,-0.04683980718255043,0.2240017205476761,0.16617707908153534
1769667886398396200,1.990396240234375,-0.07228445261716843,0.21661704778671265,0.1829073280096054
1769667886408384300,2.00038427734375,-0.09618687629699707,0.18078447878360748,0.19778645038604736
1769667886418373400,2.010373291015625,-0.12233591824769974,0.14843478798866272,0.18500114977359772
1769667886428362500,2.020362548828125,-0.15088297426700592,0.09466401487588882,0.16202761232852936
1769667886438350300,2.030350341796875,-0.18779544532299042,0.029466640204191208,0.15758678317070007
1769667886448339200,2.040339111328125,-0.2349053919315338,-0.04609193652868271,0.16749127209186554
1769667886458327300,2.050327392578125,-0.2774922847747803,-0.08442893624305725,0.18208245933055878
1769667886468316400,2.06031640625,-0.31510305404663086,-0.08833353966474533,0.19122163951396942
1769667886478305300,2.07030517578125,-0.3545790910720825,-0.13681000471115112,0.20446287095546722
1769667886488293400,2.08029345703125,-0.40081435441970825,-0.2195257693529129,0.21859367191791534
1769667886498282500,2.090282470703125,-0.4448326826095581,-0.3045634329319,0.2148684412240982
1769667886508271000,2.10027099609375,-0.4795444905757904,-0.34493932127952576,0.20709043741226196
1769667886518259200,2.11025927734375,-0.502772331237793,-0.3452804684638977,0.2117251306772232
1769667886528248300,2.120248291015625,-0.5175002217292786,-0.35360512137413025,0.20952793955802917
1769667886538236400,2.130236328125,-0.5214523077011108,-0.35916686058044434,0.18648307025432587
1769667886548225300,2.140225341796875,-0.5068418979644775,-0.40665340423583984,0.1605801284313202
1769667886558214400,2.15021435546875,-0.49910616874694824,-0.41194990277290344,0.13074153661727905
1769667886568202200,2.1602021484375,-0.45920702815055847,-0.33433622121810913,0.10314090549945831
1769667886578191400,2.17019140625,-0.3769230544567108,-0.2399202436208725,0.05253872275352478
1769667886588180200,2.18018017578125,-0.28751981258392334,-0.15101496875286102,-0.010689024813473225
1769667886598168300,2.190168212890625,-0.22582155466079712,-0.08744584023952484,-0.04534580558538437
1769667886608157400,2.200157470703125,-0.1837809979915619,-0.016528282314538956,-0.03712863847613335
1769667886618146300,2.210146240234375,-0.14522908627986908,0.048953521996736526,-0.015867825597524643
1769667886628134100,2.220134033203125,-0.10647715628147125,0.08758080750703812,-0.006792039144784212
1769667886638123300,2.230123291015625,-0.06330731511116028,0.09874051809310913,-0.004864443559199572
1769667886648111400,2.240111328125,-0.029734691604971886,0.10166235268115997,-0.0044721877202391624
1769667886658100500,2.2501005859375,-0.014636168256402016,0.13208843767642975,-0.0021139581222087145
1769667886668089300,2.26008935546875,-0.008374973200261593,0.1498364806175232,0.00603828951716423
1769667886678077200,2.2700771484375,-0.011060505174100399,0.15128843486309052,0.038736581802368164
1769667886688066300,2.28006640625,-0.016513405367732048,0.12382519990205765,0.06350121647119522
1769667886698055200,2.29005517578125,-0.026895206421613693,0.07528562098741531,0.0740840807557106
1769667886708043300,2.300043212890625,-0.043286122381687164,0.030888695269823074,0.08730180561542511
1769667886718032400,2.310032470703125,-0.07640945911407471,-0.0122758187353611,0.11229424178600311
1769667886728020500,2.3200205078125,-0.10640209168195724,-0.08085310459136963,0.13426154851913452
1769667886738009000,2.330009033203125,-0.1399318277835846,-0.13284333050251007,0.14466358721256256
1769667886747998200,2.339998291015625,-0.17816196382045746,-0.16618859767913818,0.15543782711029053
1769667886757986300,2.349986328125,-0.216204434633255,-0.2322395145893097,0.16753309965133667
1769667886767975400,2.359975341796875,-0.2466999739408493,-0.28629717230796814,0.14220662415027618
1769667886777963500,2.369963623046875,-0.2795807123184204,-0.32035207748413086,0.12389818578958511
1769667886787952400,2.379952392578125,-0.2960156798362732,-0.34928807616233826,0.1310228407382965
1769667886797941500,2.38994140625,-0.33821481466293335,-0.3538857698440552,0.13617339730262756
1769667886807929300,2.399929443359375,-0.41740456223487854,-0.36402788758277893,0.10828689485788345
1769667886817918200,2.409918212890625,-0.43004071712493896,-0.39038386940956116,0.0930754542350769
1769667886827907300,2.4199072265625,-0.4035523235797882,-0.4220104217529297,0.0721658319234848
1769667886837895400,2.4298955078125,-0.38246703147888184,-0.43656110763549805,0.03747229650616646
1769667886847884500,2.439884521484375,-0.3989439308643341,-0.4483826160430908,0.022770706564188004
1769667886857873400,2.449873291015625,-0.43503430485725403,-0.450943261384964,0.020232710987329483
1769667886867861200,2.459861328125,-0.4554167687892914,-0.4521786868572235,0.003831052454188466
1769667886877850400,2.469850341796875,-0.4574058949947357,-0.44876691699028015,-0.029997218400239944
1769667886887838500,2.47983837890625,-0.44034135341644287,-0.42723846435546875,-0.05026828125119209
1769667886897827300,2.489827392578125,-0.44461920857429504,-0.45043644309043884,-0.05523614212870598
1769667886907816400,2.49981640625,-0.47282874584198,-0.4949677288532257,-0.06475449353456497
1769667886917804300,2.50980419921875,-0.5167402625083923,-0.5279560089111328,-0.05586672201752663
1769667886927793200,2.519793212890625,-0.538903534412384,-0.5361683368682861,-0.06583063304424286
1769667886937782300,2.5297822265625,-0.5486941337585449,-0.5106166005134583,-0.06628869473934174
1769667886947770400,2.539770263671875,-0.5586640238761902,-0.5207897424697876,-0.07317887246608734
1769667886957759500,2.549759521484375,-0.563750684261322,-0.5286737680435181,-0.07708066701889038
1769667886967747300,2.559747314453125,-0.5085111260414124,-0.48978132009506226,-0.08295796811580658
1769667886977736200,2.569736083984375,-0.46598896384239197,-0.4351668059825897,-0.09517654776573181
1769667886987725300,2.579725341796875,-0.42167404294013977,-0.3784627914428711,-0.09441229701042175
1769667886997713400,2.58971337890625,-0.3661879003047943,-0.2997301518917084,-0.0858643427491188
1769667887007702300,2.599702392578125,-0.29883235692977905,-0.22301344573497772,-0.08887121081352234
1769667887017691400,2.60969140625,-0.22820240259170532,-0.13414907455444336,-0.09799227118492126
1769667887027679500,2.619679443359375,-0.15601707994937897,-0.042829710990190506,-0.10841868072748184
1769667887037668400,2.62966845703125,-0.08319561183452606,0.023362889885902405,-0.12059544771909714
1769667887047656200,2.63965625,-0.002274871803820133,0.08561345189809799,-0.1406499445438385
1769667887057645300,2.649645263671875,0.06287350505590439,0.1248793676495552,-0.15263496339321136
1769667887067634400,2.659634521484375,0.1104065477848053,0.1699482798576355,-0.1573099046945572
1769667887077622500,2.66962255859375,0.1391812115907669,0.20183856785297394,-0.1613597720861435
1769667887087611400,2.679611328125,0.1523316353559494,0.20977872610092163,-0.16083727777004242
1769667887097600300,2.689600341796875,0.1539076864719391,0.19549299776554108,-0.1599472463130951
1769667887107588400,2.69958837890625,0.1508878469467163,0.1779502034187317,-0.16062508523464203
1769667887117577200,2.7095771484375,0.15303382277488708,0.16744163632392883,-0.15995104610919952
1769667887127565300,2.7195654296875,0.15242703258991241,0.17761078476905823,-0.1545318365097046
1769667887137554400,2.729554443359375,0.13962708413600922,0.19632507860660553,-0.15068863332271576
1769667887147543600,2.73954345703125,0.1228775903582573,0.19812917709350586,-0.14159643650054932
1769667887157531100,2.74953125,0.10935885459184647,0.17342303693294525,-0.1275799572467804
1769667887167520300,2.759520263671875,0.11057642847299576,0.13352979719638824,-0.12196249514818192
1769667887177509400,2.76950927734375,0.12184745818376541,0.09428892284631729,-0.12176168709993362
1769667887187497500,2.77949755859375,0.13386094570159912,0.09696031361818314,-0.11673731356859207
1769667887197486300,2.789486328125,0.15010303258895874,0.12906257808208466,-0.12453745305538177
1769667887207475500,2.799475341796875,0.16130222380161285,0.1632649004459381,-0.1371050477027893
1769667887217463300,2.80946337890625,0.16831539571285248,0.20250098407268524,-0.15145310759544373
1769667887227452200,2.8194521484375,0.17790226638317108,0.23044967651367188,-0.15380871295928955
1769667887237440300,2.829440185546875,0.18532076478004456,0.2467077374458313,-0.14657849073410034
1769667887247429400,2.839429443359375,0.17830435931682587,0.26938048005104065,-0.131552591919899
1769667887257418500,2.84941845703125,0.1585354506969452,0.25043898820877075,-0.1178240031003952
1769667887267406300,2.85940625,0.126490518450737,0.19563159346580505,-0.11440466344356537
1769667887277395200,2.869395263671875,0.09406784921884537,0.12711858749389648,-0.11152392625808716
1769667887287384300,2.87938427734375,0.06733007729053497,0.06802363693714142,-0.10818928480148315
1769667887297372400,2.889372314453125,0.05306139215826988,0.03287923336029053,-0.10068876296281815
1769667887307361300,2.899361328125,0.04064680263400078,0.025075573474168777,-0.08974079042673111
1769667887317349400,2.909349365234375,0.026727259159088135,0.020247263833880424,-0.08723635226488113
1769667887327338500,2.91933837890625,0.0034242928959429264,-0.007106630131602287,-0.08728338778018951
1769667887337327400,2.929327392578125,-0.024033430963754654,-0.06912978738546371,-0.07878097891807556
1769667887347315500,2.9393154296875,-0.03686269745230675,-0.12349718064069748,-0.05493631213903427
1769667887357304600,2.9493046875,-0.030551273375749588,-0.1353362500667572,-0.04511670768260956
1769667887367293700,2.959293701171875,-0.015943506732583046,-0.07960230112075806,-0.05418996885418892
1769667887377281500,2.969281494140625,0.0036930455826222897,-0.025254376232624054,-0.06219702959060669
1769667887387270400,2.9792705078125,0.019257359206676483,0.022090502083301544,-0.05966515839099884
1769667887397258500,2.989258544921875,0.028227683156728745,0.06087651476264,-0.06768234074115753
1769667887407247600,2.99924755859375,0.022921398282051086,0.05478670820593834,-0.0822366252541542
1769667887417236500,3.009236572265625,0.017331423237919807,0.011739637702703476,-0.08840344101190567
1769667887427224300,3.019224365234375,0.010118544101715088,-0.05423855781555176,-0.08902055770158768
1769667887437213400,3.02921337890625,0.007314502261579037,-0.07873351126909256,-0.0856279581785202
1769667887447202600,3.03920263671875,0.006831751205027103,-0.05607754364609718,-0.08275803178548813
1769667887457190400,3.0491904296875,0.010907718911767006,-0.03281589597463608,-0.07341700047254562
1769667887467179500,3.059179443359375,-0.000040763174183666706,-0.05413307249546051,-0.04417743533849716
1769667887477167600,3.069167724609375,0.000359509838744998,-0.053503502160310745,-0.06529417634010315
1769667887487156500,3.079156494140625,0.006921516731381416,-0.04425276443362236,-0.07798221707344055
1769667887497145300,3.089145263671875,0.007758547551929951,-0.04964566230773926,-0.07589217275381088
1769667887507133400,3.099133544921875,0.007814038544893265,-0.0555858388543129,-0.07859574258327484
1769667887517122600,3.10912255859375,0.007727751974016428,-0.054059579968452454,-0.08585711568593979
1769667887527111400,3.119111328125,0.009956147521734238,-0.03685300052165985,-0.09195627272129059
1769667887537099500,3.129099609375,0.013022244907915592,-0.023588063195347786,-0.08635751157999039
1769667887547088400,3.13908837890625,0.016381653025746346,-0.020484142005443573,-0.08441679179668427
1769667887557077500,3.149077392578125,0.0164136104285717,-0.021340880542993546,-0.0788009837269783
1769667887567065600,3.159065673828125,0.009438162669539452,-0.025934841483831406,-0.07413306832313538
1769667887577054500,3.169054443359375,-0.002426219405606389,-0.037073247134685516,-0.06390839070081711
1769667887587042600,3.17904248046875,-0.01258744765073061,-0.05575307458639145,-0.05290887504816055
1769667887597031700,3.18903173828125,-0.027572788298130035,-0.08751020580530167,-0.04679079353809357
1769667887607020300,3.199020263671875,-0.040661394596099854,-0.13175207376480103,-0.0383470356464386
1769667887617008400,3.20900830078125,-0.04413735121488571,-0.16632816195487976,-0.02488795295357704
1769667887626997500,3.21899755859375,-0.03937232121825218,-0.16232600808143616,-0.02042631059885025
1769667887636986400,3.228986328125,-0.029453111812472343,-0.12452537566423416,-0.019681956619024277
1769667887646974500,3.238974365234375,-0.020584015175700188,-0.12287257611751556,0.009188385680317879
1769667887656963600,3.248963623046875,-0.02065805159509182,-0.10814902186393738,-0.01324501819908619
1769667887666951400,3.258951416015625,0.0008487101877108216,-0.0621769018471241,-0.040810879319906235
1769667887676940500,3.2689404296875,0.01115620881319046,-0.05195062980055809,-0.03939620777964592
1769667887686929400,3.278929443359375,0.012229406274855137,-0.05352260544896126,-0.033010903745889664
1769667887696917500,3.28891748046875,0.020001575350761414,-0.040137290954589844,-0.03640270605683327
1769667887706906600,3.29890673828125,0.02360585704445839,-0.028120672330260277,-0.03613044321537018
1769667887716895500,3.3088955078125,0.02687115967273712,-0.030595282092690468,-0.03546278923749924
1769667887726883300,3.31888330078125,0.030061913654208183,-0.035999882966279984,-0.03646445646882057
1769667887736872400,3.32887255859375,0.04050790145993233,-0.03418893367052078,-0.03881549835205078
1769667887746860500,3.338860595703125,0.04414990544319153,-0.011576994322240353,-0.026471756398677826
1769667887756849400,3.348849365234375,0.04107315465807915,0.002282095840200782,-0.019146200269460678
1769667887766838500,3.358838623046875,0.03204096853733063,-0.0015288142021745443,-0.02259296551346779
1769667887776826400,3.368826416015625,0.020174987614154816,-0.01808302477002144,-0.026349619030952454
1769667887786815500,3.3788154296875,0.010291161015629768,-0.04707754775881767,-0.03320586681365967
1769667887796804400,3.388804443359375,0.00631719222292304,-0.05818639323115349,-0.030318202450871468
1769667887806792400,3.39879248046875,0.007294419687241316,-0.05132920295000076,-0.026694396510720253
1769667887816781600,3.408781494140625,-0.006245889700949192,-0.07537887245416641,0.011073220521211624
1769667887826769700,3.418769775390625,0.006693944334983826,-0.02067217417061329,-0.027499588206410408
1769667887836758500,3.428758544921875,0.025099316611886024,0.029482074081897736,-0.05789531022310257
1769667887846747400,3.438747314453125,0.02659636177122593,0.01922004297375679,-0.04280094802379608
1769667887856735500,3.448735595703125,0.026203013956546783,0.006760178133845329,-0.0275101438164711
1769667887866724600,3.458724609375,0.0197120551019907,-0.0034654533956199884,-0.02826428972184658
1769667887876713500,3.46871337890625,0.010260496288537979,-0.026565445587038994,-0.02139333449304104
1769667887886701600,3.47870166015625,0.007811600808054209,-0.03424229845404625,-0.015837466344237328
1769667887896690700,3.488690673828125,0.011136291548609734,-0.02106550894677639,-0.013761531561613083
1769667887906679300,3.49867919921875,0.0145933972671628,-0.004081291146576405,-0.015048217959702015
1769667887916667400,3.50866748046875,0.016507145017385483,0.0036378814838826656,-0.016863426193594933
1769667887926656500,3.518656494140625,0.021177858114242554,0.011432003229856491,-0.020118212327361107
1769667887936644600,3.52864453125,0.024362200871109962,0.014726333320140839,-0.021616507321596146
1769667887946633500,3.538633544921875,0.025477776303887367,0.010695088654756546,-0.01663048379123211
1769667887956622600,3.54862255859375,0.029434435069561005,0.0018467362970113754,-0.01537240669131279
1769667887966610400,3.5586103515625,0.035667456686496735,-0.0008454024791717529,-0.014593206346035004
1769667887976599600,3.568599609375,0.04334535077214241,-0.0033178813755512238,-0.018806327134370804
1769667887986588400,3.57858837890625,0.04557515308260918,-0.005954188294708729,-0.024006038904190063
1769667887996576500,3.588576416015625,0.05307061970233917,-0.014740223996341228,-0.03449463099241257
1769667888006565600,3.598565673828125,0.047400861978530884,-0.013205891475081444,-0.03891889750957489
1769667888016553500,3.608553466796875,0.039467569440603256,-0.005705364979803562,-0.037035778164863586
1769667888026542300,3.618542236328125,0.034134622663259506,-0.009647219441831112,-0.03203974664211273
1769667888036531500,3.628531494140625,0.02964373491704464,-0.03700187802314758,-0.03074837662279606
1769667888046519600,3.63851953125,0.027985885739326477,-0.05597199872136116,-0.02063257060945034
1769667888056508400,3.64850830078125,0.021835848689079285,-0.05452776327729225,-0.01641359180212021
1769667888066497500,3.65849755859375,0.019742047414183617,-0.062115930020809174,-0.01904340647161007
1769667888076485400,3.6684853515625,0.02769611030817032,-0.06440705060958862,-0.025739924982190132
1769667888086474500,3.678474609375,0.025721069425344467,-0.09222226589918137,0.0076596615836024284
1769667888096462600,3.688462646484375,0.0337451696395874,-0.07247945666313171,-0.01399929542094469
1769667888106451500,3.698451416015625,0.0532408133149147,-0.0018222162034362555,-0.04494064301252365
1769667888116440600,3.708440673828125,0.052532944828271866,0.0065757958218455315,-0.0378907211124897
1769667888126428700,3.7184287109375,0.04115030914545059,-0.014951678924262524,-0.03241204097867012
1769667888136417300,3.728417236328125,0.03018234670162201,-0.026110058650374413,-0.037438225001096725
1769667888146406400,3.738406494140625,0.017149964347481728,-0.03037373349070549,-0.03521432727575302
1769667888156394500,3.74839453125,0.006437665782868862,-0.05184280872344971,-0.030867785215377808
1769667888166383600,3.758383544921875,0.005744133144617081,-0.054927244782447815,-0.026790935546159744
1769667888176372500,3.76837255859375,0.010234222747385502,-0.045363567769527435,-0.024639900773763657
1769667888186360600,3.778360595703125,0.009749946184456348,-0.02322532795369625,-0.024415969848632812
1769667888196349400,3.788349365234375,0.008294261991977692,-0.012520485557615757,-0.015619814395904541
1769667888206337500,3.798337646484375,0.01672249659895897,-0.013057747855782509,-0.009037532843649387
1769667888216326400,3.808326416015625,0.02503954991698265,0.0059372480027377605,-0.008998117409646511
1769667888226315500,3.8183154296875,0.030059538781642914,-0.005275844596326351,-0.000763745279982686
1769667888236303600,3.8283037109375,0.03526895120739937,-0.03263796120882034,0.005720785818994045
1769667888246292500,3.83829248046875,0.03676328435540199,-0.06171492114663124,0.0054631708189845085
1769667888256281300,3.84828125,0.03813880681991577,-0.0858335793018341,0.00045216665603220463
1769667888266269400,3.85826953125,0.034732282161712646,-0.09402385354042053,-0.0029101979453116655
1769667888276258600,3.868258544921875,0.029954304918646812,-0.09415008872747421,-0.0014936623629182577
1769667888286247400,3.878247314453125,0.029181988909840584,-0.09576156735420227,0.004032663069665432
1769667888296235500,3.888235595703125,0.03342440351843834,-0.09765879809856415,0.01644379273056984
1769667888306224600,3.898224609375,0.04274778440594673,-0.0972193032503128,0.02665877901017666
1769667888316212000,3.9082119140625,0.0547727569937706,-0.07947439700365067,0.027588222175836563
1769667888326201000,3.918201171875,0.06742486357688904,-0.04509974271059036,0.014647739008069038
1769667888336190000,3.92818994140625,0.07941015064716339,-0.010119385085999966,-0.007280995603650808
1769667888346178000,3.938177978515625,0.09075265377759933,0.009587747044861317,-0.022448692470788956
1769667888356167200,3.948167236328125,0.09336334466934204,-0.000856105936691165,-0.014634711667895317
1769667888366156000,3.958156005859375,0.08627013117074966,-0.059250086545944214,0.003086270298808813
1769667888376144000,3.968143798828125,0.08541685342788696,-0.03214257210493088,-0.03903454914689064
1769667888386133000,3.978133056640625,0.06692571192979813,0.010861010290682316,-0.06113636493682861
1769667888396121000,3.98812109375,0.047010328620672226,-0.004732596687972546,-0.061741702258586884
1769667888406110000,3.99810986328125,0.03701005131006241,-0.030865347012877464,-0.06986065208911896
1769667888416099000,4.00809912109375,0.03004428930580616,-0.04679664224386215,-0.08227231353521347
1769667888426087000,4.0180869140625,0.024116359651088715,-0.05717338249087334,-0.09256596118211746
1769667888436076000,4.028075927734375,0.017861658707261086,-0.05941895768046379,-0.10735556483268738
1769667888446065000,4.03806494140625,0.019191747531294823,-0.06128402426838875,-0.1191040575504303
1769667888456053000,4.048052978515625,0.027576977387070656,-0.04877328872680664,-0.13152317702770233
1769667888466042000,4.0580419921875,0.03703237697482109,-0.022583680227398872,-0.13818582892417908
1769667888476031000,4.068031005859375,0.038447845727205276,0.001700886059552431,-0.13962820172309875
1769667888486018800,4.078018798828125,0.02914283610880375,-0.0026083874981850386,-0.14224755764007568
1769667888496008000,4.088008056640625,0.021848971024155617,-0.016779335215687752,-0.149004265666008
1769667888505996000,4.09799609375,0.015813548117876053,-0.014156441204249859,-0.15655428171157837
1769667888515985000,4.10798486328125,0.014728309586644173,0.00834567192941904,-0.16726817190647125
1769667888525974000,4.11797412109375,0.013246013782918453,0.03100472316145897,-0.1689680963754654
1769667888535962000,4.127962158203125,0.002186438301578164,0.04085975140333176,-0.16334030032157898
1769667888545951000,4.137950927734375,-0.018396830186247826,0.017444465309381485,-0.15428827702999115
1769667888555939800,4.14793994140625,-0.048781633377075195,-0.01558831986039877,-0.14674806594848633
1769667888565928000,4.157927978515625,-0.07714667171239853,-0.06212957203388214,-0.12976622581481934
1769667888575917000,4.1679169921875,-0.10415539145469666,-0.11255625635385513,-0.11014005541801453
1769667888585905200,4.1779052734375,-0.11546886712312698,-0.1444140523672104,-0.10039934515953064
1769667888595894000,4.18789404296875,-0.11881006509065628,-0.15282085537910461,-0.0952698290348053
1769667888605883000,4.1978828125,-0.11302939802408218,-0.14517585933208466,-0.09198509156703949
1769667888615871000,4.20787109375,-0.10085076838731766,-0.11934293061494827,-0.0959329605102539
1769667888625860000,4.217860107421875,-0.08549948036670685,-0.08457081764936447,-0.10108330100774765
1769667888635849000,4.227848876953125,-0.07096154987812042,-0.06569406390190125,-0.10209503769874573
1769667888645837000,4.237837158203125,-0.05943010374903679,-0.0483817495405674,-0.09664159268140793
1769667888655826200,4.247826171875,-0.04036479815840721,-0.0295015349984169,-0.09195949137210846
1769667888665814800,4.257814697265625,-0.03132195398211479,-0.016455844044685364,-0.09325475990772247
1769667888675803000,4.267802978515625,-0.02445925399661064,-0.007073527202010155,-0.08796864748001099
1769667888685792000,4.2777919921875,-0.021190933883190155,-0.0014917445369064808,-0.08797094970941544
1769667888695780000,4.287780029296875,-0.023046359419822693,0.00804024189710617,-0.09030015021562576
1769667888705769000,4.29776904296875,-0.024532336741685867,0.01392887532711029,-0.09988526999950409
1769667888715758000,4.307758056640625,-0.024469219148159027,0.0185577142983675,-0.11085482686758041
1769667888725746000,4.317745849609375,-0.024775806814432144,0.014156132936477661,-0.12163440138101578
1769667888735735000,4.327735107421875,-0.022546207532286644,0.024089990183711052,-0.13271847367286682
1769667888745724000,4.337723876953125,-0.024349136278033257,0.026543982326984406,-0.13511671125888824
1769667888755712000,4.3477119140625,-0.02340264804661274,0.02734586037695408,-0.13230228424072266
1769667888765701000,4.357701171875,-0.02358783595263958,0.03281998261809349,-0.126265749335289
1769667888775689000,4.36768896484375,-0.021568093448877335,0.02624942921102047,-0.11704003810882568
1769667888785677800,4.377677734375,-0.023347746580839157,0.015702618286013603,-0.10694986581802368
1769667888795667000,4.3876669921875,-0.025554709136486053,0.008679595775902271,-0.09944161772727966
1769667888805655000,4.397655029296875,-0.02541578747332096,-0.0021261863876134157,-0.09285542368888855
1769667888815644000,4.407643798828125,-0.023348376154899597,-0.004025553353130817,-0.0867898091673851
1769667888825633000,4.417633056640625,-0.023696253076195717,0.00797080248594284,-0.08454035967588425
1769667888835620900,4.427620849609375,-0.01812572032213211,0.024009689688682556,-0.08570282906293869
1769667888845610000,4.43760986328125,-0.013749068602919579,0.033910732716321945,-0.08230573683977127
1769667888855598800,4.447598876953125,-0.005646134726703167,0.04319824278354645,-0.07965242862701416
1769667888865587000,4.4575869140625,0.003737430553883314,0.05073372647166252,-0.07076741755008698
1769667888875576000,4.467576171875,0.008437111042439938,0.05317451432347298,-0.0615755133330822
1769667888885564200,4.477564208984375,0.009319442324340343,0.05096118152141571,-0.0519181564450264
1769667888895553000,4.487552978515625,0.0035225399769842625,0.04296530783176422,-0.043596841394901276
1769667888905542000,4.4975419921875,0.0007066900143399835,0.04097506031394005,-0.03237703815102577
1769667888915530000,4.507530029296875,0.0021186978556215763,0.048113662749528885,-0.026246709749102592
1769667888925519000,4.51751904296875,0.004615992773324251,0.06197192147374153,-0.023227304220199585
1769667888935508000,4.527508056640625,0.009057613089680672,0.07375028729438782,-0.019839227199554443
1769667888945496000,4.53749609375,0.008591963909566402,0.08069511502981186,-0.014400803484022617
1769667888955485200,4.547485107421875,0.007089408114552498,0.08365602046251297,-0.013217027299106121
1769667888965473800,4.557473876953125,0.0019365710904821754,0.07942727208137512,-0.015688931569457054
1769667888975462000,4.5674619140625,0.00149768206756562,0.07732310891151428,-0.013389293104410172
1769667888985451000,4.577450927734375,0.0036752247251570225,0.07186386734247208,-0.012736561708152294
1769667888995439000,4.587439208984375,0.008652406744658947,0.07804985344409943,-0.011399921029806137
1769667889005428000,4.597427978515625,0.01221420057117939,0.08359182626008987,-0.01028369553387165
1769667889015417000,4.6074169921875,0.01756182871758938,0.08759428560733795,-0.008904177695512772
1769667889025405000,4.617405029296875,0.017603373154997826,0.0911078006029129,-0.012347645126283169
1769667889035394000,4.62739404296875,0.017653174698352814,0.09395205229520798,-0.013834222219884396
1769667889045383000,4.6373828125,0.02069707028567791,0.10026533156633377,-0.014654011465609074
1769667889055371000,4.64737109375,0.021633971482515335,0.1002056822180748,-0.014301675371825695
1769667889065360100,4.657360107421875,0.023183956742286682,0.0905754417181015,-0.014135551638901234
1769667889075348000,4.667347900390625,0.017530065029859543,0.07903356850147247,-0.018572377040982246
1769667889085336800,4.6773369140625,0.01445013377815485,0.06947942078113556,-0.022921603173017502
1769667889095326000,4.687325927734375,0.009554712101817131,0.06520504504442215,-0.024492336437106133
1769667889105314000,4.69731396484375,0.005916624329984188,0.06599259376525879,-0.02436116337776184
1769667889115303000,4.707302978515625,0.006659113336354494,0.06365832686424255,-0.02507755346596241
1769667889125292000,4.7172919921875,0.006362929008901119,0.06069573014974594,-0.024601297453045845
1769667889135279900,4.72727978515625,0.00370349595323205,0.05486101284623146,-0.023294484242796898
1769667889145269000,4.73726904296875,-0.0010225399164482951,0.04516172036528587,-0.023694252595305443
1769667889155257000,4.747257080078125,-0.002354653086513281,0.044218696653842926,-0.028625894337892532
1769667889165246000,4.757245849609375,-0.006531494669616222,0.04042107239365578,-0.02857726439833641
1769667889175235000,4.767235107421875,-0.005193255841732025,0.03746869042515755,-0.029013492166996002
1769667889185223200,4.77722314453125,-0.004238573368638754,0.037166912108659744,-0.030703958123922348
1769667889195211800,4.787211669921875,-0.003637231420725584,0.030274648219347,-0.027967294678092003
1769667889205201000,4.797200927734375,-0.008819783106446266,0.02473411150276661,-0.02696373127400875
1769667889215189000,4.80718896484375,-0.008839490823447704,0.02131035178899765,-0.025117628276348114
1769667889225178000,4.81717822265625,-0.0097200283780694,0.02083004266023636,-0.025811444967985153
1769667889235167000,4.8271669921875,-0.007500017527490854,0.023996541276574135,-0.028661027550697327
1769667889245155000,4.837155029296875,-0.005956102628260851,0.01755628176033497,-0.029133645817637444
1769667889255144000,4.84714404296875,-0.0071236323565244675,0.0071846009232103825,-0.0233287550508976
1769667889265132000,4.857132080078125,-0.01118653267621994,0.0049086082726716995,-0.02104990929365158
1769667889275121000,4.867120849609375,-0.011051244102418423,0.0046374984085559845,-0.01786690019071102
1769667889285110000,4.877110107421875,-0.008943785913288593,-0.008714252151548862,-0.018309716135263443
1769667889295098000,4.88709814453125,-0.006750139407813549,-0.0075706904754042625,-0.01728120446205139
1769667889305087000,4.8970869140625,-0.0040625338442623615,-0.008837198838591576,-0.021727772429585457
1769667889315076000,4.907076171875,-0.005504369270056486,-0.0008991146460175514,-0.024554451927542686
1769667889325064200,4.917064208984375,-0.009884176775813103,-0.0023816751781851053,-0.029430225491523743
1769667889335053000,4.927052978515625,-0.012419505044817924,-0.001793649047613144,-0.02923581376671791
1769667889345042000,4.9370419921875,-0.015694422647356987,0.00640833331272006,-0.028384611010551453
1769667889355030000,4.947030029296875,-0.015547416172921658,0.007078384514898062,-0.027236254885792732
1769667889365019100,4.95701904296875,-0.012234401889145374,-0.016171712428331375,-0.00361996004357934
1769667889375007200,4.96700732421875,-0.023166412487626076,-0.03981099650263786,-0.007311367895454168
1769667889384996000,4.97699609375,-0.014375541359186172,0.02123621106147766,-0.03902730718255043
1769667889394985000,4.98698486328125,-0.01225566491484642,0.0025059334002435207,-0.028744041919708252
1769667889404973000,4.99697314453125,-0.012404689565300941,-0.009219881147146225,-0.023719679564237595
1769667889414962200,5.006962158203125,-0.010547933168709278,0.0015965481288731098,-0.02808672934770584
1769667889424951000,5.016950927734375,-0.011460686102509499,-0.006124553270637989,-0.023563982918858528
1769667889434939100,5.026939208984375,-0.00993948895484209,-0.009052432142198086,-0.022052904590964317
1769667889444928300,5.03692822265625,-0.00762608228251338,-0.003424036083742976,-0.01827504113316536
1769667889454917000,5.046917236328125,-0.0051232436671853065,-0.004816602915525436,-0.016686731949448586
1769667889464905000,5.056905029296875,-0.002287729177623987,-0.001973374979570508,-0.014853255823254585
1769667889474894000,5.06689404296875,-0.0018395191291347146,-0.0012487287167459726,-0.014742469415068626
1769667889484882200,5.076882080078125,0.00039772840682417154,-0.001278615090996027,-0.01723688282072544
1769667889494871000,5.08687109375,0.0015223814407363534,-0.0017273577395826578,-0.01686563901603222
1769667889504860200,5.096860107421875,0.005199730396270752,-0.0018209260888397694,-0.01637040078639984
1769667889514848000,5.106847900390625,0.004140058532357216,-0.005288361571729183,-0.009674682281911373
1769667889524837000,5.116837158203125,0.004376322962343693,-0.005784942768514156,-0.010028703138232231
1769667889534826000,5.126825927734375,0.0037179896607995033,-0.00469277985394001,-0.011697705835103989
1769667889544814000,5.13681396484375,0.0020001698285341263,-0.0017154901288449764,-0.010667453519999981
1769667889554803200,5.14680322265625,0.004191951360553503,-0.0007724647875875235,-0.01264351885765791
1769667889564792000,5.1567919921875,0.005129797849804163,-0.002976787043735385,-0.012521831318736076
1769667889574780000,5.16677978515625,0.001548911677673459,-0.011067470535635948,-0.009971054270863533
1769667889584769000,5.17676904296875,-0.001391915837302804,-0.02048080414533615,-0.009272166527807713
1769667889594757000,5.186757080078125,-0.0009658100316300988,-0.023595105856657028,-0.006055068224668503
1769667889604746000,5.19674609375,-0.004906308837234974,-0.021198192611336708,-0.005867941305041313
1769667889614735000,5.206735107421875,-0.0033816492650657892,-0.015884654596447945,-0.004816258326172829
1769667889624723200,5.21672314453125,-0.0015193693106994033,-0.009682934731245041,-0.0060246651992201805
1769667889634712000,5.226712158203125,-0.0024216482415795326,-0.010025151073932648,-0.0021542932372540236
1769667889644701000,5.236700927734375,-0.004735672380775213,-0.011414390057325363,-0.000894889235496521
1769667889654689000,5.24668896484375,-0.007338379509747028,-0.013602442108094692,-0.00041472120210528374
1769667889664678100,5.25667822265625,-0.008580895140767097,-0.01771840825676918,-0.0023928689770400524
1769667889674666200,5.266666259765625,-0.01073326263576746,-0.01746354252099991,-0.0024253595620393753
1769667889684655000,5.276655029296875,-0.0107004065066576,-0.021828990429639816,-0.007165717892348766
1769667889694644000,5.28664404296875,-0.00840795785188675,-0.017838776111602783,-0.009289322420954704
1769667889704632000,5.296632080078125,-0.009944897145032883,-0.015389086678624153,-0.01343900803476572
1769667889714621200,5.30662109375,-0.005897158291190863,-0.022207310423254967,-0.01307575311511755
1769667889724610000,5.316610107421875,-0.008502723649144173,-0.022541020065546036,-0.011326726526021957
1769667889734598100,5.32659814453125,-0.006803627125918865,-0.018699143081903458,-0.015641847625374794
1769667889744587300,5.336587158203125,-0.006131291389465332,-0.023415153846144676,-0.015621917322278023
1769667889754576000,5.346575927734375,-0.0059653762727975845,-0.02692120522260666,-0.017912767827510834
1769667889764564000,5.35656396484375,-0.0077362400479614735,-0.03063274547457695,-0.02285907231271267
1769667889774553000,5.366552978515625,-0.010346670635044575,-0.03719956800341606,-0.02779976837337017
1769667889784541200,5.376541259765625,-0.011364445090293884,-0.04394103214144707,-0.02844122238457203
1769667889794530000,5.386530029296875,-0.01748119294643402,-0.05388527363538742,-0.028102202340960503
1769667889804519200,5.396519287109375,-0.02136300317943096,-0.059207260608673096,-0.02869478054344654
1769667889814507000,5.406507080078125,-0.019825292751193047,-0.0586988627910614,-0.032280996441841125
1769667889824496000,5.41649609375,-0.019286129623651505,-0.05871180444955826,-0.03390979766845703
1769667889834485000,5.426485107421875,-0.018569206818938255,-0.057194069027900696,-0.03562966734170914
1769667889844473000,5.43647314453125,-0.019428608939051628,-0.05804628133773804,-0.035490117967128754
1769667889854462200,5.446462158203125,-0.019899189472198486,-0.061760324984788895,-0.03311165049672127
1769667889864451000,5.456451171875,-0.02223260886967182,-0.06571848690509796,-0.033243827521800995
1769667889874439000,5.46643896484375,-0.024644633755087852,-0.06834063678979874,-0.03356447443366051
1769667889884428000,5.476427978515625,-0.02795417606830597,-0.0702793076634407,-0.030186733230948448
1769667889894416100,5.486416015625,-0.02651127427816391,-0.06782200932502747,-0.027206122875213623
1769667889904405000,5.496405029296875,-0.02922944724559784,-0.06629738956689835,-0.023242490366101265
1769667889914394000,5.50639404296875,-0.028777243569493294,-0.06454183906316757,-0.019822726026177406
1769667889924382000,5.5163818359375,-0.02933266945183277,-0.06161001697182655,-0.017621587961912155
1769667889934371000,5.52637109375,-0.033552445471286774,-0.06682421267032623,-0.018537182360887527
1769667889944360000,5.53635986328125,-0.03775937110185623,-0.07019446045160294,-0.01270340010523796
1769667889954348000,5.54634814453125,-0.037833940237760544,-0.06758695840835571,-0.013713004998862743
1769667889964337200,5.556337158203125,-0.0348193384706974,-0.06292776018381119,-0.011167092248797417
1769667889974326000,5.566325927734375,-0.030627524480223656,-0.054261572659015656,-0.009123116731643677
1769667889984313900,5.57631396484375,-0.02747539058327675,-0.04502352327108383,-0.009713830426335335
1769667889994303000,5.586302978515625,-0.026331298053264618,-0.04260750487446785,-0.007652544416487217
1769667890004291000,5.596291015625,-0.03106960840523243,-0.10904678702354431,0.04535876587033272
1769667890014280200,5.6062802734375,-0.031762029975652695,-0.06224573031067848,0.01245914213359356
1769667890024269000,5.61626904296875,-0.0399746298789978,-0.0420587919652462,0.006134288385510445
1769667890034257200,5.626257080078125,-0.025827918201684952,-0.029658319428563118,-0.006476046051830053
1769667890044246300,5.636246337890625,-0.024586576968431473,-0.025738311931490898,-0.002827600110322237
1769667890054235000,5.64623486328125,-0.026278482750058174,-0.024403536692261696,0.003085948759689927
1769667890064223000,5.656222900390625,-0.02580125443637371,-0.013693772256374359,0.004277182277292013
1769667890074212000,5.666212158203125,-0.02267177402973175,-0.006993790622800589,0.0060295420698821545
1769667890084201200,5.676201171875,-0.020970985293388367,0.0028001838363707066,0.00924594420939684
1769667890094189000,5.68618896484375,-0.019811976701021194,0.01234042551368475,0.0070110191591084
1769667890104178200,5.69617822265625,-0.01732541248202324,0.017783507704734802,0.01085587590932846
1769667890114166000,5.706166015625,-0.015577313490211964,0.018356619402766228,0.007941312156617641
1769667890124155100,5.716155029296875,-0.013923481106758118,0.019335007295012474,0.00810133945196867
1769667890134144000,5.72614404296875,-0.011361520737409592,0.02748854085803032,0.00656602717936039
1769667890144132000,5.736132080078125,-0.007556278258562088,0.03527184948325157,0.005461127497255802
1769667890154121200,5.746121337890625,-0.0061642443761229515,0.03551525995135307,0.0036083662416785955
1769667890164110000,5.756110107421875,-0.004952453542500734,0.03902694582939148,0.0035664383322000504
1769667890174098000,5.766097900390625,-0.005719177424907684,0.04242300987243652,0.006636263802647591
1769667890184087000,5.776087158203125,-0.006368985399603844,0.041312072426080704,0.007583289407193661
1769667890194076200,5.786076171875,-0.006906411610543728,0.042831938713788986,0.014945331029593945
1769667890204064300,5.796064208984375,-0.009851938113570213,0.0436178520321846,0.018322089686989784
1769667890214053000,5.80605322265625,-0.014300215989351273,0.03514020889997482,0.02045315131545067
1769667890224041000,5.816041015625,-0.01704777218401432,0.024372538551688194,0.018344668671488762
1769667890234030000,5.826030029296875,-0.015772385522723198,0.028154227882623672,0.018170231953263283
1769667890244019000,5.83601904296875,-0.016440443694591522,0.03373610973358154,0.021531954407691956
1769667890254007000,5.846007080078125,-0.012782325968146324,0.04166700318455696,0.022930912673473358
1769667890263996200,5.85599609375,-0.01202684361487627,0.04128146916627884,0.02269081026315689
1769667890273985000,5.865985107421875,-0.01268384512513876,0.029954776167869568,0.02086547762155533
1769667890283972900,5.875972900390625,-0.011492684483528137,0.027602018788456917,0.022306928411126137
1769667890293962000,5.8859619140625,-0.008578120730817318,0.024892784655094147,0.020799579098820686
1769667890303951000,5.895951171875,-0.0017118226969614625,0.025292765349149704,0.021043237298727036
1769667890313939200,5.905939208984375,0.008618311956524849,0.03329023718833923,0.01619228906929493
1769667890323928600,5.915928466796875,0.01412229984998703,0.041320621967315674,0.012490438297390938
1769667890333916700,5.925916748046875,0.016567081212997437,0.050775110721588135,0.00701311556622386
1769667890343905800,5.93590576171875,0.01340940035879612,0.05424802750349045,0.0038881096988916397
1769667890353894700,5.945894775390625,0.009320649318397045,0.053089018911123276,0.002885429421439767
1769667890363882800,5.9558828125,0.006842058151960373,0.05509738624095917,0.006088920868933201
1769667890373871900,5.965871826171875,0.0031391994562000036,0.0533817782998085,0.006760836578905582
1769667890383860500,5.975860595703125,0.0027171592228114605,0.05061327666044235,0.00960627757012844
1769667890393848600,5.9858486328125,0.003295064903795719,0.049425240606069565,0.0034983179066330194
1769667890403837700,5.995837646484375,0.009421302936971188,0.048498451709747314,0.0010792993707582355
1769667890413826800,6.005826904296875,0.010693495161831379,0.046707477420568466,-0.002911713905632496
1769667890423814700,6.015814697265625,0.01437616627663374,0.04553305730223656,-0.005883632227778435
1769667890433803800,6.0258037109375,0.014279493130743504,0.03640667349100113,-0.005754202604293823
1769667890443791600,6.03579150390625,0.01161925122141838,0.02730085328221321,-0.006294813007116318
1769667890453780700,6.04578076171875,0.00854836031794548,0.02399560436606407,-0.010326305404305458
1769667890463769600,6.05576953125,0.0046858517453074455,0.023323126137256622,-0.009146001189947128
1769667890473757700,6.0657578125,0.0019992550369352102,0.021181944757699966,-0.00910099409520626
1769667890483746800,6.075746826171875,-0.0015478788409382105,0.012793801724910736,-0.010508337989449501
1769667890493735700,6.085735595703125,-0.00770590640604496,0.00250627682544291,-0.009648935869336128
1769667890503723500,6.0957236328125,-0.013026302680373192,-0.012992403469979763,-0.00809432566165924
1769667890513712600,6.105712646484375,-0.017977917566895485,-0.022906819358468056,-0.009871985763311386
1769667890523701800,6.11570166015625,-0.020178738981485367,-0.024896258488297462,-0.0097343185916543
1769667890533689900,6.12568994140625,-0.018789900466799736,-0.02127142995595932,-0.010752977803349495
1769667890543678700,6.1356787109375,-0.01397358812391758,-0.010854683816432953,-0.012984687462449074
1769667890553666600,6.14566650390625,-0.007820354774594307,-0.004339792765676975,-0.015089916065335274
1769667890563655700,6.15565576171875,-0.0033825167920440435,-0.0008782581426203251,-0.02078337036073208
1769667890573644500,6.16564453125,0.0011712221894413233,0.0074835349805653095,-0.026426076889038086
1769667890583632600,6.175632568359375,0.004903782624751329,0.018846549093723297,-0.03004399873316288
1769667890593621800,6.185621826171875,0.00901117641478777,0.030526908114552498,-0.02733476459980011
1769667890603611000,6.19561083984375,0.012458566576242447,0.037164848297834396,-0.02121627889573574
1769667890613598500,6.205598388671875,0.01379973441362381,0.034878794103860855,-0.013559957966208458
1769667890623587600,6.215587646484375,0.014385252259671688,0.024022996425628662,-0.0048493253998458385
1769667890633576700,6.22557666015625,0.011708508245646954,0.012090970762073994,0.0003518282901495695
1769667890643564800,6.235564697265625,0.012646657414734364,0.0045325919054448605,-0.0013729394413530827
1769667890653553700,6.2455537109375,0.012099111452698708,0.013606514781713486,-0.0019242134876549244
1769667890663541800,6.255541748046875,0.015957176685333252,0.022500764578580856,-0.004581936169415712
1769667890673531000,6.26553076171875,0.019232599064707756,0.024707192555069923,-0.006845889613032341
1769667890683519500,6.27551953125,0.024289675056934357,0.026468608528375626,-0.008539127185940742
1769667890693507600,6.285507568359375,0.02528436668217182,0.02263498678803444,-0.00753351766616106
1769667890703496700,6.29549658203125,0.026885202154517174,0.019517166540026665,-0.005901295691728592
1769667890713485800,6.30548583984375,0.02307981066405773,0.014936263673007488,-0.0003699096851050854
1769667890723473700,6.3154736328125,0.022792963311076164,0.015147166326642036,0.005080571398139
1769667890733462800,6.325462890625,0.02221851982176304,0.012395588681101799,0.00652720034122467
1769667890743451600,6.33545166015625,0.024188192561268806,0.012868430465459824,0.0065690213814377785
1769667890753439700,6.345439697265625,0.02637571282684803,0.01441226527094841,0.006995127536356449
1769667890763428600,6.3554287109375,0.026406172662973404,0.010852159932255745,0.003733355086296797
1769667890773416700,6.365416748046875,0.028037359938025475,0.012259640730917454,0.0005820367950946093
1769667890783405800,6.37540576171875,0.028666144236922264,0.01845702715218067,0.0008405949920415878
1769667890793394700,6.385394775390625,0.02893485687673092,0.026309890672564507,-0.0009394618682563305
1769667890803382500,6.395382568359375,0.030892884358763695,0.029701145365834236,0.0006535027641803026
1769667890813371600,6.40537158203125,0.02930271066725254,0.034682322293519974,0.0019246295560151339
1769667890823360800,6.41536083984375,0.026858892291784286,0.0391182079911232,-0.001719445688650012
1769667890833348900,6.425348876953125,0.026077786460518837,0.0354078933596611,0.0016435942379757762
1769667890843337700,6.435337646484375,0.01914081536233425,0.029932718724012375,0.0030278603080660105
1769667890853326800,6.445326904296875,0.01841430366039276,0.028499672189354897,-0.0008257338777184486
1769667890863314700,6.455314697265625,0.018178602680563927,0.02316049113869667,-0.005077979527413845
1769667890873303600,6.465303466796875,0.018363427370786667,0.024197794497013092,-0.00794061180204153
1769667890883292700,6.475292724609375,0.013501711189746857,0.024942994117736816,-0.011408895254135132
1769667890893280800,6.48528076171875,0.014835687354207039,0.01774047501385212,-0.014118395745754242
1769667890903270000,6.495269775390625,0.011047527194023132,0.010393683798611164,-0.01419838797301054
1769667890913257500,6.505257568359375,0.007109244354069233,0.004506499972194433,-0.012313668616116047
1769667890923246600,6.51524658203125,0.004353644326329231,0.0005988222546875477,-0.0154305724427104
1769667890933235700,6.525235595703125,0.004904652014374733,0.004289696924388409,-0.015838302671909332
1769667890943223800,6.535223876953125,0.0026871776208281517,0.01127074658870697,-0.013631624169647694
1769667890953212700,6.545212646484375,0.00037555384915322065,0.015742726624011993,-0.012528542429208755
1769667890963201800,6.555201904296875,-0.00031850754749029875,0.018223363906145096,-0.009182462468743324
1769667890973189600,6.565189697265625,-0.00208871066570282,0.01825026050209999,-0.006401055958122015
1769667890983178500,6.575178466796875,0.002115802839398384,0.017976289615035057,-0.009116508066654205
1769667890993167600,6.585167724609375,0.002869477029889822,0.01969030126929283,-0.008110899478197098
1769667891003155700,6.59515576171875,0.0054497020319104195,0.021432988345623016,-0.00790001917630434
1769667891013144800,6.605144775390625,0.006178875453770161,0.01970326527953148,-0.009008959867060184
1769667891023133000,6.6151328125,0.008613846264779568,0.015041768550872803,-0.009573902934789658
1769667891033121500,6.62512158203125,0.009204535745084286,0.014010326005518436,-0.006724053993821144
1769667891043110700,6.635110595703125,0.00795132014900446,0.010393340140581131,-0.011188189499080181
1769667891053098800,6.6450986328125,0.00800990965217352,0.006167968735098839,-0.014904364943504333
1769667891063087600,6.655087646484375,0.005468905437737703,-0.0007748217321932316,-0.01789811998605728
1769667891073076700,6.66507666015625,0.0008621695451438427,-0.004694994539022446,-0.017877081409096718
1769667891083064800,6.67506494140625,-0.0011563273146748543,-0.0033000947441905737,-0.020941680297255516
1769667891093053700,6.6850537109375,-0.0019065397791564465,-0.001331752398982644,-0.01848651096224785
1769667891103042600,6.69504248046875,-0.002299340208992362,0.004910242278128862,-0.021833334118127823
1769667891113030700,6.70503076171875,-0.0018063890747725964,0.006741698365658522,-0.021018140017986298
1769667891123019800,6.715019775390625,0.0008391685551032424,0.008522799238562584,-0.020997842773795128
1769667891133008000,6.7250078125,0.0019904528744518757,0.014400928281247616,-0.0223227646201849
1769667891142996700,6.734996826171875,-0.000013751676306128502,0.015671126544475555,-0.022926166653633118
1769667891152985900,6.74498583984375,-0.004177071154117584,0.013768564909696579,-0.025426076725125313
1769667891162973700,6.7549736328125,-0.0080600930377841,0.011238325387239456,-0.02819974161684513
1769667891172962600,6.764962646484375,-0.011156017892062664,0.00918689277023077,-0.03210500255227089
1769667891182951700,6.77495166015625,-0.011011605150997639,0.005484018474817276,-0.03231073170900345
1769667891192939800,6.784939697265625,-0.010815863497555256,0.005694141611456871,-0.033308617770671844
1769667891202929000,6.794928955078125,-0.009748411364853382,0.0028033244889229536,-0.031515371054410934
1769667891212917800,6.804917724609375,-0.009349203668534756,0.004166063852608204,-0.02756749838590622
1769667891222905600,6.814905517578125,-0.010163724422454834,0.0027955726254731417,-0.020808404311537743
1769667891232894700,6.824894775390625,-0.012428742833435535,0.007451044395565987,-0.01963714510202408
1769667891242882800,6.8348828125,-0.010350455529987812,0.011753682978451252,-0.01476321741938591
1769667891252871700,6.84487158203125,-0.007905939593911171,0.01282347459346056,-0.015703046694397926
1769667891262860800,6.85486083984375,-0.008700022473931313,0.011778702959418297,-0.013610473833978176
1769667891272848600,6.8648486328125,-0.010014825500547886,0.008469725027680397,-0.010108948685228825
1769667891282837500,6.87483740234375,-0.009983539581298828,-0.04647192731499672,0.036958977580070496
1769667891292826600,6.88482666015625,-0.01649230532348156,-0.026105135679244995,0.01917545311152935
1769667891302814700,6.894814697265625,-0.01560515072196722,0.013271474279463291,-0.00881741102784872
1769667891312803800,6.904803955078125,-0.005314962472766638,0.02654227241873741,-0.01570967212319374
1769667891322792400,6.91479248046875,-0.003648257814347744,0.012276258319616318,-0.001699778251349926
1769667891332780300,6.9247802734375,-0.0037979274056851864,0.011794492602348328,-0.002767705824226141
1769667891342769400,6.934769287109375,-0.004201469477266073,0.015350223518908024,-0.001365667674690485
1769667891352757500,6.944757568359375,-0.006592988036572933,0.012187719345092773,-0.0018008286133408546
1769667891362746400,6.954746337890625,-0.005282304249703884,0.011826169677078724,-0.0037699895910918713
1769667891372735500,6.964735595703125,-0.004841018468141556,0.010099641978740692,-0.004006211645901203
1769667891382723600,6.9747236328125,-0.0016250127227976918,0.001918790745548904,-0.004445582628250122
1769667891392712400,6.98471240234375,-0.0013088955311104655,0.0037646275013685226,-0.003327853512018919
1769667891402701300,6.994701416015625,-0.003546742256730795,0.001752280630171299,-0.002753152512013912
1769667891412689400,7.004689453125,-0.0026916011702269316,0.00849833432585001,-0.002022115048021078
1769667891422678500,7.014678466796875,-0.0012794467620551586,0.017712317407131195,-0.0022466531954705715
1769667891432667400,7.02466748046875,-0.0024043661542236805,0.022699352353811264,0.000539013184607029
1769667891442655500,7.034655517578125,-0.0006811365019530058,0.026084084063768387,0.0012494896072894335
1769667891452644400,7.044644287109375,-0.0016113786259666085,0.024770613759756088,0.0019333893433213234
1769667891462632400,7.054632568359375,-0.003588715335354209,0.020904282107949257,0.0009596117306500673
1769667891472621600,7.06462158203125,-0.005591412074863911,0.013303888961672783,0.0011478972155600786
1769667891482610400,7.0746103515625,-0.004343441221863031,0.013119674287736416,-0.0007917084731161594
1769667891492598500,7.0845986328125,-0.004724539816379547,0.016444098204374313,-0.0009144803043454885
1769667891502587600,7.094587646484375,-0.005327549297362566,0.01591121405363083,-0.00009222514927387238
1769667891512576300,7.104576171875,-0.003961614333093166,0.0165754072368145,-0.0012118183076381683
1769667891522564400,7.114564453125,-0.00424930639564991,0.012514632195234299,-0.00010859803296625614
1769667891532553500,7.124553466796875,-0.006595285143703222,0.008732411079108715,-0.0031472647096961737
1769667891542542300,7.134542236328125,-0.0070742042735219,0.007179591804742813,-0.0050320797599852085
1769667891552530400,7.144530517578125,-0.006361010018736124,0.005556661635637283,-0.004697586875408888
1769667891562519600,7.15451953125,-0.007090548053383827,0.0057310909032821655,-0.003023326164111495
1769667891572507400,7.16450732421875,-0.005521413404494524,0.0019717731047421694,-0.002489894861355424
1769667891582496500,7.17449658203125,-0.007501925341784954,0.0025129877030849457,-0.002220009919255972
1769667891592485400,7.1844853515625,-0.007350657135248184,-0.003894311375916004,-0.0034149703569710255
1769667891602473500,7.194473388671875,-0.009165753610432148,-0.0052408515475690365,-0.003427456133067608
1769667891612462600,7.204462646484375,-0.009401708841323853,-0.005991596262902021,-0.0021603237837553024
1769667891622451500,7.214451416015625,-0.008336992934346199,-0.0038885753601789474,-0.0011032887268811464
1769667891632439300,7.224439208984375,-0.009136473760008812,-0.004240645561367273,0.0007406841032207012
1769667891642428400,7.234428466796875,-0.009857965633273125,-0.007102044299244881,0.00036632874980568886
1769667891652417500,7.24441748046875,-0.01193736121058464,-0.008801407180726528,0.0002129306085407734
1769667891662405400,7.2544052734375,-0.013010993599891663,-0.013736328110098839,-0.00020229886285960674
1769667891672394500,7.26439453125,-0.013446953147649765,-0.01676354371011257,0.0009998520836234093
1769667891682383600,7.274383544921875,-0.010687890462577343,-0.011186464689671993,0.0008978010155260563
1769667891692371500,7.284371337890625,-0.01006337907165289,-0.01086954865604639,-0.0002036825753748417
1769667891702360300,7.2943603515625,-0.009340193122625351,-0.011889570392668247,0.0010269603226333857
1769667891712348400,7.304348388671875,-0.010078155435621738,-0.013331405818462372,0.0007100440561771393
1769667891722337500,7.314337646484375,-0.010351254604756832,-0.01644200272858143,-0.000021288637071847916
1769667891732326400,7.324326416015625,-0.011680171824991703,-0.019776547327637672,0.0012881875736638904
1769667891742314200,7.334314208984375,-0.009584276005625725,-0.018674209713935852,0.0004626403097063303
1769667891752303400,7.344303466796875,-0.010068172588944435,-0.015131405554711819,0.0015265732072293758
1769667891762292500,7.35429248046875,-0.00971463043242693,-0.012925403192639351,0.000774479703977704
1769667891772280600,7.364280517578125,-0.006704726256430149,-0.009830011054873466,0.0011260168394073844
1769667891782269400,7.37426953125,-0.006265570875257254,-0.01274164393544197,0.001972103025764227
1769667891792258600,7.384258544921875,-0.009689330123364925,-0.014499064534902573,0.0036826515570282936
1769667891802246700,7.39424658203125,-0.008136682212352753,-0.016314787790179253,0.008202244527637959
1769667891812235300,7.4042353515625,-0.007583544123917818,-0.018657570704817772,0.013316579163074493
1769667891822223400,7.414223388671875,-0.015491222962737083,-0.056846536695957184,0.03692328929901123
1769667891832212500,7.42421240234375,-0.0032918150536715984,0.01195836067199707,-0.0012427365873008966
1769667891842201300,7.434201416015625,-0.001292609958909452,-0.008271032944321632,0.005044517107307911
1769667891852189400,7.444189453125,-0.0024393671192228794,-0.011587735265493393,0.005021614022552967
1769667891862178600,7.454178466796875,-0.0027763010002672672,-0.003279038006439805,0.0029774594586342573
1769667891872167400,7.46416748046875,-0.0034660594537854195,-0.014365778304636478,0.011343780905008316
1769667891882155500,7.474155517578125,-0.0017750756815075874,-0.011016212403774261,0.006113311275839806
1769667891892144400,7.484144287109375,0.0012108605587854981,-0.009662261232733727,0.012084649875760078
1769667891902133500,7.494133544921875,0.003603090764954686,-0.009321043267846107,0.008480770513415337
1769667891912121600,7.50412158203125,0.008644720539450645,-0.010012932121753693,0.0077654458582401276
1769667891922110500,7.5141103515625,0.011376015841960907,-0.003669644705951214,0.006031530909240246
1769667891932099300,7.524099365234375,0.009630579501390457,0.004932365845888853,0.00433962419629097
1769667891942087400,7.53408740234375,0.007008548825979233,0.002304044319316745,0.00812189094722271
1769667891952076500,7.54407666015625,0.0021482801530510187,-0.00041823904030025005,0.008169827982783318
1769667891962064400,7.554064453125,-0.0017463135300204158,-0.0041516488417983055,0.009658245369791985
1769667891972053500,7.564053466796875,-0.002444061916321516,-0.003006222890689969,0.009096317924559116
1769667891982042600,7.574042724609375,-0.0017358418554067612,-0.0014957464300096035,0.01064397394657135
1769667891992030500,7.584030517578125,0.000263659399934113,0.0007753974059596658,0.010263673961162567
1769667892002019300,7.594019287109375,0.000819502747617662,0.0025606125127524137,0.011504622176289558
1769667892012008400,7.604008544921875,0.001632565981708467,0.002926264423877001,0.011431651189923286
1769667892021996500,7.61399658203125,0.004386694636195898,0.0023932817857712507,0.008518376387655735
1769667892031985400,7.6239853515625,0.0029192930087447166,-0.00073247030377388,0.009051540866494179
1769667892041974500,7.633974609375,0.005113922990858555,-0.0028856319840997458,0.008471673354506493
1769667892051962400,7.64396240234375,0.007462564390152693,-0.0034267862793058157,0.005205572582781315
1769667892061951500,7.653951416015625,0.006332372315227985,-0.0073054395616054535,0.002880258020013571
1769667892071939600,7.663939697265625,0.004815702326595783,-0.0052217827178537846,0.0023316468577831984
1769667892081928400,7.673928466796875,0.0035239148419350386,-0.0045369998551905155,-0.0007969914004206657
1769667892091917600,7.68391748046875,0.006650998257100582,-0.007625201717019081,-0.001791415736079216
1769667892101905400,7.693905517578125,0.006036397069692612,-0.009235706180334091,-0.0005417056381702423
1769667892111894300,7.703894287109375,0.006230008788406849,-0.009461542591452599,-0.0026115141808986664
1769667892121883400,7.71388330078125,0.0064977118745446205,-0.013616164214909077,0.0005854987539350986
1769667892131871500,7.72387158203125,0.004533897154033184,-0.010841417126357555,0.0008353032171726227
1769667892141860600,7.733860595703125,0.007077930960804224,-0.006668305490165949,0.0007659574039280415
1769667892151849500,7.743849365234375,0.005398808047175407,-0.01051204651594162,0.0025974134914577007
1769667892161837300,7.75383740234375,0.007788181304931641,-0.008043242618441582,0.0009449578355997801
1769667892171826400,7.763826416015625,0.0059050596319139,-0.005454649683088064,0.0002370895817875862
1769667892181815300,7.773815185546875,0.006960710510611534,-0.0029210704378783703,-0.001396444160491228
1769667892191803400,7.783803466796875,0.003878634423017502,-0.002469930797815323,-0.00137806823477149
1769667892201792500,7.79379248046875,0.004327264614403248,-0.005772600881755352,0.0003798415418714285
1769667892211780600,7.803780517578125,0.0022734347730875015,-0.013565543107688427,0.001580394571647048
1769667892221769500,7.81376953125,-0.0007587240543216467,-0.0210838932543993,0.005193010903894901
1769667892231758300,7.82375830078125,-0.0016498176846653223,-0.02446051500737667,0.005219908431172371
1769667892241746400,7.833746337890625,-0.001944059506058693,-0.019267454743385315,0.004979344550520182
1769667892251735600,7.843735595703125,-0.0023757577873766422,-0.015969395637512207,0.002912731608375907
1769667892261724400,7.853724365234375,-0.0010440257610753179,-0.008955116383731365,0.0004788374062627554
1769667892271712500,7.86371240234375,-0.0032706947531551123,-0.006650417111814022,-0.0006785723380744457
1769667892281701600,7.87370166015625,-0.00394835788756609,-0.00808204896748066,-0.00030142441391944885
1769667892291690200,7.883690185546875,-0.004644508473575115,-0.010474633425474167,0.0006937987636774778
1769667892301678300,7.89367822265625,-0.005822504870593548,-0.014725363813340664,-0.00039820466190576553
1769667892311667500,7.90366748046875,-0.003079981543123722,-0.01756802201271057,-0.0010709192138165236
1769667892321656000,7.913656005859375,-0.0038140187971293926,-0.013862484134733677,-0.002744845114648342
1769667892331645000,7.92364501953125,-0.0016238351818174124,-0.005503621883690357,-0.004809594247490168
1769667892341634000,7.933634033203125,0.004783884156495333,0.007079996634274721,-0.004647450055927038
1769667892351622000,7.943621826171875,0.008508048951625824,0.008615043014287949,-0.003869007807224989
1769667892361611000,7.953611083984375,0.011390917003154755,0.011997652240097523,-0.0065492005087435246
1769667892371600000,7.963599853515625,0.009977311827242374,0.012329748831689358,-0.00439843162894249
1769667892381588000,7.973587890625,0.010399594902992249,0.013858267106115818,-0.005225691478699446
1769667892391577000,7.9835771484375,0.010057911276817322,0.012764773331582546,-0.003584918100386858
1769667892401566000,7.99356591796875,0.007439573295414448,0.012663634493947029,-0.0031917302403599024
1769667892411553800,8.0035537109375,0.007678991183638573,0.012046579271554947,-0.0037693700287491083
1769667892421543000,8.01354296875,0.006680685561150312,0.014769881032407284,-0.0022518674377352
1769667892431532000,8.023531982421876,0.010211238637566566,0.013775989413261414,-0.0028968851547688246
1769667892441519900,8.033519775390625,0.012545718811452389,0.013908645138144493,-0.005385244265198708
1769667892451509000,8.043509033203126,0.012777147814631462,0.01554036419838667,-0.00623958557844162
1769667892461497000,8.0534970703125,0.015279540792107582,0.01646348275244236,-0.008033142425119877
1769667892471486000,8.06348583984375,0.01490403525531292,0.017863240092992783,-0.009628908708691597
1769667892481474800,8.073474853515625,0.015142752788960934,0.018057525157928467,-0.010075710713863373
1769667892491463000,8.083462890625,0.014610654674470425,0.019418668001890182,-0.011333787813782692
1769667892501452000,8.0934521484375,0.012327371165156364,0.019893057644367218,-0.011943874880671501
1769667892511441000,8.10344091796875,0.012406201101839542,0.015926014631986618,-0.00887378305196762
1769667892521429000,8.113428955078126,0.010526233352720737,0.012763813138008118,-0.005452875513583422
1769667892531417900,8.12341796875,0.010353394784033298,0.012845838442444801,-0.002709286753088236
1769667892541407000,8.133406982421874,0.008491422049701214,0.01358241681009531,-0.00035340036265552044
1769667892551394800,8.143394775390625,0.00804401095956564,0.01330651342868805,-0.0015118755400180817
1769667892561384000,8.153384033203125,0.005156388971954584,0.009550891816616058,-0.0006469772197306156
1769667892571372000,8.1633720703125,0.0039438521489501,0.006176133640110493,-0.002340481150895357
1769667892581361200,8.173361083984375,0.0035207991022616625,0.0040440307930111885,-0.004598545841872692
1769667892591349800,8.183349853515624,0.003122922731563449,0.004320200532674789,-0.003395595820620656
1769667892601337900,8.193337890625,0.0016808253712952137,0.0035187266767024994,-0.004781785421073437
1769667892611327000,8.203326904296874,0.00046056497376412153,-0.00053220777772367,-0.006398058030754328
1769667892621315800,8.21331591796875,-0.00024497811682522297,0.0007206883747130632,-0.00762536097317934
1769667892631304000,8.223303955078125,0.00005622534081339836,-0.001332875108346343,-0.008631769567728043
1769667892641293000,8.23329296875,-0.00038152665365487337,-0.0005540456622838974,-0.007057989481836557
1769667892651282200,8.2432822265625,-0.0020009949803352356,-0.0032198699191212654,-0.007050532381981611
1769667892661270000,8.25327001953125,-0.004852581769227982,-0.00442718667909503,-0.007830820977687836
1769667892671259000,8.2632587890625,-0.006399878300726414,-0.00724401231855154,-0.00990542396903038
1769667892681248000,8.273248046875,-0.005518835969269276,-0.008837662637233734,-0.009901830926537514
1769667892691236000,8.283236083984375,-0.0034713977947831154,-0.0042618196457624435,-0.008065581321716309
1769667892701225000,8.293224853515625,-0.002309529110789299,-0.0005661356262862682,-0.007419362664222717
1769667892711212800,8.303212890625,-0.003915681503713131,-0.005603504832834005,-0.005079509690403938
1769667892721202000,8.313201904296875,-0.004984576255083084,-0.011147932149469852,-0.0052216537296772
1769667892731191000,8.32319091796875,0.003790806047618389,-0.04083791747689247,0.03251400589942932
1769667892741179000,8.333178955078125,-0.005589044652879238,-0.06027927249670029,0.0400969572365284
1769667892751168000,8.34316796875,-0.0006009437493048608,0.0053708418272435665,-0.013650694862008095
1769667892761157000,8.3531572265625,0.007079159375280142,-0.004822880961000919,-0.009310964494943619
1769667892771145000,8.36314501953125,0.007619514595717192,-0.011870671063661575,-0.00252682832069695
1769667892781133800,8.3731337890625,0.007861079648137093,0.009792095981538296,-0.012888701632618904
1769667892791123000,8.383123046875,0.005438668187707663,-0.001885599223896861,-0.006204166915267706
1769667892801111000,8.393111083984374,0.00521677453070879,0.0009783226996660233,-0.008974803611636162
1769667892811100000,8.403099853515625,0.0006656984332948923,0.0014169453643262386,-0.0026375455781817436
1769667892821087700,8.413087646484374,-0.0009743949631229043,0.004359781742095947,0.0018493222305551171
1769667892831076900,8.423076904296876,-0.004489234648644924,0.002299293875694275,0.0013417237205430865
1769667892841066000,8.43306591796875,-0.00796196423470974,-0.0038592410273849964,0.0009943816112354398
1769667892851054000,8.44305419921875,-0.007052760571241379,-0.007379940245300531,-0.0006160319317132235
1769667892861043000,8.45304296875,-0.007078737486153841,-0.009169692173600197,-0.00048471661284565926
1769667892871032000,8.463031982421874,-0.003668293124064803,-0.006473774556070566,-0.0021710300352424383
1769667892881020200,8.473020263671875,-0.0005391458980739117,-0.0009897765703499317,-0.0019008521921932697
1769667892891008800,8.4830087890625,0.0009852474322542548,0.001803346909582615,-0.004867346957325935
1769667892900998000,8.492997802734376,0.00436736224219203,0.00305475783534348,-0.005000039469450712
1769667892910986000,8.502986083984375,0.0024424297735095024,-0.0009005689062178135,-0.0038663316518068314
1769667892920974800,8.512974853515624,0.001927924808114767,-0.0029081120155751705,-0.0023366513196378946
1769667892930964000,8.5229638671875,-0.0009504196932539344,-0.005251693539321423,-0.0033939264249056578
1769667892940952000,8.5329521484375,0.0009414043743163347,-0.0013887099921703339,-0.00315566617064178
1769667892950941000,8.54294091796875,-0.0042251283302903175,-0.0029162990394979715,-0.0005497632082551718
1769667892960929000,8.552928955078125,-0.00003171467687934637,-0.0014180047437548637,0.0007631753105670214
1769667892970918000,8.56291796875,-0.0012511761160567403,-0.0004632615018635988,0.001945885131135583
1769667892980907000,8.572906982421875,0.0005122442962601781,0.004019211046397686,0.0034193932078778744
1769667892990895000,8.58289501953125,0.0010073260637000203,0.00960812158882618,0.0037240588571876287
1769667893000884000,8.592884033203125,0.00081298325676471,0.008395170792937279,0.006920773535966873
1769667893010872800,8.602872802734375,-0.0006176667520776391,0.005561034195125103,0.0065798889845609665
1769667893020861000,8.61286083984375,-0.0005502879503183067,0.0032527383882552385,0.00502381194382906
1769667893030850000,8.62285009765625,-0.002225948963314295,-0.001681033754721284,0.0018274858593940735
1769667893040839000,8.6328388671875,-0.004450463689863682,-0.00020602485164999962,0.0002620336599647999
1769667893050827000,8.642826904296875,-0.005123444367200136,-0.002503533847630024,0.0008066501468420029
1769667893060816100,8.652816162109374,-0.004823652096092701,-0.006590479984879494,0.0018563593039289117
1769667893070804700,8.6628046875,-0.00559916440397501,-0.008304224349558353,0.0051541514694690704
1769667893080792800,8.672792724609375,-0.006657055579125881,-0.007181230466812849,0.004702642094343901
1769667893090782000,8.682781982421876,-0.007431236561387777,-0.004828061442822218,0.007510146591812372
1769667893100770000,8.69277001953125,-0.007104228250682354,-0.004631542135030031,0.0068579986691474915
1769667893110759000,8.702759033203124,-0.0061263153329491615,-0.005274695809930563,0.005977557972073555
1769667893120748000,8.712748046875,-0.007421752437949181,-0.007200550753623247,0.00484799686819315
1769667893130735900,8.72273583984375,-0.00648511853069067,-0.006353931967169046,0.005368378944694996
1769667893140725000,8.73272509765625,-0.0063741011545062065,-0.007042852230370045,0.00465072738006711
1769667893150713900,8.7427138671875,-0.007685442455112934,-0.008528629317879677,0.005612128414213657
1769667893160702000,8.752701904296876,-0.00735832192003727,-0.008837359957396984,0.0052473703399300575
1769667893170691000,8.762691162109375,-0.007486952468752861,-0.008248002268373966,0.004838575143367052
1769667893180680000,8.772679931640624,-0.008375819772481918,-0.004330886993557215,0.005575285293161869
1769667893190667800,8.782667724609375,-0.008165695704519749,-0.002171596046537161,0.006289544515311718
1769667893200657000,8.792656982421875,-0.00842725858092308,-0.001487658591940999,0.0074462308548390865
1769667893210646000,8.80264599609375,-0.0068919463083148,-0.00025461497716605663,0.006964464671909809
1769667893220633900,8.8126337890625,-0.0059871189296245575,-0.004276474937796593,0.009284313768148422
1769667893230623000,8.822623046875,-0.009341103956103325,-0.0012050513178110123,0.008880311623215675
1769667893240610800,8.83261083984375,-0.008322259411215782,-0.003124984446913004,0.010255994275212288
1769667893250600000,8.842599853515624,-0.007893224246799946,0.000929411849938333,0.010110053233802319
1769667893260588800,8.8525888671875,-0.007351023145020008,0.004096228629350662,0.009743375703692436
1769667893270577000,8.862576904296875,-0.00634328369051218,0.006373231299221516,0.00792656745761633
1769667893280566000,8.87256591796875,-0.0049201142974197865,0.005397032015025616,0.006254947744309902
1769667893290555000,8.882554931640625,-0.0033584367483854294,0.0016028265235945582,0.008824365213513374
1769667893300543000,8.89254296875,-0.0018068504286929965,-0.0006997205782681704,0.00924907810986042
1769667893310531800,8.90253173828125,-0.004219141788780689,-0.0009378071408718824,0.011098910123109818
1769667893320520400,8.9125205078125,-0.001655787113122642,0.0010037488536909223,0.015243735164403915
1769667893330508500,8.922508544921875,0.0009719539666548371,0.0057945093140006065,0.012482303194701672
1769667893340497200,8.9324970703125,0.0021891631186008453,0.008930490352213383,0.014635980129241943
1769667893350486300,8.942486328125,0.002306075766682625,0.011483929120004177,0.014473794028162956
1769667893360474400,8.952474365234375,-0.00011860253289341927,0.012167328037321568,0.015325210057199001
1769667893370463500,8.96246337890625,0.000641463790088892,0.013956706039607525,0.012663380242884159
1769667893380451300,8.972451416015625,0.0005468470044434071,0.012589315883815289,0.012681640684604645
1769667893390440400,8.9824404296875,-0.0014742258936166763,0.01455739140510559,0.012888302095234394
1769667893400429600,8.9924296875,-0.0016585165867581964,0.01196986436843872,0.013662217184901237
1769667893410417400,9.00241748046875,-0.0020670455414801836,0.009175941348075867,0.016366390511393547
1769667893420406300,9.01240625,-0.0029023680835962296,0.008541127666831017,0.017718788236379623
1769667893430395400,9.0223955078125,-0.00389732513576746,0.010583240538835526,0.019099369645118713
1769667893440383500,9.032383544921874,-0.0029101360123604536,0.011522969231009483,0.017330056056380272
1769667893450372400,9.042372314453125,-0.0028137294575572014,0.009961291216313839,0.015380355529487133
1769667893460361500,9.052361572265625,-0.005324624013155699,0.007073376327753067,0.01800476759672165
1769667893470349300,9.062349365234375,-0.004422611556947231,0.008665680885314941,0.017753364518284798
1769667893480338400,9.07233837890625,-0.0036820664536207914,0.0074035488069057465,0.018559662625193596
1769667893490327300,9.082327392578126,-0.004980357363820076,0.0074011520482599735,0.01587785966694355
1769667893500315400,9.0923154296875,-0.002022874541580677,0.00526140071451664,0.017001360654830933
1769667893510304500,9.102304443359374,-0.0006731846369802952,0.004628900438547134,0.012395689263939857
1769667893520292400,9.112292236328125,-0.0012460865546017885,0.0033229771070182323,0.009188289754092693
1769667893530281200,9.12228125,-0.004210451152175665,-0.0018376964144408703,0.008197859860956669
1769667893540270300,9.132270263671876,-0.00658108526840806,-0.0024695806205272675,0.010583296418190002
1769667893550258400,9.142258544921875,-0.007994690909981728,-0.0006719469092786312,0.011514337733387947
1769667893560247300,9.152247314453126,-0.007822669111192226,-0.0029182713478803635,0.01280547771602869
1769667893570236400,9.162236328125,-0.003453487064689398,0.009941068477928638,0.013239572755992413
1769667893580224300,9.172224365234374,-0.0007900414057075977,0.009835022501647472,0.01574450172483921
1769667893590213400,9.18221337890625,0.0004608454182744026,0.011938919313251972,0.014729838818311691
1769667893600202200,9.1922021484375,-0.0005250436370261014,0.011499574407935143,0.015715714544057846
1769667893610190300,9.2021904296875,-0.00032690446823835373,0.009932836517691612,0.014673354104161263
1769667893620179500,9.212179443359375,-0.00541223119944334,0.005269692279398441,0.012745801359415054
1769667893630168300,9.222168212890624,-0.011109265498816967,-0.000807641539722681,0.009404599666595459
1769667893640156200,9.23215625,-0.014057617634534836,-0.0059387292712926865,0.005599674768745899
1769667893650145300,9.242145263671874,-0.016148466616868973,-0.009204030968248844,0.0035740744788199663
1769667893660133400,9.25213330078125,-0.01863396167755127,-0.014603633433580399,0.0024711941368877888
1769667893670122500,9.26212255859375,-0.01869468204677105,-0.013307739049196243,0.0019454862922430038
1769667893680111400,9.272111328125,-0.01859341561794281,-0.015032083727419376,0.002338967751711607
1769667893690099500,9.282099365234375,-0.01780005916953087,-0.01797913946211338,0.0016550678992643952
1769667893700088300,9.29208837890625,-0.01634218916296959,-0.018155531957745552,0.002955644391477108
1769667893710077200,9.3020771484375,-0.01712995208799839,-0.01513630524277687,0.0036653769202530384
1769667893720065300,9.312065185546874,-0.017114996910095215,-0.017414608970284462,0.004300987347960472
1769667893730054400,9.322054443359375,-0.0164787657558918,-0.017206350341439247,0.0063934326171875
1769667893740043500,9.33204345703125,-0.01462077721953392,-0.017208153381943703,0.00613104272633791
1769667893750031400,9.34203125,-0.013611972332000732,-0.01707473024725914,0.006610411684960127
1769667893760020200,9.352020263671875,-0.01073220744729042,-0.01355469599366188,0.00632181391119957
1769667893770009300,9.36200927734375,-0.011288275010883808,-0.014475617557764053,0.00629411730915308
1769667893779997400,9.37199755859375,-0.012148663401603699,-0.0160739216953516,0.006252948194742203
1769667893789986300,9.381986328125,-0.012213644571602345,-0.020068129524588585,0.0063480231910943985
1769667893799975400,9.391975341796876,-0.00980491191148758,-0.015840765088796616,0.00958767905831337
1769667893809963500,9.401963623046875,-0.007767327595502138,-0.008419601246714592,0.011168264783918858
1769667893819952400,9.411952392578126,-0.007599520497024059,-0.00802689790725708,0.013535764068365097
1769667893829940200,9.421940185546875,-0.007861576043069363,-0.008599476888775826,0.012721102684736252
1769667893839929300,9.431929443359374,-0.006460951175540686,-0.01029379665851593,0.012703390792012215
1769667893849918500,9.44191845703125,-0.005570123437792063,-0.010180079378187656,0.011876212432980537
1769667893859906600,9.451906494140625,-0.004519377835094929,-0.008446330204606056,0.010870873928070068
1769667893869895400,9.4618955078125,-0.004689021036028862,-0.01135556772351265,0.01280672661960125
1769667893879884500,9.471884521484375,-0.0058930786326527596,-0.01259483490139246,0.013729598373174667
1769667893889872400,9.481872314453126,-0.004872289020568132,-0.014245196245610714,0.015257187187671661
1769667893899861200,9.491861328125,-0.006268504075706005,-0.014895747415721416,0.017067711800336838
1769667893909850400,9.501850341796874,-0.007031233515590429,-0.011886108666658401,0.017123904079198837
1769667893919838500,9.51183837890625,-0.006196587346494198,-0.012398958206176758,0.018029091879725456
1769667893929827300,9.521827392578125,-0.005210685543715954,-0.007761063054203987,0.018361719325184822
1769667893939816400,9.53181640625,-0.004983728751540184,-0.006934775970876217,0.018161606043577194
1769667893949804300,9.54180419921875,-0.004634588025510311,-0.006977120414376259,0.017508331686258316
1769667893959793400,9.55179345703125,-0.003471020143479109,-0.007987231947481632,0.017536761239171028
1769667893969782300,9.5617822265625,-0.0048561301082372665,-0.005843121558427811,0.017475241795182228
1769667893979770400,9.571770263671874,-0.005581952631473541,-0.004810963291674852,0.017604095861315727
1769667893989759500,9.581759521484376,-0.006741226650774479,-0.0053662327118217945,0.01767227239906788
1769667893999747300,9.591747314453125,-0.009487925097346306,-0.00976424477994442,0.014959136955440044
1769667894009736200,9.601736083984376,-0.00972121860831976,-0.008016944862902164,0.01573384925723076
1769667894019725300,9.611725341796875,-0.008587242104113102,-0.008386124856770039,0.014673376455903053
1769667894029713400,9.62171337890625,-0.007851943373680115,-0.008285190910100937,0.015402283519506454
1769667894039702500,9.63170263671875,-0.006744565907865763,-0.004803081974387169,0.01617479883134365
1769667894049691400,9.64169140625,-0.005821514409035444,-0.004487231373786926,0.01562592014670372
1769667894059679200,9.65167919921875,-0.003785384353250265,-0.0040487670339643955,0.01702885329723358
1769667894069668400,9.66166845703125,-0.005573430564254522,-0.0019073188304901123,0.017467476427555084
1769667894079657200,9.6716572265625,-0.005475160200148821,-0.0032532806508243084,0.0170831810683012
1769667894089645300,9.681645263671875,-0.004070875234901905,-0.005780886393040419,0.018600918352603912
1769667894099634400,9.691634521484374,-0.005442429333925247,-0.00545932911336422,0.018624933436512947
1769667894109623600,9.70162353515625,-0.009499755688011646,-0.0073411185294389725,0.017532505095005035
1769667894119611100,9.711611083984375,-0.008382465690374374,-0.005530565977096558,0.01578528992831707
1769667894129600300,9.721600341796876,-0.011746038682758808,-0.00753352977335453,0.01819838024675846
1769667894139588400,9.73158837890625,-0.012659812346100807,-0.010574959218502045,0.017666900530457497
1769667894149577500,9.741577392578124,-0.013912564143538475,-0.01169242151081562,0.017896199598908424
1769667894159566300,9.75156640625,-0.013838241808116436,-0.014922886155545712,0.017723584547638893
1769667894169554400,9.761554443359374,-0.010834196582436562,-0.00935208611190319,0.015550178475677967
1769667894179543300,9.771543212890625,-0.009004350751638412,-0.0042921570129692554,0.013496373780071735
1769667894189532200,9.7815322265625,-0.006098043639212847,0.00012309802696108818,0.009854234755039215
1769667894199520300,9.791520263671876,-0.004557868465781212,0.0007814164273440838,0.0060220761224627495
1769667894209509400,9.80150927734375,-0.0037296253722161055,-0.002270299941301346,0.004165053367614746
1769667894219498500,9.81149853515625,-0.002982385689392686,-0.0006866173353046179,0.0046178787015378475
1769667894229486600,9.821486572265625,-0.003491315757855773,-0.008713385090231895,0.004803501069545746
1769667894239475500,9.831475341796875,-0.005372362211346626,-0.012331197038292885,0.008897689171135426
1769667894249464300,9.84146435546875,-0.006748417392373085,-0.012387391179800034,0.008096343837678432
1769667894259452400,9.851452392578125,-0.006188342813402414,-0.0139492591843009,0.006988712586462498
1769667894269441300,9.861441162109376,-0.005542792845517397,-0.009397917427122593,0.006301084533333778
1769667894279430400,9.871430419921875,-0.007236451841890812,-0.013500699773430824,0.008146699517965317
1769667894289418500,9.88141845703125,-0.006120054516941309,-0.015505527146160603,0.008548037149012089
1769667894299407400,9.891407470703125,-0.005161461886018515,-0.020317168906331062,0.00901011936366558
1769667894309395200,9.901395263671875,-0.004266373813152313,-0.018488110974431038,0.010757152922451496
1769667894319384300,9.91138427734375,-0.004362225066870451,-0.020506836473941803,0.010685735382139683
1769667894329373200,9.921373291015625,-0.006720720324665308,-0.023509817197918892,0.009559751488268375
1769667894339361300,9.931361328125,-0.006812457926571369,-0.02474381774663925,0.008259844034910202
1769667894349350000,9.941349853515625,-0.007351481355726719,-0.0281691774725914,0.00794985145330429
1769667894359339000,9.951339111328124,-0.006463436409831047,-0.03312234953045845,0.010650536976754665
1769667894369327000,9.9613271484375,-0.005547308828681707,-0.03363820165395737,0.01214856468141079
1769667894379316000,9.97131591796875,-0.0021922483574599028,-0.03185753896832466,0.011292603798210621
1769667894389305000,9.98130517578125,-0.0016431044787168503,-0.027582364156842232,0.0050637368112802505
1769667894399293200,9.991293212890625,0.0008669247617945075,-0.02509390562772751,0.0025997799821197987
1769667894409282000,10.001281982421874,0.001793172094039619,-0.024358874186873436,-0.0039617158472537994
1769667894419271000,10.01127099609375,0.00018564227502793074,-0.014765136875212193,-0.007640516851097345
1769667894429259000,10.021259033203124,-0.00548902153968811,-0.018107935786247253,-0.009075427427887917
1769667894439248100,10.031248046875,-0.00738142803311348,-0.0286684762686491,-0.00806402787566185
1769667894449237000,10.041237060546875,-0.010223019868135452,-0.030260248109698296,-0.007939659059047699
1769667894459225000,10.05122509765625,-0.011719963513314724,-0.027597669512033463,-0.008194032125175
1769667894469214000,10.0612138671875,-0.009538568556308746,-0.023758724331855774,-0.009292586706578732
1769667894479202000,10.0712021484375,-0.007436999585479498,-0.022290004417300224,-0.013010228052735329
1769667894489191200,10.081191162109375,-0.004795942455530167,-0.02148226834833622,-0.0143484678119421
1769667894499180000,10.091179931640625,-0.005690832622349262,-0.01892934739589691,-0.01394512876868248
1769667894509168000,10.101168212890625,-0.0051949527114629745,-0.024062857031822205,-0.013299046084284782
1769667894519157200,10.1111572265625,-0.007709930185228586,-0.0340416356921196,-0.012025479227304459
1769667894529146000,10.12114599609375,-0.011128097772598267,-0.04168597608804703,-0.012957852333784103
1769667894539134000,10.131134033203125,-0.013160287402570248,-0.051217444241046906,-0.014376118779182434
1769667894549123000,10.141123046875,-0.015097470954060555,-0.06215185299515724,-0.016731152310967445
1769667894559112200,10.1511123046875,-0.01792037859559059,-0.06669483333826065,-0.022766761481761932
1769667894569100000,10.16110009765625,-0.01544363796710968,-0.06997425109148026,-0.029474731534719467
1769667894579089200,10.171089111328126,-0.02044316753745079,-0.07364420592784882,-0.038350559771060944
1769667894589078300,10.181078369140625,-0.02434682846069336,-0.10435071587562561,-0.017969923093914986
1769667894599066000,10.191066162109376,-0.01871073618531227,-0.0763847678899765,-0.049224603921175
1769667894609055000,10.201054931640625,-0.016821224242448807,-0.0881173238158226,-0.046101778745651245
1769667894619044000,10.211044189453125,-0.01759025640785694,-0.1006864458322525,-0.04585188254714012
1769667894629032200,10.2210322265625,-0.015467451885342598,-0.10162147879600525,-0.050694577395915985
1769667894639021000,10.23102099609375,-0.016953948885202408,-0.12198661267757416,-0.04794395714998245
1769667894649009000,10.2410087890625,-0.016656208783388138,-0.13068583607673645,-0.04960549995303154
1769667894658998000,10.250998046875,-0.020252173766493797,-0.131524458527565,-0.06118299812078476
1769667894668987100,10.260987060546874,-0.023907894268631935,-0.13222727179527283,-0.05991532653570175
1769667894678975200,10.270975341796875,-0.022416425868868828,-0.16159658133983612,-0.039311718195676804
1769667894688964000,10.280964111328124,-0.015620305202901363,-0.18079425394535065,-0.02948411926627159
1769667894698953200,10.290953125,-0.015350671485066414,-0.18584690988063812,-0.020671432837843895
1769667894708941000,10.300941162109375,-0.01916644722223282,-0.20533671975135803,-0.018635446205735207
1769667894718930000,10.310929931640626,-0.023605670779943466,-0.2207617461681366,-0.015670549124479294
1769667894728919000,10.3209189453125,-0.02650771662592888,-0.22919172048568726,-0.018393365666270256
1769667894738907100,10.3309072265625,-0.02482135035097599,-0.24120958149433136,-0.01831624284386635
1769667894748896000,10.34089599609375,-0.022749943658709526,-0.24558010697364807,-0.019152209162712097
1769667894758885000,10.350885009765625,-0.018043404445052147,-0.24721314013004303,-0.026578303426504135
1769667894768873000,10.360873046875,-0.01348327286541462,-0.26625528931617737,-0.030240148305892944
1769667894778862000,10.370862060546875,-0.010057451203465462,-0.2808848023414612,-0.03836691752076149
1769667894788851000,10.380850830078124,-0.0030935509130358696,-0.29100292921066284,-0.04385063052177429
1769667894798839000,10.390839111328125,0.005870793014764786,-0.29896098375320435,-0.045433904975652695
1769667894808828200,10.400828125,0.015726886689662933,-0.30854570865631104,-0.04866804555058479
1769667894818816300,10.410816162109375,0.023218929767608643,-0.3174452781677246,-0.043882161378860474
1769667894828804900,10.420804931640625,0.027560148388147354,-0.3216669261455536,-0.038963835686445236
1769667894838794000,10.4307939453125,0.032811228185892105,-0.33241215348243713,-0.037169378250837326
1769667894848782000,10.440781982421875,0.03952745348215103,-0.34425148367881775,-0.033789828419685364
1769667894858771200,10.450771240234374,0.04399140551686287,-0.35736677050590515,-0.02464258298277855
1769667894868760000,10.460760009765625,0.04471871256828308,-0.3755420446395874,-0.019664868712425232
1769667894878748200,10.470748046875,0.04855241999030113,-0.3964642584323883,-0.023982828482985497
1769667894888737000,10.480737060546875,0.05565560609102249,-0.4127689301967621,-0.027722971513867378
1769667894898726000,10.490725830078125,0.06296633929014206,-0.411001980304718,-0.03252856060862541
1769667894908714000,10.5007138671875,0.07089776545763016,-0.3982079029083252,-0.042003288865089417
1769667894918703000,10.510703125,0.06760789453983307,-0.4509757459163666,0.005948926322162151
1769667894928692200,10.520692138671874,0.039608485996723175,-0.45145297050476074,-0.00693624559789896
1769667894938680000,10.53068017578125,0.07587626576423645,-0.39128559827804565,-0.03556933254003525
1769667894948669200,10.540669189453125,0.08342845737934113,-0.3591255247592926,-0.06837281584739685
1769667894958658000,10.550657958984376,0.08227214217185974,-0.3737660050392151,-0.060857970267534256
1769667894968646100,10.560646240234375,0.06472856551408768,-0.40671807527542114,-0.03687780722975731
1769667894978635000,10.570635009765626,0.044654328376054764,-0.4211929440498352,-0.028387386351823807
1769667894988623000,10.580623046875,0.0379524864256382,-0.4234246611595154,-0.020387519150972366
1769667894998612200,10.5906123046875,0.046506136655807495,-0.40271610021591187,-0.034595705568790436
1769667895008601000,10.60060107421875,0.0617375522851944,-0.3661618232727051,-0.05081062763929367
1769667895018589000,10.6105888671875,0.07430732995271683,-0.37237927317619324,-0.06007320433855057
1769667895028578000,10.620578125,0.07155068963766098,-0.39349281787872314,-0.05583292245864868
1769667895038567200,10.630567138671875,0.06423220038414001,-0.40110284090042114,-0.05391145497560501
1769667895048555000,10.640554931640626,0.060547709465026855,-0.4045335352420807,-0.06064392998814583
1769667895058544000,10.650544189453125,0.06608371436595917,-0.40269359946250916,-0.06642422825098038
1769667895068533200,10.660533203125,0.08703906089067459,-0.39566925168037415,-0.08130091428756714
1769667895078521000,10.67052099609375,0.09847381711006165,-0.3954470455646515,-0.09077819436788559
1769667895088510000,10.680510009765625,0.13276495039463043,-0.40745818614959717,-0.09479930251836777
1769667895098499000,10.6904990234375,0.11847173422574997,-0.43191149830818176,-0.0719384104013443
1769667895108487200,10.700487060546875,0.09418503940105438,-0.3668331503868103,-0.08861299604177475
1769667895118476000,10.71047607421875,0.06879612803459167,-0.33352136611938477,-0.1234523355960846
1769667895128465200,10.720465087890625,0.062301479279994965,-0.3437095582485199,-0.1340107023715973
1769667895138453000,10.730452880859374,0.059013284742832184,-0.38690638542175293,-0.14825011789798737
1769667895148442000,10.740442138671876,0.03751145675778389,-0.3979625105857849,-0.16758573055267334
1769667895158430200,10.75043017578125,0.011606644839048386,-0.39316120743751526,-0.18591925501823425
1769667895168419000,10.760419189453126,-0.00615158025175333,-0.3896405100822449,-0.2025621384382248
1769667895178408200,10.770408203125,-0.027357256039977074,-0.3959108293056488,-0.2134808599948883
1769667895188396000,10.78039599609375,-0.03924374282360077,-0.401686429977417,-0.21248137950897217
1769667895198385000,10.790385009765625,-0.05664223060011864,-0.4084257483482361,-0.2050696760416031
1769667895208374000,10.8003740234375,-0.0802125409245491,-0.41132593154907227,-0.1867186427116394
1769667895218362000,10.810362060546876,-0.09840140491724014,-0.42011845111846924,-0.18346183001995087
1769667895228351200,10.820351318359375,-0.12059645354747772,-0.40769773721694946,-0.18342800438404083
1769667895238340000,10.830340087890624,-0.14428746700286865,-0.3706786334514618,-0.1959298551082611
1769667895248328000,10.840327880859375,-0.15823310613632202,-0.3256283402442932,-0.1861930638551712
1769667895258317000,10.850317138671874,-0.16454824805259705,-0.2597815990447998,-0.1842564344406128
1769667895268306000,10.860305908203125,-0.1626933515071869,-0.19225288927555084,-0.18775023519992828
1769667895278294000,10.8702939453125,-0.1628384292125702,-0.14546562731266022,-0.17924049496650696
1769667895288283100,10.880283203125,-0.1589970886707306,-0.11598389595746994,-0.1693982630968094
1769667895298272300,10.890272216796875,-0.1540381759405136,-0.10563171654939651,-0.15740011632442474
1769667895308259800,10.900259765625,-0.15641692280769348,-0.10037756711244583,-0.14943726360797882
1769667895318249000,10.9102490234375,-0.14872580766677856,-0.1089104637503624,-0.1361662894487381
1769667895328237000,10.920237060546874,-0.14076188206672668,-0.11174246668815613,-0.1268974244594574
1769667895338226200,10.93022607421875,-0.13871312141418457,-0.10101894289255142,-0.12183897197246552
1769667895348215000,10.940215087890625,-0.14418059587478638,-0.1102910041809082,-0.1003752276301384
1769667895358203100,10.950203125,-0.1417432576417923,-0.10169383138418198,-0.0775999203324318
1769667895368192300,10.960192138671875,-0.12806525826454163,-0.09095223993062973,-0.06425482034683228
1769667895378181000,10.97018115234375,-0.11386393755674362,-0.082088902592659,-0.04851582646369934
1769667895388169000,10.9801689453125,-0.09756086766719818,-0.06962477415800095,-0.03569776564836502
1769667895398158000,10.990157958984375,-0.08237572759389877,-0.06101912260055542,-0.010466555133461952
1769667895408147200,11.000147216796876,-0.06966845691204071,-0.04334132745862007,0.019045531749725342
1769667895418135000,11.010135009765625,-0.062772735953331,-0.007596380077302456,0.047341883182525635
1769667895428124200,11.020124267578124,-0.049007922410964966,0.04971298202872276,0.06472593545913696
1769667895438113300,11.03011328125,-0.02718811109662056,0.11150205135345459,0.07399506866931915
1769667895448101000,11.04010107421875,-0.0017069861060008407,0.1957079917192459,0.06999686360359192
1769667895458090000,11.050090087890625,0.02235918864607811,0.2417803406715393,0.0771314948797226
1769667895468079000,11.0600791015625,0.03874695301055908,0.2994002401828766,0.08628051728010178
1769667895478067200,11.070067138671876,0.05268765613436699,0.3326275944709778,0.1094958484172821
1769667895488056000,11.08005615234375,0.06189979985356331,0.3687363266944885,0.13177931308746338
1769667895498045200,11.090045166015624,0.06770442426204681,0.3995988965034485,0.15631075203418732
1769667895508033000,11.100032958984375,0.07419987767934799,0.42734822630882263,0.17168651521205902
1769667895518022100,11.110022216796875,0.0856844037771225,0.44258785247802734,0.18109002709388733
1769667895528010200,11.12001025390625,0.1145235151052475,0.50583416223526,0.15740254521369934
1769667895537999000,11.1299990234375,0.1432052105665207,0.5650829672813416,0.14570942521095276
1769667895547988200,11.13998828125,0.1667366474866867,0.6258605718612671,0.13880331814289093
1769667895557976000,11.14997607421875,0.18026220798492432,0.6274639368057251,0.15555530786514282
1769667895567965000,11.15996484375,0.1762799769639969,0.6082956194877625,0.1868242770433426
1769667895577954000,11.1699541015625,0.14544625580310822,0.4774596095085144,0.25442206859588623
1769667895587942100,11.179942138671874,0.12504057586193085,0.46219730377197266,0.24942386150360107
1769667895597931300,11.18993115234375,0.1072540283203125,0.5253951549530029,0.22436876595020294
1769667895607920000,11.199920166015625,0.10934381186962128,0.5594391226768494,0.2294950932264328
1769667895617908000,11.209907958984376,0.11102602630853653,0.5784969925880432,0.23824536800384521
1769667895627897000,11.21989697265625,0.12423371523618698,0.6001466512680054,0.23434597253799438
1769667895637886000,11.229885986328124,0.13456135988235474,0.6512320041656494,0.22947628796100616
1769667895647874000,11.2398740234375,0.12801824510097504,0.7189018726348877,0.20200976729393005
1769667895657863200,11.24986328125,0.1088273748755455,0.7725198268890381,0.17570200562477112
1769667895667851300,11.259851318359376,0.0844930037856102,0.8177317976951599,0.15565505623817444
1769667895677840100,11.269840087890625,0.06464622914791107,0.8380812406539917,0.13737693428993225
1769667895687829000,11.2798291015625,0.056476980447769165,0.8225704431533813,0.15058007836341858
1769667895697817000,11.289817138671875,0.0607135035097599,0.7605710625648499,0.15961091220378876
1769667895707806200,11.29980615234375,0.09315772354602814,0.6942008137702942,0.15313170850276947
1769667895717795000,11.309795166015626,0.14457492530345917,0.6695622801780701,0.13040682673454285
1769667895727783200,11.319783203125,0.2149665355682373,0.7119513154029846,0.10346336662769318
1769667895737772300,11.329772216796876,0.2813440263271332,0.8045176267623901,0.07236199080944061
1769667895747761000,11.339760986328125,0.34629106521606445,0.878940224647522,0.06073623150587082
1769667895757749000,11.3497490234375,0.39629942178726196,0.9252559542655945,0.06159046292304993
1769667895767738000,11.359738037109375,0.4316592812538147,0.9715155959129333,0.06065196543931961
1769667895777727200,11.369727294921875,0.4554743766784668,0.9894399642944336,0.06692018359899521
1769667895787715000,11.379715087890625,0.4586632549762726,0.9649527668952942,0.10724230110645294
1769667895797704200,11.3897041015625,0.45108070969581604,0.9517406821250916,0.14837506413459778
1769667895807693000,11.399693115234374,0.4400253891944885,0.9360575675964355,0.19920308887958527
1769667895817681200,11.40968115234375,0.42594870924949646,0.9260054230690002,0.2806652784347534
1769667895827670000,11.419669921875,0.4120355546474457,0.9390512108802795,0.36400625109672546
1769667895837658000,11.429658203125,0.41925203800201416,1.014327883720398,0.4051520526409149
1769667895847647200,11.439647216796875,0.4643750488758087,1.1099209785461426,0.4343748986721039
1769667895857636000,11.449635986328126,0.5395818948745728,1.1634058952331543,0.45430606603622437
1769667895867624000,11.4596240234375,0.6455370783805847,1.261243462562561,0.42969608306884766
1769667895877613000,11.469613037109376,0.7851150035858154,1.3550021648406982,0.45573943853378296
1769667895887602200,11.479602294921875,0.8946979641914368,1.4437013864517212,0.46034830808639526
1769667895897590300,11.48959033203125,0.9868929982185364,1.5599446296691895,0.429243266582489
1769667895907579100,11.4995791015625,1.0383007526397705,1.6319218873977661,0.42099782824516296
1769667895917568300,11.509568359375,1.042852759361267,1.6536729335784912,0.43973079323768616
1769667895927556000,11.51955615234375,1.0239781141281128,1.6526708602905273,0.45845067501068115
1769667895937545000,11.529544921875,0.966222882270813,1.6699057817459106,0.48948580026626587
1769667895947534000,11.5395341796875,0.908470630645752,1.633642315864563,0.516305685043335
1769667895957522200,11.549522216796875,0.847987949848175,1.5916167497634888,0.5416880249977112
1769667895967511300,11.55951123046875,0.7962789535522461,1.5557801723480225,0.5947933197021484
1769667895977500200,11.569500244140626,0.747662365436554,1.537652611732483,0.6498100161552429
1769667895987488000,11.579488037109375,0.7123459577560425,1.5566675662994385,0.6744434833526611
1769667895997477000,11.58947705078125,0.7024350762367249,1.5796514749526978,0.6901368498802185
1769667896007466000,11.599466064453125,0.7151740789413452,1.5778567790985107,0.7162088751792908
1769667896017454000,11.6094541015625,0.740799069404602,1.588451862335205,0.7314246892929077
1769667896027443200,11.619443115234375,0.7599685192108154,1.5543650388717651,0.7397984266281128
1769667896037431000,11.62943115234375,0.7707405090332031,1.5004507303237915,0.768064558506012
1769667896047420000,11.639419921875,0.7677215337753296,1.4695031642913818,0.7984744310379028
1769667896057409000,11.649408935546875,0.7777166366577148,1.446395993232727,0.8235979676246643
1769667896067397000,11.659397216796876,0.808865487575531,1.5096746683120728,0.8208357095718384
1769667896077386200,11.66938623046875,0.8745300769805908,1.6541833877563477,0.8396486043930054
1769667896087375000,11.679375,0.9396438002586365,1.7877891063690186,0.8873415589332581
1769667896097363200,11.68936328125,1.0045455694198608,1.8481881618499756,0.949378252029419
1769667896107352000,11.69935205078125,1.061264157295227,1.833972454071045,0.9879909157752991
1769667896117341000,11.7093408203125,1.0928272008895874,1.8013466596603394,0.9817822575569153
1769667896127329000,11.7193291015625,1.0812028646469116,1.763266921043396,0.9271616339683533
1769667896137318100,11.729318115234374,1.0246189832687378,1.7110809087753296,0.845405101776123
1769667896147307300,11.739307373046875,0.9395977854728699,1.6925886869430542,0.7273434400558472
1769667896157295000,11.749295166015624,0.8336973786354065,1.7064037322998047,0.5957449674606323
1769667896167284000,11.759283935546875,0.7560409307479858,1.694704532623291,0.5319278836250305
1769667896177273000,11.769273193359375,0.7309897541999817,1.5965937376022339,0.5724506974220276
1769667896187261200,11.77926123046875,0.7368926405906677,1.4808018207550049,0.6433442831039429
1769667896197250000,11.78925,0.7555961012840271,1.391771912574768,0.7040356397628784
1769667896207239200,11.7992392578125,0.7715486884117126,1.3226348161697388,0.7641818523406982
1769667896217227300,11.809227294921875,0.8234760761260986,1.1893998384475708,0.8396131992340088
1769667896227216100,11.819216064453125,0.9050020575523376,1.1135375499725342,0.9193296432495117
1769667896237204000,11.829203857421875,1.0158185958862305,1.0767375230789185,0.967096745967865
1769667896247193000,11.839193115234375,1.105965495109558,1.0326454639434814,0.9692275524139404
1769667896257182200,11.84918212890625,1.1368592977523804,0.9696716070175171,0.8764406442642212
1769667896267170300,11.85917041015625,1.1226705312728882,0.945379376411438,0.7071049213409424
1769667896277159200,11.8691591796875,1.038818359375,0.915536642074585,0.4814445972442627
1769667896287148300,11.879148193359375,0.8907104134559631,0.7791202068328857,0.28062042593955994
1769667896297136000,11.88913623046875,0.719886302947998,0.5263015031814575,0.18953053653240204
1769667896307125000,11.899125,0.5671806931495667,0.1568441241979599,0.24537383019924164
1769667896317114000,11.909114013671875,0.4575084447860718,-0.19376492500305176,0.37004342675209045
1769667896327102500,11.9191025390625,0.36916178464889526,-0.4609297811985016,0.44785353541374207
1769667896337091300,11.92909130859375,0.30734124779701233,-0.6219490170478821,0.45717954635620117
1769667896347080200,11.939080078125,0.2585478723049164,-0.6695131063461304,0.39146897196769714
1769667896357068300,11.949068359375,0.22363533079624176,-0.6322101354598999,0.2857384979724884
1769667896367057400,11.959057373046875,0.19657334685325623,-0.6094374656677246,0.1993817389011383
1769667896377046300,11.96904638671875,0.17948101460933685,-0.5966406464576721,0.1728188842535019
1769667896387034400,11.979034423828125,0.1807502806186676,-0.45498791337013245,0.1554335057735443
1769667896397023500,11.9890234375,0.15350428223609924,-0.3191279172897339,0.1582559496164322
1769667896407011300,11.99901123046875,0.07023175060749054,-0.2363981306552887,0.15500901639461517
1769667896417000200,12.009000244140625,0.00689275749027729,-0.227006196975708,0.19260108470916748
1769667896426989300,12.0189892578125,-0.0536869652569294,-0.26456448435783386,0.22264553606510162
1769667896436977400,12.028977294921875,-0.1661348044872284,-0.2904373109340668,0.22757022082805634
1769667896446966500,12.038966552734376,-0.2576979994773865,-0.277710884809494,0.24992746114730835
1769667896456955400,12.048955322265625,-0.2595462203025818,-0.15992991626262665,0.31837496161460876
