time,seconds_elapsed,acc_z,acc_y,acc_x,gyro_z,gyro_y,gyro_x
1.76967E+18,0.072579346,0.386792747,-1.39172733,-0.528674915,-0.164967,0.335134625,-0.824145436
1.76967E+18,0.082568359,0.494782582,-1.553679641,-0.507198996,-0.157830194,0.524451077,-0.826584697
1.76967E+18,0.092557373,0.538227756,-1.868044281,-0.389289533,-0.163594604,0.594811499,-0.804487109
1.76967E+18,0.102545166,0.705779787,-2.012642137,-0.294081731,-0.185410172,0.573671222,-0.780691266
1.76967E+18,0.11253418,0.964378116,-2.221338664,-0.302012816,-0.2173215,0.487307578,-0.775135636
1.76967E+18,0.122523438,1.209304478,-2.436156303,-0.380775971,-0.249308273,0.35179913,-0.801176071
1.76967E+18,0.132511475,1.372252814,-2.684287599,-0.527903054,-0.272443444,0.217152625,-0.852682173
1.76967E+18,0.142500244,1.391802733,-2.809231491,-0.606133418,-0.284006596,0.048935603,-0.942245662
1.76967E+18,0.152488281,1.320221014,-2.859775099,-0.625936727,-0.283194602,-0.133192644,-1.125132442
1.76967E+18,0.162477295,1.30038351,-2.628736392,-0.586680529,-0.328694284,-0.327450216,-1.373052478
1.76967E+18,0.172466064,1.195568287,-2.166616893,-0.455977927,-0.301627249,-0.443049252,-1.596806526
1.76967E+18,0.182454346,0.958772624,-1.579644688,0.34449762,-0.284264863,-0.562759995,-1.705983281
1.76967E+18,0.192443359,0.364497329,-1.179170037,0.637420536,-0.301444918,-0.642701209,-1.721837044
1.76967E+18,0.202432617,-0.146157433,-0.956321651,0.759043175,-0.317154884,-0.707715571,-1.745198727
1.76967E+18,0.212420166,-0.189903125,-1.243448155,1.101853573,-0.331148475,-0.666148722,-1.736171603
1.76967E+18,0.22240918,-0.475956447,-1.588670875,1.499400354,-0.392715782,-0.465350151,-1.836673021
1.76967E+18,0.232398438,-0.423490931,-1.90713769,1.485572466,-0.416901022,0.254603744,-1.834791541
1.76967E+18,0.242386475,-1.190632511,-2.384555295,1.625574226,-0.366901428,0.681507707,-1.675519109
1.76967E+18,0.252375244,-0.724359692,-2.756213602,1.015230497,-0.471897632,0.339199901,-1.434791684
1.76967E+18,0.262363281,1.120766947,-2.138308498,-0.038665685,-0.578207731,-0.057837814,-1.221988916
1.76967E+18,0.272352295,2.03835131,-2.281404718,0.102160398,-0.645473599,-0.30275169,-1.021446228
1.76967E+18,0.282341064,2.271546756,-3.130309365,-0.26451033,-0.658972621,-0.377768815,-0.954728663
1.76967E+18,0.292329102,2.448952072,-2.765383582,-0.011199293,-0.709492505,-0.540741205,-0.9904145
1.76967E+18,0.302318359,2.428201545,-2.573241299,-0.302297186,-0.707767129,-0.782348275,-0.98446089
1.76967E+18,0.312307373,1.7268764,-2.397712883,-0.039349137,-0.650535524,-0.939165294,-0.976925969
1.76967E+18,0.32229541,1.345783033,-2.311603456,0.03739698,-0.553617597,-0.882505,-0.97208786
1.76967E+18,0.332284424,0.846140736,-2.596128839,-0.187592364,-0.397808015,-0.659090817,-0.965191066
1.76967E+18,0.342272217,0.160691789,-2.912737458,-0.469555202,-0.235282168,-0.478125483,-0.983284473
1.76967E+18,0.352261475,-0.053007952,-2.862332967,-0.761162505,-0.11458426,-0.394039094,-0.985654652
1.76967E+18,0.362250244,-0.53998366,-2.547677819,-1.123348342,-0.023800688,-0.356117219,-0.97106272
1.76967E+18,0.372238281,-1.159892212,-2.413684944,-1.574899393,0.021799022,-0.242055371,-0.905539632
1.76967E+18,0.382227539,-1.916216191,-2.358200372,-1.669012386,0.008940629,-0.295049578,-0.510703623
1.76967E+18,0.392216309,-2.152439607,-2.441348027,-1.642675437,0.066328555,-0.409714907,-0.301147193
1.76967E+18,0.402204102,-0.780346952,-1.906774702,-0.989530677,0.042262524,-0.360641241,-0.338310868
1.76967E+18,0.412193359,0.082732059,-1.075364794,-0.878769186,-0.015146974,-0.130620837,-0.559220314
1.76967E+18,0.422181396,0.153335289,-1.017626306,-1.016381567,-0.004566463,0.151438385,-0.797480404
1.76967E+18,0.43217041,-0.417032987,-1.256642568,-0.808086169,0.027714511,0.206751183,-1.039285064
1.76967E+18,0.442159424,-0.578114068,-0.790869807,-0.611975568,0.044801842,0.315744728,-1.183978558
1.76967E+18,0.452147217,-1.016881333,-0.872538037,-0.174760647,0.100690678,0.418124378,-1.270047069
1.76967E+18,0.46213623,-1.03250385,-0.346374812,0.480703788,0.110763684,0.397947282,-1.359391689
1.76967E+18,0.472125244,-0.356820219,0.110708446,0.440619615,0.03960482,0.147141442,-1.376704335
1.76967E+18,0.482113281,0.209161221,0.583703559,0.288312792,-0.044787034,-0.281512916,-1.417717099
1.76967E+18,0.492102295,0.792365014,0.993718192,0.056806906,-0.116026059,-0.536862373,-1.369850755
1.76967E+18,0.502090576,0.536240382,0.803358702,-0.287370689,-0.139847234,-0.386890262,-1.293561816
1.76967E+18,0.512079102,-0.250372937,0.657752546,-0.378159359,-0.169809401,-0.111773737,-1.008785367
1.76967E+18,0.522068115,-0.861829596,0.880475844,-0.133349025,-0.248039067,0.117204957,-0.75067848
1.76967E+18,0.532056396,-0.116414549,0.645492783,-0.49754211,-0.296416461,0.148693904,-0.569789112
1.76967E+18,0.54204541,0.467859212,0.665783876,-0.436883351,-0.285569847,-0.211190253,-0.589120865
1.76967E+18,0.552034424,0.835842629,0.497406501,-0.435739588,-0.291504979,-0.527462959,-0.762094021
1.76967E+18,0.562022461,0.483287667,0.379442385,-0.672138944,-0.257866681,-0.414807796,-0.984063804
1.76967E+18,0.57201123,0.082096684,0.304131415,-0.285158273,-0.213619575,-0.24824734,-1.111120105
1.76967E+18,0.581999268,0.268991713,1.038009754,-0.212088945,-0.073968247,-0.118238091,-1.209870219
1.76967E+18,0.591988281,0.356182505,1.829521951,-0.450929996,0.068977453,0.233870417,-1.281431437
1.76967E+18,0.601977295,0.043981181,2.157249346,-0.351617828,0.105372533,-0.155622035,-1.44306767
1.76967E+18,0.611965332,3.077624654,2.963570404,-0.754755999,0.177941546,0.793703318,-0.965242207
1.76967E+18,0.62195459,-1.936865304,3.763011056,0.716479168,0.152276263,1.757227898,-0.594150662
1.76967E+18,0.631943115,-4.626735672,2.487174543,-0.777922355,0.111490212,2.004234552,-0.643356562
1.76967E+18,0.641931152,-0.997350996,0.639821168,-1.449392606,0.017767262,1.984676003,-0.762382984
1.76967E+18,0.65192041,0.397177948,0.627827363,-1.248658291,0.016630625,1.858642697,-0.888470888
1.76967E+18,0.661908447,0.75690324,1.159969662,-0.644124418,0.075631797,1.28808713,-0.940081954
1.76967E+18,0.671897461,0.543829814,0.642229982,-0.807731072,0.147771224,0.902394712,-1.011175632
1.76967E+18,0.681886475,0.765374716,0.313348741,-1.138210104,0.275379866,0.813010752,-1.037172318
1.76967E+18,0.691874268,0.491689292,0.034610126,-0.478162287,0.395734757,0.729460478,-1.009146571
1.76967E+18,0.701863281,0.770059074,-0.026185412,-0.373230817,0.456738204,0.596836388,-0.974541008
1.76967E+18,0.711852295,1.081927221,0.057723875,-0.589682341,0.468779683,0.493780613,-0.900455058
1.76967E+18,0.721840332,1.229545302,0.250549463,-0.408187856,0.43965286,0.469295174,-0.815138102
1.76967E+18,0.73182959,1.332452134,0.287784092,-0.375559114,0.360911995,0.463064462,-0.725701451
1.76967E+18,0.741818359,1.470862242,-0.032205403,-0.569197625,0.261556894,0.372020215,-0.654387534
1.76967E+18,0.751806152,1.648660356,-0.042052843,-0.45750236,0.140584931,0.172712967,-0.608278632
1.76967E+18,0.76179541,1.680011188,-0.187288997,-0.346171983,0.036612436,-0.09191931,-0.597703993
1.76967E+18,0.771783447,1.661696364,-0.415417953,-0.224491185,-0.059082665,-0.344392031,-0.613166869
1.76967E+18,0.781772217,1.484431917,-0.374830507,-0.056738809,-0.153689921,-0.509673536,-0.597433269
1.76967E+18,0.791761475,0.847312994,-0.308367446,0.34366453,-0.192782193,-0.439401239,-0.514642239
1.76967E+18,0.801749268,0.042799862,-0.720156103,0.636375849,-0.197566435,-0.307581514,-0.437070757
1.76967E+18,0.811738281,-0.111044546,-0.682083269,0.652794631,-0.174979106,-0.347484201,-0.372232616
1.76967E+18,0.821727295,0.060237903,-0.3416887,1.097648668,-0.179568633,-0.402418107,-0.395994216
1.76967E+18,0.831715332,0.543318942,-0.279129076,0.970344915,-0.26203689,-0.44433412,-0.474401414
1.76967E+18,0.841704346,0.998500166,0.769614838,0.469100298,-0.333441079,-0.507228255,-0.549571991
1.76967E+18,0.851692627,1.039278751,2.700744813,0.747312113,-0.337455243,-0.556368411,-0.612404764
1.76967E+18,0.861681152,1.209151918,3.135502258,0.908131766,-0.318374068,-0.5422194,-0.617482901
1.76967E+18,0.871670166,1.05624859,2.230083696,0.786352914,-0.330046684,-0.488826185,-0.567448199
1.76967E+18,0.881658447,0.975153777,1.536437999,0.232878051,-0.329833061,-0.471288204,-0.505849719
1.76967E+18,0.891647217,1.155934122,1.151199495,0.02563976,-0.233844727,-0.545971215,-0.468987584
1.76967E+18,0.90163623,1.380011758,1.284840488,-0.050775078,-0.21346122,-0.416910172,-0.337796718
1.76967E+18,0.911624512,0.609132599,0.790882082,0.423336618,-0.241207629,-0.296044469,-0.223226458
1.76967E+18,0.921613525,0.731409318,0.838963684,0.549127774,-0.249629065,-0.318931013,-0.155682579
1.76967E+18,0.931601074,1.188926291,0.77543726,0.663059566,-0.246283606,-0.371682644,-0.121631928
1.76967E+18,0.941590332,1.434643512,0.565317423,0.726471569,-0.262185186,-0.38551864,-0.109880768
1.76967E+18,0.951579346,1.6505016,0.271574715,0.564982638,-0.269891024,-0.444899678,-0.065335676
1.76967E+18,0.961567383,1.765079581,0.119963181,0.280813376,-0.294394404,-0.505052865,-0.01061303
1.76967E+18,0.971556396,1.852663172,0.365070745,-0.074106124,-0.307775438,-0.506845176,0.061349843
1.76967E+18,0.98154541,1.7858833,0.574444148,-0.134687287,-0.317731231,-0.509733558,0.115958162
1.76967E+18,0.991533203,1.710596296,0.956229296,-0.336318698,-0.311058164,-0.490508139,0.145065188
1.76967E+18,1.001522217,1.701401182,1.371955877,-0.457536993,-0.276901603,-0.439964801,0.161935925
1.76967E+18,1.011510254,1.502958923,1.73266492,-0.380664182,-0.234842837,-0.374656916,0.175769717
1.76967E+18,1.021499512,1.347606449,1.846651365,-0.355292132,-0.183710054,-0.315292835,0.186597675
1.76967E+18,1.031488525,1.242303077,1.638625285,-0.184868784,-0.187907457,-0.26873067,0.198541164
1.76967E+18,1.041476563,1.28143974,1.137975272,-0.115972504,-0.222625211,-0.30866605,0.21734412
1.76967E+18,1.051465332,1.278230715,0.739406162,0.144574767,-0.268532217,-0.410229146,0.25077185
1.76967E+18,1.061454346,1.159478079,0.807346895,0.388032372,-0.323958665,-0.482328147,0.250432879
1.76967E+18,1.071442383,1.417906897,1.102952474,0.542958292,-0.370938689,-0.54517585,0.25725323
1.76967E+18,1.081431396,1.415703834,1.29115917,0.608635025,-0.407790124,-0.547228217,0.236797482
1.76967E+18,1.091419434,1.722679532,1.508583193,0.494766654,-0.420776516,-0.526353776,0.196233541
1.76967E+18,1.101408447,1.851039955,1.589064258,0.438326243,-0.38831836,-0.50284934,0.179415777
1.76967E+18,1.111397461,1.923939187,1.557601198,0.336209392,-0.363921165,-0.487503946,0.161882862
1.76967E+18,1.121385254,2.026954156,1.593733419,-0.085205464,-0.316658199,-0.433126211,0.175490141
1.76967E+18,1.131374268,1.783556903,1.507205475,-0.085703476,-0.289497167,-0.330882937,0.17795676
1.76967E+18,1.141363525,1.622924442,1.356552556,-0.174970198,-0.264932513,-0.210276678,0.163185701
1.76967E+18,1.151351563,1.601824371,1.247050564,-0.16713892,-0.237064153,-0.118506014,0.146551073
1.76967E+18,1.161340332,1.461502293,1.163331247,-0.147796068,-0.210331619,-0.080427341,0.123538166
1.76967E+18,1.171328369,1.324471072,1.262315937,-0.203672415,-0.179899678,-0.085649528,0.101185456
1.76967E+18,1.181317383,1.089047867,1.339561674,-0.209231802,-0.150635481,-0.097703099,0.100981399
1.76967E+18,1.191306152,0.789675629,1.152908637,-0.181064423,-0.153029665,-0.100587301,0.104532458
1.76967E+18,1.201294434,0.629192806,0.998237715,-0.273517666,-0.152562827,-0.114652276,0.092556544
1.76967E+18,1.211283447,0.568222497,0.910478768,-0.226627758,-0.139578328,-0.134061396,0.082594454
1.76967E+18,1.221272461,0.464229038,0.794685566,-0.178005182,-0.115882128,-0.177039266,0.069576778
1.76967E+18,1.231260498,0.379053678,0.703970107,-0.156677585,-0.102424107,-0.215177327,0.044868503
1.76967E+18,1.241249268,0.295703194,0.614257687,-0.207011788,-0.083145082,-0.179064706,0.041341152
1.76967E+18,1.251237305,0.136011229,0.492666028,-0.219101308,-0.05708712,-0.152870655,0.0318105
1.76967E+18,1.261226563,0.069524203,0.458627565,-0.291730345,-0.035543706,-0.095670916,0.022710662
1.76967E+18,1.271215332,-0.00199848,0.394688469,-0.364460943,-0.008052692,-0.053064603,0.031310007
1.76967E+18,1.281203125,-0.267305367,0.332570159,-0.376032138,0.019079363,-0.039027985,0.046354678
1.76967E+18,1.291192383,-0.483344073,0.198238845,-0.468296142,0.042336747,0.027508428,0.073471248
1.76967E+18,1.301181152,-0.703712917,0.046587564,-0.362306103,0.046950884,0.078455329,0.060305495
1.76967E+18,1.311169189,-0.708113198,-0.041527358,-0.36192061,0.068253241,0.121773772,0.083821468
1.76967E+18,1.321158447,-0.872238761,-0.212568399,-0.302239756,0.079017662,0.119935997,0.081953965
1.76967E+18,1.331146484,-0.818698894,-0.288781286,-0.402584921,0.071049221,0.104613766,0.089279525
1.76967E+18,1.341135254,-0.898680778,-0.212750186,-0.274587633,0.056852937,0.076375313,0.090103559
1.76967E+18,1.351124268,-0.858323049,-0.342061041,-0.399504637,0.031625077,0.053479318,0.077730782
1.76967E+18,1.361112305,-0.674330755,-0.287448576,-0.405859413,0.015483963,0.016786912,0.071997181
1.76967E+18,1.371101318,-0.578793575,-0.376284797,-0.368248206,0.004659279,0.016887579,0.075877942
1.76967E+18,1.381090332,-0.577695259,-0.46823126,-0.412220034,0.000219558,0.028914178,0.064317323
1.76967E+18,1.391078369,-0.528374471,-0.435855761,-0.401258349,-0.011899688,0.008249646,0.051974371
1.76967E+18,1.401067627,-0.533286792,-0.419507853,-0.473873503,-0.022405343,-0.016065028,0.055245847
1.76967E+18,1.41105542,-0.535987868,-0.389758612,-0.525114884,-0.039596315,-0.0232023,0.059224609
1.76967E+18,1.421044189,-0.483563853,-0.338075771,-0.542896771,-0.057948053,-0.036298718,0.071869388
1.76967E+18,1.431033447,-0.441527377,-0.220735924,-0.447569726,-0.077420548,-0.055160824,0.077998385
1.76967E+18,1.441021484,-0.416544912,-0.141685183,-0.305148483,-0.092004225,-0.081646442,0.075941734
1.76967E+18,1.451010498,-0.356347925,-0.131901456,-0.245759452,-0.098795287,-0.099453136,0.064912781
1.76967E+18,1.460999512,-0.429993007,-0.079895959,-0.220932908,-0.103363574,-0.116030507,0.063784204
1.76967E+18,1.470987305,-0.479546434,-0.038918052,-0.233637345,-0.103261575,-0.124355808,0.063807376
1.76967E+18,1.480976318,-0.507341035,0.083753219,-0.263484494,-0.082283482,-0.104167372,0.061810847
1.76967E+18,1.4909646,-0.483256979,0.227849555,-0.253601982,-0.052354872,-0.046902485,0.050689485
1.76967E+18,1.500953369,-0.418458636,0.185399237,-0.278762435,-0.010811023,0.022555584,0.024214743
1.76967E+18,1.510942383,-0.300607333,0.175104053,-0.312733532,0.026768308,0.091942921,-0.008960787
1.76967E+18,1.52093042,-0.198914553,0.221499894,-0.258618495,0.053400319,0.135913208,-0.039484065
1.76967E+18,1.530919434,-0.161020583,0.382953023,-0.166618111,0.076201499,0.143713877,-0.063630149
1.76967E+18,1.540908203,-0.078763156,0.470696773,-0.110240244,0.102259837,0.156264558,-0.085656546
1.76967E+18,1.550896484,-0.017619243,0.499400305,-0.079289079,0.121294513,0.16490598,-0.109752826
1.76967E+18,1.560885498,0.035201077,0.455872713,-0.128543816,0.135411233,0.16150707,-0.134209663
1.76967E+18,1.570873291,0.110658762,0.408451622,-0.139980133,0.156132489,0.1564468,-0.147302285
1.76967E+18,1.580862305,0.169843941,0.516994414,-0.164820852,0.179117337,0.190587372,-0.143798143
1.76967E+18,1.590851318,0.117514619,0.654110974,-0.282851896,0.205177426,0.236590281,-0.143045545
1.76967E+18,1.600839355,0.118376204,0.803736888,-0.236845639,0.23685351,0.302264571,-0.132610023
1.76967E+18,1.610828369,0.103915717,0.749108641,-0.125616238,0.245617166,0.35388276,-0.138666853
1.76967E+18,1.620817383,0.225651753,0.673306673,-0.106302612,0.23445949,0.372682273,-0.136198968
1.76967E+18,1.63080542,0.234266437,0.491189526,0.035297669,0.202966809,0.350961,-0.124914102
1.76967E+18,1.640794434,0.273168706,0.251948224,0.053243076,0.169629335,0.3139624,-0.10929431
1.76967E+18,1.650782471,0.36647009,0.216714998,0.173678405,0.130972221,0.251357079,-0.095942289
1.76967E+18,1.66077124,0.38236441,0.186322198,0.227940448,0.099505685,0.18021217,-0.083987758
1.76967E+18,1.670760498,0.326502237,0.111480599,0.244552122,0.07211028,0.121898524,-0.085641578
1.76967E+18,1.680748535,0.215891406,0.059541738,0.201645731,0.044731863,0.084939338,-0.083764985
1.76967E+18,1.690737305,0.03583996,-0.047339259,0.08882117,0.024864681,0.082112655,-0.088145353
1.76967E+18,1.700726318,-0.102405897,-0.086377722,-0.000731529,0.013577346,0.107180871,-0.093225464
1.76967E+18,1.710714355,-0.220256031,-0.055821256,-0.093055739,0.006943943,0.141811296,-0.097070001
1.76967E+18,1.720703125,-0.284274038,-0.014440613,-0.094154494,-0.001195266,0.162839964,-0.099519469
1.76967E+18,1.730691406,-0.319462256,-0.055368251,-0.023098552,-0.01409908,0.1679077,-0.102382369
1.76967E+18,1.74068042,-0.329039647,-0.161458974,0.08500848,-0.029761583,0.158750072,-0.10399241
1.76967E+18,1.750669678,-0.326869901,-0.259914088,0.169114019,-0.053326566,0.139017656,-0.106655836
1.76967E+18,1.760657471,-0.353785965,-0.272158068,0.214818809,-0.07173378,0.122012652,-0.102854475
1.76967E+18,1.77064624,-0.354099854,-0.312296602,0.235370744,-0.083161935,0.113009304,-0.102574311
1.76967E+18,1.780635498,-0.312063962,-0.313410116,0.218756294,-0.092745006,0.107688747,-0.106617898
1.76967E+18,1.790623535,-0.263781869,-0.334110374,0.232397574,-0.095602579,0.089422926,-0.119521447
1.76967E+18,1.800612305,-0.207372584,-0.33638884,0.325821123,-0.104803801,0.047624081,-0.129627869
1.76967E+18,1.810600098,-0.128920394,-0.294456994,0.298176452,-0.106473334,0.010547816,-0.127593219
1.76967E+18,1.820589355,-0.057214756,-0.195835291,0.290505626,-0.103581898,-0.019364713,-0.127325118
1.76967E+18,1.830578369,0.112242816,-0.138121353,0.257114082,-0.091351599,-0.045599245,-0.131817877
1.76967E+18,1.840566162,0.149877842,-0.151176065,0.230271668,-0.079004481,-0.0581217,-0.125510246
1.76967E+18,1.85055542,0.073822777,-0.09073884,0.122611796,-0.060387388,-0.052204955,-0.100403033
1.76967E+18,1.860544434,-0.006147417,0.051885086,-0.04654124,-0.028211072,-0.019206056,-0.069268033
1.76967E+18,1.870532471,-0.065717212,0.175856333,-0.030875031,-0.000502479,0.025321197,-0.052418217
1.76967E+18,1.88052124,0.005154899,0.200731247,-0.004500965,0.018758638,0.058464289,-0.042604055
1.76967E+18,1.890510254,0.011433833,0.22454233,0.077776775,0.028064521,0.077914417,-0.03116658
1.76967E+18,1.900498535,-0.031495793,0.282470203,0.211433404,0.022369396,0.092978358,-0.008591069
1.76967E+18,1.910487305,-0.046306409,0.33743455,0.307265622,0.014674724,0.097878039,0.020537255
1.76967E+18,1.920475098,0.011751228,0.306885098,0.321868001,-0.001657093,0.09697897,0.045605276
1.76967E+18,1.930464355,0.114226683,0.268596576,0.279528158,-0.019978577,0.10105361,0.066438913
1.76967E+18,1.940453369,0.216279529,0.337668943,0.242457049,-0.032656439,0.128998846,0.087061964
1.76967E+18,1.950441406,0.339669762,0.407544444,0.171420981,-0.035851434,0.193155453,0.104812995
1.76967E+18,1.96043042,0.416719099,0.443406031,0.123055302,-0.03351187,0.207935974,0.120198667
1.76967E+18,1.970418457,0.486383587,0.294166486,0.13059578,-0.035066891,0.224823356,0.145725861
1.76967E+18,1.980407227,0.355250777,0.212190214,0.172196495,-0.046839807,0.224001721,0.166177079
1.76967E+18,1.99039624,0.291589329,0.075661682,0.194647397,-0.072284453,0.216617048,0.182907328
1.76967E+18,2.000384277,0.331806773,0.060512629,0.227564455,-0.096186876,0.180784479,0.19778645
1.76967E+18,2.010373291,0.526325137,-0.122967039,0.258289409,-0.122335918,0.148434788,0.18500115
1.76967E+18,2.020362549,0.825456552,-0.376664737,0.283370951,-0.150882974,0.094664015,0.162027612
1.76967E+18,2.030350342,0.952977601,-0.514749265,0.349396206,-0.187795445,0.02946664,0.157586783
1.76967E+18,2.040339111,0.823939133,-0.521651884,0.236912129,-0.234905392,-0.046091937,0.167491272
1.76967E+18,2.050327393,0.671940061,-0.450937011,0.098028266,-0.277492285,-0.084428936,0.182082459
1.76967E+18,2.060316406,0.530130959,-0.388509488,0.030315059,-0.315103054,-0.08833354,0.19122164
1.76967E+18,2.070305176,0.463057656,-0.414417836,-0.007932108,-0.354579091,-0.136810005,0.204462871
1.76967E+18,2.080293457,0.332266207,-0.42745852,0.023084377,-0.400814354,-0.219525769,0.218593672
1.76967E+18,2.090282471,0.206582895,-0.426246221,0.036762774,-0.444832683,-0.304563433,0.214868441
1.76967E+18,2.100270996,0.230855751,-0.49601417,0.041831528,-0.479544491,-0.344939321,0.207090437
1.76967E+18,2.110259277,0.1752911,-0.437583023,-0.015261501,-0.502772331,-0.345280468,0.211725131
1.76967E+18,2.120248291,0.015818331,-0.315433731,-0.152113712,-0.517500222,-0.353605121,0.20952794
1.76967E+18,2.130236328,0.012865327,-0.382725644,-0.27275881,-0.521452308,-0.359166861,0.18648307
1.76967E+18,2.140225342,-0.043925066,-0.196084298,-0.21068412,-0.506841898,-0.406653404,0.160580128
1.76967E+18,2.150214355,-0.088813425,-0.153009711,-0.192918892,-0.499106169,-0.411949903,0.130741537
1.76967E+18,2.160202148,-0.079946812,-0.269461084,-0.454098909,-0.459207028,-0.334336221,0.103140905
1.76967E+18,2.170191406,-0.210282919,-0.291143924,-0.614568068,-0.376923054,-0.239920244,0.052538723
1.76967E+18,2.180180176,-0.281900879,0.056055649,-0.54999199,-0.287519813,-0.151014969,-0.010689025
1.76967E+18,2.190168213,-0.387488913,0.043311903,-0.733954984,-0.225821555,-0.08744584,-0.045345806
1.76967E+18,2.200157471,-0.587789952,-0.018306641,-0.74813417,-0.183780998,-0.016528282,-0.037128638
1.76967E+18,2.21014624,-0.657016633,-0.077097853,-0.680376831,-0.145229086,0.048953522,-0.015867826
1.76967E+18,2.220134033,-0.395099388,-0.00247545,-0.545461287,-0.106477156,0.087580808,-0.006792039
1.76967E+18,2.230123291,-0.03958616,0.122650228,-0.417757941,-0.063307315,0.098740518,-0.004864444
1.76967E+18,2.240111328,0.144728204,0.192207748,-0.311615999,-0.029734692,0.101662353,-0.004472188
1.76967E+18,2.250100586,0.120200497,0.202412332,-0.255831349,-0.014636168,0.132088438,-0.002113958
1.76967E+18,2.260089355,-0.023463293,0.202830849,-0.158307452,-0.008374973,0.149836481,0.00603829
1.76967E+18,2.270077148,-0.068595397,0.164483291,-0.122305506,-0.011060505,0.151288435,0.038736582
1.76967E+18,2.280066406,0.037700493,0.184940972,-0.164612178,-0.016513405,0.1238252,0.063501216
1.76967E+18,2.290055176,0.251187761,0.235244342,-0.073365973,-0.026895206,0.075285621,0.074084081
1.76967E+18,2.300043213,0.3444342,0.211783387,-0.002571093,-0.043286122,0.030888695,0.087301806
1.76967E+18,2.310032471,0.320305721,0.051538464,0.071537881,-0.076409459,-0.012275819,0.112294242
1.76967E+18,2.320020508,0.332805137,-0.03758125,0.200570722,-0.106402092,-0.080853105,0.134261549
1.76967E+18,2.330009033,0.435566423,-0.047382513,0.208498008,-0.139931828,-0.132843331,0.144663587
1.76967E+18,2.339998291,0.501190111,-0.10932839,0.07742577,-0.178161964,-0.166188598,0.155437827
1.76967E+18,2.349986328,0.431187769,-0.153126615,0.02987769,-0.216204435,-0.232239515,0.1675331
1.76967E+18,2.359975342,0.355475234,-0.079734046,0.063478931,-0.246699974,-0.286297172,0.142206624
1.76967E+18,2.369963623,0.303797653,-0.158663206,0.08808343,-0.279580712,-0.320352077,0.123898186
1.76967E+18,2.379952393,0.080436642,-0.317984,0.079869509,-0.29601568,-0.349288076,0.131022841
1.76967E+18,2.389941406,-0.078635145,-0.176173729,0.050001902,-0.338214815,-0.35388577,0.136173397
1.76967E+18,2.399929443,-0.097122404,-0.096671153,0.038016354,-0.417404562,-0.364027888,0.108286895
1.76967E+18,2.409918213,0.164724698,-0.423124875,-0.043837827,-0.430040717,-0.390383869,0.093075454
1.76967E+18,2.419907227,0.183393743,-0.29075697,-0.004691665,-0.403552324,-0.422010422,0.072165832
1.76967E+18,2.429895508,0.187031223,0.046731356,0.045762365,-0.382467031,-0.436561108,0.037472297
1.76967E+18,2.439884521,0.132737907,-0.013663199,-0.131048858,-0.398943931,-0.448382616,0.022770707
1.76967E+18,2.449873291,-0.015228549,-0.084702483,-0.179647396,-0.435034305,-0.450943261,0.020232711
1.76967E+18,2.459861328,-0.097355043,-0.153689509,-0.149340374,-0.455416769,-0.452178687,0.003831052
1.76967E+18,2.469850342,0.064041387,-0.173360425,-0.024755525,-0.457405895,-0.448766917,-0.029997218
1.76967E+18,2.479838379,0.238178057,-0.15564532,-0.025506563,-0.440341353,-0.427238464,-0.050268281
1.76967E+18,2.489827393,0.076775197,-0.088894089,0.023761253,-0.444619209,-0.450436443,-0.055236142
1.76967E+18,2.499816406,0.02965338,-0.204922853,-0.071584204,-0.472828746,-0.494967729,-0.064754494
1.76967E+18,2.509804199,-0.034509003,-0.088027828,-0.031869083,-0.516740263,-0.527956009,-0.055866722
1.76967E+18,2.519793213,-0.15912907,-0.02860767,0.108204573,-0.538903534,-0.536168337,-0.065830633
1.76967E+18,2.529782227,-0.046972179,-0.149749832,0.19937574,-0.548694134,-0.510616601,-0.066288695
1.76967E+18,2.539770264,-0.035331426,-0.117499421,0.21637466,-0.558664024,-0.520789742,-0.073178872
1.76967E+18,2.549759521,0.038445758,-0.198762577,0.112085653,-0.563750684,-0.528673768,-0.077080667
1.76967E+18,2.559747314,0.027093759,-0.064671502,0.134713226,-0.508511126,-0.48978132,-0.082957968
1.76967E+18,2.569736084,-0.151243285,0.037637364,0.06346366,-0.465988964,-0.435166806,-0.095176548
1.76967E+18,2.579725342,-0.230353062,0.025124504,-0.265368116,-0.421674043,-0.378462791,-0.094412297
1.76967E+18,2.589713379,-0.50946811,0.019808278,-0.337228433,-0.3661879,-0.299730152,-0.085864343
1.76967E+18,2.599702393,-0.605699118,-0.015018705,-0.442847008,-0.298832357,-0.223013446,-0.088871211
1.76967E+18,2.609691406,-0.563177488,0.150268303,-0.437822677,-0.228202403,-0.134149075,-0.097992271
1.76967E+18,2.619679443,-0.489873183,0.261088392,-0.513213507,-0.15601708,-0.042829711,-0.108418681
1.76967E+18,2.629668457,-0.34848669,0.225335527,-0.553009219,-0.083195612,0.02336289,-0.120595448
1.76967E+18,2.63965625,-0.318536957,0.205092364,-0.684782664,-0.002274872,0.085613452,-0.140649945
1.76967E+18,2.649645264,-0.394753936,0.322528657,-0.775938049,0.062873505,0.124879368,-0.152634963
1.76967E+18,2.659634521,-0.461203553,0.435897847,-0.785548685,0.110406548,0.16994828,-0.157309905
1.76967E+18,2.669622559,-0.422758379,0.370409768,-0.606280644,0.139181212,0.201838568,-0.161359772
1.76967E+18,2.679611328,-0.17402678,0.256243875,-0.328393969,0.152331635,0.209778726,-0.160837278
1.76967E+18,2.689600342,0.002867664,0.171714996,-0.163890512,0.153907686,0.195492998,-0.159947246
1.76967E+18,2.699588379,0.080366499,0.105473468,-0.017582565,0.150887847,0.177950203,-0.160625085
1.76967E+18,2.709577148,0.0958008,0.083356329,0.022269626,0.153033823,0.167441636,-0.159951046
1.76967E+18,2.71956543,0.018542788,0.086983287,-0.012588848,0.152427033,0.177610785,-0.154531837
1.76967E+18,2.729554443,-0.087458503,0.049090486,-0.03764416,0.139627084,0.196325079,-0.150688633
1.76967E+18,2.739543457,-0.082977558,0.01334405,-0.074842548,0.12287759,0.198129177,-0.141596437
1.76967E+18,2.74953125,0.03124854,0.005086509,-0.072558967,0.109358855,0.173423037,-0.127579957
1.76967E+18,2.759520264,0.188743287,0.014088731,-0.0184904,0.110576428,0.133529797,-0.121962495
1.76967E+18,2.769509277,0.325392815,0.024485037,-0.092784886,0.121847458,0.094288923,-0.121761687
1.76967E+18,2.779497559,0.284202142,0.003814005,-0.193356042,0.133860946,0.096960314,-0.116737314
1.76967E+18,2.789486328,0.063562664,-0.004418401,-0.284471168,0.150103033,0.129062578,-0.124537453
1.76967E+18,2.799475342,-0.046259647,-0.019890111,-0.38827451,0.161302224,0.1632649,-0.137105048
1.76967E+18,2.809463379,-0.111819037,0.017162732,-0.419936454,0.168315396,0.202500984,-0.151453108
1.76967E+18,2.819452148,-0.151597506,0.097877021,-0.402270303,0.177902266,0.230449677,-0.153808713
1.76967E+18,2.829440186,-0.042072132,0.097895726,-0.395414372,0.185320765,0.246707737,-0.146578491
1.76967E+18,2.839429443,0.1553817,0.07197218,-0.292905965,0.178304359,0.26938048,-0.131552592
1.76967E+18,2.849418457,0.281519186,0.060284081,-0.178893436,0.158535451,0.250438988,-0.117824003
1.76967E+18,2.85940625,0.434696654,-0.045873278,-0.081127839,0.126490518,0.195631593,-0.114404663
1.76967E+18,2.869395264,0.520080689,-0.152930216,0.07140534,0.094067849,0.127118587,-0.111523926
1.76967E+18,2.879384277,0.45517947,-0.177483058,0.154376104,0.067330077,0.068023637,-0.108189285
1.76967E+18,2.889372314,0.362665437,-0.196797414,0.116749114,0.053061392,0.032879233,-0.100688763
1.76967E+18,2.899361328,0.194783152,-0.100135029,0.073090005,0.040646803,0.025075573,-0.08974079
1.76967E+18,2.909349365,-0.003231822,-0.019444705,0.045813657,0.026727259,0.020247264,-0.087236352
1.76967E+18,2.919338379,-0.085775665,0.00991466,0.079542104,0.003424293,-0.00710663,-0.087283388
1.76967E+18,2.929327393,-0.038109074,0.021041619,0.13337299,-0.024033431,-0.069129787,-0.078780979
1.76967E+18,2.93931543,0.020070728,-0.003950783,0.083849957,-0.036862697,-0.123497181,-0.054936312
1.76967E+18,2.949304688,0.052239306,-0.008017302,0.096031978,-0.030551273,-0.13533625,-0.045116708
1.76967E+18,2.959293701,0.102483638,-0.042483051,0.047215998,-0.015943507,-0.079602301,-0.054189969
1.76967E+18,2.969281494,0.105140875,-0.1009896,-0.019928324,0.003693046,-0.025254376,-0.06219703
1.76967E+18,2.979270508,-0.045485155,-0.018963059,-0.112026324,0.019257359,0.022090502,-0.059665158
1.76967E+18,2.989258545,-0.223016728,0.014119711,-0.17483437,0.028227683,0.060876515,-0.067682341
1.76967E+18,2.999247559,-0.218922737,0.001588146,-0.185446292,0.022921398,0.054786708,-0.082236625
1.76967E+18,3.009236572,-0.181494047,0.007521043,-0.030537689,0.017331423,0.011739638,-0.088403441
1.76967E+18,3.019224365,-0.170543614,0.004015665,0.069702263,0.010118544,-0.054238558,-0.089020558
1.76967E+18,3.029213379,-0.072440382,-0.042149873,0.071741879,0.007314502,-0.078733511,-0.085627958
1.76967E+18,3.039202637,-0.005467033,-0.126965753,0.088460081,0.006831751,-0.056077544,-0.082758032
1.76967E+18,3.04919043,0.053556234,-0.142190795,0.077080609,0.010907719,-0.032815896,-0.073417
1.76967E+18,3.059179443,0.050276481,-0.070421444,0.094639866,-4.07632E-05,-0.054133072,-0.044177435
1.76967E+18,3.069167725,-0.126460726,-0.102853056,-0.007760843,0.00035951,-0.053503502,-0.065294176
1.76967E+18,3.079156494,0.122339262,0.010569325,0.071668375,0.006921517,-0.044252764,-0.077982217
1.76967E+18,3.089145264,0.053646835,-0.043600072,0.121934481,0.007758548,-0.049645662,-0.075892173
1.76967E+18,3.099133545,-0.063642159,-0.054267597,-0.063799834,0.007814039,-0.055585839,-0.078595743
1.76967E+18,3.109122559,-0.035395723,-0.06615268,-0.084223248,0.007727752,-0.05405958,-0.085857116
1.76967E+18,3.119111328,0.004165888,-0.05826748,-0.11100531,0.009956148,-0.036853001,-0.091956273
1.76967E+18,3.129099609,0.032014848,-0.033261634,-0.0879571,0.013022245,-0.023588063,-0.086357512
1.76967E+18,3.139088379,0.046918403,0.010437807,-0.086729531,0.016381653,-0.020484142,-0.084416792
1.76967E+18,3.149077393,0.094794837,0.017332243,-0.046565352,0.01641361,-0.021340881,-0.078800984
1.76967E+18,3.159065674,0.05849369,0.015062545,-0.043659401,0.009438163,-0.025934841,-0.074133068
1.76967E+18,3.169054443,0.077382515,0.01634557,-0.063833882,-0.002426219,-0.037073247,-0.063908391
1.76967E+18,3.17904248,0.106157943,0.031317514,-0.055341948,-0.012587448,-0.055753075,-0.052908875
1.76967E+18,3.189031738,0.158918642,0.015132687,-0.064469915,-0.027572788,-0.087510206,-0.046790794
1.76967E+18,3.199020264,0.20706571,-0.01550795,-0.011870105,-0.040661395,-0.131752074,-0.038347036
1.76967E+18,3.209008301,0.19784137,-0.042275546,0.037578547,-0.044137351,-0.166328162,-0.024887953
1.76967E+18,3.218997559,0.126377724,-0.049509589,-0.004026771,-0.039372321,-0.162326008,-0.020426311
1.76967E+18,3.228986328,0.09425357,-0.056070847,-0.051370999,-0.029453112,-0.124525376,-0.019681957
1.76967E+18,3.238974365,0.024714755,-0.043345805,-0.109625327,-0.020584015,-0.122872576,0.009188386
1.76967E+18,3.248963623,-0.202545018,-0.102849549,-0.187794827,-0.020658052,-0.108149022,-0.013245018
1.76967E+18,3.258951416,0.046941199,0.017711013,-0.257207971,0.00084871,-0.062176902,-0.040810879
1.76967E+18,3.26894043,0.12188392,0.001610942,-0.082370459,0.011156209,-0.05195063,-0.039396208
1.76967E+18,3.278929443,-0.054888359,0.005976152,-0.144725136,0.012229406,-0.053522605,-0.033010904
1.76967E+18,3.28891748,-0.044824061,-0.037442719,-0.136951433,0.020001575,-0.040137291,-0.036402706
1.76967E+18,3.298906738,0.101304073,-0.053009706,-0.132686688,0.023605857,-0.028120672,-0.036130443
1.76967E+18,3.308895508,0.134620652,-0.007254501,-0.140534698,0.02687116,-0.030595282,-0.035462789
1.76967E+18,3.318883301,0.106481768,0.028783027,-0.152049487,0.030061914,-0.035999883,-0.036464456
1.76967E+18,3.328872559,0.084743399,0.006435586,-0.145176679,0.040507901,-0.034188934,-0.038815498
1.76967E+18,3.338860596,0.056805591,-0.005291092,-0.131048785,0.044149905,-0.011576994,-0.026471756
1.76967E+18,3.348849365,0.020205168,-0.034123219,-0.146545191,0.041073155,0.002282096,-0.0191462
1.76967E+18,3.358838623,0.053122518,-0.081343235,-0.13178046,0.032040969,-0.001528814,-0.022592966
1.76967E+18,3.368826416,0.118223644,-0.129217916,-0.076205361,0.020174988,-0.018083025,-0.026349619
1.76967E+18,3.37881543,0.117647305,-0.136513918,-0.042624578,0.010291161,-0.047077548,-0.033205867
1.76967E+18,3.388804443,0.070060209,-0.107048754,-0.039467064,0.006317192,-0.058186393,-0.030318202
1.76967E+18,3.39879248,-0.003396657,-0.074994743,-0.070322806,0.00729442,-0.051329203,-0.026694397
1.76967E+18,3.408781494,-0.061366031,-0.097188455,-0.050542439,-0.00624589,-0.075378872,0.011073221
1.76967E+18,3.418769775,-0.274925779,-0.127121821,-0.139566292,0.006693944,-0.020672174,-0.027499588
1.76967E+18,3.428758545,0.233583715,0.038681321,-0.060227966,0.025099317,0.029482074,-0.05789531
1.76967E+18,3.438747314,0.345341378,0.049839259,0.012160978,0.026596362,0.019220043,-0.042800948
1.76967E+18,3.448735596,0.149704824,0.045758712,-0.148080803,0.026203014,0.006760178,-0.027510144
1.76967E+18,3.458724609,0.108327688,0.04615151,-0.108210126,0.019712055,-0.003465453,-0.02826429
1.76967E+18,3.468713379,0.166176066,0.017186113,-0.017869565,0.010260496,-0.026565446,-0.021393334
1.76967E+18,3.47870166,0.127573656,-0.00420505,0.049027431,0.007811601,-0.034242298,-0.015837466
1.76967E+18,3.488690674,0.109752753,0.003944354,0.015695582,0.011136292,-0.021065509,-0.013761532
1.76967E+18,3.498679199,0.046698038,-0.030929976,-0.00279891,0.014593397,-0.004081291,-0.015048218
1.76967E+18,3.50866748,-0.051100657,-0.039302083,-0.015981705,0.016507145,0.003637881,-0.016863426
1.76967E+18,3.518656494,-0.095426706,0.005661095,-0.020254487,0.021177858,0.011432003,-0.020118212
1.76967E+18,3.528644531,-0.048208443,0.040706104,-0.028437721,0.024362201,0.014726333,-0.021616507
1.76967E+18,3.538633545,0.014597265,0.063514149,-0.028855435,0.025477776,0.010695089,-0.016630484
1.76967E+18,3.548622559,0.063955463,0.074915248,-0.072265245,0.029434435,0.001846736,-0.015372407
1.76967E+18,3.558610352,0.145578099,0.052580082,-0.098635073,0.035667457,-0.000845402,-0.014593206
1.76967E+18,3.568599609,0.135830612,0.035022798,-0.123345809,0.043345351,-0.003317881,-0.018806327
1.76967E+18,3.578588379,0.027017186,0.018400165,-0.11428477,0.045575153,-0.005954188,-0.024006039
1.76967E+18,3.588576416,-0.068757894,-0.030971477,-0.085581676,0.05307062,-0.014740224,-0.034494631
1.76967E+18,3.598565674,-0.090326752,-0.083447514,-0.03679368,0.047400862,-0.013205891,-0.038918898
1.76967E+18,3.608553467,-0.147616912,-0.060525488,-0.015330183,0.039467569,-0.005705365,-0.037035778
1.76967E+18,3.618542236,-0.146027012,-0.039539983,0.015881679,0.034134623,-0.009647219,-0.032039747
1.76967E+18,3.628531494,-0.037902153,-0.01160159,0.041626142,0.029643735,-0.037001878,-0.030748377
1.76967E+18,3.638519531,0.011872224,0.079548753,0.105387982,0.027985886,-0.055971999,-0.020632571
1.76967E+18,3.648508301,-0.002205986,0.072122402,0.097402974,0.021835849,-0.054527763,-0.016413592
1.76967E+18,3.658497559,-0.030306291,0.051082537,0.064224196,0.019742047,-0.06211593,-0.019043406
1.76967E+18,3.668485352,0.003880641,0.01781272,0.028565804,0.02769611,-0.064407051,-0.025739925
1.76967E+18,3.678474609,-0.021994974,-0.007673603,-0.036396425,0.025721069,-0.092222266,0.007659662
1.76967E+18,3.688462646,-0.270914205,-0.072796356,-0.147284538,0.03374517,-0.072479457,-0.013999295
1.76967E+18,3.698451416,-0.005959785,0.090329675,-0.090914489,0.053240813,-0.001822216,-0.044940643
1.76967E+18,3.708440674,0.106290629,-0.079824063,0.019736089,0.052532945,0.006575796,-0.037890721
1.76967E+18,3.718428711,-0.121420979,-0.161852358,-0.110663219,0.041150309,-0.014951679,-0.032412041
1.76967E+18,3.728417236,-0.081767598,-0.148324183,-0.059065206,0.030182347,-0.026110059,-0.037438225
1.76967E+18,3.738406494,0.104237204,-0.188912214,0.035768867,0.017149964,-0.030373733,-0.035214327
1.76967E+18,3.748394531,0.111947632,-0.129594348,0.087796138,0.006437666,-0.051842809,-0.030867785
1.76967E+18,3.758383545,0.121312258,-0.107623339,0.077250267,0.005744133,-0.054927245,-0.026790936
1.76967E+18,3.768372559,0.100954529,-0.084519527,0.051719593,0.010234223,-0.045363568,-0.024639901
1.76967E+18,3.778360596,0.005756956,-0.092654318,-0.008939386,0.009749946,-0.023225328,-0.02441597
1.76967E+18,3.788349365,-0.06983926,-0.021912557,-0.052217825,0.008294262,-0.012520486,-0.015619814
1.76967E+18,3.798337646,-0.015578093,0.043796472,-0.078720559,0.016722497,-0.013057748,-0.009037533
1.76967E+18,3.808326416,0.099990068,0.098354576,-0.076318101,0.02503955,0.005937248,-0.008998117
1.76967E+18,3.81831543,0.097736152,0.143586049,0.019896614,0.030059539,-0.005275845,-0.000763745
1.76967E+18,3.828303711,0.095080084,0.138100311,0.144270232,0.035268951,-0.032637961,0.005720786
1.76967E+18,3.83829248,0.121203536,0.063925652,0.234349658,0.036763284,-0.061714921,0.005463171
1.76967E+18,3.84828125,0.173920397,0.002018939,0.241173586,0.038138807,-0.085833579,0.000452167
1.76967E+18,3.858269531,0.171100079,-0.050769233,0.142299443,0.034732282,-0.094023854,-0.002910198
1.76967E+18,3.868258545,0.179721192,-0.047520461,-0.003745105,0.029954305,-0.094150089,-0.001493662
1.76967E+18,3.878247314,0.140282915,0.005551204,-0.075834847,0.029181989,-0.095761567,0.004032663
1.76967E+18,3.888235596,0.090271807,0.053289692,-0.099332554,0.033424404,-0.097658798,0.016443793
1.76967E+18,3.898224609,0.052489481,0.052071548,-0.110845443,0.042747784,-0.097219303,0.026658779
1.76967E+18,3.908211914,0.017387188,0.058346391,-0.147963752,0.054772757,-0.079474397,0.027588222
1.76967E+18,3.918201172,0.004558686,0.102649058,-0.196090508,0.067424864,-0.045099743,0.014647739
1.76967E+18,3.928189941,0.027222938,0.115858084,-0.236346896,0.079410151,-0.010119385,-0.007280996
1.76967E+18,3.938177979,0.009588497,0.081755908,-0.291863835,0.090752654,0.009587747,-0.022448692
1.76967E+18,3.948167236,-0.113852589,0.072855393,-0.218824829,0.093363345,-0.000856106,-0.014634712
1.76967E+18,3.958156006,-0.287898658,-0.034039632,-0.102192912,0.086270131,-0.059250087,0.00308627
1.76967E+18,3.968143799,-0.433537547,-0.141189509,-0.031244156,0.085416853,-0.032142572,-0.039034549
1.76967E+18,3.978133057,-0.078870708,-0.124143682,0.362034519,0.066925712,0.01086101,-0.061136365
1.76967E+18,3.988121094,-0.211657714,-0.22759938,0.353980903,0.047010329,-0.004732597,-0.061741702
1.76967E+18,3.998109863,-0.171534378,-0.261000714,0.15974238,0.037010051,-0.030865347,-0.069860652
1.76967E+18,4.008099121,0.078123689,-0.209115044,0.035484278,0.030044289,-0.046796642,-0.082272314
1.76967E+18,4.018086914,0.234742822,-0.202328745,-0.089124756,0.02411636,-0.057173382,-0.092565961
1.76967E+18,4.028075928,0.193302558,-0.215647076,-0.199791628,0.017861659,-0.059418958,-0.107355565
1.76967E+18,4.038064941,0.054724693,-0.224133165,-0.275909749,0.019191748,-0.061284024,-0.119104058
1.76967E+18,4.048052979,-0.076760584,-0.163083361,-0.324308526,0.027576977,-0.048773289,-0.131523177
1.76967E+18,4.058041992,-0.154151282,-0.073994626,-0.342060091,0.037032377,-0.02258368,-0.138185829
1.76967E+18,4.068031006,-0.204248315,-0.069039049,-0.268104774,0.038447846,0.001700886,-0.139628202
1.76967E+18,4.078018799,-0.118215461,-0.139984225,-0.172240188,0.029142836,-0.002608387,-0.142247558
1.76967E+18,4.088008057,-0.020600305,-0.199643451,-0.160009214,0.021848971,-0.016779335,-0.149004266
1.76967E+18,4.097996094,0.039533553,-0.195238494,-0.19583478,0.015813548,-0.014156441,-0.156554282
1.76967E+18,4.107984863,-0.02207973,-0.193219556,-0.236497995,0.01472831,0.008345672,-0.167268172
1.76967E+18,4.117974121,-0.08032909,-0.13591303,-0.248787422,0.013246014,0.031004723,-0.168968096
1.76967E+18,4.127962158,-0.083638653,-0.076170216,-0.208976951,0.002186438,0.040859751,-0.1633403
1.76967E+18,4.137950928,0.02188976,-0.052410571,-0.130751044,-0.01839683,0.017444465,-0.154288277
1.76967E+18,4.147939941,0.189139593,-0.045815995,0.024811347,-0.048781633,-0.01558832,-0.146748066
1.76967E+18,4.157927979,0.38993163,-0.100081253,0.15821517,-0.077146672,-0.062129572,-0.129766226
1.76967E+18,4.167916992,0.458888846,-0.084131405,0.253580136,-0.104155391,-0.112556256,-0.110140055
1.76967E+18,4.177905273,0.468968342,-0.028282676,0.278779532,-0.115468867,-0.144414052,-0.100399345
1.76967E+18,4.187894043,0.394737569,-0.003464461,0.242721326,-0.118810065,-0.152820855,-0.095269829
1.76967E+18,4.197882813,0.198923905,0.015329671,0.123870052,-0.113029398,-0.145175859,-0.091985092
1.76967E+18,4.207871094,-0.002756021,-0.014683774,-0.012127879,-0.100850768,-0.119342931,-0.095932961
1.76967E+18,4.217860107,-0.112994511,-0.072750763,-0.159757577,-0.08549948,-0.084570818,-0.101083301
1.76967E+18,4.227848877,-0.159105105,-0.06183774,-0.250805191,-0.07096155,-0.065694064,-0.102095038
1.76967E+18,4.237837158,-0.113047118,-0.023835634,-0.300865765,-0.059430104,-0.04838175,-0.096641593
1.76967E+18,4.247826172,-0.059550506,0.079036712,-0.248538561,-0.040364798,-0.029501535,-0.091959491
1.76967E+18,4.257814697,0.008863105,0.144096336,-0.102021282,-0.031321954,-0.016455844,-0.09325476
1.76967E+18,4.267802979,0.034437107,0.176278358,0.003792305,-0.024459254,-0.007073527,-0.087968647
1.76967E+18,4.277791992,0.01225041,0.160695589,0.074939506,-0.021190934,-0.001491745,-0.08797095
1.76967E+18,4.287780029,0.008535773,0.140884388,0.129235233,-0.023046359,0.008040242,-0.09030015
1.76967E+18,4.297769043,-0.01078969,0.137100778,0.122817694,-0.024532337,0.013928875,-0.09988527
1.76967E+18,4.307758057,0.002718027,0.072395374,0.089052202,-0.024469219,0.018557714,-0.110854827
1.76967E+18,4.31774585,0.057279638,0.037193712,-0.033958822,-0.024775807,0.014156133,-0.121634401
1.76967E+18,4.327735107,0.096762338,-0.014600188,-0.169076756,-0.022546208,0.02408999,-0.132718474
1.76967E+18,4.337723877,0.11008593,-0.036492871,-0.226919362,-0.024349136,0.026543982,-0.135116711
1.76967E+18,4.347711914,0.114282797,0.028147067,-0.242834139,-0.023402648,0.02734586,-0.132302284
1.76967E+18,4.357701172,0.091958153,0.09015841,-0.178382418,-0.023587836,0.032819983,-0.126265749
1.76967E+18,4.367688965,0.059973699,0.088908702,-0.072626772,-0.021568093,0.026249429,-0.117040038
1.76967E+18,4.377677734,0.050509121,0.082615739,0.038845498,-0.023347747,0.015702618,-0.106949866
1.76967E+18,4.387666992,0.001101824,0.046171384,0.125527391,-0.025554709,0.008679596,-0.099441618
1.76967E+18,4.397655029,-0.02636486,0.008768413,0.1684161,-0.025415787,-0.002126186,-0.092855424
1.76967E+18,4.407643799,-0.088867785,0.0043278,0.138385338,-0.023348376,-0.004025553,-0.086789809
1.76967E+18,4.417633057,-0.138038936,-0.020980829,0.106360699,-0.023696253,0.007970802,-0.08454036
1.76967E+18,4.42762085,-0.165525493,-0.035791444,0.058523135,-0.01812572,0.02400969,-0.085702829
1.76967E+18,4.437609863,-0.101640758,-0.023812253,-0.012424305,-0.013749069,0.033910733,-0.082305737
1.76967E+18,4.447598877,-0.028029578,-0.004148936,-0.057572264,-0.005646135,0.043198243,-0.079652429
1.76967E+18,4.457586914,0.00564765,0.025436055,-0.054755526,0.003737431,0.050733726,-0.070767418
1.76967E+18,4.467576172,-0.027861236,0.028459202,-0.01226568,0.008437111,0.053174514,-0.061575513
1.76967E+18,4.477564209,-0.021926001,0.007808043,0.039017786,0.009319442,0.050961182,-0.051918156
1.76967E+18,4.487552979,0.019188685,-0.030067221,0.046624535,0.00352254,0.042965308,-0.043596841
1.76967E+18,4.497541992,0.034777299,-0.070838208,0.018384675,0.00070669,0.04097506,-0.032377038
1.76967E+18,4.507530029,0.045355976,-0.09468144,-0.027493937,0.002118698,0.048113663,-0.02624671
1.76967E+18,4.517519043,0.06213643,-0.091192429,-0.058293784,0.004615993,0.061971921,-0.023227304
1.76967E+18,4.527508057,0.062457917,-0.068079264,-0.061775707,0.009057613,0.073750287,-0.019839227
1.76967E+18,4.537496094,0.018208441,-0.065122753,-0.041959392,0.008591964,0.080695115,-0.014400803
1.76967E+18,4.547485107,-0.012505261,-0.072912091,0.014711174,0.007089408,0.08365602,-0.013217027
1.76967E+18,4.557473877,0.028970658,-0.066239774,0.041271702,0.001936571,0.079427272,-0.015688932
1.76967E+18,4.567461914,0.113279758,-0.063192661,0.00679251,0.001497682,0.077323109,-0.013389293
1.76967E+18,4.577450928,0.136913147,-0.051044543,-0.003435893,0.003675225,0.071863867,-0.012736562
1.76967E+18,4.587439209,0.142639708,-0.037409401,-0.034567456,0.008652407,0.078049853,-0.011399921
1.76967E+18,4.597427979,0.113349316,-0.038929158,-0.038894452,0.012214201,0.083591826,-0.010283696
1.76967E+18,4.607416992,0.057406479,-0.031451954,-0.010892273,0.017561829,0.087594286,-0.008904178
1.76967E+18,4.617405029,0.048160512,-0.020399814,-0.003018106,0.017603373,0.091107801,-0.012347645
1.76967E+18,4.627394043,0.059879007,0.007096096,-0.005262524,0.017653175,0.093952052,-0.013834222
1.76967E+18,4.637382813,0.078443422,0.03686638,-0.020133418,0.02069707,0.100265332,-0.014654011
1.76967E+18,4.647371094,0.088762572,0.06197861,-0.023804727,0.021633971,0.100205682,-0.014301675
1.76967E+18,4.657360107,0.078097385,0.054720601,0.004883096,0.023183957,0.090575442,-0.014135552
1.76967E+18,4.6673479,0.087975805,-0.008756722,0.038548269,0.017530065,0.079033569,-0.018572377
1.76967E+18,4.677336914,0.101772275,-0.054677347,0.026685689,0.014450134,0.069479421,-0.022921603
1.76967E+18,4.687325928,0.070057287,-0.059694883,-0.035928734,0.009554712,0.065205045,-0.024492336
1.76967E+18,4.697313965,0.049883683,-0.058007368,-0.085431162,0.005916624,0.065992594,-0.024361163
1.76967E+18,4.707302979,0.053937342,-0.019657471,-0.109093777,0.006659113,0.063658327,-0.025077553
1.76967E+18,4.717291992,0.062045245,0.018397242,-0.066110741,0.006362929,0.06069573,-0.024601297
1.76967E+18,4.727279785,0.019938626,0.009582652,-0.00554419,0.003703496,0.054861013,-0.023294484
1.76967E+18,4.737269043,-0.024207974,-0.009543489,0.026134631,-0.00102254,0.04516172,-0.023694253
1.76967E+18,4.74725708,-0.030830023,-0.030544776,0.013001374,-0.002354653,0.044218697,-0.028625894
1.76967E+18,4.75724585,-0.020939328,-0.048912207,-0.009892887,-0.006531495,0.040421072,-0.028577264
1.76967E+18,4.767235107,-0.005370003,-0.028964813,-0.037397272,-0.005193256,0.03746869,-0.029013492
1.76967E+18,4.777223145,-0.021050387,-0.007694062,-0.047543915,-0.004238573,0.037166912,-0.030703958
1.76967E+18,4.78721167,-0.05458207,0.008282675,-0.023306057,-0.003637231,0.030274648,-0.027967295
1.76967E+18,4.797200928,-0.074835753,-0.009023849,-0.031897652,-0.008819783,0.024734112,-0.026963731
1.76967E+18,4.807188965,-0.042885202,0.003804653,-0.021793314,-0.008839491,0.021310352,-0.025117628
1.76967E+18,4.817178223,-0.015530162,-0.005374679,-0.036595308,-0.009720028,0.020830043,-0.025811445
1.76967E+18,4.827166992,-0.027974633,-0.038207858,-0.035151977,-0.007500018,0.023996541,-0.028661028
1.76967E+18,4.837155029,-0.016969255,-0.03417115,-0.035435251,-0.005956103,0.017556282,-0.029133646
1.76967E+18,4.847144043,0.011696283,-0.03738602,-0.046974736,-0.007123632,0.007184601,-0.023328755
1.76967E+18,4.85713208,0.024426585,-0.055309215,-0.070024699,-0.011186533,0.004908608,-0.021049909
1.76967E+18,4.86712085,0.070656422,-0.022056349,-0.10510763,-0.011051244,0.004637498,-0.0178669
1.76967E+18,4.877110107,0.130340783,-0.007731471,-0.120022656,-0.008943786,-0.008714252,-0.018309716
1.76967E+18,4.887098145,0.164162973,-0.01142448,-0.125274293,-0.006750139,-0.00757069,-0.017281204
1.76967E+18,4.897086914,0.139563954,-0.072066288,-0.075713851,-0.004062534,-0.008837199,-0.021727772
1.76967E+18,4.907076172,0.046483519,-0.113936176,-0.031728725,-0.005504369,-0.000899115,-0.024554452
1.76967E+18,4.917064209,-0.021115269,-0.144821143,0.016416151,-0.009884177,-0.002381675,-0.029430225
1.76967E+18,4.927052979,-0.029417233,-0.112618079,0.014289076,-0.012419505,-0.001793649,-0.029235814
1.76967E+18,4.937041992,-0.054596098,-0.097131171,-0.00551891,-0.015694423,0.006408333,-0.028384611
1.76967E+18,4.947030029,-0.040744098,-0.064336571,-0.011009908,-0.015547416,0.007078385,-0.027236255
1.76967E+18,4.957019043,0.018593641,-0.034926936,-0.045431525,-0.012234402,-0.016171712,-0.00361996
1.76967E+18,4.967007324,-0.051003627,-0.034919338,-0.025828196,-0.023166412,-0.039810997,-0.007311368
1.76967E+18,4.976996094,0.075189973,-0.044911739,-0.162424312,-0.014375541,0.021236211,-0.039027307
1.76967E+18,4.986984863,0.363973597,0.054579731,-0.004354177,-0.012255665,0.002505933,-0.028744042
1.76967E+18,4.996973145,0.125330261,-0.000936989,-0.081049586,-0.01240469,-0.009219881,-0.02371968
1.76967E+18,5.006962158,0.059543491,-0.007438626,-0.06837401,-0.010547933,0.001596548,-0.028086729
1.76967E+18,5.016950928,0.077842534,-0.008403087,-0.029457492,-0.011460686,-0.006124553,-0.023563983
1.76967E+18,5.026939209,0.05981997,-0.01325871,-0.079051982,-0.009939489,-0.009052432,-0.022052905
1.76967E+18,5.036928223,0.105673959,-0.019890695,-0.05472104,-0.007626082,-0.003424036,-0.018275041
1.76967E+18,5.046917236,0.077653149,-0.02028291,-0.061443626,-0.005123244,-0.004816603,-0.016686732
1.76967E+18,5.056905029,0.024489714,-0.031624388,-0.073209613,-0.002287729,-0.001973375,-0.014853256
1.76967E+18,5.066894043,0.015756372,-0.031088381,-0.047787149,-0.001839519,-0.001248729,-0.014742469
1.76967E+18,5.07688208,0.04083996,-0.028924481,-0.041709217,0.000397728,-0.001278615,-0.017236883
1.76967E+18,5.086871094,0.06445406,-0.032129415,-0.048385772,0.001522381,-0.001727358,-0.016865639
1.76967E+18,5.096860107,0.047999184,-0.032490065,-0.059817048,0.00519973,-0.001820926,-0.016370401
1.76967E+18,5.1068479,0.034307343,-0.026781624,-0.060547919,0.004140059,-0.005288362,-0.009674682
1.76967E+18,5.116837158,-0.00298866,-0.056870473,-0.044459466,0.004376323,-0.005784943,-0.010028703
1.76967E+18,5.126825928,-0.040037996,-0.058026073,-0.032235798,0.00371799,-0.00469278,-0.011697706
1.76967E+18,5.136813965,-0.024433015,-0.064579732,-0.045389148,0.00200017,-0.00171549,-0.010667454
1.76967E+18,5.146803223,-0.009999416,-0.050976154,-0.05318214,0.004191951,-0.000772465,-0.012643519
1.76967E+18,5.156791992,0.017507015,-0.054024436,-0.046076107,0.005129798,-0.002976787,-0.012521831
1.76967E+18,5.166779785,0.019167642,-0.048396659,-0.028523499,0.001548912,-0.011067471,-0.009971054
1.76967E+18,5.176769043,0.018885902,-0.053196753,-0.023182284,-0.001391916,-0.020480804,-0.009272167
1.76967E+18,5.18675708,0.048238838,-0.038666708,-0.017087182,-0.00096581,-0.023595106,-0.006055068
1.76967E+18,5.196746094,0.037657823,-0.020562311,-0.024053295,-0.004906309,-0.021198193,-0.005867941
1.76967E+18,5.206735107,0.014717092,-0.014985388,-0.042686465,-0.003381649,-0.015884655,-0.004816258
1.76967E+18,5.216723145,-0.016348493,-0.025717794,-0.040488808,-0.001519369,-0.009682935,-0.006024665
1.76967E+18,5.226712158,-0.042926703,-0.041426235,-0.047892655,-0.002421648,-0.010025151,-0.002154293
1.76967E+18,5.236700928,-0.025987259,-0.04005144,-0.062486559,-0.004735672,-0.01141439,-0.000894889
1.76967E+18,5.246688965,0.004644026,-0.066741294,-0.053867126,-0.00733838,-0.013602442,-0.000414721
1.76967E+18,5.256678223,0.029296237,-0.04928221,-0.036640901,-0.008580895,-0.017718408,-0.002392869
1.76967E+18,5.26666626,0.034269934,-0.036665305,-0.035261721,-0.010733263,-0.017463543,-0.00242536
1.76967E+18,5.276655029,0.043330023,-0.030517303,-0.02793094,-0.010700407,-0.02182899,-0.007165718
1.76967E+18,5.286644043,0.029063013,-0.046518006,-0.040271147,-0.008407958,-0.017838776,-0.009289322
1.76967E+18,5.29663208,0.016170798,-0.031288872,-0.024896029,-0.009944897,-0.015389087,-0.013439008
1.76967E+18,5.306621094,-0.000841127,-0.018348727,-0.016393939,-0.005897158,-0.02220731,-0.013075753
1.76967E+18,5.316610107,-0.007584172,-0.019379823,-0.016284926,-0.008502724,-0.02254102,-0.011326727
1.76967E+18,5.326598145,-0.007711597,-0.010719547,0.003541691,-0.006803627,-0.018699143,-0.015641848
1.76967E+18,5.336587158,0.026038697,0.026475334,0.017762378,-0.006131291,-0.023415154,-0.015621917
1.76967E+18,5.346575928,0.045256023,0.03007482,0.027113413,-0.005965376,-0.026921205,-0.017912768
1.76967E+18,5.356563965,0.034313773,-0.000927636,0.064152154,-0.00773624,-0.030632745,-0.022859072
1.76967E+18,5.366552979,0.028825697,-0.000684475,0.098456356,-0.010346671,-0.037199568,-0.027799768
1.76967E+18,5.37654126,0.018058804,-0.022779987,0.08875395,-0.011364445,-0.043941032,-0.028441222
1.76967E+18,5.386530029,0.004730536,-0.030140287,0.080068466,-0.017481193,-0.053885274,-0.028102202
1.76967E+18,5.396519287,-0.026540216,-0.030155484,0.060967167,-0.021363003,-0.059207261,-0.028694781
1.76967E+18,5.40650708,-0.036401101,-0.02492226,0.046258039,-0.019825293,-0.058698863,-0.032280996
1.76967E+18,5.416496094,-0.024895372,0.008790625,0.069361121,-0.01928613,-0.058711804,-0.033909798
1.76967E+18,5.426485107,-0.030718963,0.00642448,0.071781042,-0.018569207,-0.057194069,-0.035629667
1.76967E+18,5.436473145,-0.050092941,-0.019338322,0.039287324,-0.019428609,-0.058046281,-0.035490118
1.76967E+18,5.446462158,-0.008547464,-0.043144145,0.01058803,-0.019899189,-0.061760325,-0.03311165
1.76967E+18,5.456451172,0.019056583,-0.060469374,0.003581146,-0.022232609,-0.065718487,-0.033243828
1.76967E+18,5.466438965,0.038395489,-0.071602178,-0.01775003,-0.024644634,-0.068340637,-0.033564474
1.76967E+18,5.476427979,0.061963412,-0.047036476,-0.012783786,-0.027954176,-0.070279308,-0.030186733
1.76967E+18,5.486416016,0.058828037,-0.019880759,-0.021341113,-0.026511274,-0.067822009,-0.027206123
1.76967E+18,5.496405029,0.067607555,-0.012475451,-0.010899726,-0.029229447,-0.06629739,-0.02324249
1.76967E+18,5.506394043,0.071065587,-0.003953122,0.000481865,-0.028777244,-0.064541839,-0.019822726
1.76967E+18,5.516381836,0.049572717,-0.019610125,0.031721638,-0.029332669,-0.061610017,-0.017621588
1.76967E+18,5.526371094,0.039869654,-0.049171735,0.064026993,-0.033552445,-0.066824213,-0.018537182
1.76967E+18,5.536359863,0.047988663,-0.076060911,0.061462623,-0.037759371,-0.07019446,-0.0127034
1.76967E+18,5.546348145,0.038574353,-0.075278236,-0.000297522,-0.03783394,-0.067586958,-0.013713005
1.76967E+18,5.556337158,0.051758244,-0.069577979,-0.048188496,-0.034819338,-0.06292776,-0.011167092
1.76967E+18,5.566325928,0.042310032,-0.04547288,-0.028665465,-0.030627524,-0.054261573,-0.009123117
1.76967E+18,5.576313965,0.03252046,-0.035000586,-0.01801891,-0.027475391,-0.045023523,-0.00971383
1.76967E+18,5.586302979,0.026925416,-0.050604983,0.002131897,-0.026331298,-0.042607505,-0.007652544
1.76967E+18,5.596291016,0.015136779,-0.070917118,0.009146891,-0.031069608,-0.109046787,0.045358766
1.76967E+18,5.606280273,-0.254714766,-0.115430214,-0.028316505,-0.03176203,-0.06224573,0.012459142
1.76967E+18,5.616269043,0.179606626,-0.029699557,-0.029578488,-0.03997463,-0.042058792,0.006134288
1.76967E+18,5.62625708,0.201956989,-0.027341596,-0.021086408,-0.025827918,-0.029658319,-0.006476046
1.76967E+18,5.636246338,0.256627906,0.02185995,-0.066355948,-0.024586577,-0.025738312,-0.0028276
1.76967E+18,5.646234863,0.127100193,-0.023995793,-0.03838073,-0.026278483,-0.024403537,0.003085949
1.76967E+18,5.6562229,0.033922728,-0.031623219,-0.075853698,-0.025801254,-0.013693772,0.004277182
1.76967E+18,5.666212158,0.083842651,-0.017341011,-0.079692326,-0.022671774,-0.006993791,0.006029542
1.76967E+18,5.676201172,0.092317634,-0.0254419,-0.07983853,-0.020970985,0.002800184,0.009245944
1.76967E+18,5.686188965,0.089343586,-0.011122283,-0.076100147,-0.019811977,0.012340426,0.007011019
1.76967E+18,5.696178223,0.063563248,-0.011451368,-0.06429602,-0.017325412,0.017783508,0.010855876
1.76967E+18,5.706166016,0.054416065,-0.011520926,-0.051300856,-0.015577313,0.018356619,0.007941312
1.76967E+18,5.716155029,0.082436876,-0.023006782,-0.048233285,-0.013923481,0.019335007,0.008101339
1.76967E+18,5.726144043,0.06292495,-0.049378071,-0.074528806,-0.011361521,0.027488541,0.006566027
1.76967E+18,5.73613208,0.031641923,-0.031711482,-0.081860537,-0.007556278,0.035271849,0.005461127
1.76967E+18,5.746121338,0.024571547,-0.028836803,-0.08070954,-0.006164244,0.03551526,0.003608366
1.76967E+18,5.756110107,0.047319385,-0.011351415,-0.07657339,-0.004952454,0.039026946,0.003566438
1.76967E+18,5.7660979,0.055501522,-0.002218845,-0.089509664,-0.005719177,0.04242301,0.006636264
1.76967E+18,5.776087158,0.062524553,0.021216391,-0.093503482,-0.006368985,0.041312072,0.007583289
1.76967E+18,5.786076172,0.060060209,0.028982349,-0.088299484,-0.006906412,0.042831939,0.014945331
1.76967E+18,5.796064209,0.064225512,0.03277122,-0.067974708,-0.009851938,0.043617852,0.01832209
1.76967E+18,5.806053223,0.049105684,0.001077274,-0.040492827,-0.014300216,0.035140209,0.020453151
1.76967E+18,5.816041016,0.032961774,-0.01247019,-0.022610987,-0.017047772,0.024372539,0.018344669
1.76967E+18,5.826030029,0.030839959,-0.011592823,-0.037286505,-0.015772386,0.028154228,0.018170232
1.76967E+18,5.836019043,-0.016805589,-0.004130232,-0.101293479,-0.016440444,0.03373611,0.021531954
1.76967E+18,5.84600708,-0.058082187,-0.013436405,-0.08833704,-0.012782326,0.041667003,0.022930913
1.76967E+18,5.855996094,-0.050088265,-0.041647185,-0.044910716,-0.012026844,0.041281469,0.02269081
1.76967E+18,5.865985107,-0.063967738,-0.065417352,-0.028471842,-0.012683845,0.029954776,0.020865478
1.76967E+18,5.8759729,-0.048042439,-0.038864276,-0.067743384,-0.011492684,0.027602019,0.022306928
1.76967E+18,5.885961914,-0.031253801,-0.011929507,-0.145045454,-0.008578121,0.024892785,0.020799579
1.76967E+18,5.895951172,-0.007374328,0.018155834,-0.167298275,-0.001711823,0.025292765,0.021043237
1.76967E+18,5.905939209,0.005203998,0.022031799,-0.150008775,0.008618312,0.033290237,0.016192289
1.76967E+18,5.915928467,-0.007823825,0.023078678,-0.130050275,0.0141223,0.041320622,0.012490438
1.76967E+18,5.925916748,-0.037794016,0.017687632,-0.106869818,0.016567081,0.050775111,0.007013116
1.76967E+18,5.935905762,-0.034207975,-0.015904841,-0.045616527,0.0134094,0.054248028,0.00388811
1.76967E+18,5.945894775,-0.023261633,-0.03951894,-0.018447511,0.009320649,0.053089019,0.002885429
1.76967E+18,5.955882813,-0.020495091,-0.03048457,-0.03491678,0.006842058,0.055097386,0.006088921
1.76967E+18,5.965871826,-0.046318684,0.00213935,-0.038841991,0.003139199,0.053381778,0.006760837
1.76967E+18,5.975860596,-0.039676761,0.019065935,-0.057974562,0.002717159,0.050613277,0.009606278
1.76967E+18,5.985848633,-0.016312252,-0.001499299,-0.060241045,0.003295065,0.049425241,0.003498318
1.76967E+18,5.995837646,0.001579963,-0.015795535,-0.055733139,0.009421303,0.048498452,0.001079299
1.76967E+18,6.005826904,0.038649172,0.001087795,-0.075804306,0.010693495,0.046707477,-0.002911714
1.76967E+18,6.015814697,0.064465166,0.008036007,-0.083519849,0.014376166,0.045533057,-0.005883632
1.76967E+18,6.025803711,0.066948215,-0.007239304,-0.062769102,0.014279493,0.036406673,-0.005754203
1.76967E+18,6.035791504,0.063522916,-0.013398411,-0.036240796,0.011619251,0.027300853,-0.006294813
1.76967E+18,6.045780762,0.035269466,-0.029711248,-0.019532457,0.00854836,0.023995604,-0.010326305
1.76967E+18,6.055769531,0.025471126,-0.012868249,-0.028861937,0.004685852,0.023323126,-0.009146001
1.76967E+18,6.065757813,0.039172319,0.003043021,-0.052513447,0.001999255,0.021181945,-0.009100994
1.76967E+18,6.075746826,0.062415832,0.010474632,-0.042436581,-0.001547879,0.012793802,-0.010508338
1.76967E+18,6.085735596,0.096879243,0.020052608,-0.00892353,-0.007705906,0.002506277,-0.009648936
1.76967E+18,6.095723633,0.084599022,0.02855857,0.026090646,-0.013026303,-0.012992403,-0.008094326
1.76967E+18,6.105712646,0.062460256,0.010020459,0.040020752,-0.017977918,-0.022906819,-0.009871986
1.76967E+18,6.11570166,0.024341245,0.002730886,0.008933175,-0.020178739,-0.024896258,-0.009734319
1.76967E+18,6.125689941,-0.035740006,0.025333179,-0.040405003,-0.0187899,-0.02127143,-0.010752978
1.76967E+18,6.135678711,-0.089944475,0.033768414,-0.074311145,-0.013973588,-0.010854684,-0.012984687
1.76967E+18,6.145666504,-0.106244452,0.056052727,-0.07548165,-0.007820355,-0.004339793,-0.015089916
1.76967E+18,6.155655762,-0.118899351,0.042993923,-0.066544602,-0.003382517,-0.000878258,-0.02078337
1.76967E+18,6.165644531,-0.128494278,0.016716157,-0.042764133,0.001171222,0.007483535,-0.026426077
1.76967E+18,6.175632568,-0.165592129,-0.009475684,-0.078445395,0.004903783,0.018846549,-0.030043999
1.76967E+18,6.185621826,-0.138938515,-0.012829086,-0.108294882,0.009011176,0.030526908,-0.027334765
1.76967E+18,6.19561084,-0.094507253,-0.013685411,-0.114031526,0.012458567,0.037164848,-0.021216279
1.76967E+18,6.205598389,0.000469371,0.013574352,-0.137259914,0.013799734,0.034878794,-0.013559958
1.76967E+18,6.215587646,0.055695584,-0.019496728,-0.092547278,0.014385252,0.024022996,-0.004849325
1.76967E+18,6.22557666,0.0645885,-0.044621817,-0.060260554,0.011708508,0.012090971,0.000351828
1.76967E+18,6.235564697,0.016171967,-0.07549977,-0.043481487,0.012646657,0.004532592,-0.001372939
1.76967E+18,6.245553711,-0.053547466,-0.06323124,-0.057625602,0.012099111,0.013606515,-0.001924213
1.76967E+18,6.255541748,-0.097140524,-0.051571197,-0.078346976,0.015957177,0.022500765,-0.004581936
1.76967E+18,6.265530762,-0.073599489,-0.018174539,-0.080781437,0.019232599,0.024707193,-0.00684589
1.76967E+18,6.275519531,-3.79939E-05,-0.012175006,-0.06163703,0.024289675,0.026468609,-0.008539127
1.76967E+18,6.285507568,0.061229837,-0.01300152,-0.044174657,0.025284367,0.022634987,-0.007533518
1.76967E+18,6.295496582,0.08131927,-0.018829788,-0.014912249,0.026885202,0.019517167,-0.005901296
1.76967E+18,6.30548584,0.08023089,-0.023208442,-0.014204393,0.023079811,0.014936264,-0.00036991
1.76967E+18,6.315473633,0.087128248,-0.025559973,-0.029986996,0.022792963,0.015147166,0.005080571
1.76967E+18,6.325462891,0.092919691,-0.016803835,-0.02313903,0.02221852,0.012395589,0.0065272
1.76967E+18,6.33545166,0.105444826,-0.018502456,-0.022341669,0.024188193,0.01286843,0.006569021
1.76967E+18,6.345439697,0.081295889,-0.013905776,-0.006549568,0.026375713,0.014412265,0.006995128
1.76967E+18,6.355428711,0.075989599,-0.042174423,-0.009877835,0.026406173,0.01085216,0.003733355
1.76967E+18,6.365416748,0.056550739,-0.040250762,-0.019623277,0.02803736,0.012259641,0.000582037
1.76967E+18,6.375405762,0.020159575,-0.042194882,-0.024206732,0.028666144,0.018457027,0.000840595
1.76967E+18,6.385394775,0.005796704,-0.034801849,-0.024263431,0.028934857,0.026309891,-0.000939462
1.76967E+18,6.395382568,0.026184827,0.004385668,-0.045206777,0.030892884,0.029701145,0.000653503
1.76967E+18,6.405371582,0.055972063,0.039963177,-0.060450596,0.029302711,0.034682322,0.00192463
1.76967E+18,6.41536084,0.094115623,0.035696167,-0.036709874,0.026858892,0.039118208,-0.001719446
1.76967E+18,6.425348877,0.133750883,0.054624155,-0.006037819,0.026077786,0.035407893,0.001643594
1.76967E+18,6.435337646,0.109834586,0.028319501,0.000425094,0.019140815,0.029932719,0.00302786
1.76967E+18,6.445326904,0.065989599,0.026579964,0.011732596,0.018414304,0.028499672,-0.000825734
1.76967E+18,6.455314697,0.040651744,0.025531332,0.018585093,0.018178603,0.023160491,-0.00507798
1.76967E+18,6.465303467,0.001386486,0.005806056,0.01907536,0.018363427,0.024197794,-0.007940612
1.76967E+18,6.475292725,-0.03887772,-0.011294716,0.018643106,0.013501711,0.024942994,-0.011408895
1.76967E+18,6.485280762,-0.048237669,-0.027402971,0.008475494,0.014835687,0.017740475,-0.014118396
1.76967E+18,6.495269775,-0.038154666,-0.037756022,-0.014041896,0.011047527,0.010393684,-0.014198388
1.76967E+18,6.505257568,-0.035768063,-0.070463529,-0.003870485,0.007109244,0.0045065,-0.012313669
1.76967E+18,6.515246582,-0.040347208,-0.08210136,0.017968787,0.004353644,0.000598822,-0.015430572
1.76967E+18,6.525235596,-0.035123336,-0.077371409,0.03518135,0.004904652,0.004289697,-0.015838303
1.76967E+18,6.535223877,-0.052296589,-0.072145783,0.038242783,0.002687178,0.011270747,-0.013631624
1.76967E+18,6.545212646,-0.08064064,-0.048501288,0.04882073,0.000375554,0.015742727,-0.012528542
1.76967E+18,6.555201904,-0.069454644,-0.056057987,0.048174687,-0.000318508,0.018223364,-0.009182462
1.76967E+18,6.565189697,-0.0426549,-0.062494158,0.03797836,-0.002088711,0.018250261,-0.006401056
1.76967E+18,6.575178467,-0.006824293,-0.05521686,0.015200346,0.002115803,0.01797629,-0.009116508
1.76967E+18,6.585167725,0.017867081,-0.07777999,-0.007712912,0.002869477,0.019690301,-0.008110899
1.76967E+18,6.595155762,-0.00522621,-0.077984572,-0.012279051,0.005449702,0.021432988,-0.007900019
1.76967E+18,6.605144775,-0.023058804,-0.097501758,-0.013835779,0.006178875,0.019703265,-0.00900896
1.76967E+18,6.615132813,-0.005430793,-0.085685064,0.000820376,0.008613846,0.015041769,-0.009573903
1.76967E+18,6.625121582,-0.000540683,-0.089372228,0.002244856,0.009204536,0.014010326,-0.006724054
1.76967E+18,6.635110596,0.051019409,-0.078967738,0.019921091,0.00795132,0.01039334,-0.011188189
1.76967E+18,6.645098633,0.132948919,-0.045766895,0.048774333,0.00800991,0.006167969,-0.014904365
1.76967E+18,6.655087646,0.153617613,-0.064531217,0.051292088,0.005468905,-0.000774822,-0.01789812
1.76967E+18,6.66507666,0.11985446,-0.080759882,0.043630833,0.00086217,-0.004694995,-0.017877081
1.76967E+18,6.675064941,0.074669749,-0.082452073,0.023042218,-0.001156327,-0.003300095,-0.02094168
1.76967E+18,6.685053711,0.03906769,-0.056191258,-0.013386501,-0.00190654,-0.001331752,-0.018486511
1.76967E+18,6.69504248,0.022808629,-0.009805939,-0.007725845,-0.00229934,0.004910242,-0.021833334
1.76967E+18,6.705030762,0.047328153,0.021201193,0.0016862,-0.001806389,0.006741698,-0.02101814
1.76967E+18,6.715019775,0.078222473,0.060818918,0.006638634,0.000839169,0.008522799,-0.020997843
1.76967E+18,6.725007813,0.087624507,0.075074822,0.010710706,0.001990453,0.014400928,-0.022322765
1.76967E+18,6.734996826,0.060935822,0.067937226,0.021939298,-1.37517E-05,0.015671127,-0.022926167
1.76967E+18,6.74498584,0.049576224,0.023753216,0.041747942,-0.004177071,0.013768565,-0.025426077
1.76967E+18,6.754973633,0.020157237,-0.041736032,0.058393956,-0.008060093,0.011238325,-0.028199742
1.76967E+18,6.764962646,0.036247956,-0.05487433,0.054765829,-0.011156018,0.009186893,-0.032105003
1.76967E+18,6.77495166,0.051192427,-0.040806642,0.028450434,-0.011011605,0.005484018,-0.032310732
1.76967E+18,6.784939697,0.052616907,-0.008712883,-0.001416808,-0.010815863,0.005694142,-0.033308618
1.76967E+18,6.794928955,0.05162322,0.006512743,-0.008991481,-0.009748411,0.002803324,-0.031515371
1.76967E+18,6.804917725,0.022522213,0.014234277,-0.018615049,-0.009349204,0.004166064,-0.027567498
1.76967E+18,6.814905518,-0.010653496,0.008652678,-0.027839901,-0.010163724,0.002795573,-0.020808404
1.76967E+18,6.824894775,-0.02877952,-0.021892683,-0.038987902,-0.012428743,0.007451044,-0.019637145
1.76967E+18,6.834882813,-0.032571898,-0.028516485,-0.032877091,-0.010350456,0.011753683,-0.014763217
1.76967E+18,6.844871582,0.017124738,-0.032525721,-0.020569471,-0.00790594,0.012823475,-0.015703047
1.76967E+18,6.85486084,0.038238838,-0.045968555,0.010795681,-0.008700022,0.011778703,-0.013610474
1.76967E+18,6.864848633,0.031440848,-0.0555968,0.023990751,-0.010014826,0.008469725,-0.010108949
1.76967E+18,6.874837402,0.023953707,-0.068948449,0.023686581,-0.00998354,-0.046471927,0.036958978
1.76967E+18,6.88482666,-0.252704595,-0.111366033,-0.019318887,-0.016492305,-0.026105136,0.019175453
1.76967E+18,6.894814697,-0.047422845,-0.079850951,-0.065091846,-0.015605151,0.013271474,-0.008817411
1.76967E+18,6.904803955,0.183408356,-0.035453006,-0.00439597,-0.005314962,0.026542272,-0.015709672
1.76967E+18,6.91479248,0.185223296,-0.01798983,-0.024973625,-0.003648258,0.012276258,-0.001699778
1.76967E+18,6.924780273,0.033780105,-0.046083706,-0.020592268,-0.003797927,0.011794493,-0.002767706
1.76967E+18,6.934769287,0.023231238,-0.063663202,0.01409085,-0.004201469,0.015350224,-0.001365668
1.76967E+18,6.944757568,0.023527006,-0.09492051,0.029212358,-0.006592988,0.012187719,-0.001800829
1.76967E+18,6.954746338,0.065800798,-0.077461425,0.013136618,-0.005282304,0.01182617,-0.00376999
1.76967E+18,6.964735596,0.087718615,-0.059102177,-0.004627221,-0.004841018,0.010099642,-0.004006212
1.76967E+18,6.974723633,0.116553665,-0.048943187,-0.030017464,-0.001625013,0.001918791,-0.004445583
1.76967E+18,6.984712402,0.114093412,-0.02780103,-0.031376916,-0.001308896,0.003764628,-0.003327854
1.76967E+18,6.994701416,0.100372345,-0.015895488,-0.008407105,-0.003546742,0.001752281,-0.002753153
1.76967E+18,7.004689453,0.055829439,-0.01360124,0.003482289,-0.002691601,0.008498334,-0.002022115
1.76967E+18,7.014678467,0.018710546,-0.011163784,-0.011927242,-0.001279447,0.017712317,-0.002246653
1.76967E+18,7.02466748,-0.008328852,-0.012283728,-0.028834611,-0.002404366,0.022699352,0.000539013
1.76967E+18,7.034655518,0.023853754,-0.016395254,-0.03437376,-0.000681137,0.026084084,0.00124949
1.76967E+18,7.044644287,0.034881928,-0.015240824,-0.02794,-0.001611379,0.024770614,0.001933389
1.76967E+18,7.054632568,0.036821956,-0.016209377,0.004207389,-0.003588715,0.020904282,0.000959612
1.76967E+18,7.064621582,0.04407412,-0.012577742,0.019419717,-0.005591412,0.013303889,0.001147897
1.76967E+18,7.074610352,0.034044893,0.007326982,0.000483034,-0.004343441,0.013119674,-0.000791708
1.76967E+18,7.084598633,0.0292372,0.004188684,-0.019388664,-0.00472454,0.016444098,-0.00091448
1.76967E+18,7.094587646,0.013839725,0.002949497,-0.018975407,-0.005327549,0.015911214,-9.22251E-05
1.76967E+18,7.104576172,0.006816694,0.013678397,-0.018952245,-0.003961614,0.016575407,-0.001211818
1.76967E+18,7.114564453,-0.001790391,0.004623568,0.005430062,-0.004249306,0.012514632,-0.000108598
1.76967E+18,7.124553467,-0.00866846,-0.004044891,0.014571692,-0.006595285,0.008732411,-0.003147265
1.76967E+18,7.134542236,-0.023202596,-0.003518822,0.003441957,-0.007074204,0.007179592,-0.00503208
1.76967E+18,7.144530518,-0.030512043,-0.008265724,-0.019901509,-0.00636101,0.005556662,-0.004697587
1.76967E+18,7.154519531,-0.02904197,-0.013402502,-0.028708135,-0.007090548,0.005731091,-0.003023326
1.76967E+18,7.164507324,-0.027696401,-0.012883447,-0.046751668,-0.005521413,0.001971773,-0.002489895
1.76967E+18,7.174496582,-0.019539982,-0.008225977,-0.031094519,-0.007501925,0.002512988,-0.00222001
1.76967E+18,7.184485352,-0.001036357,-0.027828503,-0.009322832,-0.007350657,-0.003894311,-0.00341497
1.76967E+18,7.194473389,-0.003850246,-0.028016134,-0.020562311,-0.009165754,-0.005240852,-0.003427456
1.76967E+18,7.204462646,-0.025658757,-0.041376551,-0.038266968,-0.009401709,-0.005991596,-0.002160324
1.76967E+18,7.214451416,-0.029715339,-0.040951604,-0.043177317,-0.008336993,-0.003888575,-0.001103289
1.76967E+18,7.224439209,-0.011586977,-0.040565819,-0.041375309,-0.009136474,-0.004240646,0.000740684
1.76967E+18,7.234428467,0.002081482,-0.027937808,-0.036143619,-0.009857966,-0.007102044,0.000366329
1.76967E+18,7.24441748,0.017179683,-0.020924715,-0.026655221,-0.011937361,-0.008801407,0.000212931
1.76967E+18,7.254405273,0.036435587,-0.023140053,-0.019248306,-0.013010994,-0.013736328,-0.000202299
1.76967E+18,7.264394531,0.036575288,-0.035374096,-0.030894904,-0.013446953,-0.016763544,0.000999852
1.76967E+18,7.274383545,0.01398001,-0.044936289,-0.048451239,-0.01068789,-0.011186465,0.000897801
1.76967E+18,7.284371338,0.014522446,-0.028420623,-0.054781392,-0.010063379,-0.010869549,-0.000203683
1.76967E+18,7.294360352,0.016622049,-0.030225042,-0.055144745,-0.009340193,-0.01188957,0.00102696
1.76967E+18,7.304348389,0.047153965,-0.028580782,-0.032966523,-0.010078155,-0.013331406,0.000710044
1.76967E+18,7.314337646,0.061157941,-0.017702245,-0.029757498,-0.010351255,-0.016442003,-2.12886E-05
1.76967E+18,7.324326416,0.074749828,-0.017172084,-0.03236863,-0.011680172,-0.019776547,0.001288188
1.76967E+18,7.334314209,0.070676295,-0.021411621,-0.061828534,-0.009584276,-0.01867421,0.00046264
1.76967E+18,7.344303467,0.062721537,-0.019386253,-0.064441054,-0.010068173,-0.015131406,0.001526573
1.76967E+18,7.35429248,0.053828621,-0.008073416,-0.058256082,-0.00971463,-0.012925403,0.00077448
1.76967E+18,7.364280518,0.038835634,-0.008335282,-0.032953444,-0.006704726,-0.009830011,0.001126017
1.76967E+18,7.374269531,0.039714755,-0.012186112,-0.026758024,-0.006265571,-0.012741644,0.001972103
1.76967E+18,7.384258545,0.069430679,-0.006413374,-0.031111762,-0.00968933,-0.014499065,0.003682652
1.76967E+18,7.394246582,0.081254388,-0.010128595,-0.022597105,-0.008136682,-0.016314788,0.008202245
1.76967E+18,7.404235352,0.035718379,-0.01482932,-0.047848231,-0.007583544,-0.018657571,0.013316579
1.76967E+18,7.414223389,-0.042357963,-0.019321956,-0.033656551,-0.015491223,-0.056846537,0.036923289
1.76967E+18,7.424212402,-0.164465171,-0.066427406,-0.113072472,-0.003291815,0.011958361,-0.001242737
1.76967E+18,7.434201416,0.242312965,0.063617609,0.017397344,-0.00129261,-0.008271033,0.005044517
1.76967E+18,7.444189453,0.10438918,0.004841595,-0.014712781,-0.002439367,-0.011587735,0.005021614
1.76967E+18,7.454178467,0.009072364,-0.038560909,-0.021194252,-0.002776301,-0.003279038,0.002977459
1.76967E+18,7.46416748,0.0297206,-0.035696752,-0.016636808,-0.003466059,-0.014365778,0.011343781
1.76967E+18,7.474155518,0.025691491,-0.023836218,-0.064786945,-0.001775076,-0.011016212,0.006113311
1.76967E+18,7.484144287,0.078541622,-0.00228022,-0.069286668,0.001210861,-0.009662261,0.01208465
1.76967E+18,7.494133545,0.034129649,0.000435469,-0.075491002,0.003603091,-0.009321043,0.008480771
1.76967E+18,7.504121582,0.044048985,-0.00209025,-0.068080287,0.008644721,-0.010012932,0.007765446
1.76967E+18,7.514110352,0.051589317,-0.008604162,-0.049355494,0.011376016,-0.003669645,0.006031531
1.76967E+18,7.524099365,0.028287937,-0.037466684,-0.023744887,0.00963058,0.004932366,0.004339624
1.76967E+18,7.534087402,0.006503975,-0.063557403,0.000532938,0.007008549,0.002304044,0.008121891
1.76967E+18,7.54407666,0.010424948,-0.080941084,0.00011369,0.00214828,-0.000418239,0.008169828
1.76967E+18,7.554064453,0.043750294,-0.074949735,0.005663579,-0.001746314,-0.004151649,0.009658245
1.76967E+18,7.564053467,0.037219431,-0.046020577,0.002549319,-0.002444062,-0.003006223,0.009096318
1.76967E+18,7.574042725,0.012546762,-0.029184009,-0.015724954,-0.001735842,-0.001495746,0.010643974
1.76967E+18,7.584030518,-0.00982932,-0.001481178,-0.055700114,0.000263659,0.000775397,0.010263674
1.76967E+18,7.594019287,-0.001413374,0.003352233,-0.045317032,0.000819503,0.002560613,0.011504622
1.76967E+18,7.604008545,0.020324995,-0.022181437,-0.042662426,0.001632566,0.002926264,0.011431651
1.76967E+18,7.613996582,0.01944529,-0.015199907,-0.031788712,0.004386695,0.002393282,0.008518376
1.76967E+18,7.623985352,0.03522855,-0.004802432,-0.018829131,0.002919293,-0.00073247,0.009051541
1.76967E+18,7.633974609,0.036443186,-0.024851533,-0.028653701,0.005113923,-0.002885632,0.008471673
1.76967E+18,7.643962402,0.012588848,-0.031760581,-0.034866438,0.007462564,-0.003426786,0.005205573
1.76967E+18,7.653951416,-0.003909867,-0.029690205,-0.035522053,0.006332372,-0.00730544,0.002880258
1.76967E+18,7.663939697,-0.023728082,-0.030892566,-0.06468122,0.004815702,-0.005221783,0.002331647
1.76967E+18,7.673928467,-0.039063598,-0.028816345,-0.064428998,0.003523915,-0.004537,-0.000796991
1.76967E+18,7.68391748,-0.025609073,-0.000125088,-0.05021591,0.006650998,-0.007625202,-0.001791416
1.76967E+18,7.693905518,-0.003415361,0.005950433,-0.036416079,0.006036397,-0.009235706,-0.000541706
1.76967E+18,7.703894287,-0.017438042,0.02384031,-0.022687121,0.006230009,-0.009461543,-0.002611514
1.76967E+18,7.713883301,-0.001294131,0.010541268,-0.014879662,0.006497712,-0.013616164,0.000585499
1.76967E+18,7.723871582,-0.022972879,-0.005934066,-0.043981254,0.004533897,-0.010841417,0.000835303
1.76967E+18,7.733860596,-0.042975803,-0.007077391,-0.04540661,0.007077931,-0.006668305,0.000765957
1.76967E+18,7.743849365,-0.047146951,0.007670681,-0.028471915,0.005398808,-0.010512047,0.002597413
1.76967E+18,7.753837402,-0.070125676,-0.007843699,-0.024067031,0.007788181,-0.008043243,0.000944958
1.76967E+18,7.763826416,-0.107374333,-0.010602058,-0.023537089,0.00590506,-0.00545465,0.00023709
1.76967E+18,7.773815186,-0.107095516,0.007766542,-0.042198023,0.006960711,-0.00292107,-0.001396444
1.76967E+18,7.783803467,-0.056297057,0.026165538,-0.054336643,0.003878634,-0.002469931,-0.001378068
1.76967E+18,7.79379248,-0.022214754,0.035543607,-0.051526481,0.004327265,-0.005772601,0.000379842
1.76967E+18,7.803780518,0.018171617,0.058700611,-0.016130028,0.002273435,-0.013565543,0.001580395
1.76967E+18,7.813769531,0.030839959,0.043027241,0.04082995,-0.000758724,-0.021083893,0.005193011
1.76967E+18,7.823758301,0.023774259,0.030344285,0.03518398,-0.001649818,-0.024460515,0.005219908
1.76967E+18,7.833746338,-0.030754035,0.010051438,0.006110665,-0.00194406,-0.019267455,0.004979345
1.76967E+18,7.843735596,-0.069816464,-0.014079379,-0.036347544,-0.002375758,-0.015969396,0.002912732
1.76967E+18,7.853724365,-0.059048401,-0.01460311,-0.077569124,-0.001044026,-0.008955116,0.000478837
1.76967E+18,7.863712402,-0.034869653,0.019607787,-0.109117304,-0.003270695,-0.006650417,-0.000678572
1.76967E+18,7.87370166,0.023511808,0.027249241,-0.107286728,-0.003948358,-0.008082049,-0.000301424
1.76967E+18,7.883690186,0.033344636,0.006972762,-0.075104487,-0.004644508,-0.010474633,0.000693799
1.76967E+18,7.893678223,0.053022565,0.001728431,-0.0280835,-0.005822505,-0.014725364,-0.000398205
1.76967E+18,7.90366748,0.054959671,0.005575754,-0.000328574,-0.003079982,-0.017568022,-0.001070919
1.76967E+18,7.913656006,0.050064884,-0.006023498,-0.006768763,-0.003814019,-0.013862484,-0.002744845
1.76967E+18,7.92364502,-0.007954758,-0.014375731,-0.024727687,-0.001623835,-0.005503622,-0.004809594
1.76967E+18,7.933634033,-0.056220484,-0.005609072,-0.059817267,0.004783884,0.007079997,-0.00464745
1.76967E+18,7.943621826,-0.033304304,-0.004156535,-0.071790905,0.008508049,0.008615043,-0.003869008
1.76967E+18,7.953611084,0.029957331,0.01532441,-0.070001392,0.011390917,0.011997652,-0.006549201
1.76967E+18,7.963599854,0.068626962,0.020940497,-0.056080418,0.009977312,0.012329749,-0.004398432
1.76967E+18,7.973587891,0.066961074,0.0050982,-0.041025473,0.010399595,0.013858267,-0.005225691
1.76967E+18,7.983577148,0.072904493,0.008276245,0.000559387,0.010057911,0.012764773,-0.003584918
1.76967E+18,7.993565918,0.086459555,-0.009631752,0.02327705,0.007439573,0.012663634,-0.00319173
1.76967E+18,8.003553711,0.061722589,-0.015452421,0.025630846,0.007678991,0.012046579,-0.00376937
1.76967E+18,8.013542969,0.046937692,-0.038873628,0.005190554,0.006680686,0.014769881,-0.002251867
1.76967E+18,8.023531982,0.03859598,-0.057972296,-0.014149302,0.010211239,0.013775989,-0.002896885
1.76967E+18,8.033519775,0.027298926,-0.039371641,-0.035602498,0.012545719,0.013908645,-0.005385244
1.76967E+18,8.043509033,0.016575287,-0.046615036,-0.030467838,0.012777148,0.015540364,-0.006239586
1.76967E+18,8.05349707,-0.013410101,-0.061966919,-0.013553674,0.015279541,0.016463483,-0.008033142
1.76967E+18,8.06348584,-0.030954526,-0.057261518,0.010250833,0.014904035,0.01786324,-0.009628909
1.76967E+18,8.073474854,-0.023029578,-0.035223289,0.03243059,0.015142753,0.018057525,-0.010075711
1.76967E+18,8.083462891,-0.010603227,-0.034008653,0.028866321,0.014610655,0.019418668,-0.011333788
1.76967E+18,8.093452148,0.01066051,-0.016354338,0.008049305,0.012327371,0.019893058,-0.011943875
1.76967E+18,8.103440918,0.026374212,-0.010817162,0.019411899,0.012406201,0.015926015,-0.008873783
1.76967E+18,8.113428955,0.030967385,-0.011656536,0.033093511,0.010526233,0.012763813,-0.005452876
1.76967E+18,8.123417969,0.006838906,-0.011924247,0.014531068,0.010353395,0.012845838,-0.002709287
1.76967E+18,8.133406982,-0.026847675,-0.020893735,0.020447526,0.008491422,0.013582417,-0.0003534
1.76967E+18,8.143394775,-0.043911622,-0.046211716,0.005382131,0.008044011,0.013306513,-0.001511876
1.76967E+18,8.153384033,-0.030470542,-0.055942252,0.020209844,0.005156389,0.009550892,-0.000646977
1.76967E+18,8.16337207,-0.004170564,-0.047243397,0.013107027,0.003943852,0.006176134,-0.002340481
1.76967E+18,8.173361084,-0.002051087,-0.033194998,0.031599034,0.003520799,0.004044031,-0.004598546
1.76967E+18,8.183349854,-0.010754034,-0.020133856,0.052864306,0.003122923,0.004320201,-0.003395596
1.76967E+18,8.193337891,-0.021463059,-0.007601123,0.050753086,0.001680825,0.003518727,-0.004781785
1.76967E+18,8.203326904,-0.020814824,-0.00433423,0.027572336,0.000460565,-0.000532208,-0.006398058
1.76967E+18,8.213315918,-0.000326748,-0.015344284,0.031006987,-0.000244978,0.000720688,-0.007625361
1.76967E+18,8.223303955,0.012001988,-0.019244799,0.030023163,5.62253E-05,-0.001332875,-0.00863177
1.76967E+18,8.233292969,0.034399113,-0.024380993,0.00114464,-0.000381527,-0.000554046,-0.007057989
1.76967E+18,8.243282227,0.019836335,-0.01531272,0.01529555,-0.002000995,-0.00321987,-0.007050532
1.76967E+18,8.25327002,0.023097382,-0.01,-0.014577172,-0.004852582,-0.004427187,-0.007830821
1.76967E+18,8.263258789,0.029317864,-0.020205168,-0.002008271,-0.006399878,-0.007244012,-0.009905424
1.76967E+18,8.273248047,0.030170097,-0.002424012,-0.00774265,-0.005518836,-0.008837663,-0.009901831
1.76967E+18,8.283236084,0.026565351,0.008577274,-0.018770971,-0.003471398,-0.00426182,-0.008065581
1.76967E+18,8.293224854,0.048430561,0.018614684,-0.023410978,-0.002309529,-0.000566136,-0.007419363
1.76967E+18,8.303212891,0.048435237,-0.00126549,0.012977628,-0.003915682,-0.005603505,-0.00507951
1.76967E+18,8.313201904,0.055600891,-0.023786534,0.026026495,-0.004984576,-0.011147932,-0.005221654
1.76967E+18,8.323190918,0.078714056,-0.008324176,-0.003135083,0.003790806,-0.040837917,0.032514006
1.76967E+18,8.333178955,-0.122442138,-0.009316694,0.005751184,-0.005589045,-0.060279272,0.040096957
1.76967E+18,8.343167969,-0.122214759,-0.058757894,-0.129565341,-0.000600944,0.005370842,-0.013650695
1.76967E+18,8.353157227,0.356886269,0.084078798,-0.012780717,0.007079159,-0.004822881,-0.009310964
1.76967E+18,8.36314502,0.170925306,0.029767946,-0.023179069,0.007619515,-0.011870671,-0.002526828
1.76967E+18,8.373133789,-0.051055649,-0.025284663,-0.013840309,0.00786108,0.009792096,-0.012888702
1.76967E+18,8.383123047,0.041601007,-0.026292964,0.029541663,0.005438668,-0.001885599,-0.006204167
1.76967E+18,8.393111084,0.042145197,-0.039749827,0.023314678,0.005216775,0.000978323,-0.008974804
1.76967E+18,8.403099854,0.078882983,-0.058490183,0.051860755,0.000665698,0.001416945,-0.002637546
1.76967E+18,8.413087646,-0.007650807,-0.063870707,0.046846361,-0.000974395,0.004359782,0.001849322
1.76967E+18,8.423076904,-0.031783378,-0.049859717,0.038079482,-0.004489235,0.002299294,0.001341724
1.76967E+18,8.433065918,0.026467736,-0.037674189,0.04130239,-0.007961964,-0.003859241,0.000994382
1.76967E+18,8.443054199,0.04352993,-0.01929799,0.039996276,-0.007052761,-0.00737994,-0.000616032
1.76967E+18,8.453042969,0.012038228,-0.025212767,0.016894217,-0.007078737,-0.009169692,-0.000484717
1.76967E+18,8.463031982,-0.020617256,-0.022604631,-0.017584391,-0.003668293,-0.006473775,-0.00217103
1.76967E+18,8.473020264,-0.018555063,-0.011022914,-0.035500499,-0.000539146,-0.000989777,-0.001900852
1.76967E+18,8.483008789,-0.014523615,-0.011882745,-0.036611163,0.000985247,0.001803347,-0.004867347
1.76967E+18,8.492997803,-0.001148001,-0.025819501,-0.03728329,0.004367362,0.003054758,-0.005000039
1.76967E+18,8.502986084,0.014276947,-0.042542672,-0.032113633,0.00244243,-0.000900569,-0.003866332
1.76967E+18,8.512974854,0.024266426,-0.054418403,-0.012411372,0.001927925,-0.002908112,-0.002336651
1.76967E+18,8.522963867,0.054119128,-0.053074003,-0.007601999,-0.00095042,-0.005251694,-0.003393926
1.76967E+18,8.532952148,0.036398763,-0.041896775,-0.008414704,0.000941404,-0.00138871,-0.003155666
1.76967E+18,8.542940918,0.019411387,-0.031779286,-0.009365648,-0.004225128,-0.002916299,-0.000549763
1.76967E+18,8.552928955,0.015861586,-0.013273323,-0.010829656,-3.17147E-05,-0.001418005,0.000763175
1.76967E+18,8.562917969,0.023902854,0.000216858,-0.005078765,-0.001251176,-0.000463262,0.001945885
1.76967E+18,8.572906982,0.02852233,0.009622399,-0.025030469,0.000512244,0.004019211,0.003419393
1.76967E+18,8.58289502,0.016509236,0.031288872,-0.037111879,0.001007326,0.009608122,0.003724059
1.76967E+18,8.592884033,0.009504326,0.017411154,-0.025193186,0.000812983,0.008395171,0.006920774
1.76967E+18,8.602872803,0.004724106,-0.017992168,-0.010080811,-0.000617667,0.005561034,0.006579889
1.76967E+18,8.61286084,-0.000557049,-0.024008068,-0.005613456,-0.000550288,0.003252738,0.005023812
1.76967E+18,8.622850098,0.00826397,-0.049030865,-0.009420155,-0.002225949,-0.001681034,0.001827486
1.76967E+18,8.632838867,0.006865794,-0.03524024,-0.013599121,-0.004450464,-0.000206025,0.000262034
1.76967E+18,8.642826904,0.004466332,-0.016706805,-0.033000133,-0.005123444,-0.002503534,0.00080665
1.76967E+18,8.652816162,0.027156887,-0.012170915,-0.032532516,-0.004823652,-0.00659048,0.001856359
1.76967E+18,8.662804688,0.030911271,-0.008595394,-0.01786277,-0.005599164,-0.008304224,0.005154151
1.76967E+18,8.672792725,0.001793898,-0.006570611,0.012833324,-0.006657056,-0.00718123,0.004702642
1.76967E+18,8.682781982,-0.018582535,0.002106617,0.006236849,-0.007431237,-0.004828061,0.007510147
1.76967E+18,8.69277002,-0.013128362,-0.000707271,-0.003949541,-0.007104228,-0.004631542,0.006857999
1.76967E+18,8.702759033,-0.008995792,-0.015965631,-0.007636852,-0.006126315,-0.005274696,0.005977558
1.76967E+18,8.712748047,0.007812135,-0.038037177,-0.017790947,-0.007421752,-0.007200551,0.004847997
1.76967E+18,8.72273584,0.005060206,-0.048634559,-0.027779987,-0.006485119,-0.006353932,0.005368379
1.76967E+18,8.732725098,0.011411621,-0.047687634,-0.022914573,-0.006374101,-0.007042852,0.004650727
1.76967E+18,8.742713867,0.032280806,-0.04418401,-0.005610387,-0.007685442,-0.008528629,0.005612128
1.76967E+18,8.752701904,0.019715339,-0.027900399,0.005998144,-0.007358322,-0.00883736,0.00524737
1.76967E+18,8.762691162,0.011745967,-0.023531682,0.002723945,-0.007486952,-0.008248002,0.004838575
1.76967E+18,8.772679932,0.012228782,-0.031232174,-0.016639146,-0.00837582,-0.004330887,0.005575285
1.76967E+18,8.782667725,-0.005323825,-0.024079964,-0.033176586,-0.008165696,-0.002171596,0.006289545
1.76967E+18,8.792656982,0.014098083,-0.015909517,-0.049910863,-0.008427259,-0.001487659,0.007446231
1.76967E+18,8.802645996,0.040442485,0.005985504,-0.042843482,-0.006891946,-0.000254615,0.006964465
1.76967E+18,8.812633789,0.053093877,-0.005548866,-0.024099326,-0.005987119,-0.004276475,0.009284314
1.76967E+18,8.822623047,0.064323711,-0.015225626,-0.00797339,-0.009341104,-0.001205051,0.008880312
1.76967E+18,8.83261084,0.072896309,-0.047538581,0.011440043,-0.008322259,-0.003124984,0.010255994
1.76967E+18,8.842599854,0.059363459,-0.041277767,-0.007215484,-0.007893224,0.000929412,0.010110053
1.76967E+18,8.852588867,0.035272973,-0.029141339,-0.034639863,-0.007351023,0.004096229,0.009743376
1.76967E+18,8.862576904,0.033988194,-0.020226211,-0.037933863,-0.006343284,0.006373231,0.007926567
1.76967E+18,8.872565918,0.054991235,-0.010385785,-0.039347018,-0.004920114,0.005397032,0.006254948
1.76967E+18,8.882554932,0.067888126,-0.01262275,-0.02793189,-0.003358437,0.001602827,0.008824365
1.76967E+18,8.892542969,0.058075757,-0.00063596,0.001373626,-0.00180685,-0.000699721,0.009249078
1.76967E+18,8.902531738,0.060170099,-0.002642039,0.024291707,-0.004219142,-0.000937807,0.01109891
1.76967E+18,8.912520508,0.045381695,-0.004226093,-0.005385492,-0.001655787,0.001003749,0.015243735
1.76967E+18,8.922508545,0.044714171,-0.012480711,-0.046527358,0.000971954,0.005794509,0.012482303
1.76967E+18,8.93249707,0.04953823,-0.020118659,-0.042546325,0.002189163,0.00893049,0.01463598
1.76967E+18,8.942486328,0.029710079,-0.021831308,-0.033925943,0.002306076,0.011483929,0.014473794
1.76967E+18,8.952474365,0.014531799,-0.029708325,-0.014540055,-0.000118603,0.012167328,0.01532521
1.76967E+18,8.962463379,0.001237433,-0.03872516,-0.016488851,0.000641464,0.013956706,0.01266338
1.76967E+18,8.972451416,0.006983283,-0.047474283,-0.010191943,0.000546847,0.012589316,0.012681641
1.76967E+18,8.98244043,0.009473931,-0.039355274,-0.002826967,-0.001474226,0.014557391,0.012888302
1.76967E+18,8.992429688,0.026913726,-0.033173955,-0.004967048,-0.001658517,0.011969864,0.013662217
1.76967E+18,9.00241748,0.035846974,-0.033452772,-0.01630122,-0.002067046,0.009175941,0.016366391
1.76967E+18,9.01240625,0.015327918,-0.027470191,-0.013363924,-0.002902368,0.008541128,0.017718788
1.76967E+18,9.022395508,0.007028876,-0.035379356,-0.014785554,-0.003897325,0.010583241,0.01909937
1.76967E+18,9.032383545,-0.00725041,-0.038507718,-0.015266981,-0.002910136,0.011522969,0.017330056
1.76967E+18,9.042372314,0.006254384,-0.028248189,-0.010130422,-0.002813729,0.009961291,0.015380356
1.76967E+18,9.052361572,0.039908232,-0.038581367,-0.000741539,-0.005324624,0.007073376,0.018004768
1.76967E+18,9.062349365,-4.50082E-05,-0.047442135,0.005413915,-0.004422612,0.008665681,0.017753365
1.76967E+18,9.072338379,-0.003468553,-0.040443654,-0.013688261,-0.003682066,0.007403549,0.018559663
1.76967E+18,9.082327393,-0.013961305,-0.031018823,-0.02944719,-0.004980357,0.007401152,0.01587786
1.76967E+18,9.09231543,0.011555413,-0.037975803,-0.006471242,-0.002022875,0.005261401,0.017001361
1.76967E+18,9.102304443,0.021921324,-0.00191314,-0.012033698,-0.000673185,0.0046289,0.012395689
1.76967E+18,9.112292236,0.063400751,-0.001129881,0.000320683,-0.001246087,0.003322977,0.00918829
1.76967E+18,9.12228125,0.075338442,-0.035274142,0.027611499,-0.004210451,-0.001837696,0.00819786
1.76967E+18,9.132270264,0.033970659,-0.064284548,-0.000677534,-0.006581085,-0.002469581,0.010583296
1.76967E+18,9.142258545,0.003463877,-0.053477908,-0.021892683,-0.007994691,-0.000671947,0.011514338
1.76967E+18,9.152247314,-0.009048983,-0.026986207,-0.065418375,-0.007822669,-0.002918271,0.012805478
1.76967E+18,9.162236328,-0.026489948,0.001836568,-0.06753281,-0.003453487,0.009941068,0.013239573
1.76967E+18,9.172224365,-0.006058569,0.027490064,-0.038713104,-0.000790041,0.009835023,0.015744502
1.76967E+18,9.182213379,0.009525953,0.061136313,-0.032263197,0.000460845,0.011938919,0.014729839
1.76967E+18,9.192202148,0.045233226,0.05430676,-0.01048245,-0.000525044,0.011499574,0.015715715
1.76967E+18,9.20219043,0.042045829,0.043439329,-4.69079E-05,-0.000326904,0.009932837,0.014673354
1.76967E+18,9.212179443,0.040654082,0.017760113,0.022713936,-0.005412231,0.005269692,0.012745801
1.76967E+18,9.222168213,0.037032384,-0.02633388,0.047228638,-0.011109265,-0.000807642,0.0094046
1.76967E+18,9.23215625,0.025234979,-0.059692544,0.039100204,-0.014057618,-0.005938729,0.005599675
1.76967E+18,9.242145264,0.024266426,-0.047898062,0.024439372,-0.016148467,-0.009204031,0.003574074
1.76967E+18,9.252133301,0.031643092,-0.016727847,0.009050737,-0.018633962,-0.014603633,0.002471194
1.76967E+18,9.262122559,0.031772856,0.006892682,-0.005103314,-0.018694682,-0.013307739,0.001945486
1.76967E+18,9.272111328,0.031722587,-0.000137947,-0.01186141,-0.018593416,-0.015032084,0.002338968
1.76967E+18,9.282099365,0.023780104,-0.016304654,0.012990561,-0.017800059,-0.017979139,0.001655068
1.76967E+18,9.292088379,0.017137597,-0.030749359,0.003359028,-0.016342189,-0.018155532,0.002955644
1.76967E+18,9.302077148,0.004715338,-0.038072833,0.00602474,-0.017129952,-0.015136305,0.003665377
1.76967E+18,9.312065186,0.000766308,-0.039379824,-0.022276275,-0.017114997,-0.017414609,0.004300987
1.76967E+18,9.322054443,0.020675124,-0.022637948,-0.031217561,-0.016478766,-0.01720635,0.006393433
1.76967E+18,9.332043457,-0.005416764,-0.015700258,-0.032196708,-0.014620777,-0.017208153,0.006131043
1.76967E+18,9.34203125,-0.019356442,-0.024960254,-0.018482728,-0.013611972,-0.01707473,0.006610412
1.76967E+18,9.352020264,-0.024321371,-0.03077157,-0.016906419,-0.010732207,-0.013554696,0.006321814
1.76967E+18,9.362009277,-0.028937925,-0.025848727,0.002730886,-0.011288275,-0.014475618,0.006294117
1.76967E+18,9.371997559,-0.013605916,-0.032637364,-0.011222382,-0.012148663,-0.016073922,0.006252948
1.76967E+18,9.381986328,0.018621698,-0.051073185,-0.019562632,-0.012213645,-0.02006813,0.006348023
1.76967E+18,9.391975342,0.044233694,-0.026524434,-0.044166109,-0.009804912,-0.015840765,0.009587679
1.76967E+18,9.401963623,0.001735445,-0.036411038,-0.062197951,-0.007767328,-0.008419601,0.011168265
1.76967E+18,9.411952393,-0.057127078,-0.029214404,-0.042185018,-0.00759952,-0.008026898,0.013535764
1.76967E+18,9.421940186,-0.050512628,-0.025848727,-0.028736338,-0.007861576,-0.008599477,0.012721103
1.76967E+18,9.431929443,-0.014019173,-0.01328326,-0.029676396,-0.006460951,-0.010293797,0.012703391
1.76967E+18,9.441918457,0.006196517,0.007057517,-0.014520766,-0.005570123,-0.010180079,0.011876212
1.76967E+18,9.451906494,0.014023265,0.002070377,-0.031880628,-0.004519378,-0.00844633,0.010870874
1.76967E+18,9.461895508,0.0278437,0.003815174,-0.041214273,-0.004689021,-0.011355568,0.012806727
1.76967E+18,9.471884521,0.047137599,0.014614801,-0.01746208,-0.005893079,-0.012594835,0.013729598
1.76967E+18,9.481872314,0.047864159,0.003126608,-0.001362521,-0.004872289,-0.014245196,0.015257187
1.76967E+18,9.491861328,0.014666823,0.005959201,0.000143354,-0.006268504,-0.014895747,0.017067712
1.76967E+18,9.501850342,-0.006935937,-0.006560089,-0.001527502,-0.007031234,-0.011886109,0.017123904
1.76967E+18,9.511838379,-0.004332476,-0.002586509,-0.02006744,-0.006196587,-0.012398958,0.018029092
1.76967E+18,9.521827393,-0.013383798,-0.014357027,-0.036859877,-0.005210686,-0.007761063,0.018361719
1.76967E+18,9.531816406,0.012429273,-0.019411972,-0.053037105,-0.004983729,-0.006934776,0.018161606
1.76967E+18,9.541804199,0.031454876,-0.014394436,-0.060601622,-0.004634588,-0.00697712,0.017508332
1.76967E+18,9.551793457,0.055264207,-0.019677929,-0.03645495,-0.00347102,-0.007987232,0.017536761
1.76967E+18,9.561782227,0.040642392,-0.034855625,-0.02613127,-0.00485613,-0.005843122,0.017475242
1.76967E+18,9.571770264,0.027329321,-0.035965632,-0.008020444,-0.005581953,-0.004810963,0.017604096
1.76967E+18,9.581759521,0.034791327,-0.018655016,-0.003138371,-0.006741227,-0.005366233,0.017672272
1.76967E+18,9.591747314,0.043455111,-0.011524434,-0.005292919,-0.009487925,-0.009764245,0.014959137
1.76967E+18,9.601736084,0.063260466,-0.00266542,-0.01175342,-0.009721219,-0.008016945,0.015733849
1.76967E+18,9.611725342,0.063722823,0.000993687,-0.01579159,-0.008587242,-0.008386125,0.014673376
1.76967E+18,9.621713379,0.032955344,0.007903905,-0.02151384,-0.007851943,-0.008285191,0.015402284
1.76967E+18,9.631702637,0.039383331,-8.47557E-05,-0.023923385,-0.006744566,-0.004803082,0.016174799
1.76967E+18,9.641691406,0.039792497,-0.019411972,-0.021696357,-0.005821514,-0.004487231,0.01562592
1.76967E+18,9.651679199,0.019490882,-0.018003859,-0.027609818,-0.003785384,-0.004048767,0.017028853
1.76967E+18,9.661668457,0.004610709,-0.029976036,-0.024936361,-0.005573431,-0.001907319,0.017467476
1.76967E+18,9.671657227,0.012708675,-0.033355742,-0.027000527,-0.00547516,-0.003253281,0.017083181
1.76967E+18,9.681645264,0.020033319,-0.018732173,-0.017902736,-0.004070875,-0.005780886,0.018600918
1.76967E+18,9.691634521,0.01814239,-0.029316695,-0.005472294,-0.005442429,-0.005459329,0.018624933
1.76967E+18,9.701623535,0.01127835,-0.028343466,-0.009497092,-0.009499756,-0.007341119,0.017532505
1.76967E+18,9.711611084,0.001638999,-0.022814474,-0.00438954,-0.008382466,-0.005530566,0.01578529
1.76967E+18,9.721600342,0.000799626,-0.020102877,0.003146993,-0.011746039,-0.00753353,0.01819838
1.76967E+18,9.731588379,0.002632102,-0.010045593,0.007271014,-0.012659812,-0.010574959,0.017666901
1.76967E+18,9.741577393,0.017900983,0.002898644,0.015501813,-0.013912564,-0.011692422,0.0178962
1.76967E+18,9.751566406,0.001789222,0.007578911,0.004487155,-0.013838242,-0.014922886,0.017723585
1.76967E+18,9.761554443,-0.012000819,-0.012648469,-0.000889496,-0.010834197,-0.009352086,0.015550178
1.76967E+18,9.771543213,-0.037964112,-0.018920389,-0.021502661,-0.009004351,-0.004292157,0.013496374
1.76967E+18,9.781532227,-0.056687517,-0.013141806,-0.032213659,-0.006098044,0.000123098,0.009854235
1.76967E+18,9.791520264,-0.05587737,-0.004145429,-0.035405222,-0.004557868,0.000781416,0.006022076
1.76967E+18,9.801509277,-0.038505379,-0.008245266,-0.042186552,-0.003729625,-0.0022703,0.004165053
1.76967E+18,9.811498535,-0.016111761,0.008099135,-0.034928544,-0.002982386,-0.000686617,0.004617879
1.76967E+18,9.821486572,0.0011065,-0.004326047,-0.001846797,-0.003491316,-0.008713385,0.004803501
1.76967E+18,9.831475342,-0.012718612,-0.011559505,-0.010575755,-0.005372362,-0.012331197,0.008897689
1.76967E+18,9.841464355,-0.041809097,-0.011615034,0.001522826,-0.006748417,-0.012387391,0.008096344
1.76967E+18,9.851452393,-0.05016133,-0.016247955,0.006453852,-0.006188343,-0.013949259,0.006988713
1.76967E+18,9.861441162,-0.007336919,-0.000687398,-0.000240823,-0.005542793,-0.009397917,0.006301085
1.76967E+18,9.87143042,0.001359013,0.00978665,-0.011332345,-0.007236452,-0.0135007,0.0081467
1.76967E+18,9.881418457,0.00249357,0.004046061,-0.006864333,-0.006120055,-0.015505527,0.008548037
1.76967E+18,9.891407471,0.002069792,0.00709142,0.010689956,-0.005161462,-0.020317169,0.009010119
1.76967E+18,9.901395264,-0.010977321,0.014692542,0.001328107,-0.004266374,-0.018488111,0.010757153
1.76967E+18,9.911384277,-0.023298458,0.012436288,0.022830475,-0.004362225,-0.020506836,0.010685735
1.76967E+18,9.921373291,-0.00757365,0.011029928,0.023241029,-0.00672072,-0.023509817,0.009559751
1.76967E+18,9.931361328,0.011080781,-1.63666E-05,0.026335999,-0.006812458,-0.024743818,0.008259844
1.76967E+18,9.941349854,-0.008535773,0.001339724,0.02018376,-0.007351481,-0.028169177,0.007949851
1.76967E+18,9.951339111,-0.011654782,-0.000153729,-0.015736498,-0.006463436,-0.03312235,0.010650537
1.76967E+18,9.961327148,0.007638532,0.012936054,-0.029214989,-0.005547309,-0.033638202,0.012148565
1.76967E+18,9.971315918,0.001659458,0.010593875,-0.053585094,-0.002192248,-0.031857539,0.011292604
1.76967E+18,9.981305176,-0.006705635,0.018121932,-0.051603419,-0.001643104,-0.027582364,0.005063737
1.76967E+18,9.991293213,0.01363105,0.021656536,-0.027820246,0.000866925,-0.025093906,0.00259978
1.76967E+18,10.00128198,0.015789105,0.01943243,-0.013523206,0.001793172,-0.024358874,-0.003961716
1.76967E+18,10.011271,0.011951719,0.009546996,0.000149638,0.000185642,-0.014765137,-0.007640517
1.76967E+18,10.02125903,0.012604046,-0.003231822,0.037303456,-0.005489022,-0.018107936,-0.009075427
1.76967E+18,10.03124805,-0.027646716,-0.02042261,0.054081938,-0.007381428,-0.028668476,-0.008064028
1.76967E+18,10.04123706,-0.024600188,-0.037642625,-0.006586977,-0.01022302,-0.030260248,-0.007939659
1.76967E+18,10.0512251,-0.029186347,-0.013295535,-0.038424204,-0.011719964,-0.02759767,-0.008194032
1.76967E+18,10.06121387,-0.042987493,0.014703648,-0.043234162,-0.009538569,-0.023758724,-0.009292587
1.76967E+18,10.07120215,-0.019447628,0.049065352,-0.063016063,-0.007437,-0.022290004,-0.013010228
1.76967E+18,10.08119116,0.017398294,0.072387775,-0.073199165,-0.004795942,-0.021482268,-0.014348468
1.76967E+18,10.09117993,0.06674597,0.084095164,-0.074009751,-0.005690833,-0.018929347,-0.013945129
1.76967E+18,10.10116821,0.069693129,0.074302085,-0.074752093,-0.005194953,-0.024062857,-0.013299046
1.76967E+18,10.11115723,0.088234164,0.082629768,-0.086243867,-0.00770993,-0.034041636,-0.012025479
1.76967E+18,10.121146,0.082532153,0.068722823,-0.11841734,-0.011128098,-0.041685976,-0.012957852
1.76967E+18,10.13113403,0.096763507,0.064388593,-0.161733992,-0.013160287,-0.051217444,-0.014376119
1.76967E+18,10.14112305,0.078328856,0.048360419,-0.16465894,-0.015097471,-0.062151853,-0.016731152
1.76967E+18,10.1511123,0.034570378,0.03138941,-0.184805217,-0.017920379,-0.066694833,-0.022766761
1.76967E+18,10.1611001,0.024848026,-0.010596797,-0.17710173,-0.015443638,-0.069974251,-0.029474732
1.76967E+18,10.17108911,-0.007406477,-0.031822541,-0.196846587,-0.020443168,-0.073644206,-0.03835056
1.76967E+18,10.18107837,-0.033035424,-0.019996494,-0.188909291,-0.024346828,-0.104350716,-0.017969923
1.76967E+18,10.19106616,-0.190315067,-0.095930563,-0.188353265,-0.018710736,-0.076384768,-0.049224604
1.76967E+18,10.20105493,0.242036486,0.024580315,-0.325585268,-0.016821224,-0.088117324,-0.046101779
1.76967E+18,10.21104419,0.14859657,0.028155835,-0.283026084,-0.017590256,-0.100686446,-0.045851883
1.76967E+18,10.22103223,0.021219898,-0.002673019,-0.301315116,-0.015467452,-0.101621479,-0.050694577
1.76967E+18,10.231021,0.043870121,0.010510288,-0.287242167,-0.016953949,-0.121986613,-0.047943957
1.76967E+18,10.24100879,-0.002064531,0.03947627,-0.310162512,-0.016656209,-0.130685836,-0.0496055
1.76967E+18,10.25099805,-0.020324411,0.032578912,-0.330662864,-0.020252174,-0.131524459,-0.061182998
1.76967E+18,10.26098706,-0.007527473,0.08500468,-0.369614672,-0.023907894,-0.132227272,-0.059915327
1.76967E+18,10.27097534,-0.05323007,0.022295418,-0.371590283,-0.022416426,-0.161596581,-0.039311718
1.76967E+18,10.28096411,-0.057885787,-0.052774143,-0.420699255,-0.015620305,-0.180794254,-0.029484119
1.76967E+18,10.29095313,0.063791212,-0.012389526,-0.383390538,-0.015350671,-0.18584691,-0.020671433
1.76967E+18,10.30094116,0.023315409,-0.013862521,-0.295891118,-0.019166447,-0.20533672,-0.018635446
1.76967E+18,10.31092993,-0.007291911,-0.032372576,-0.309433248,-0.023605671,-0.220761746,-0.015670549
1.76967E+18,10.32091895,-0.024986557,-0.069395608,-0.323735403,-0.026507717,-0.22919172,-0.018393366
1.76967E+18,10.33090723,-0.033672552,-0.067413494,-0.339605684,-0.02482135,-0.241209581,-0.018316243
1.76967E+18,10.340896,-0.034328971,-0.086060911,-0.395474286,-0.022749944,-0.245580107,-0.019152209
1.76967E+18,10.35088501,-0.055806643,-0.111467155,-0.404988841,-0.018043404,-0.24721314,-0.026578303
1.76967E+18,10.36087305,-0.066350249,-0.127999188,-0.380771149,-0.013483273,-0.266255289,-0.030240148
1.76967E+18,10.37086206,-0.047384267,-0.135725983,-0.359296107,-0.010057451,-0.280884802,-0.038366918
1.76967E+18,10.38085083,-0.037601709,-0.09163082,-0.340413054,-0.003093551,-0.291002929,-0.043850631
1.76967E+18,10.39083911,-0.031363107,-0.03311375,-0.334337169,0.005870793,-0.298960984,-0.045433905
1.76967E+18,10.40082813,-0.045480479,0.034651627,-0.316562077,0.015726887,-0.308545709,-0.048668046
1.76967E+18,10.41081616,-0.05726561,0.03645663,-0.266742546,0.02321893,-0.317445278,-0.043882161
1.76967E+18,10.42080493,-0.060671034,0.019448212,-0.237731555,0.027560148,-0.321666926,-0.038963836
1.76967E+18,10.43079395,-0.035553544,0.004366379,-0.203450296,0.032811228,-0.332412153,-0.037169378
1.76967E+18,10.44078198,-0.013149989,0.011488193,-0.145009359,0.039527453,-0.344251484,-0.033789828
1.76967E+18,10.45077124,0.021852935,0.025737083,-0.096394382,0.043991406,-0.357366771,-0.024642583
1.76967E+18,10.46076001,0.011101824,0.052227031,-0.065411214,0.044718713,-0.375542045,-0.019664869
1.76967E+18,10.47074805,0.031451369,0.061493456,0.037232145,0.04855242,-0.396464258,-0.023982828
1.76967E+18,10.48073706,0.053534606,0.020592122,0.079294778,0.055655606,-0.41276893,-0.027722972
1.76967E+18,10.49072583,-0.046257309,0.017404724,0.023638942,0.062966339,-0.41100198,-0.032528561
1.76967E+18,10.50071387,-0.131000123,0.024607203,-0.03945552,0.070897765,-0.398207903,-0.042003289
1.76967E+18,10.51070313,-0.131912562,0.017967034,-0.087898064,0.067607895,-0.450975746,0.005948926
1.76967E+18,10.52069214,-0.378676076,-0.043132455,-0.206387227,0.039608486,-0.451452971,-0.006936246
1.76967E+18,10.53068018,-0.007215338,0.004780805,-0.275628374,0.075876266,-0.391285598,-0.035569333
1.76967E+18,10.54066919,0.226527951,0.180089441,0.095368107,0.083428457,-0.359125525,-0.068372816
1.76967E+18,10.55065796,0.409171753,0.163112002,0.090857352,0.082272142,-0.373766005,-0.06085797
1.76967E+18,10.56064624,0.271029356,0.033781274,0.049489861,0.064728566,-0.406718075,-0.036877807
1.76967E+18,10.57063501,0.094940968,-0.034347675,0.015217443,0.044654328,-0.421192944,-0.028387386
1.76967E+18,10.58062305,0.10106968,-0.008348726,-0.01331877,0.037952486,-0.423424661,-0.020387519
1.76967E+18,10.5906123,0.084114453,0.077509356,-0.035689299,0.046506137,-0.4027161,-0.034595706
1.76967E+18,10.60060107,0.131377724,0.131871645,0.032917642,0.061737552,-0.366161823,-0.050810628
1.76967E+18,10.61058887,0.112748427,0.091850601,0.143649323,0.07430733,-0.372379273,-0.060073204
1.76967E+18,10.62057813,0.076366031,0.02735504,0.215208246,0.07155069,-0.393492818,-0.055832922
1.76967E+18,10.63056714,0.030129181,-0.071316347,0.143223791,0.0642322,-0.401102841,-0.053911455
1.76967E+18,10.64055493,0.006672902,-0.115069564,0.079379388,0.060547709,-0.404533535,-0.06064393
1.76967E+18,10.65054419,0.027940731,-0.090847561,0.041000119,0.066083714,-0.402693599,-0.066424228
1.76967E+18,10.6605332,0.026308161,-0.050398062,0.106361503,0.087039061,-0.395669252,-0.081300914
1.76967E+18,10.670521,0.011784546,-0.043712885,0.241910814,0.098473817,-0.395447046,-0.090778194
1.76967E+18,10.68051001,-0.076610361,-0.07494915,0.330816301,0.13276495,-0.407458186,-0.094799303
1.76967E+18,10.69049902,-0.231198281,-0.165250768,0.302651552,0.118471734,-0.431911498,-0.07193841
1.76967E+18,10.70048706,-0.464039069,-0.240455354,0.060612436,0.094185039,-0.36683315,-0.088612996
1.76967E+18,10.71047607,-0.462683562,-0.089632925,0.380228274,0.068796128,-0.333521366,-0.123452336
1.76967E+18,10.72046509,-0.187821496,-0.124284551,0.510114299,0.062301479,-0.343709558,-0.134010702
1.76967E+18,10.73045288,-0.139825235,-0.167483057,0.53932578,0.059013285,-0.386906385,-0.148250118
1.76967E+18,10.74044214,-0.087272041,-0.295920636,0.455146007,0.037511457,-0.397962511,-0.167585731
1.76967E+18,10.75043018,-0.038980596,-0.245079507,0.438244702,0.011606645,-0.393161207,-0.185919255
1.76967E+18,10.76041919,-0.062751347,-0.22100948,0.429953698,-0.00615158,-0.38964051,-0.202562138
1.76967E+18,10.7704082,-0.034518356,-0.139632927,0.428078259,-0.027357256,-0.395910829,-0.21348086
1.76967E+18,10.780396,0.017615736,-0.120066057,0.490211182,-0.039243743,-0.40168643,-0.21248138
1.76967E+18,10.79038501,0.042648471,-0.085074238,0.563087472,-0.056642231,-0.408425748,-0.205069676
1.76967E+18,10.80037402,-0.00125263,-0.09176643,0.69172335,-0.080212541,-0.411325932,-0.186718643
1.76967E+18,10.81036206,-0.09265841,-0.118901689,0.71380045,-0.098401405,-0.420118451,-0.18346183
1.76967E+18,10.82035132,-0.138174545,-0.185106977,0.659144146,-0.120596454,-0.407697737,-0.183428004
1.76967E+18,10.83034009,-0.235696177,-0.28784722,0.60023793,-0.144287467,-0.370678633,-0.195929855
1.76967E+18,10.84032788,-0.368372125,-0.243368611,0.433045088,-0.158233106,-0.32562834,-0.186193064
1.76967E+18,10.85031714,-0.437681808,-0.098130119,0.306174319,-0.164548248,-0.259781599,-0.184256434
1.76967E+18,10.86030591,-0.30591713,-0.047817398,0.204256498,-0.162693352,-0.192252889,-0.187750235
1.76967E+18,10.87029395,-0.181452546,0.053214288,0.197210087,-0.162838429,-0.145465627,-0.179240495
1.76967E+18,10.8802832,-0.088249361,0.141356682,0.253830676,-0.158997089,-0.115983896,-0.169398263
1.76967E+18,10.89027222,0.083121935,0.141651281,0.349795142,-0.154038176,-0.105631717,-0.157400116
1.76967E+18,10.90025977,0.105965635,0.064166475,0.48466217,-0.156416923,-0.100377567,-0.149437264
1.76967E+18,10.91024902,0.113247024,0.190968562,0.652658145,-0.148725808,-0.108910464,-0.136166289
1.76967E+18,10.92023706,0.073728084,0.181319859,0.657157502,-0.140761882,-0.111742467,-0.126897424
1.76967E+18,10.93022607,-0.001660042,0.11100246,0.629213557,-0.138713121,-0.101018943,-0.121838972
1.76967E+18,10.94021509,-0.0645394,0.043722237,0.498083377,-0.144180596,-0.110291004,-0.100375228
1.76967E+18,10.95020313,-0.145607325,-0.033065819,0.300350143,-0.141743258,-0.101693831,-0.07759992
1.76967E+18,10.96019214,-0.161857034,0.01699965,0.284042567,-0.128065258,-0.09095224,-0.06425482
1.76967E+18,10.97018115,-0.080152564,0.087639705,0.295581029,-0.113863938,-0.082088903,-0.048515826
1.76967E+18,10.98016895,-0.105200496,0.14233751,0.274774388,-0.097560868,-0.069624774,-0.035697766
1.76967E+18,10.99015796,-0.08365385,0.126015321,0.313112886,-0.082375728,-0.061019123,-0.010466555
1.76967E+18,11.00014722,-0.168725166,0.113859603,0.343478799,-0.069668457,-0.043341327,0.019045532
1.76967E+18,11.01013501,-0.328715822,0.037930794,0.31303573,-0.062772736,-0.00759638,0.047341883
1.76967E+18,11.02012427,-0.448130721,-0.004290391,0.287437762,-0.049007922,0.049712982,0.064725935
1.76967E+18,11.03011328,-0.472251601,0.008522914,0.273389363,-0.027188111,0.111502051,0.073995069
1.76967E+18,11.04010107,-0.422415849,-0.004127309,0.222283592,-0.001706986,0.195707992,0.069996864
1.76967E+18,11.05009009,-0.41587505,0.004684943,0.156706811,0.022359189,0.241780341,0.077131495
1.76967E+18,11.0600791,-0.340057884,-0.089315529,0.221356394,0.038746953,0.29940024,0.086280517
1.76967E+18,11.07006714,-0.202339266,-0.042066871,0.199581492,0.052687656,0.332627594,0.109495848
1.76967E+18,11.08005615,-0.109744569,-0.023096798,0.143110102,0.0618998,0.368736327,0.131779313
1.76967E+18,11.09004517,-0.002785247,0.014967852,0.097074765,0.067704424,0.399598897,0.156310752
1.76967E+18,11.10003296,0.031058571,-0.011462474,0.105041506,0.074199878,0.427348226,0.171686515
1.76967E+18,11.11002222,0.085869188,-0.003235913,0.195738115,0.085684404,0.442587852,0.181090027
1.76967E+18,11.12001025,0.119405547,0.024220249,0.325186624,0.114523515,0.505834162,0.157402545
1.76967E+18,11.12999902,0.269310862,0.205388133,0.606099661,0.143205211,0.565082967,0.145709425
1.76967E+18,11.13998828,0.35309623,0.252509365,0.51388958,0.166736647,0.625860572,0.138803318
1.76967E+18,11.14997607,0.441488799,0.279273453,0.475418541,0.180262208,0.627463937,0.155555308
1.76967E+18,11.15996484,0.556418662,0.238734522,0.438913249,0.176279977,0.608295619,0.186824277
1.76967E+18,11.1699541,0.724322575,0.189505504,0.65322104,0.145446256,0.47745961,0.254422069
1.76967E+18,11.17994214,0.734400901,0.119198042,0.544877423,0.125040576,0.462197304,0.249423862
1.76967E+18,11.18993115,1.250629007,0.263172798,0.52427668,0.107254028,0.525395155,0.224368766
1.76967E+18,11.19992017,1.331688164,0.325517318,0.493688795,0.109343812,0.559439123,0.229495093
1.76967E+18,11.20990796,0.977835563,0.353313672,0.417817854,0.111026026,0.578496993,0.238245368
1.76967E+18,11.21989697,0.765589235,0.446376571,0.348564139,0.124233715,0.600146651,0.234345973
1.76967E+18,11.22988599,0.749900083,0.441008322,0.38688028,0.13456136,0.651232004,0.229476288
1.76967E+18,11.23987402,0.655225657,0.348943786,0.516050996,0.128018245,0.718901873,0.202009767
1.76967E+18,11.24986328,0.752457951,0.200917709,0.586702156,0.108827375,0.772519827,0.175702006
1.76967E+18,11.25985132,0.793649209,0.136714409,0.604448241,0.084493004,0.817731798,0.155655056
1.76967E+18,11.26984009,0.867687674,0.238048878,0.560059502,0.064646229,0.838081241,0.137376934
1.76967E+18,11.2798291,1.072986375,0.332291342,0.503068764,0.05647698,0.822570443,0.150580078
1.76967E+18,11.28981714,1.078422428,0.223141231,0.339194838,0.060713504,0.760571063,0.159610912
1.76967E+18,11.29980615,1.171034661,0.231053904,0.2239657,0.093157724,0.694200814,0.153131709
1.76967E+18,11.30979517,1.114131455,0.232056359,0.163404702,0.144574925,0.66956228,0.130406827
1.76967E+18,11.3197832,0.85557638,0.177162155,0.076592387,0.214966536,0.711951315,0.103463367
1.76967E+18,11.32977222,0.442681808,0.093695352,-0.019665947,0.281344026,0.804517627,0.072361991
1.76967E+18,11.33976099,0.108048287,0.125456518,-0.023164164,0.346291065,0.878940225,0.060736232
1.76967E+18,11.34974902,-0.0353022,0.199103353,0.09100962,0.396299422,0.925255954,0.061590463
1.76967E+18,11.35973804,0.049178165,0.240811913,0.173286483,0.431659281,0.971515596,0.060651965
1.76967E+18,11.36972729,0.340518488,0.235599731,0.344489437,0.455474377,0.989439964,0.066920184
1.76967E+18,11.37971509,0.64536828,0.22187808,0.390379228,0.458663255,0.964952767,0.107242301
1.76967E+18,11.3897041,0.752820355,0.145113989,0.332388373,0.45108071,0.951740682,0.148375064
1.76967E+18,11.39969312,0.850149095,-0.009911153,0.289854541,0.440025389,0.936057568,0.199203089
1.76967E+18,11.40968115,0.800057907,-0.2083803,0.2104951,0.425948709,0.926005423,0.280665278
1.76967E+18,11.41966992,0.48982116,-0.44220893,0.029052491,0.412035555,0.939051211,0.364006251
1.76967E+18,11.4296582,0.089169983,-0.629354719,-0.235667243,0.419252038,1.014327884,0.405152053
1.76967E+18,11.43964722,-0.139118548,-0.607682401,-0.383062694,0.464375049,1.109920979,0.434374899
1.76967E+18,11.44963599,-0.430861022,-0.63480597,-0.471023959,0.539581895,1.163405895,0.454306066
1.76967E+18,11.45962402,-0.697706955,-0.448054733,-0.610290756,0.645537078,1.261243463,0.429696083
1.76967E+18,11.46961304,-0.588569704,-0.619565731,-0.568434459,0.785115004,1.355002165,0.455739439
1.76967E+18,11.47960229,-0.987439258,-0.327431627,-0.438775448,0.894697964,1.443701386,0.460348308
1.76967E+18,11.48959033,-1.112272091,-0.344039647,-0.650018736,0.986892998,1.55994463,0.429243267
1.76967E+18,11.4995791,-0.894677972,-0.370078929,-0.43212505,1.038300753,1.631921887,0.420997828
1.76967E+18,11.50956836,-0.740427906,-0.349848626,-0.268685423,1.042852759,1.653672934,0.439730793
1.76967E+18,11.51955615,-0.387905677,-0.464601963,-0.154890775,1.023978114,1.65267086,0.458450675
1.76967E+18,11.52954492,0.212851308,-0.430026325,-0.025156726,0.966222882,1.669905782,0.4894858
1.76967E+18,11.53953418,0.489459926,-0.704859165,0.197626157,0.908470631,1.633642316,0.516305685
1.76967E+18,11.54952222,0.776892135,-0.71628306,0.377032291,0.84798795,1.59161675,0.541688025
1.76967E+18,11.55951123,0.939461701,-0.703168143,0.337203627,0.796278954,1.555780172,0.59479332
1.76967E+18,11.56950024,0.76174542,-0.796807965,0.108431514,0.747662365,1.537652612,0.649810016
1.76967E+18,11.57948804,0.582292523,-0.857199598,-0.166165727,0.712345958,1.556667566,0.674443483
1.76967E+18,11.58947705,0.573886514,-0.590040945,-0.346638614,0.702435076,1.579651475,0.69013685
1.76967E+18,11.59946606,0.50900926,-0.262437469,-0.478961218,0.715174079,1.577856779,0.716208875
1.76967E+18,11.6094541,0.469407902,-0.204940973,-0.458910839,0.740799069,1.588451862,0.731424689
1.76967E+18,11.61944312,0.449277553,-0.142485978,-0.307856829,0.759968519,1.554365039,0.739798427
1.76967E+18,11.62943115,0.552168019,-0.052049921,-0.241540044,0.770740509,1.50045073,0.768064559
1.76967E+18,11.63941992,0.653341743,-0.044077627,-0.424629653,0.767721534,1.469503164,0.798474431
1.76967E+18,11.64940894,0.855039205,0.048706456,-0.748379523,0.777716637,1.446395993,0.823597968
1.76967E+18,11.65939722,1.134931666,0.49990124,-0.804406677,0.808865488,1.509674668,0.82083571
1.76967E+18,11.66938623,1.372903387,0.850365368,-0.706520376,0.874530077,1.654183388,0.839648604
1.76967E+18,11.679375,1.338082249,0.867698195,-0.520837609,0.9396438,1.787789106,0.887341559
1.76967E+18,11.68936328,1.117182659,0.886407572,-0.397101193,1.004545569,1.848188162,0.949378252
1.76967E+18,11.69935205,1.074874965,0.898103855,-0.161647629,1.061264157,1.833972454,0.987990916
1.76967E+18,11.70934082,1.040764021,0.733086311,0.067211688,1.092827201,1.80134666,0.981782258
1.76967E+18,11.7193291,0.941757119,0.678582568,0.224068685,1.081202865,1.763266921,0.927161634
1.76967E+18,11.72931812,0.648369216,0.446723192,0.322577465,1.024618983,1.711080909,0.845405102
1.76967E+18,11.73930737,0.409500838,0.017915596,0.324952195,0.939597785,1.692588687,0.72734344
1.76967E+18,11.74929517,0.394939229,-0.12736732,0.29112679,0.833697379,1.706403732,0.595744967
1.76967E+18,11.75928394,0.588128974,-0.053204936,0.287708652,0.756040931,1.694704533,0.531927884
1.76967E+18,11.76927319,0.583345832,0.312749606,0.447143025,0.730989754,1.596593738,0.572450697
1.76967E+18,11.77926123,0.49951078,0.467263876,0.460714308,0.736892641,1.480801821,0.643344283
1.76967E+18,11.78925,0.428598922,0.482703437,0.443496924,0.755596101,1.391771913,0.70403564
1.76967E+18,11.79923926,0.096122287,0.484525976,0.488499264,0.771548688,1.322634816,0.764181852
1.76967E+18,11.80922729,-0.500341385,0.468293804,0.472200967,0.823476076,1.189399838,0.839613199
1.76967E+18,11.81921606,-1.075008236,0.289434782,0.591324775,0.905002058,1.11353755,0.919329643
1.76967E+18,11.82920386,-1.827956016,-0.373365111,0.814932893,1.015818596,1.076737523,0.967096746
1.76967E+18,11.83919312,-2.335043953,-1.022792895,1.209177783,1.105965495,1.032645464,0.969227552
1.76967E+18,11.84918213,-2.610126969,-1.482128317,1.222131811,1.136859298,0.969671607,0.876440644
1.76967E+18,11.85917041,-2.483273444,-1.861509911,1.074173539,1.122670531,0.945379376,0.707104921
1.76967E+18,11.86915918,-2.443864393,-1.944598529,1.143307719,1.038818359,0.915536642,0.481444597
1.76967E+18,11.87914819,-2.358148935,-1.813019144,0.915268559,0.890710413,0.779120207,0.280620426
1.76967E+18,11.88913623,-2.324398641,-1.312826812,0.554691436,0.719886303,0.526301503,0.189530537
1.76967E+18,11.899125,-2.118822877,-0.776499921,0.318076135,0.567180693,0.156844124,0.24537383
1.76967E+18,11.90911401,-1.774758679,-0.720976187,0.079701861,0.457508445,-0.193764925,0.370043427
1.76967E+18,11.91910254,-1.499457052,-1.117308916,0.088885504,0.369161785,-0.460929781,0.447853535
1.76967E+18,11.92909131,-1.10741676,-1.61739545,0.059921969,0.307341248,-0.621949017,0.457179546
1.76967E+18,11.93908008,-0.790125711,-2.239545351,-0.129545577,0.258547872,-0.669513106,0.391468972
1.76967E+18,11.94906836,-0.431487045,-2.594467627,-0.411600076,0.223635331,-0.632210135,0.285738498
1.76967E+18,11.95905737,0.04705635,-2.75742707,-0.685073683,0.196573347,-0.609437466,0.199381739
1.76967E+18,11.96904639,0.399317298,-2.749949281,-0.985869963,0.179481015,-0.596640646,0.172818884
1.76967E+18,11.97903442,0.382047891,-2.528144267,-1.184781374,0.180750281,-0.454987913,0.155433506
1.76967E+18,11.98902344,0.425778019,-2.062878286,-0.885954494,0.153504282,-0.319127917,0.15825595
1.76967E+18,11.99901123,0.27857758,-1.640381188,-1.013270157,0.070231751,-0.236398131,0.155009016
1.76967E+18,12.00900024,0.135923259,-1.054585626,-1.333336078,0.006892757,-0.227006197,0.192601085
1.76967E+18,12.01898926,0.026752106,-0.492821511,-1.389624805,-0.053686965,-0.264564484,0.222645536
1.76967E+18,12.02897729,0.221757084,0.327276729,-1.638968984,-0.166134804,-0.290437311,0.227570221
1.76967E+18,12.03896655,0.344568347,1.438994693,-2.110894129,-0.257697999,-0.277710885,0.249927461
1.76967E+18,12.04895532,-0.022940731,2.380749473,-2.204258642,-0.25954622,-0.159929916,0.318374962
1.76967E+18,12.05894312,-0.587905979,1.886056908,-2.040395529,-0.213661313,0.058554485,0.430842668
1.76967E+18,12.06893237,-1.175398117,0.856539672,-1.894083416,-0.163354486,0.313973874,0.554856777
1.76967E+18,12.07892114,-1.714411178,0.244447054,-1.9903663,-0.04407629,0.618105471,0.613485754
1.76967E+18,12.08890942,-1.828614773,-0.015090602,-1.41279496,0.13594985,0.859184504,0.601026893
1.76967E+18,12.09889844,-1.609352428,-0.588071107,-1.091698235,0.176230952,1.003813624,0.445644706
1.76967E+18,12.10888745,-0.926233386,-0.611494068,-1.852098232,0.313349307,1.035416603,0.364134878
1.76967E+18,12.11887524,-1.271511928,-0.751930128,-0.874925443,0.384274334,0.978230417,0.32119754
1.76967E+18,12.12886426,-0.843868699,-0.801948251,-1.137460016,0.355503678,0.954879224,0.230790645
1.76967E+18,12.13885327,-0.200595345,-0.010630115,-1.094281165,0.346735477,1.032603264,0.174728706
1.76967E+18,12.14884155,-0.128487848,0.50530573,-0.198967854,0.338624746,1.163704634,0.155480906
1.76967E+18,12.15883032,0.44222968,0.194197461,0.413038986,0.301242739,1.177139759,0.138156518
1.76967E+18,12.16881812,1.143096853,-0.086187753,0.740080846,0.236864686,1.085249662,0.121529892
1.76967E+18,12.17880737,1.697455075,-0.185710788,1.074487427,0.154038772,0.824944496,0.129094332
1.76967E+18,12.18879614,1.823462797,-0.157247494,1.207371756,0.071742684,0.473668426,0.14058882
1.76967E+18,12.19878418,1.634473426,0.029426585,1.412500507,-0.00104124,0.154400155,0.172587499
1.76967E+18,12.20877344,0.936139279,-0.051821373,1.449847803,-0.06472747,-0.061675038,0.190710172
