time,seconds_elapsed,z,y,x
1769659397813023500,0.0670234375,0.015209797769784927,0.014367586933076382,-0.046496886759996414
1769659397823011600,0.077011474609375,0.019572583958506584,0.014556095004081726,-0.05545800179243088
1769659397832999700,0.086999755859375,0.024815287441015244,0.017589746043086052,-0.06378426402807236
1769659397842987500,0.096987548828125,0.030181556940078735,0.01697908341884613,-0.07793230563402176
1769659397852976600,0.1069765625,0.03413529321551323,0.015187885612249374,-0.09605421125888824
1769659397862964700,0.11696484375,0.03857851028442383,0.013987332582473755,-0.1223374754190445
1769659397872952600,0.12695263671875,0.03955947980284691,0.012049327604472637,-0.1455782800912857
1769659397882940400,0.1369404296875,0.03908277302980423,0.016322102397680283,-0.16220705211162567
1769659397892928500,0.146928466796875,0.035543251782655716,0.025158710777759552,-0.17820122838020325
1769659397902916600,0.15691650390625,0.0677184984087944,0.022650545462965965,-0.20776310563087463
1769659397912904700,0.16690478515625,0.06758307665586472,-0.023636505007743835,-0.25718215107917786
1769659397922892500,0.176892578125,0.06864701211452484,-0.04424404352903366,-0.29462191462516785
1769659397932880600,0.186880615234375,0.05926904454827309,-0.04565541446208954,-0.3069209158420563
1769659397942869800,0.196869873046875,0.04886433854699135,-0.04089821130037308,-0.3226849436759949
1769659397952857900,0.20685791015625,0.04385414719581604,-0.025492757558822632,-0.3351953327655792
1769659397962845400,0.216845458984375,0.042082879692316055,-0.022736918181180954,-0.3512560725212097
1769659397972833500,0.22683349609375,0.042990781366825104,-0.015637986361980438,-0.367895245552063
1769659397982821600,0.236821533203125,0.05234300345182419,0.048169489949941635,-0.37386685609817505
1769659397992809500,0.2468095703125,0.05910966172814369,0.06906568259000778,-0.3887309432029724
1769659398002797600,0.256797607421875,0.053233664482831955,0.09876685589551926,-0.3775712251663208
1769659398012785700,0.26678564453125,0.040506139397621155,0.11090324074029922,-0.36149629950523376
1769659398022773800,0.276773681640625,0.031160574406385422,0.09001819789409637,-0.3459024429321289
1769659398032763000,0.286762939453125,0.025980420410633087,0.05958220362663269,-0.3349659740924835
1769659398042750700,0.296750732421875,0.021826954558491707,0.01583711989223957,-0.30522483587265015
1769659398052738600,0.306738525390625,0.029808400198817253,-0.02006598189473152,-0.2832380533218384
1769659398062726700,0.3167265625,0.0235957782715559,0.026007503271102905,-0.23926232755184174
1769659398072714500,0.326714599609375,0.022191492840647697,0.04341339319944382,-0.19629542529582977
1769659398082702600,0.33670263671875,0.026252547279000282,0.0018020325805991888,-0.15993209183216095
1769659398092690700,0.346690673828125,0.03285057842731476,-0.032266758382320404,-0.1475667804479599
1769659398102678500,0.356678466796875,0.031747493892908096,0.004685931373387575,-0.13433033227920532
1769659398112667600,0.366667724609375,0.03046002984046936,0.051568832248449326,-0.11956442892551422
1769659398122655700,0.37665576171875,0.022111285477876663,0.04781031236052513,-0.1112162172794342
1769659398132643600,0.3866435546875,0.016811596229672432,0.02346307784318924,-0.09401322901248932
1769659398142631400,0.39663134765625,0.010341179557144642,-0.0296078622341156,-0.095268115401268
1769659398152619500,0.40661962890625,0.0033232616260647774,-0.045762330293655396,-0.09593725204467773
1769659398162607600,0.416607666015625,-0.002521311631426215,-0.03436160460114479,-0.10030749440193176
1769659398172595700,0.426595703125,-0.0029849663842469454,-0.01752559281885624,-0.09674300998449326
1769659398182583600,0.43658349609375,-0.003245689906179905,-0.0022126827389001846,-0.07888039201498032
1769659398192571600,0.446571533203125,0.003055545501410961,0.008725261315703392,-0.054477982223033905
1769659398202560800,0.456560791015625,0.01321337465196848,0.014119228348135948,-0.035328786820173264
1769659398212548600,0.466548583984375,0.02112511545419693,0.011817914433777332,-0.020876053720712662
1769659398222536400,0.476536376953125,0.025506816804409027,0.006804247386753559,-0.011979231610894203
1769659398232524500,0.486524658203125,0.024164099246263504,0.004843139089643955,-0.00770383607596159
1769659398242512600,0.4965126953125,0.02173103578388691,0.0006782215787097812,-0.012147853150963783
1769659398252500500,0.50650048828125,0.02024233341217041,-0.005162845365703106,-0.02520708739757538
1769659398262488600,0.516488525390625,0.017149336636066437,-0.0008503883145749569,-0.03610234707593918
1769659398272476700,0.5264765625,0.012012990191578865,0.03734743595123291,-0.023041369393467903
1769659398282464800,0.53646484375,0.015273764729499817,0.02417677268385887,-0.021106848493218422
1769659398292454000,0.546453857421875,0.021845990791916847,0.00814850814640522,-0.0191156305372715
1769659398302441500,0.55644140625,0.02199326455593109,0.018277842551469803,-0.008136747404932976
1769659398312429600,0.5664296875,0.02404198981821537,0.023873943835496902,0.0011711523402482271
1769659398322417700,0.576417724609375,0.028205575421452522,0.018169717863202095,0.002580497181043029
1769659398332405500,0.586405517578125,0.03156675398349762,0.011623525992035866,0.0011627041967585683
1769659398342393600,0.5963935546875,0.027396511286497116,0.011482112109661102,-0.0037542900536209345
1769659398352381700,0.606381591796875,0.024143856018781662,0.010187528096139431,-0.009877884760499
1769659398362369500,0.61636962890625,0.018867067992687225,0.008694292977452278,-0.017971497029066086
1769659398372358700,0.626358642578125,0.015217382460832596,0.013154718093574047,-0.021737243980169296
1769659398382346800,0.6363466796875,0.012287374585866928,0.012593057937920094,-0.024909868836402893
1769659398392334600,0.64633447265625,0.012201929464936256,0.008032005280256271,-0.02220352366566658
1769659398402322400,0.656322509765625,0.012481029145419598,0.004073748365044594,-0.015321117825806141
1769659398412310500,0.666310546875,0.013462990522384644,0.0009208801202476025,-0.007126087322831154
1769659398422298600,0.676298583984375,0.010933253914117813,0.0031613975297659636,0.0002181115560233593
1769659398432286700,0.68628662109375,0.008568180724978447,0.004428502172231674,0.004997393116354942
1769659398442274600,0.696274658203125,0.007512236479669809,0.0014399029314517975,0.0032410381827503443
1769659398452262700,0.7062626953125,0.008735605515539646,-0.005667068995535374,-0.003356868401169777
1769659398462251800,0.716251708984375,0.011030717752873898,-0.008120372891426086,-0.004497766960412264
1769659398472239600,0.726239501953125,0.012278719805181026,-0.010015826672315598,-0.005843576975166798
1769659398482227500,0.7362275390625,0.011588429100811481,-0.012090961448848248,-0.003555921372026205
1769659398492215600,0.746215576171875,0.011251937597990036,-0.009366835467517376,-0.004323899745941162
1769659398502203600,0.75620361328125,0.007016445975750685,-0.005992078222334385,-0.008202794007956982
1769659398512191500,0.76619140625,0.0032315608114004135,-0.007474393583834171,-0.01291579008102417
1769659398522179600,0.7761796875,-0.002115001203492284,-0.012999387457966805,-0.009934380650520325
1769659398532167700,0.786167724609375,-0.008493670262396336,-0.018913447856903076,-0.00940954964607954
1769659398542156800,0.79615673828125,-0.008863316848874092,-0.02609119936823845,-0.010485999286174774
1769659398552144600,0.80614453125,-0.005903471261262894,-0.02437470480799675,-0.0063656046986579895
1769659398562132500,0.816132568359375,-0.0009404045413248241,-0.013142555952072144,0.0037900940515100956
1769659398572120600,0.82612060546875,-0.0027268012054264545,-0.00415309052914381,0.013632329180836678
1769659398582108700,0.836108642578125,-0.001731045194901526,0.0014145139139145613,0.012609409168362617
1769659398592096500,0.846096435546875,0.003704804927110672,0.004427806474268436,0.0007672653300687671
1769659398602084600,0.856084716796875,0.0074582635425031185,0.005260043777525425,-0.014044436626136303
1769659398612072700,0.86607275390625,0.005927661899477243,0.0072952150367200375,-0.016205942258238792
1769659398622060500,0.876060546875,0.001196290017105639,0.0021611731499433517,-0.007944549433887005
1769659398632049700,0.886049560546875,0.000015087774954736233,-0.006635085679590702,-0.006134169176220894
1769659398642037500,0.89603759765625,0.0016806286294013262,-0.008277722634375095,-0.010114530101418495
1769659398652025600,0.906025634765625,-0.004047599155455828,-0.009566521272063255,-0.010885183699429035
1769659398662013400,0.916013427734375,-0.006776007823646069,-0.011873085051774979,-0.009697946719825268
1769659398672001500,0.92600146484375,-0.008481371216475964,-0.010961286723613739,-0.006309368647634983
1769659398681989600,0.93598974609375,-0.00683287438005209,-0.012148523703217506,-0.0028491232078522444
1769659398691977700,0.945977783203125,-0.0071687051095068455,-0.009508618153631687,-0.00024637114256620407
1769659398701965600,0.955965576171875,-0.009568745270371437,-0.01617264747619629,0.003458085935562849
1769659398711953700,0.96595361328125,-0.011433491483330727,-0.030045093968510628,-0.0006129357498139143
1769659398721942800,0.97594287109375,-0.01729431003332138,-0.03651737421751022,-0.0038811671547591686
1769659398731930600,0.9859306640625,-0.018250340595841408,-0.03333387151360512,-0.006811976432800293
1769659398741918500,0.99591845703125,-0.015529654920101166,-0.02931249886751175,-0.008230109699070454
1769659398751906600,1.005906494140625,-0.015835382044315338,-0.028388604521751404,-0.0063841622322797775
1769659398761894700,1.015894775390625,-0.010573775507509708,-0.017037678509950638,-0.00513274222612381
1769659398771882500,1.025882568359375,-0.0033214553259313107,-0.007419141009449959,-0.005496264435350895
1769659398781870600,1.03587060546875,-0.00036614551208913326,-0.003688052762299776,-0.002822716487571597
1769659398791858700,1.045858642578125,0.005253343377262354,0.0032729567028582096,0.0014007939025759697
1769659398801846800,1.0558466796875,0.006074662320315838,0.008526042103767395,-0.002528433920815587
1769659398811835600,1.065835693359375,0.003038488794118166,0.0023349151015281677,-0.007826801389455795
1769659398821823500,1.075823486328125,0.0014903933042660356,-0.0023921956308186054,-0.006893630139529705
1769659398831811600,1.0858115234375,-0.002960866317152977,-0.0018711022567003965,-0.006209799088537693
1769659398841799700,1.095799560546875,-0.003246623557060957,0.002504737814888358,-0.010027440264821053
1769659398851787500,1.10578759765625,-0.0026110901962965727,-0.0012452083174139261,-0.010265999473631382
1769659398861775600,1.115775634765625,-0.0004781644674949348,-0.005203464534133673,-0.011707035824656487
1769659398871763700,1.125763671875,0.001267966697923839,-0.00225082878023386,-0.010952506214380264
1769659398881751600,1.13575146484375,0.0010676969541236758,0.0020200826693326235,-0.009262731298804283
1769659398891740700,1.14574072265625,-0.000977513031102717,0.011010080575942993,-0.008157148025929928
1769659398901728500,1.155728515625,-0.001031042542308569,0.00967423990368843,-0.008223460987210274
1769659398911716600,1.165716552734375,0.0007967207347974181,0.004237717483192682,-0.008603941649198532
1769659398921704400,1.175704345703125,0.0014308193931356072,-0.0027304436080157757,-0.007389273028820753
1769659398931692500,1.185692626953125,0.00042201566975563765,-0.0035788845270872116,-0.007980914786458015
1769659398941680600,1.1956806640625,0.00043959252070635557,0.0019610233139246702,-0.008015535771846771
1769659398951668700,1.205668701171875,0.0035024937242269516,0.014709308743476868,-0.009589997120201588
1769659398961656600,1.215656494140625,0.006083629559725523,0.022706249728798866,-0.00911648664623499
1769659398971644700,1.225644775390625,0.008920783177018166,0.022956112399697304,-0.007665937766432762
1769659398981633500,1.235633544921875,0.008689885959029198,0.02059308998286724,-0.007094689644873142
1769659398991621600,1.24562158203125,0.007655648980289698,0.0197915006428957,-0.01004075538367033
1769659399001609500,1.255609375,0.006540051195770502,0.01921146549284458,-0.010292424820363522
1769659399011597600,1.26559765625,0.007225108798593283,0.02244575321674347,-0.012227595783770084
1769659399021585700,1.275585693359375,0.008222462609410286,0.02631532773375511,-0.012505097314715385
1769659399031573500,1.285573486328125,0.008424952626228333,0.030328547582030296,-0.012515448033809662
1769659399041561600,1.2955615234375,0.0068944343365728855,0.025679467245936394,-0.01217616070061922
1769659399051549700,1.3055498046875,0.0054468680173158646,0.023578966036438942,-0.013523486442863941
1769659399061537800,1.315537841796875,-0.004619081970304251,0.010751851834356785,-0.011295218952000141
1769659399071526700,1.325526611328125,-0.009240200743079185,-0.004584003705531359,-0.009268665686249733
1769659399081514500,1.335514404296875,-0.012151834554970264,-0.002906478475779295,-0.005848634522408247
1769659399091502600,1.345502685546875,-0.007714294362813234,0.0033822921104729176,-0.003440950997173786
1769659399101490700,1.35549072265625,0.0017734830034896731,0.011811729520559311,0.005413260776549578
1769659399111478500,1.365478515625,0.006424290593713522,0.02699407935142517,0.010549930855631828
1769659399121466600,1.375466552734375,0.005465552676469088,0.03214756399393082,0.011214390397071838
1769659399131454700,1.385454833984375,0.002497016452252865,0.025776319205760956,0.0055687930434942245
1769659399141442600,1.395442626953125,-0.00004284025635570288,0.017696022987365723,-0.005108352284878492
1769659399151431700,1.405431640625,-0.0018620019545778632,0.017138194292783737,-0.011659272946417332
1769659399161419500,1.41541943359375,-0.0016364322509616613,0.023630980402231216,-0.012805763632059097
1769659399171407600,1.42540771484375,0.0007179793901741505,0.029582815244793892,-0.012229911051690578
1769659399181395500,1.4353955078125,0.005109265446662903,0.0368170291185379,-0.013012080453336239
1769659399191383600,1.445383544921875,0.008829212747514248,0.041494522243738174,-0.013831118121743202
1769659399201371600,1.45537158203125,0.009462246671319008,0.044622670859098434,-0.01285187341272831
1769659399211359700,1.46535986328125,0.00802068505436182,0.041270144283771515,-0.012595342472195625
1769659399221347600,1.47534765625,0.007227596361190081,0.03715742379426956,-0.014439315535128117
1769659399231335700,1.485335693359375,0.00594691839069128,0.03398645669221878,-0.015740716829895973
1769659399241323800,1.49532373046875,0.0033354228362441063,0.03321120887994766,-0.012677283026278019
1769659399251312600,1.505312744140625,0.0010598007356747985,0.025961821898818016,-0.013067859224975109
1769659399261300500,1.515300537109375,-0.003620438277721405,0.016987767070531845,-0.013395429588854313
1769659399271288600,1.52528857421875,-0.010202797129750252,0.00696965167298913,-0.011032709851861
1769659399281276700,1.535276611328125,-0.016132324934005737,-0.007613019086420536,-0.007441170513629913
1769659399291264500,1.545264404296875,-0.02331962250173092,-0.018907608464360237,-0.008304259739816189
1769659399301252600,1.555252685546875,-0.0271761454641819,-0.029735755175352097,-0.007801721803843975
1769659399311240700,1.56524072265625,-0.027065936475992203,-0.030187346041202545,-0.00980244018137455
1769659399321228800,1.575228759765625,-0.023118065670132637,-0.022966720163822174,-0.010934283956885338
1769659399331217700,1.5852177734375,-0.0159500353038311,-0.011671207845211029,-0.0068273465149104595
1769659399341205500,1.59520556640625,-0.00990146305412054,-0.0013216312509030104,-0.0010938267223536968
1769659399351193600,1.605193603515625,-0.0056280638091266155,0.008373752236366272,0.0027165072970092297
1769659399361181700,1.615181640625,-0.003384350799024105,0.014827122911810875,-0.0003376058302819729
1769659399371169500,1.62516943359375,-0.002907500136643648,0.011565394699573517,-0.0071327900514006615
1769659399381157600,1.63515771484375,-0.005505147390067577,0.003961804322898388,-0.008840941824018955
1769659399391145700,1.645145751953125,-0.012340872548520565,-0.006085267290472984,-0.009454823099076748
1769659399401133600,1.655133544921875,-0.018926603719592094,-0.02164025790989399,-0.0115145118907094
1769659399411121700,1.66512158203125,-0.02467546984553337,-0.03952585533261299,-0.016123391687870026
1769659399421110500,1.675110595703125,-0.027453947812318802,-0.045865777879953384,-0.010923569090664387
1769659399431098600,1.6850986328125,-0.030297990888357162,-0.04062894359230995,-0.008084741421043873
1769659399441086500,1.69508642578125,-0.031624775379896164,-0.03843583166599274,-0.009069311432540417
1769659399451074600,1.705074462890625,-0.030324527993798256,-0.03628704696893692,-0.004561499692499638
1769659399461062700,1.715062744140625,-0.02740943245589733,-0.029323145747184753,0.0003895831760019064
1769659399471050800,1.72505078125,-0.027302909642457962,-0.019589602947235107,0.007850851863622665
1769659399481038600,1.73503857421875,-0.018700366839766502,-0.017210068181157112,0.00772967841476202
1769659399491026700,1.745026611328125,-0.016576498746871948,-0.015871381387114525,0.011778258718550205
1769659399501014800,1.755014892578125,-0.014355955645442009,-0.011557327583432198,0.01658286713063717
1769659399511003600,1.765003662109375,-0.013985864818096161,-0.009088903665542603,0.01421912107616663
1769659399520991500,1.774991455078125,-0.017081523314118385,-0.009131514467298985,0.007257884368300438
1769659399530979600,1.7849794921875,-0.015306157991290092,-0.003370596095919609,-0.0011200557928532362
1769659399540967700,1.7949677734375,-0.01216389425098896,-0.0037722005508840084,-0.010061086155474186
1769659399550955500,1.80495556640625,-0.008512267842888832,-0.004805167205631733,-0.016072893515229225
1769659399560943600,1.814943603515625,-0.006050707772374153,-0.0014961895067244768,-0.011909573338925838
1769659399570931700,1.824931640625,-0.009076234884560108,0.0034874870907515287,-0.0049285925924777985
1769659399580919800,1.834919921875,-0.013337293639779091,-0.0026297937147319317,-0.00022864597849547863
1769659399590908700,1.84490869140625,-0.015873325988650322,-0.010796762071549892,0.0008809724822640419
1769659399600896500,1.854896484375,-0.01905154436826706,-0.015828272327780724,0.0023046983405947685
1769659399610884600,1.864884521484375,-0.017709318548440933,-0.02107398770749569,0.0007438668981194496
1769659399620872700,1.874872802734375,-0.013539339415729046,-0.018450241535902023,-0.0029717753641307354
1769659399630860500,1.884860595703125,-0.013750974088907242,-0.020244620740413666,-0.0027281709481030703
1769659399640848600,1.8948486328125,-0.011096334084868431,-0.016926055774092674,0.002347813919186592
1769659399650836700,1.904836669921875,-0.009123198688030243,-0.008730974979698658,0.007485584355890751
1769659399660824600,1.914824462890625,-0.004560937639325857,0.0004587944131344557,0.0005216842982918024
1769659399670812700,1.924812744140625,0.0008654318517073989,0.017348235473036766,-0.009171880781650543
1769659399680801500,1.934801513671875,0.001526961219497025,0.020835379138588905,-0.025841936469078064
1769659399690789600,1.94478955078125,0.003569293301552534,0.021033557131886482,-0.04019131511449814
1769659399700778500,1.954778564453125,0.0024068232160061598,0.01964738219976425,-0.050576046109199524
1769659399710766600,1.9647666015625,0.004332910757511854,0.01596824638545513,-0.0572088398039341
1769659399720754400,1.97475439453125,0.0055893901735544205,0.007565174251794815,-0.056593116372823715
1769659399730742500,1.984742431640625,0.010881093330681324,0.01022366527467966,-0.05433015525341034
1769659399740730600,1.994730712890625,0.010579889640212059,0.02349020168185234,-0.05378127843141556
1769659399750718500,2.004718505859375,0.01379871740937233,0.036940209567546844,-0.05454712361097336
1769659399760706300,2.014706298828125,0.01867682859301567,0.050903163850307465,-0.06714653223752975
1769659399770695400,2.0246953125,0.020296385511755943,0.051206786185503006,-0.08111926913261414
1769659399780683500,2.03468359375,0.018251078203320503,0.032472509890794754,-0.0792183056473732
1769659399790671400,2.04467138671875,0.014243477955460548,0.008996324613690376,-0.0816737562417984
1769659399800659500,2.054659423828125,0.01018934790045023,-0.004980477038770914,-0.07623611390590668
1769659399810647600,2.0646474609375,0.010272780433297157,-0.0020364238880574703,-0.07781097292900085
1769659399820635600,2.0746357421875,0.01284219790250063,0.008306228555738926,-0.08566064387559891
1769659399830623500,2.08462353515625,0.017039788886904716,0.025793857872486115,-0.0895015299320221
1769659399840611600,2.094611572265625,0.02206597290933132,0.03775491192936897,-0.1130334883928299
1769659399850600400,2.104600341796875,0.018170174211263657,0.03428807854652405,-0.12819483876228333
1769659399860588500,2.114588623046875,0.023159872740507126,0.03297247365117073,-0.13611666858196259
1769659399870576400,2.124576416015625,0.02008005604147911,0.0511983260512352,-0.14733809232711792
1769659399880564500,2.134564453125,0.01874474808573723,0.04468556493520737,-0.13966552913188934
1769659399890552600,2.144552490234375,0.020649699494242668,0.029709380120038986,-0.11776360869407654
1769659399900540400,2.15454052734375,0.02155197784304619,0.03002416342496872,-0.10301607847213745
1769659399910528500,2.164528564453125,0.028261633589863777,0.05014209449291229,-0.09290577471256256
1769659399920516600,2.1745166015625,0.02502136491239071,0.04783739522099495,-0.07889434695243835
1769659399930504400,2.18450439453125,0.024854520335793495,0.031991031020879745,-0.07878481596708298
1769659399940492300,2.1944921875,0.01766292005777359,0.013142243027687073,-0.07681753486394882
1769659399950481400,2.2044814453125,0.015751436352729797,-0.007309440523386002,-0.06931351870298386
1769659399960469500,2.214469482421875,0.015349299646914005,-0.002478999085724354,-0.06426096707582474
1769659399970457600,2.22445751953125,0.014710321091115475,0.01042795181274414,-0.05878596752882004
1769659399980445400,2.234445556640625,0.016489844769239426,0.009334457106888294,-0.058332428336143494
1769659399990433500,2.24443359375,0.0146887032315135,-0.0006334069184958935,-0.05819675698876381
1769659400000421600,2.254421630859375,0.012627417221665382,-0.006110464222729206,-0.057334695011377335
1769659400010409500,2.264409423828125,0.011781561188399792,-0.010237660259008408,-0.05658494681119919
1769659400020397300,2.274397216796875,0.016098545864224434,-0.013826536014676094,-0.05477985739707947
1769659400030386400,2.284386474609375,0.01811734214425087,-0.00520284054800868,-0.05744939669966698
1769659400040374500,2.29437451171875,0.021517932415008545,0.007413352373987436,-0.07098810374736786
1769659400050362400,2.3043623046875,0.02515772543847561,0.022123059257864952,-0.08198978751897812
1769659400060350500,2.3143505859375,0.027176667004823685,0.03100496716797352,-0.09533622115850449
1769659400070338600,2.324338623046875,0.02863270789384842,0.046522777527570724,-0.11565769463777542
1769659400080326700,2.33432666015625,0.028170648962259293,0.0500061921775341,-0.12790584564208984
1769659400090314500,2.344314453125,0.031896982342004776,0.05119668319821358,-0.14399763941764832
1769659400100302300,2.35430224609375,0.03406905755400658,0.04559925198554993,-0.1624365746974945
1769659400110290400,2.36429052734375,0.03741718828678131,0.03674459084868431,-0.17199257016181946
1769659400120279600,2.374279541015625,0.03471620753407478,0.02127748355269432,-0.15881870687007904
1769659400130267400,2.384267333984375,0.031504254788160324,0.01452479138970375,-0.14199784398078918
1769659400140255500,2.39425537109375,0.028148673474788666,0.01962980441749096,-0.12607133388519287
1769659400150243600,2.40424365234375,0.02840602770447731,0.026391759514808655,-0.1082657128572464
1769659400160231400,2.4142314453125,0.03172512352466583,0.02991645410656929,-0.0987481027841568
1769659400170219500,2.424219482421875,0.024369174614548683,0.024001743644475937,-0.09331119805574417
1769659400180207600,2.43420751953125,0.024248532950878143,0.009882994927465916,-0.08217412233352661
1769659400190195200,2.4441953125,0.02377137914299965,0.003660311456769705,-0.07941941916942596
1769659400200184300,2.454184326171875,0.02251969277858734,0.0017313838470727205,-0.0702458992600441
1769659400210172400,2.46417236328125,0.022117549553513527,0.0040605394169688225,-0.06346666067838669
1769659400220160500,2.474160400390625,0.021370800212025642,0.009488328360021114,-0.0565674789249897
1769659400230148600,2.484148681640625,0.01963379606604576,0.014643304981291294,-0.05038152262568474
1769659400240136400,2.494136474609375,0.01981835439801216,0.006805622950196266,-0.04943263903260231
1769659400250124500,2.50412451171875,0.022746147587895393,-0.0031133797019720078,-0.05315114185214043
1769659400260112600,2.514112548828125,0.02349715866148472,-0.013422476127743721,-0.053136494010686874
1769659400270100500,2.5241005859375,0.027997450903058052,-0.017721600830554962,-0.05185835808515549
1769659400280088300,2.53408837890625,0.02654576115310192,-0.012233092449605465,-0.05253639817237854
1769659400290077400,2.544077392578125,0.028547171503305435,-0.0004726550541818142,-0.05485799163579941
1769659400300065500,2.5540654296875,0.022422432899475098,-0.0010265924502164125,-0.05515040457248688
1769659400310053400,2.564053466796875,0.020123330876231194,-0.016091786324977875,-0.042897626757621765
1769659400320041500,2.57404150390625,0.016222598031163216,-0.0205182246863842,-0.035079386085271835
1769659400330029600,2.584029541015625,0.013113752007484436,-0.016073739156126976,-0.02585449069738388
1769659400340017700,2.594017578125,0.01650688610970974,-0.0165733490139246,-0.019269295036792755
1769659400350005500,2.604005615234375,0.0164145790040493,-0.02206934429705143,-0.015578854829072952
1769659400359993300,2.613993408203125,0.016901403665542603,-0.025229983031749725,-0.010600874200463295
1769659400369981400,2.6239814453125,0.014368154108524323,-0.025667238980531693,-0.01013161614537239
1769659400379970600,2.633970458984375,0.011870108544826508,-0.022375039756298065,-0.009304970502853394
1769659400389958400,2.64395849609375,0.005706015042960644,-0.024324461817741394,-0.016368377953767776
1769659400399946500,2.653946533203125,0.004290810786187649,-0.02905929647386074,-0.02444840781390667
1769659400409934600,2.6639345703125,0.0009065793128684163,-0.03644786402583122,-0.03322163224220276
1769659400419922400,2.67392236328125,-0.0023001329973340034,-0.047904517501592636,-0.036220353096723557
1769659400429910500,2.68391064453125,-0.0029785216320306063,-0.04735085740685463,-0.042192842811346054
1769659400439898400,2.6938984375,0.007185698952525854,-0.040565125644207,-0.044546011835336685
1769659400449886200,2.70388623046875,0.011592295952141285,-0.036015138030052185,-0.04661840572953224
1769659400459875300,2.713875244140625,0.02001534216105938,-0.028656024485826492,-0.043623149394989014
1769659400469863400,2.723863525390625,0.028382010757923126,-0.012393148615956306,-0.03624477609992027
1769659400479851500,2.7338515625,0.0347759947180748,0.003320034360513091,-0.032155491411685944
1769659400489839600,2.743839599609375,0.041215650737285614,0.018335405737161636,-0.026545314118266106
1769659400499827500,2.753827392578125,0.046090301126241684,0.0302748903632164,-0.02302461676299572
1769659400509815600,2.763815673828125,0.049226801842451096,0.03422245755791664,-0.019978919997811317
1769659400519803600,2.7738037109375,0.04650238901376724,0.02375091053545475,-0.014606526121497154
1769659400529791200,2.783791259765625,0.040613267570734024,0.01602032035589218,-0.009474599733948708
1769659400539779300,2.793779296875,0.03030257299542427,0.0023385973181575537,-0.002414293587207794
1769659400549768400,2.8037685546875,0.025889739394187927,-0.014036910608410835,-0.010221092961728573
1769659400559756500,2.813756591796875,0.020821476355195045,-0.03394430875778198,-0.010496463626623154
1769659400569744400,2.823744384765625,0.011957451701164246,-0.050419051200151443,-0.002578424522653222
1769659400579732500,2.833732421875,0.0077390046790242195,-0.056275609880685806,0.011356298811733723
1769659400589720600,2.843720458984375,0.0061559854075312614,-0.05885254219174385,0.01885274611413479
1769659400599708700,2.853708740234375,0.005502179265022278,-0.06582735478878021,0.02102215774357319
1769659400609696500,2.863696533203125,0.008038176223635674,-0.07636919617652893,0.0190284363925457
1769659400619684400,2.873684326171875,0.00946882739663124,-0.08505376428365707,0.020192237570881844
1769659400629673500,2.883673583984375,0.008847828954458237,-0.09205018728971481,0.017342379316687584
1769659400639661600,2.89366162109375,0.010052643716335297,-0.107118621468544,0.017843851819634438
1769659400649649400,2.9036494140625,0.01355904620140791,-0.12803183495998383,0.020953821018338203
1769659400659637500,2.913637451171875,0.013758250512182713,-0.14537407457828522,0.030332941561937332
1769659400669625600,2.92362548828125,0.019339120015501976,-0.17806966602802277,0.03450053185224533
1769659400679613400,2.933613525390625,0.022180180996656418,-0.19970092177391052,0.025729410350322723
1769659400689601500,2.9436015625,0.025979705154895782,-0.20678076148033142,0.000511982711032033
1769659400699589000,2.953589111328125,0.030736641958355904,-0.20740020275115967,-0.041897788643836975
1769659400709577000,2.963576904296875,0.047552116215229034,-0.20018668472766876,-0.0901561826467514
1769659400719565800,2.97356591796875,0.06419367343187332,-0.15396033227443695,-0.12324196100234985
1769659400729554000,2.983553955078125,0.06252589821815491,-0.11319809406995773,-0.1470482498407364
1769659400739542000,2.9935419921875,0.04750966280698776,-0.11638855934143066,-0.1615784615278244
1769659400749529900,3.00352978515625,0.028153037652373314,-0.12139787524938583,-0.17398299276828766
1769659400759518000,3.01351806640625,0.009455250576138496,-0.13146622478961945,-0.17285755276679993
1769659400769506000,3.023506103515625,-0.00986959133297205,-0.15316389501094818,-0.1601962149143219
1769659400779494100,3.033494140625,-0.018770407885313034,-0.16703364253044128,-0.13016800582408905
1769659400789482000,3.04348193359375,-0.017323540523648262,-0.16521023213863373,-0.10209359228610992
1769659400799469800,3.0534697265625,-0.008786511607468128,-0.16411913931369781,-0.08240270614624023
1769659400809459000,3.063458984375,-0.0048056710511446,-0.16871331632137299,-0.06695129722356796
1769659400819447000,3.073447021484375,-0.0015403693541884422,-0.16184769570827484,-0.06838567554950714
1769659400829435000,3.083434814453125,-0.0014487204607576132,-0.13857077062129974,-0.061238888651132584
1769659400839423000,3.093423095703125,0.0019697132520377636,-0.11864073574542999,-0.049756668508052826
1769659400849411000,3.1034111328125,0.000922250677831471,-0.10362624377012253,-0.03251966834068298
1769659400859399000,3.11339892578125,-0.001755291479639709,-0.09297066926956177,-0.020492298528552055
1769659400869387000,3.123386962890625,-0.000970134453382343,-0.18858613073825836,0.011773860082030296
1769659400879375000,3.133375,-0.00018183875363320112,-0.3179265558719635,0.030288422480225563
1769659400889364000,3.143364013671875,-0.01464865356683731,-0.2984270751476288,0.015114100649952888
1769659400899351800,3.153351806640625,-0.027845948934555054,-0.27905020117759705,0.016404667869210243
1769659400909340000,3.16333984375,-0.05241326615214348,-0.28505241870880127,0.05227647349238396
1769659400919328000,3.173327880859375,-0.06467792391777039,-0.2849416434764862,0.08338592946529388
1769659400929316000,3.183316162109375,-0.07315162569284439,-0.28153014183044434,0.1037163957953453
1769659400939304000,3.193303955078125,-0.07730589061975479,-0.2780989408493042,0.12060989439487457
1769659400949292000,3.2032919921875,-0.0797591283917427,-0.28727877140045166,0.1374141126871109
1769659400959280000,3.213280029296875,-0.08324946463108063,-0.29759612679481506,0.13491100072860718
1769659400969268000,3.22326806640625,-0.08122695237398148,-0.33681219816207886,0.12013010680675507
1769659400979256800,3.2332568359375,-0.08798152953386307,-0.3264351785182953,0.13347654044628143
1769659400989245000,3.243244873046875,-0.0951731726527214,-0.29889559745788574,0.145524263381958
1769659400999233000,3.25323291015625,-0.0912303626537323,-0.2748637795448303,0.16443856060504913
1769659401009220900,3.263220947265625,-0.08463912457227707,-0.2375963181257248,0.17331694066524506
1769659401019209000,3.273208984375,-0.07658012956380844,-0.193742573261261,0.17052167654037476
1769659401029197000,3.283197021484375,-0.07153681665658951,-0.1517321765422821,0.17384667694568634
1769659401039185200,3.29318505859375,-0.05901063606142998,-0.12992487847805023,0.17843130230903625
1769659401049173000,3.303173095703125,-0.041971687227487564,-0.1378995180130005,0.15473437309265137
1769659401059160800,3.313160888671875,-0.020995566621422768,-0.14646771550178528,0.128962442278862
1769659401069150000,3.32314990234375,-0.006073777563869953,-0.14211197197437286,0.09749839454889297
1769659401079138000,3.333137939453125,-0.00022174743935465813,-0.12565895915031433,0.07232513278722763
1769659401089126000,3.3431259765625,0.00552956061437726,-0.13288411498069763,0.050251688808202744
1769659401099114000,3.353114013671875,0.03440595045685768,-0.1740344911813736,0.002917461097240448
1769659401109102000,3.36310205078125,0.014796032570302486,-0.1785450428724289,0.0001319043803960085
1769659401119090000,3.37308984375,0.0004844721406698227,-0.13344281911849976,0.01273637916892767
1769659401129078000,3.383078125,0.0021413147915154696,-0.08985687792301178,0.014024053700268269
1769659401139065900,3.39306591796875,0.007751530036330223,-0.07271464169025421,0.009144876152276993
1769659401149055000,3.403054931640625,0.019571920856833458,-0.07252658903598785,0.009481505490839481
1769659401159042800,3.413042724609375,0.028416013345122337,-0.07687845826148987,0.009192818775773048
1769659401169031000,3.423031005859375,0.03817715868353844,-0.07194265723228455,0.027111483737826347
1769659401179019000,3.43301904296875,0.04600365832448006,-0.04977583885192871,0.04795631393790245
1769659401189007000,3.443007080078125,0.05050494894385338,-0.03149355575442314,0.05899593234062195
1769659401198995000,3.452994873046875,0.05118778347969055,0.00017622485756874084,0.06446180492639542
1769659401208983000,3.462983154296875,0.05586165934801102,0.036464691162109375,0.065129853785038
1769659401218971100,3.47297119140625,0.06719633936882019,0.06850704550743103,0.050939206033945084
1769659401228958700,3.482958740234375,0.06928391009569168,0.10446853190660477,0.03016471676528454
1769659401238947800,3.49294775390625,0.06998857855796814,0.12620259821414948,0.008249031379818916
1769659401248936000,3.50293603515625,0.07563670724630356,0.179004967212677,-0.007293831557035446
1769659401258924000,3.512924072265625,0.08542382717132568,0.23852048814296722,-0.06085292994976044
1769659401268911900,3.522911865234375,0.10247569531202316,0.2814173102378845,-0.14150109887123108
1769659401278900000,3.53289990234375,0.12433226406574249,0.28423652052879333,-0.22941018640995026
1769659401288888000,3.54288818359375,0.13560935854911804,0.2509547770023346,-0.274054616689682
1769659401298876200,3.552876220703125,0.14040438830852509,0.2031499594449997,-0.26790323853492737
1769659401308864000,3.562864013671875,0.1466405838727951,0.17459343373775482,-0.26822638511657715
1769659401318852900,3.572852783203125,0.1488611251115799,0.16987964510917664,-0.2696373164653778
1769659401328841000,3.582841064453125,0.14071597158908844,0.12718302011489868,-0.24018347263336182
1769659401338829000,3.5928291015625,0.11778322607278824,0.06685736775398254,-0.17819492518901825
1769659401348817000,3.60281689453125,0.10339795798063278,0.0405738428235054,-0.11775624752044678
1769659401358805000,3.612804931640625,0.09292960166931152,0.04266415536403656,-0.0662938579916954
1769659401368793000,3.62279296875,0.07969994097948074,0.0586223304271698,-0.03079543635249138
1769659401378781000,3.632781005859375,0.05990520119667053,0.07166542857885361,-0.008925292640924454
1769659401388769000,3.64276904296875,0.04574960842728615,0.0798199251294136,0.006632059812545776
1769659401398758000,3.6527578125,0.028892332687973976,0.06902240216732025,0.014328595250844955
1769659401408746000,3.66274609375,0.015141576528549194,0.01772458292543888,0.01706063188612461
1769659401418733800,3.67273388671875,0.005615715403109789,-0.028057020157575607,0.018907535821199417
1769659401428722000,3.682721923828125,-0.004686939530074596,-0.03568248450756073,0.029282936826348305
1769659401438710000,3.6927099609375,-0.012757383286952972,-0.03333091363310814,0.04652317613363266
1769659401448698000,3.702697998046875,-0.017162833362817764,-0.04202316701412201,0.06297273188829422
1769659401458686000,3.71268603515625,-0.016746316105127335,-0.03871685266494751,0.07876767218112946
1769659401468674000,3.722674072265625,-0.015387832187116146,-0.01815134845674038,0.08881056308746338
1769659401478662000,3.732661865234375,-0.015156935900449753,0.015613539144396782,0.09254883974790573
1769659401488651000,3.742651123046875,-0.011200804263353348,0.041735466569662094,0.0895017609000206
1769659401498638800,3.752638916015625,-0.0041143991984426975,0.05749472230672836,0.07523174583911896
1769659401508627000,3.762626953125,0.00044163211714476347,0.049176860600709915,0.061037153005599976
1769659401518615000,3.772614990234375,0.003449672367423773,0.03932076692581177,0.03223080188035965
1769659401528603000,3.782602783203125,0.0051789539866149426,0.026186201721429825,0.012176550924777985
1769659401538591000,3.792591064453125,0.002909674309194088,0.008032231591641903,0.027466289699077606
1769659401548579000,3.8025791015625,-0.0022458406165242195,0.0029694875702261925,0.049988895654678345
1769659401558567200,3.812567138671875,-0.0065790703520178795,0.004252065904438496,0.060107044875621796
1769659401568555800,3.8225556640625,-0.01099624764174223,0.003346410347148776,0.06096602976322174
1769659401578543900,3.8325439453125,-0.018082918599247932,0.0004571469034999609,0.052499040961265564
1769659401588532000,3.842531982421875,-0.022034991532564163,0.005776725709438324,0.05121288448572159
1769659401598520000,3.85252001953125,-0.030210629105567932,0.025655359029769897,0.0527988001704216
1769659401608508000,3.8625078125,-0.03575284406542778,0.04496151581406593,0.044740378856658936
1769659401618496000,3.87249609375,-0.02708052471280098,0.03844662383198738,0.03051164001226425
1769659401628484000,3.882484130859375,-0.008314440958201885,0.012776529416441917,0.01428954303264618
1769659401638472000,3.892471923828125,-0.002484781900420785,-0.011043049395084381,-0.0020745168440043926
1769659401648460000,3.9024599609375,-0.00512311328202486,-0.03503777086734772,-0.019608180969953537
1769659401658449000,3.912448974609375,-0.00769386300817132,-0.05238746479153633,-0.022083856165409088
1769659401668437000,3.92243701171875,-0.015976855531334877,-0.06499123573303223,-0.012939037755131721
1769659401678424800,3.9324248046875,-0.025386868044734,-0.061177585273981094,-0.01594308391213417
1769659401688413000,3.942412841796875,-0.02838411182165146,-0.04885706678032875,-0.021038811653852463
1769659401698400800,3.95240087890625,-0.030514108017086983,-0.04231075197458267,-0.02487269788980484
1769659401708388600,3.962388671875,-0.02852170355618,-0.04649762809276581,-0.024241382256150246
1769659401718376700,3.972376708984375,-0.021402541548013687,-0.04408746585249901,-0.016365349292755127
1769659401728364800,3.98236474609375,-0.014513516798615456,-0.036478422582149506,-0.0011132026556879282
1769659401738353700,3.992353759765625,-0.009743794798851013,-0.02458634413778782,0.001592302811332047
1769659401748341500,4.002341552734375,-0.0033619115129113197,0.00413090456277132,-0.004020445980131626
1769659401758329600,4.01232958984375,0.0022467058151960373,0.01987471431493759,-0.0191181730479002
1769659401768317700,4.022317626953125,0.006761638913303614,0.0073309694416821,-0.03182029351592064
1769659401778305500,4.032305419921875,0.009637320414185524,0.017773756757378578,-0.029260195791721344
1769659401788293600,4.042293701171875,0.009752092882990837,0.028534701094031334,-0.017228251323103905
1769659401798281700,4.05228173828125,0.007319827098399401,0.016924651339650154,-0.008898947387933731
1769659401808269800,4.062269775390625,0.0019514529267325997,0.0054806992411613464,0.0024542654864490032
1769659401818258700,4.0722587890625,-0.009564321488142014,-0.006567973643541336,0.021395999938249588
1769659401828246500,4.08224658203125,-0.02787535823881626,-0.04422226548194885,0.030058231204748154
1769659401838234600,4.092234619140625,-0.04213045910000801,-0.08804617822170258,0.025089038535952568
1769659401848222700,4.10222265625,-0.056499410420656204,-0.09732647985219955,0.014181984588503838
1769659401858210600,4.11221044921875,-0.06502126157283783,-0.09684870392084122,0.004036939237266779
1769659401868198700,4.12219873046875,-0.06829681992530823,-0.10225991159677505,-0.0021583447232842445
1769659401878186800,4.132186767578125,-0.07185107469558716,-0.12499984353780746,0.002309108152985573
1769659401888174600,4.142174560546875,-0.06635032594203949,-0.1364341825246811,0.00709657184779644
1769659401898162700,4.15216259765625,-0.06663981080055237,-0.14013996720314026,0.025350676849484444
1769659401908151600,4.162151611328125,-0.06762532889842987,-0.12597094476222992,0.04433286935091019
1769659401918139600,4.1721396484375,-0.06079751253128052,-0.09470970183610916,0.05387124791741371
1769659401928127700,4.182127685546875,-0.053840141743421555,-0.08473672717809677,0.05292457342147827
1769659401938115600,4.192115478515625,-0.04786507412791252,-0.08529599010944366,0.034110672771930695
1769659401948103700,4.202103759765625,-0.035097137093544006,-0.07447876781225204,0.008117053657770157
1769659401958091800,4.212091796875,-0.025286318734288216,-0.06877347826957703,-0.004629101604223251
1769659401968079600,4.22207958984375,-0.01880050078034401,-0.06483910977840424,-0.006060170009732246
1769659401978067700,4.232067626953125,-0.007853577844798565,-0.03290833905339241,-0.0007437013555318117
1769659401988056600,4.242056640625,-0.0032183751463890076,-0.022219257429242134,0.014067906886339188
1769659401998044700,4.252044677734375,0.0063431719318032265,-0.004895661026239395,0.02328617312014103
1769659402008032500,4.262032470703125,0.010853796266019344,0.0017202133312821388,0.029450953006744385
1769659402018020600,4.2720205078125,0.006885420996695757,-0.008560920134186745,0.027898330241441727
1769659402028008700,4.2820087890625,0.010768444277346134,-0.011529790237545967,0.012778420932590961
1769659402037996500,4.29199658203125,0.006798204500228167,-0.02165406197309494,-0.0006790647748857737
1769659402047984600,4.301984619140625,0.003794581163674593,-0.030365103855729103,-0.011501913890242577
1769659402057972700,4.31197265625,-0.004125660285353661,-0.04010801017284393,0.0009270585142076015
1769659402067961600,4.321961669921875,-0.007162744179368019,-0.019096029922366142,0.01647518202662468
1769659402077949700,4.33194970703125,-0.008614432998001575,-0.01643233560025692,0.03274630010128021
1769659402087937500,4.3419375,-0.005295340903103352,0.001821191399358213,0.04203023761510849
1769659402097925600,4.351925537109375,-0.005966990254819393,-0.002736542373895645,0.03865201771259308
1769659402107913700,4.361913818359375,-0.005775107070803642,-0.0051570674404501915,0.03303319960832596
1769659402117901600,4.371901611328125,-0.009280892089009285,-0.00027868873439729214,0.0281809214502573
1769659402127889700,4.3818896484375,-0.01613362319767475,-0.018572228029370308,0.033634625375270844
1769659402137877800,4.391877685546875,-0.01894778572022915,-0.016802558675408363,0.0298199113458395
1769659402147866600,4.40186669921875,-0.020507369190454483,-0.03910547494888306,0.029504219070076942
1769659402157854500,4.4118544921875,-0.014097938314080238,-0.03164089843630791,0.029417667537927628
1769659402167842600,4.421842529296875,-0.01494484394788742,-0.044282618910074234,0.029772788286209106
1769659402177830700,4.43183056640625,-0.010086705908179283,-0.03648807853460312,0.038549236953258514
1769659402187818800,4.44181884765625,-0.01190166361629963,-0.023587021976709366,0.041866786777973175
1769659402197806600,4.451806640625,0.00009987154044210911,0.015831222757697105,0.03301044553518295
1769659402207794700,4.461794677734375,-0.0029697269201278687,0.012333555147051811,0.030920354649424553
1769659402217782800,4.47178271484375,0.009740209206938744,0.029530119150877,0.017625855281949043
1769659402227770600,4.4817705078125,0.012679312378168106,0.04595423862338066,0.018846958875656128
1769659402237759500,4.491759521484375,0.019174229353666306,0.03967397287487984,0.013565377332270145
1769659402247747600,4.50174755859375,0.01525268703699112,0.035879626870155334,0.0238624457269907
1769659402257735700,4.511735595703125,0.0083998404443264,0.01786147803068161,0.018892453983426094
1769659402267723500,4.5217236328125,-0.00434508454054594,0.019979296252131462,0.027411920949816704
1769659402277711600,4.531711669921875,-0.020904352888464928,0.01840643398463726,0.0335872583091259
1769659402287699700,4.54169970703125,-0.025531182065606117,0.01851627044379711,0.04312816634774208
1769659402297687600,4.5516875,-0.03250759840011597,0.007605032064020634,0.05299517884850502
1769659402307675600,4.561675537109375,-0.036303311586380005,0.013435328379273415,0.04686834663152695
1769659402317664500,4.57166455078125,-0.0413832925260067,0.0023861394729465246,0.038018397986888885
1769659402327652600,4.581652587890625,-0.050540342926979065,-0.00397975230589509,0.018531467765569687
1769659402337640700,4.591640625,-0.055232301354408264,-0.008021632209420204,0.009547027759253979
1769659402347628500,4.601628662109375,-0.047143008559942245,-0.021840253844857216,0.01184710580855608
1769659402357616600,4.61161669921875,-0.04666789993643761,-0.03643464297056198,0.011468937620520592
1769659402367604700,4.621604736328125,-0.05021261051297188,-0.026562757790088654,0.006487077102065086
1769659402377592600,4.631592529296875,-0.05160145089030266,-0.015516231767833233,0.009583801031112671
1769659402387580700,4.64158056640625,-0.05294137820601463,-0.015444695949554443,0.003068075515329838
1769659402397569500,4.651569580078125,-0.044225383549928665,-0.021000050008296967,0.003052895423024893
1769659402407557600,4.6615576171875,-0.04329230263829231,-0.018832873553037643,-0.0005296249873936176
1769659402417545500,4.67154541015625,-0.035018131136894226,-0.0028443194460123777,0.004330111667513847
1769659402427533600,4.681533447265625,-0.029001468792557716,0.021595962345600128,0.007588906213641167
1769659402437521700,4.691521728515625,-0.01854829490184784,0.03216977417469025,0.009172688238322735
1769659402447509800,4.701509765625,-0.012185679748654366,0.04144584387540817,0.0028672185726463795
1769659402457497600,4.71149755859375,0.0013892512070015073,0.03637278825044632,-0.013526934199035168
1769659402467485700,4.721485595703125,0.01045939326286316,0.021926771849393845,-0.023079684004187584
1769659402477474800,4.731474853515625,0.006185019388794899,0.0007437214953824878,-0.03015143983066082
1769659402487462700,4.741462646484375,0.0005955669330433011,-0.015059297904372215,-0.02635825052857399
1769659402497450500,4.751450439453125,-0.0033546998165547848,-0.017724590376019478,-0.021207697689533234
1769659402507438600,4.7614384765625,-0.005892565939575434,-0.03115617297589779,-0.02543703466653824
1769659402517426700,4.7714267578125,-0.004434218630194664,-0.04067830741405487,-0.03459031879901886
1769659402527414500,4.78141455078125,-0.0007345653139054775,-0.03206409513950348,-0.04201771318912506
1769659402537402600,4.791402587890625,0.00934656523168087,-0.01624784618616104,-0.03913670405745506
1769659402547390700,4.801390625,0.00793569628149271,-0.001177807105705142,-0.03014870546758175
1769659402557378600,4.811378662109375,0.0060198185965418816,0.012633079662919044,-0.01842440664768219
1769659402567367700,4.82136767578125,0.006679247133433819,0.02126336842775345,-0.011880660429596901
1769659402577355500,4.83135546875,0.007334651425480843,0.01676928624510765,-0.004000898450613022
1769659402587343600,4.841343505859375,0.010528940707445145,0.009495541453361511,-0.00010801036842167377
1769659402597331700,4.851331787109375,0.007964583113789558,0.014273518696427345,0.005811664275825024
1769659402607319600,4.861319580078125,0.01028725691139698,0.014073492959141731,0.0182242039591074
1769659402617307600,4.8713076171875,0.012018045410513878,0.023590564727783203,0.02936473861336708
1769659402627295700,4.881295654296875,0.01716173067688942,0.04339490830898285,0.034389425069093704
1769659402637283600,4.89128369140625,0.02564203552901745,0.05164005234837532,0.030596816912293434
1769659402647272700,4.901272705078125,0.029827743768692017,0.06906814128160477,0.02602677047252655
1769659402657260500,4.911260498046875,0.03495486080646515,0.0837424248456955,0.02235746756196022
1769659402667248600,4.92124853515625,0.04076869785785675,0.09361083805561066,0.019428016617894173
1769659402677236500,4.931236572265625,0.046702753752470016,0.09898030012845993,0.014040174894034863
1769659402687224600,4.941224609375,0.054606176912784576,0.09908082336187363,0.004952890332788229
1769659402697212700,4.951212646484375,0.055733758956193924,0.10559545457363129,-0.0009433482773602009
1769659402707201000,4.961200927734375,0.05988331139087677,0.12358325719833374,-0.003975266125053167
1769659402717189000,4.971189208984375,0.06211823597550392,0.1420067399740219,-0.003600026946514845
1769659402727178000,4.981177978515625,0.0653497725725174,0.15787865221500397,-0.007907062768936157
1769659402737165800,4.991165771484375,0.07265589386224747,0.16437196731567383,-0.013474402949213982
1769659402747154000,5.00115380859375,0.07162193953990936,0.15336039662361145,-0.0182864461094141
1769659402757142000,5.01114208984375,0.06473687291145325,0.12990540266036987,-0.025753149762749672
1769659402767130000,5.021130126953125,0.056733183562755585,0.10935870558023453,-0.031845808029174805
1769659402777118000,5.031117919921875,0.04395453631877899,0.09325643628835678,-0.02928651124238968
1769659402787106000,5.04110595703125,0.03472185507416725,0.07885263860225677,-0.0340881273150444
1769659402797094100,5.05109423828125,0.032685600221157074,0.07272177189588547,-0.03422500938177109
1769659402807082000,5.06108203125,0.0330570824444294,0.08668703585863113,-0.029424872249364853
1769659402817070800,5.07107080078125,0.0328456275165081,0.11056387424468994,-0.018950127065181732
1769659402827059000,5.081058837890625,0.03344785049557686,0.1391977071762085,-0.010042720474302769
1769659402837047000,5.091047119140625,0.03803807497024536,0.14087308943271637,-0.0033930742647498846
1769659402847035000,5.101034912109375,0.0366816371679306,0.11378038674592972,-0.0004961222875863314
1769659402857023000,5.11102294921875,0.035607583820819855,0.09582456201314926,0.0004029609262943268
1769659402867011000,5.121010986328125,0.03483349457383156,0.10204607248306274,0.0006408158224076033
1769659402876999200,5.130999267578125,0.020236175507307053,0.1186484843492508,-0.017278263345360756
1769659402886988000,5.140988037109375,0.014565987512469292,0.0770006775856018,-0.023494603112339973
1769659402896976000,5.150975830078125,0.017280280590057373,0.06898456066846848,-0.03533022105693817
1769659402906964000,5.1609638671875,0.025427255779504776,0.09267991781234741,-0.04651935398578644
1769659402916952000,5.1709521484375,0.03518001735210419,0.09293664991855621,-0.05027521029114723
1769659402926940000,5.18093994140625,0.0414409264922142,0.08456346392631531,-0.06092393398284912
1769659402936928000,5.190927978515625,0.044033780694007874,0.07828639447689056,-0.06068424880504608
1769659402946916000,5.200916015625,0.036088064312934875,0.06721173971891403,-0.058391764760017395
1769659402956904000,5.210904052734375,0.025305990129709244,0.043346889317035675,-0.04504559934139252
1769659402966892000,5.22089208984375,0.007686243392527103,0.02592390961945057,-0.02835247665643692
1769659402976881200,5.230881103515625,0.002096267882734537,0.002577041508629918,-0.0012143317144364119
1769659402986869000,5.240868896484375,0.008592425845563412,0.004475505091249943,0.0224001482129097
1769659402996856800,5.25085693359375,0.0119485417380929,0.010288919322192669,0.04540107399225235
1769659403006845000,5.260844970703125,0.007185096852481365,-0.005392188206315041,0.0581020824611187
1769659403016833000,5.2708330078125,0.00324281957000494,-0.01819666661322117,0.05527433753013611
1769659403026821000,5.280821044921875,0.006047062110155821,-0.022653792053461075,0.04931052029132843
1769659403036809000,5.29080908203125,0.010362714529037476,-0.028189439326524734,0.044603381305933
1769659403046797000,5.300797119140625,0.011057857424020767,-0.032978590577840805,0.04365646094083786
1769659403056786200,5.3107861328125,0.009012017399072647,-0.039713457226753235,0.0437890850007534
1769659403066774000,5.32077392578125,0.002554326318204403,-0.048654764890670776,0.05326105281710625
1769659403076761900,5.330761962890625,-0.00556964660063386,-0.054058853536844254,0.06859846413135529
1769659403086750000,5.34075,-0.013286896981298923,-0.0654132291674614,0.07994842529296875
1769659403096738000,5.350738037109375,-0.02442903071641922,-0.07741556316614151,0.0877903625369072
1769659403106726000,5.360725830078125,-0.02463706023991108,-0.07356077432632446,0.0756889134645462
1769659403116714000,5.3707138671875,-0.021408509463071823,-0.08889498561620712,0.05958664417266846
1769659403126702000,5.3807021484375,-0.01729496195912361,-0.10011213272809982,0.048533666878938675
1769659403136691200,5.390691162109375,-0.0073419297114014626,-0.08102206140756607,0.05098537355661392
1769659403146679000,5.400678955078125,-0.0014841766096651554,-0.0596022792160511,0.06117204576730728
1769659403156667000,5.4106669921875,-0.0018476981204003096,-0.053066350519657135,0.06898736208677292
1769659403166655000,5.420655029296875,-0.008187131956219673,-0.05252085253596306,0.06036735326051712
1769659403176643000,5.43064306640625,-0.012628486379981041,-0.06016093119978905,0.039509210735559464
1769659403186631000,5.440630859375,-0.012422922067344189,-0.07244405895471573,0.006338533014059067
1769659403196619000,5.450618896484375,-0.01656014285981655,-0.0668780505657196,-0.014199499040842056
1769659403206607000,5.460607177734375,-0.022183822467923164,-0.06795141100883484,-0.021132905036211014
1769659403216596200,5.47059619140625,-0.03498084470629692,-0.06733835488557816,-0.0170164555311203
1769659403226584000,5.480583984375,-0.044734034687280655,-0.05755903571844101,0.0025047622621059418
1769659403236572000,5.490572021484375,-0.056583236902952194,-0.0692037045955658,0.012157922610640526
1769659403246560000,5.50056005859375,-0.07047992944717407,-0.07720833271741867,-0.0017933030612766743
1769659403256547800,5.5105478515625,-0.0709071010351181,-0.11690940707921982,-0.0019315211102366447
1769659403266536000,5.520535888671875,-0.07131990045309067,-0.14672966301441193,0.005497526377439499
1769659403276524000,5.53052392578125,-0.07233802229166031,-0.14185021817684174,0.009587609209120274
1769659403286512000,5.54051220703125,-0.07468000799417496,-0.10966378450393677,0.019328387454152107
1769659403296501000,5.5505009765625,-0.07578335702419281,-0.09188878536224365,0.018956078216433525
1769659403306489000,5.560489013671875,-0.07245150953531265,-0.08188311755657196,0.012462286278605461
1769659403316477200,5.570477294921875,-0.061018820852041245,-0.06387455761432648,0.007740235887467861
1769659403326465000,5.580465087890625,-0.053340282291173935,-0.036990102380514145,0.00483847688883543
1769659403336452900,5.590452880859375,-0.04712899029254913,-0.014963632449507713,0.0036416524089872837
1769659403346441000,5.60044091796875,-0.04583290219306946,-0.0030752047896385193,-0.004604696296155453
1769659403356429000,5.610428955078125,-0.04392767325043678,-0.004057645332068205,-0.02393818087875843
1769659403366417000,5.6204169921875,-0.03670879453420639,0.0030184828210622072,-0.0392494723200798
1769659403376406000,5.630406005859375,-0.032473836094141006,0.006595107726752758,-0.040822066366672516
1769659403386394000,5.64039404296875,-0.03461132571101189,-0.0030419037211686373,-0.03519447147846222
1769659403396382200,5.65038232421875,-0.036713626235723495,-0.009715252555906773,-0.025986595079302788
1769659403406370000,5.6603701171875,-0.030001968145370483,-0.005872450303286314,-0.021199872717261314
1769659403416358000,5.67035791015625,-0.02884535677731037,0.0019159639487043023,-0.019940996542572975
1769659403426346000,5.680345947265625,-0.02163585275411606,0.013468503952026367,-0.015565064735710621
1769659403436334000,5.690333984375,-0.017178254202008247,0.022425513714551926,-0.008795841597020626
1769659403446322000,5.700322021484375,-0.01201985590159893,0.016100967302918434,0.004564682953059673
1769659403456311000,5.71031103515625,-0.011861930601298809,0.022023305296897888,0.017557712271809578
1769659403466299100,5.720299072265625,-0.006845858879387379,0.0346752293407917,0.03641166538000107
1769659403476287200,5.730287353515625,-0.0020585604943335056,0.0334448479115963,0.04708161950111389
1769659403486275000,5.740275146484375,0.0011013722978532314,0.03292911872267723,0.050501398742198944
1769659403496263000,5.750262939453125,-0.0014014665503054857,0.04556901380419731,0.054358191788196564
1769659403506251000,5.7602509765625,-0.003603604855015874,0.05103415995836258,0.05633661150932312
1769659403516238800,5.77023876953125,-0.00332423928193748,0.0560278557240963,0.04792075604200363
1769659403526227000,5.78022705078125,-0.002619657665491104,0.04992298409342766,0.038354113698005676
1769659403536216000,5.790216064453125,0.0003969048848375678,0.0451657809317112,0.03110499121248722
1769659403546204200,5.8002041015625,-0.001662123017013073,0.05008760094642639,0.029234299436211586
1769659403556192000,5.81019189453125,-0.0015737061621621251,0.05664057284593582,0.03190385177731514
1769659403566180000,5.82018017578125,0.0007541330996900797,0.05962982401251793,0.029391920194029808
1769659403576168000,5.83016796875,0.0054751187562942505,0.05591604486107826,0.02784089557826519
1769659403586156000,5.840156005859375,0.005512208677828312,0.05564890056848526,0.024883171543478966
1769659403596143900,5.850143798828125,0.0018969675293192267,0.044069476425647736,0.01943274587392807
1769659403606132000,5.860132080078125,-0.00040293321944773197,0.038765303790569305,0.013588547706604004
1769659403616121000,5.87012109375,-0.0006884241010993719,0.050675224512815475,0.009868644177913666
1769659403626109200,5.880109130859375,0.0036860841792076826,0.06462912261486053,0.0009819417027756572
1769659403636097000,5.890096923828125,0.005593174137175083,0.054573558270931244,-0.009648865088820457
1769659403646085000,5.900085205078125,-0.0007214408251456916,0.0338885672390461,-0.0178196020424366
1769659403656073200,5.9100732421875,-0.014556828886270523,0.01019815169274807,-0.013716204091906548
1769659403666060800,5.920060791015625,-0.027105405926704407,-0.016640743240714073,-0.005123192444443703
1769659403676049000,5.930048828125,-0.035045623779296875,-0.030010079964995384,0.003281477140262723
1769659403686037000,5.940037109375,-0.03913174569606781,-0.022168803960084915,-0.0014009415172040462
1769659403696026000,5.950026123046875,-0.03794451057910919,-0.021884111687541008,-0.020186081528663635
1769659403706014700,5.9600146484375,-0.03948814049363136,-0.031419575214385986,-0.03810790926218033
1769659403716002800,5.9700029296875,-0.04043915495276451,-0.03880425542593002,-0.03855239227414131
1769659403725990700,5.97999072265625,-0.047665610909461975,-0.04770897328853607,-0.028567463159561157
1769659403735978500,5.989978515625,-0.05419488251209259,-0.05349122732877731,-0.015745941549539566
1769659403745966600,5.999966552734375,-0.06495063006877899,-0.06596668064594269,-0.0014093904756009579
1769659403755954700,6.00995458984375,-0.0748024582862854,-0.07584487646818161,0.0046194735914468765
1769659403765942500,6.019942626953125,-0.08823822438716888,-0.08815068751573563,-0.004804795142263174
1769659403775931600,6.029931640625,-0.09757233411073685,-0.12485864013433456,-0.009057064540684223
1769659403785919700,6.039919677734375,-0.10382653027772903,-0.15076765418052673,-0.010423952713608742
1769659403795907800,6.049907958984375,-0.10604254901409149,-0.14950504899024963,-0.00036732363514602184
1769659403805895700,6.059895751953125,-0.09879583865404129,-0.14319202303886414,0.00791963841766119
1769659403815883500,6.069883544921875,-0.08914480358362198,-0.1390281766653061,0.014076068066060543
1769659403825871600,6.07987158203125,-0.08597689867019653,-0.12656345963478088,0.014623811468482018
1769659403835859700,6.089859619140625,-0.07082431018352509,-0.1035153940320015,0.005532312672585249
1769659403845847600,6.09984765625,-0.051200926303863525,-0.07312679290771484,-0.00435918103903532
1769659403855836700,6.109836669921875,-0.02950068935751915,-0.020832428708672523,-0.013579576276242733
1769659403865824800,6.11982470703125,-0.014562101103365421,-0.0008105908054858446,-0.01971791684627533
1769659403875812900,6.129812744140625,-0.006215754896402359,0.02016846090555191,-0.01598283275961876
1769659403885800700,6.13980078125,0.0033534616231918335,0.017674710601568222,-0.01824277825653553
1769659403895788500,6.14978857421875,0.011574906297028065,0.03798078000545502,-0.021825263276696205
1769659403905776600,6.159776611328125,0.018317248672246933,0.0603674091398716,-0.020289476960897446
1769659403915764700,6.1697646484375,0.021097322925925255,0.06328117102384567,-0.023044519126415253
1769659403925752600,6.179752685546875,0.01846468821167946,0.055932823568582535,-0.026528336107730865
1769659403935741700,6.18974169921875,0.011681615374982357,0.03456361964344978,-0.026400238275527954
1769659403945729800,6.199729736328125,0.0033536823466420174,0.016499005258083344,-0.022244861349463463
1769659403955718000,6.2097177734375,-0.004391322378069162,0.01864098571240902,-0.010593798942863941
1769659403965705700,6.219705810546875,-0.013249024748802185,0.02817687764763832,-0.006399529054760933
1769659403975693800,6.22969384765625,-0.021659288555383682,0.025655396282672882,0.002016858197748661
1769659403985681700,6.239681640625,-0.027848685160279274,0.02839788794517517,0.019294099882245064
1769659403995669500,6.24966943359375,-0.037713032215833664,0.03761002793908119,0.03300431743264198
1769659404005657600,6.25965771484375,-0.04602346196770668,0.02088710479438305,0.033371251076459885
1769659404015646700,6.269646728515625,-0.055801790207624435,-0.01816575601696968,0.025915468111634254
1769659404025634800,6.279634765625,-0.06253588944673538,-0.0556003600358963,0.01267978549003601
1769659404035622700,6.28962255859375,-0.060686856508255005,-0.060373544692993164,0.014120821841061115
1769659404045610800,6.29961083984375,-0.05587250366806984,-0.04295484721660614,0.02496592327952385
1769659404055598800,6.309598876953125,-0.051441799849271774,-0.028831036761403084,0.04338327795267105
1769659404065586700,6.319586669921875,-0.05193527787923813,-0.023083847016096115,0.0556553453207016
1769659404075574500,6.329574462890625,-0.0526796318590641,-0.020449981093406677,0.06524565070867538
1769659404085562600,6.339562744140625,-0.05658695846796036,-0.019454210996627808,0.06605401635169983
1769659404095551700,6.3495517578125,-0.056392278522253036,-0.020991122350096703,0.06027575209736824
1769659404105539800,6.359539794921875,-0.050985973328351974,-0.028862789273262024,0.04869209975004196
1769659404115527700,6.369527587890625,-0.058578114956617355,-0.056839294731616974,0.038255173712968826
1769659404125515800,6.379515869140625,-0.06234804540872574,-0.08136899769306183,0.03796893358230591
1769659404135504000,6.38950390625,-0.060146674513816833,-0.0826108306646347,0.052630431950092316
1769659404145491700,6.39949169921875,-0.0526968315243721,-0.062416672706604004,0.06316303461790085
1769659404155479600,6.4094794921875,-0.04451879858970642,-0.03436719626188278,0.07414271682500839
1769659404165467600,6.419467529296875,-0.040281716734170914,-0.019398147240281105,0.06588707864284515
1769659404175456800,6.429456787109375,-0.04094617813825607,-0.03012802265584469,0.048700638115406036
1769659404185444600,6.439444580078125,-0.04780684411525726,-0.07270433753728867,0.035279057919979095
1769659404195432700,6.4494326171875,-0.05603468045592308,-0.10475228726863861,0.04276839643716812
1769659404205420800,6.4594208984375,-0.06974851340055466,-0.07814477384090424,0.0447014719247818
1769659404215409000,6.469408935546875,-0.07565274834632874,-0.09437114745378494,0.04162472113966942
1769659404225396700,6.479396728515625,-0.0794115960597992,-0.1097802072763443,0.05108337849378586
1769659404235384600,6.489384521484375,-0.08837659657001495,-0.09477675706148148,0.05648639798164368
1769659404245372700,6.49937255859375,-0.09490597993135452,-0.09878256171941757,0.05651155859231949
1769659404255361800,6.50936181640625,-0.0987907350063324,-0.11065439879894257,0.06683024019002914
1769659404265349600,6.519349609375,-0.10775747150182724,-0.11936168372631073,0.07777315378189087
1769659404275337700,6.529337646484375,-0.11510007083415985,-0.11082412302494049,0.08271251618862152
1769659404285325800,6.539325927734375,-0.1168094351887703,-0.12666650116443634,0.07565867900848389
1769659404295313700,6.549313720703125,-0.11231108754873276,-0.13157150149345398,0.07534735649824142
1769659404305301800,6.5593017578125,-0.10476081073284149,-0.11881225556135178,0.05970475822687149
1769659404315289900,6.569289794921875,-0.08934004604816437,-0.09862203896045685,0.0405568964779377
1769659404325277700,6.579277587890625,-0.07068335264921188,-0.07269169390201569,0.02540438063442707
1769659404335266600,6.5892666015625,-0.05183189734816551,-0.04570348560810089,0.015189293771982193
1769659404345254700,6.599254638671875,-0.032740622758865356,-0.018816396594047546,0.0019041206687688828
1769659404355242800,6.60924267578125,-0.021120984107255936,-0.0008725482039153576,-0.014170719310641289
1769659404365230800,6.61923095703125,-0.012443344108760357,0.0031948371324688196,-0.02275071106851101
1769659404375218700,6.62921875,-0.0054376330226659775,0.008237266913056374,-0.024098271504044533
1769659404385206800,6.639206787109375,0.0006580766057595611,0.007245505228638649,-0.02227240800857544
1769659404395195000,6.64919482421875,0.007087480276823044,0.008687607012689114,-0.014727672562003136
1769659404405182700,6.6591826171875,0.015125380828976631,0.0172068290412426,-0.003970090765506029
1769659404415171600,6.669171630859375,0.025073086842894554,0.04147222265601158,0.006534747779369354
1769659404425159700,6.67915966796875,0.035051554441452026,0.07309408485889435,0.01085165236145258
1769659404435147800,6.689147705078125,0.043917216360569,0.08255522698163986,0.0044621960259974
1769659404445135600,6.699135498046875,0.045408207923173904,0.08868621289730072,0.002291580196470022
1769659404455123700,6.709123779296875,0.04488303139805794,0.08900845050811768,-0.004003067500889301
1769659404465111800,6.71911181640625,0.04894353076815605,0.07834187150001526,-0.007845159620046616
1769659404475100000,6.729099853515625,0.05050680786371231,0.07048901170492172,-0.010879832319915295
1769659404485088500,6.739088623046875,0.05291170999407768,0.07253886014223099,-0.005878848023712635
1769659404495076600,6.74907666015625,0.05483158305287361,0.07346377521753311,-0.005011722445487976
1769659404505064700,6.759064697265625,0.0530376136302948,0.056762270629405975,-0.002789671765640378
1769659404515052800,6.769052734375,0.05202215164899826,0.027085602283477783,-0.004254410043358803
1769659404525040600,6.77904052734375,0.04755647853016853,0.0631231740117073,-0.011194005608558655
1769659404535028700,6.78902880859375,0.04707338288426399,0.05561386048793793,-0.019258590415120125
1769659404545016800,6.799016845703125,0.04391772672533989,0.0353141725063324,-0.0078073590993881226
1769659404555004700,6.809004638671875,0.04313689097762108,0.04671276733279228,-0.004497848451137543
1769659404564993500,6.81899365234375,0.04571807384490967,0.060938760638237,-0.0008755335584282875
1769659404574981600,6.828981689453125,0.046593986451625824,0.059828225523233414,-0.0017210873775184155
1769659404584969700,6.8389697265625,0.047743525356054306,0.06098715960979462,-0.002758940914645791
1769659404594957600,6.84895751953125,0.0449858233332634,0.06570307910442352,-0.0026023469399660826
1769659404604945700,6.858945556640625,0.03930133581161499,0.06104482710361481,0.0026481107342988253
1769659404614933800,6.868933837890625,0.03314836695790291,0.05605779215693474,0.002858234103769064
1769659404624921900,6.878921875,0.02857443131506443,0.04953766241669655,-0.0026857201009988785
1769659404634909700,6.88890966796875,0.024706987664103508,0.04712989926338196,-0.016910996288061142
1769659404644898600,6.898898681640625,0.01890278421342373,0.0390058197081089,-0.0243122186511755
1769659404654886700,6.90888671875,0.015509385615587234,0.02853294089436531,-0.022822977975010872
1769659404664874800,6.918874755859375,0.014980161562561989,0.017557820305228233,-0.01869772933423519
1769659404674862600,6.928862548828125,0.011128697544336319,0.013815280050039291,-0.012145819142460823
1769659404684850700,6.9388505859375,0.003955389838665724,0.013016276061534882,-0.006778948474675417
1769659404694838800,6.9488388671875,-0.005232249386608601,0.002899192739278078,-0.0020736753940582275
1769659404704826600,6.95882666015625,-0.008737997151911259,-0.007608171086758375,-0.005875824019312859
1769659404714814700,6.968814697265625,-0.009718572720885277,-0.015563566237688065,-0.009663637727499008
1769659404724803300,6.97880322265625,-0.011012456379830837,-0.028726700693368912,-0.015961458906531334
1769659404734791400,6.98879150390625,-0.013492126017808914,-0.045893967151641846,-0.016733510419726372
1769659404744779500,6.998779541015625,-0.015853945165872574,-0.05909203737974167,-0.014942617155611515
1769659404754767600,7.008767578125,-0.020855095237493515,-0.06716674566268921,-0.017577283084392548
1769659404764755500,7.01875537109375,-0.020689377561211586,-0.06692197918891907,-0.017698906362056732
1769659404774743600,7.02874365234375,-0.018137536942958832,-0.05799266695976257,-0.022520294412970543
1769659404784731600,7.038731689453125,-0.0098336860537529,-0.047238100320100784,-0.030257858335971832
1769659404794719500,7.048719482421875,-0.0021185078658163548,-0.03804859519004822,-0.035515204071998596
1769659404804708600,7.05870849609375,-0.0007963213138282299,-0.03496285527944565,-0.037841666489839554
1769659404814696400,7.068696533203125,0.0011299430625513196,-0.03239024057984352,-0.041089124977588654
1769659404824684500,7.0786845703125,0.0016654138453304768,-0.028417175635695457,-0.04267027601599693
1769659404834672400,7.08867236328125,0.00431712344288826,-0.022723069414496422,-0.04326656088232994
1769659404844660500,7.098660400390625,0.010313778184354305,-0.0020310129038989544,-0.04236380383372307
1769659404854648600,7.108648681640625,0.019249483942985535,0.01861221343278885,-0.047224871814250946
1769659404864636700,7.11863671875,0.029110681265592575,0.02726714126765728,-0.05827577784657478
1769659404874624500,7.12862451171875,0.03875851631164551,0.024352844804525375,-0.0724850744009018
1769659404884613600,7.138613525390625,0.043259065598249435,0.03428058326244354,-0.07725709676742554
1769659404894601500,7.1486015625,0.04899764433503151,0.050233982503414154,-0.07176139950752258
1769659404904589600,7.158589599609375,0.048639215528964996,0.06525905430316925,-0.06256834417581558
1769659404914577400,7.168577392578125,0.04727168008685112,0.06618237495422363,-0.057817257940769196
1769659404924565500,7.1785654296875,0.042159151285886765,0.05130262300372124,-0.057371217757463455
1769659404934553600,7.1885537109375,0.04181240499019623,0.04083293676376343,-0.06349808722734451
1769659404944541400,7.19854150390625,0.04040820524096489,0.03674079477787018,-0.06775123625993729
1769659404954530600,7.208530517578125,0.03842548280954361,0.040631141513586044,-0.06479007005691528
1769659404964518700,7.2185185546875,0.03411734476685524,0.04991647228598595,-0.05398908630013466
1769659404974506500,7.228506591796875,0.03196817263960838,0.06553830951452255,-0.04642197862267494
1769659404984494300,7.238494384765625,0.026738232001662254,0.05196243152022362,-0.04518605023622513
1769659404994482400,7.248482421875,0.02232137881219387,0.028477881103754044,-0.04100941866636276
1769659405004470500,7.258470458984375,0.017068108543753624,0.014011435210704803,-0.03356398642063141
1769659405014458600,7.268458740234375,0.00801442563533783,0.004854955244809389,-0.02333638444542885
1769659405024446500,7.278446533203125,-0.0009629438864067197,-0.012753318063914776,-0.011222535744309425
1769659405034435600,7.288435546875,-0.0007245909655466676,-0.01665564812719822,-0.0035592899657785892
1769659405044423700,7.298423583984375,0.0013509198324754834,-0.0018914141692221165,-0.009552760981023312
1769659405054411800,7.308411865234375,0.007089232560247183,0.010606801137328148,-0.029591185972094536
1769659405064399400,7.3183994140625,0.01882137358188629,0.011315141804516315,-0.039291515946388245
1769659405074387500,7.328387451171875,0.023837435990571976,0.03551768139004707,-0.044969648122787476
1769659405084375600,7.33837548828125,0.025660060346126556,0.06585142016410828,-0.053474850952625275
1769659405094363400,7.34836328125,0.01786019466817379,0.07711126655340195,-0.061542101204395294
1769659405104351500,7.3583515625,0.011975601315498352,0.0812026709318161,-0.059605278074741364
1769659405114340600,7.368340576171875,0.008179797790944576,0.1093839779496193,-0.056722402572631836
1769659405124328700,7.37832861328125,0.021785344928503036,0.15883669257164001,-0.06303819268941879
1769659405134316800,7.38831689453125,0.02457900159060955,0.17585110664367676,-0.0884426161646843
1769659405144304600,7.3983046875,0.02561722695827484,0.1589251160621643,-0.11576125770807266
1769659405154292500,7.40829248046875,0.008383646607398987,0.14620639383792877,-0.12526102364063263
1769659405164280600,7.418280517578125,-0.01021461933851242,0.12945209443569183,-0.12179722636938095
1769659405174268400,7.428268310546875,-0.030648522078990936,0.09887634217739105,-0.1006687730550766
1769659405184256500,7.438256591796875,-0.03195410221815109,0.08697239309549332,-0.07282422482967377
1769659405194245600,7.44824560546875,-0.03674912452697754,0.07142965495586395,-0.04397580400109291
1769659405204233700,7.458233642578125,-0.04121636226773262,0.057887040078639984,-0.03554572910070419
1769659405214221600,7.4682216796875,-0.02996743842959404,0.09576810896396637,-0.04547958821058273
1769659405224209700,7.478209716796875,-0.016371004283428192,0.10887856036424637,-0.05866551399230957
1769659405234197500,7.488197509765625,0.0017302363412454724,0.08882150053977966,-0.06348051130771637
1769659405244185300,7.498185302734375,0.0273306705057621,0.09144151955842972,-0.07520933449268341
1769659405254173400,7.50817333984375,0.04632540047168732,0.12051870673894882,-0.07341036945581436
1769659405264162600,7.51816259765625,0.04614344984292984,0.13361218571662903,-0.06689200550317764
1769659405274150700,7.528150634765625,0.042622219771146774,0.15091048181056976,-0.06958179920911789
1769659405284138800,7.538138671875,0.031843241304159164,0.14502526819705963,-0.07416177541017532
1769659405294126600,7.548126708984375,0.03210636228322983,0.12928837537765503,-0.06917021423578262
1769659405304114700,7.55811474609375,0.015827413648366928,0.11452420055866241,-0.06092680245637894
1769659405314102500,7.5681025390625,-0.004972673952579498,0.09333395957946777,-0.06402778625488281
1769659405324090400,7.57809033203125,-0.015331929549574852,0.08037358522415161,-0.053115520626306534
1769659405334078500,7.588078369140625,-0.02338239923119545,0.05961530655622482,-0.04194781929254532
1769659405344067600,7.598067626953125,-0.033127471804618835,0.03815781697630882,-0.035805024206638336
1769659405354055700,7.6080556640625,-0.04085782915353775,0.021428102627396584,-0.02011740580201149
1769659405364043500,7.61804345703125,-0.041512228548526764,0.005379660986363888,-0.008572587743401527
1769659405374031600,7.628031494140625,-0.03752121329307556,-0.010599039494991302,-0.00430220877751708
1769659405384019700,7.638019775390625,-0.0262761227786541,-0.007322162389755249,0.0069391122087836266
1769659405394007800,7.6480078125,-0.023317350074648857,0.01336793601512909,0.020812317728996277
1769659405403995400,7.657995361328125,-0.007643061690032482,0.03917311877012253,0.01830565184354782
1769659405413983500,7.6679833984375,0.01110825501382351,0.05277974158525467,0.005475606769323349
1769659405423972600,7.67797265625,0.02111891657114029,0.04611107334494591,-0.003016815986484289
1769659405433960700,7.687960693359375,0.025173846632242203,0.041037220507860184,0.0029076524078845978
1769659405443948500,7.697948486328125,0.02080986648797989,0.029208537191152573,0.01814539171755314
1769659405453936600,7.7079365234375,0.025495698675513268,0.029646361246705055,0.02645125798881054
1769659405463924700,7.7179248046875,0.031745459884405136,0.04622792825102806,0.026840854436159134
1769659405473912600,7.72791259765625,0.04489907994866371,0.06374167650938034,0.01659274473786354
1769659405483900700,7.737900634765625,0.05531787872314453,0.07237693667411804,0.006160504184663296
1769659405493889500,7.7478896484375,0.061123304069042206,0.058301594108343124,-0.006095629185438156
1769659405503877600,7.757877685546875,0.059481024742126465,0.05150877684354782,-0.014334349893033504
1769659405513865500,7.767865478515625,0.05717898905277252,0.06105168163776398,-0.020566146820783615
1769659405523853600,7.777853515625,0.05987736955285072,0.07920140773057938,-0.030133472755551338
1769659405533841700,7.787841552734375,0.05478300899267197,0.06087566539645195,-0.045825086534023285
1769659405543829800,7.797829833984375,0.04358323663473129,0.022842589765787125,-0.06735377013683319
1769659405553817600,7.807817626953125,0.030820302665233612,0.004580760840326548,-0.07057566195726395
1769659405563805700,7.8178056640625,0.015979710966348648,0.01613198034465313,-0.053091567009687424
1769659405573794600,7.827794677734375,0.009637391194701195,0.025605643168091774,-0.030875742435455322
1769659405583782700,7.83778271484375,0.005567933898419142,0.035901349037885666,-0.022957386448979378
1769659405593770500,7.8477705078125,0.006705902982503176,0.04634413495659828,-0.024515334516763687
1769659405603758600,7.857758544921875,0.00349566712975502,0.05947649106383324,-0.029328197240829468
1769659405613746700,7.86774658203125,0.01221831887960434,0.0631556510925293,-0.029864024370908737
1769659405623734500,7.877734619140625,0.0233400147408247,0.07939055562019348,-0.02162463776767254
1769659405633722600,7.88772265625,0.030604321509599686,0.06796106696128845,-0.021113043650984764
1769659405643711500,7.89771142578125,0.03120574727654457,0.048492614179849625,-0.03461587056517601
1769659405653699600,7.907699462890625,0.036755241453647614,0.025554541498422623,-0.04155260697007179
1769659405663687400,7.9176875,0.04416222125291824,0.01643241010606289,-0.02227994054555893
1769659405673675500,7.927675537109375,0.05738641321659088,0.02166898362338543,-0.011074692010879517
1769659405683663600,7.93766357421875,0.07098659127950668,0.0433538518846035,-0.006284080911427736
1769659405693651700,7.947651611328125,0.08034174889326096,0.07622472196817398,-0.006605257745832205
1769659405703638800,7.957638671875,0.08515666425228119,0.1108769103884697,-0.008537582121789455
1769659405713627000,7.967626953125,0.08966220170259476,0.16240641474723816,-0.000022124033421278
1769659405723616000,7.977615966796875,0.09398297220468521,0.19988557696342468,-0.002583288587629795
1769659405733603800,7.987603759765625,0.08501211553812027,0.19751323759555817,-0.018909532576799393
1769659405743591700,7.997591796875,0.07052507251501083,0.16354550421237946,-0.0296381376683712
1769659405753579800,8.007579833984375,0.0559471920132637,0.12734302878379822,-0.05074235796928406
1769659405763567600,8.017567626953126,0.047791365534067154,0.09116115421056747,-0.0757262259721756
1769659405773555700,8.0275556640625,0.04106821492314339,0.06687977910041809,-0.09019066393375397
1769659405783543800,8.037543701171876,0.024341529235243797,0.037141215056180954,-0.08093470335006714
1769659405793531600,8.04753173828125,0.011300829239189625,0.010045414790511131,-0.05860809236764908
1769659405803520800,8.057520751953126,-0.00480726920068264,-0.005462612956762314,-0.0373380184173584
1769659405813508900,8.0675087890625,-0.020065585151314735,-0.02283201552927494,-0.0244765467941761
1769659405823496700,8.07749658203125,-0.034836091101169586,-0.03276614099740982,-0.016165193170309067
1769659405833484800,8.08748486328125,-0.04597236588597298,-0.01467395480722189,-0.016105005517601967
1769659405843472600,8.09747265625,-0.045341137796640396,0.022276561707258224,-0.02279166877269745
1769659405853460700,8.107460693359375,-0.04489639028906822,0.04333071410655975,-0.04114804044365883
1769659405863448800,8.11744873046875,-0.04718372970819473,0.04820874705910683,-0.0664825439453125
1769659405873438000,8.12743798828125,-0.04741569235920906,0.02878178469836712,-0.0893298014998436
1769659405883425800,8.13742578125,-0.057041723281145096,0.022363165393471718,-0.09105344861745834
1769659405893414000,8.147413818359375,-0.07104915380477905,0.014117751270532608,-0.07523799687623978
1769659405903401700,8.157401611328124,-0.09250854700803757,-0.008072963915765285,-0.044966474175453186
1769659405913389600,8.1673896484375,-0.10591410100460052,-0.042883675545454025,-0.01850956305861473
1769659405923377700,8.177377685546874,-0.11424533277750015,-0.06768885999917984,0.00799530278891325
1769659405933365800,8.18736572265625,-0.11026204377412796,-0.06607925146818161,0.03612814098596573
1769659405943353900,8.197353759765624,-0.11182322353124619,-0.035787273198366165,0.05770476907491684
1769659405953342700,8.2073427734375,-0.10278205573558807,0.01063401997089386,0.0637621283531189
1769659405963330800,8.217330810546875,-0.08771520853042603,0.06300774216651917,0.04097691923379898
1769659405973319000,8.22731884765625,-0.07376024127006531,0.0909205973148346,0.007898329757153988
1769659405983307000,8.23730712890625,-0.06090376898646355,0.11002219468355179,-0.013056304305791855
1769659405993294600,8.247294677734375,-0.0556647963821888,0.12020345777273178,-0.01344219595193863
1769659406003282700,8.25728271484375,-0.05714527517557144,0.11807602643966675,-0.0009130174294114113
1769659406013270800,8.267270751953125,-0.050733182579278946,0.10943274199962616,0.015836400911211967
1769659406023258600,8.277258544921875,-0.04052383452653885,0.11100925505161285,0.030996162444353104
1769659406033247700,8.287247802734376,-0.02988903410732746,0.11422581970691681,0.029146330431103706
1769659406043235800,8.29723583984375,-0.021977467462420464,0.09907104074954987,0.019684884697198868
1769659406053224000,8.307223876953126,-0.02844761684536934,0.08084943145513535,0.019412176683545113
1769659406063211800,8.317211669921875,-0.044079966843128204,0.06445902585983276,0.016985420137643814
1769659406073199900,8.327199951171876,-0.06427764892578125,0.04350980371236801,0.004890941083431244
1769659406083187700,8.337187744140625,-0.08021704107522964,0.023588137701153755,-0.012641312554478645
1769659406093175800,8.34717578125,-0.09347159415483475,0.005788634531199932,-0.021610572934150696
1769659406103164700,8.35716455078125,-0.11323268711566925,-0.03540397062897682,-0.030918555334210396
1769659406113152800,8.36715283203125,-0.12669096887111664,-0.0989919975399971,-0.04189211130142212
1769659406123140900,8.377140869140625,-0.14299039542675018,-0.14138616621494293,-0.043526791036129
1769659406133129000,8.38712890625,-0.15565505623817444,-0.15079031884670258,-0.03161180764436722
1769659406143116800,8.39711669921875,-0.15139330923557281,-0.15228717029094696,-0.012998043559491634
1769659406153105000,8.40710498046875,-0.1300632506608963,-0.13660062849521637,0.013214917853474617
1769659406163092700,8.4170927734375,-0.10288994014263153,-0.09835945069789886,0.030616648495197296
1769659406173080600,8.42708056640625,-0.07392114400863647,-0.05863174423575401,0.040352631360292435
1769659406183069700,8.437069580078125,-0.04742409288883209,-0.013258680701255798,0.04353342205286026
1769659406193057800,8.447057861328124,-0.023843932896852493,0.022668426856398582,0.04504157230257988
1769659406203046000,8.4570458984375,-0.006948739290237427,0.046596016734838486,0.04717542976140976
1769659406213033700,8.46703369140625,0.004107373766601086,0.056272346526384354,0.03643117472529411
1769659406223021800,8.477021728515625,0.011550478637218475,0.056192606687545776,0.018175072968006134
1769659406233010000,8.487010009765624,0.006447330117225647,0.0527358241379261,-0.006623484194278717
1769659406242997800,8.496997802734375,-0.001674660132266581,0.03783031925559044,-0.02707340568304062
1769659406252986600,8.506986572265625,-0.025411946699023247,0.010713746771216393,-0.028692075982689857
1769659406262974700,8.516974609375,-0.041118867695331573,-0.004735775291919708,-0.02445504441857338
1769659406272962800,8.526962890625,-0.04217880591750145,-0.024218128994107246,-0.011677198112010956
1769659406282951000,8.536950927734376,-0.03851313889026642,-0.028545662760734558,0.004174236208200455
1769659406292938800,8.546938720703125,-0.03425314649939537,-0.005475230049341917,0.014736332930624485
1769659406302926800,8.5569267578125,-0.0294019877910614,0.024088285863399506,0.00475641805678606
1769659406312915000,8.5669150390625,-0.016863293945789337,0.03814498335123062,-0.010728532448410988
1769659406322902800,8.57690283203125,-0.009458167478442192,0.026306210085749626,-0.02975788339972496
1769659406332891600,8.5868916015625,-0.00009742297697812319,0.0113743981346488,-0.04268965870141983
1769659406342879700,8.596879638671876,0.003393298014998436,0.017369898036122322,-0.04569105803966522
1769659406352867800,8.606867919921875,-0.0017599185230210423,0.01850307360291481,-0.04970870167016983
1769659406362855700,8.616855712890626,-0.004304568748921156,0.012377269566059113,-0.0499502494931221
1769659406372843800,8.62684375,-0.008325409144163132,0.011607883498072624,-0.05122164636850357
1769659406382831900,8.636831787109376,-0.012174742296338081,0.0176593828946352,-0.05799326300621033
1769659406392820000,8.646820068359375,-0.0164501816034317,0.03564690425992012,-0.06023005396127701
1769659406402808600,8.65680859375,-0.024757588282227516,0.06283135712146759,-0.06252545118331909
1769659406412796700,8.666796630859375,-0.03495323285460472,0.09601940214633942,-0.0588417649269104
1769659406422784800,8.67678466796875,-0.03780625760555267,0.10991799831390381,-0.04252516105771065
1769659406432772900,8.68677294921875,-0.041734952479600906,0.11862200498580933,-0.017650170251727104
1769659406442760700,8.6967607421875,-0.04256901890039444,0.12056892365217209,0.006207522936165333
1769659406452748800,8.706748779296875,-0.04430273547768593,0.12214551866054535,0.022861599922180176
1769659406462737000,8.71673681640625,-0.04107125476002693,0.1235751062631607,0.03095867484807968
1769659406472724700,8.726724853515625,-0.03367059677839279,0.12341637909412384,0.030434032902121544
1769659406482713600,8.736713623046874,-0.027804996818304062,0.11072450131177902,0.012695418670773506
1769659406492701700,8.74670166015625,-0.029863353818655014,0.07824458926916122,-0.01321527361869812
1769659406502689800,8.756689697265625,-0.03845422342419624,0.04135775938630104,-0.035286370664834976
1769659406512677600,8.766677734375,-0.049066390842199326,0.010258162394165993,-0.054711468517780304
1769659406522665700,8.776665771484375,-0.05466355383396149,-0.010891331359744072,-0.05065280944108963
1769659406532653800,8.78665380859375,-0.05033618584275246,-0.005922405049204826,-0.04670094698667526
1769659406542642000,8.796641845703125,-0.03369646146893501,0.029257524758577347,-0.047080785036087036
1769659406552630800,8.806630859375,-0.011521118693053722,0.07255546003580093,-0.04711940139532089
1769659406562618600,8.81661865234375,0.010970918461680412,0.10706008225679398,-0.05526690185070038
1769659406572606700,8.826606689453126,0.02281452901661396,0.1356126219034195,-0.05571671202778816
1769659406582594800,8.8365947265625,0.0247645303606987,0.14717034995555878,-0.04794689267873764
1769659406592582700,8.846582763671876,0.014004828408360481,0.1350788027048111,-0.03716348484158516
1769659406602570800,8.85657080078125,-0.0021950057707726955,0.10658526420593262,-0.041207797825336456
1769659406612558800,8.866558837890626,-0.018344948068261147,0.07668808847665787,-0.04978770390152931
1769659406622546700,8.876546630859375,-0.03112640045583248,0.053966253995895386,-0.05226144567131996
1769659406632535800,8.886535888671874,-0.04940633848309517,0.049793876707553864,-0.04870026558637619
1769659406642523600,8.896523681640625,-0.06776613742113113,0.010729169473052025,-0.038189783692359924
1769659406652511700,8.90651171875,-0.08699122816324234,-0.019007153809070587,-0.03854212164878845
1769659406662499600,8.91649951171875,-0.10287649929523468,-0.0424540750682354,-0.04503186047077179
1769659406672487700,8.92648779296875,-0.11165028065443039,-0.05853584036231041,-0.0503201000392437
1769659406682475800,8.936475830078125,-0.11464934796094894,-0.05821312218904495,-0.051273711025714874
1769659406692463900,8.9464638671875,-0.10662578046321869,-0.047036368399858475,-0.03682206571102142
1769659406702452700,8.95645263671875,-0.09765829890966415,-0.05101054534316063,-0.02245704084634781
1769659406712441000,8.966441162109374,-0.08032165467739105,-0.0514928437769413,-0.022210432216525078
1769659406722429200,8.97642919921875,-0.05712707340717316,-0.03353310003876686,-0.00879540853202343
1769659406732417300,8.986417236328125,-0.04175690561532974,0.00203554704785347,0.0076251099817454815
1769659406742405000,8.996405029296875,-0.027710173279047012,0.03833955526351929,0.02003307268023491
1769659406752393200,9.006393310546875,-0.021357735618948936,0.04029857739806175,0.020744137465953827
1769659406762381300,9.01638134765625,-0.021933607757091522,0.023220963776111603,0.007853589951992035
1769659406772369400,9.026369384765625,-0.02307051047682762,0.016235224902629852,0.005295890383422375
1769659406782358300,9.036358154296876,-0.02451949380338192,0.015044120140373707,0.019793402403593063
1769659406792346000,9.04634619140625,-0.023967687040567398,0.0027270005084574223,0.03780569136142731
1769659406802334200,9.056334228515626,-0.021866366267204285,-0.003841305850073695,0.04161350056529045
1769659406812322300,9.066322265625,-0.014501661993563175,0.017934564501047134,0.0456327460706234
1769659406822310100,9.07631005859375,-0.0034126651007682085,0.03982732072472572,0.04128948226571083
1769659406832298200,9.08629833984375,0.00790497101843357,0.050128161907196045,0.034809209406375885
1769659406842286300,9.096286376953126,0.012311195954680443,0.039485473185777664,0.03447624295949936
1769659406852275500,9.106275390625,0.014453710988163948,0.030876006931066513,0.03849788382649422
1769659406862263300,9.11626318359375,0.017523104324936867,0.03466608747839928,0.040974244475364685
1769659406872251400,9.12625146484375,0.022208936512470245,0.04996035620570183,0.04357695206999779
1769659406882239200,9.1362392578125,0.02670377306640148,0.06963054090738297,0.04925572872161865
1769659406892227000,9.14622705078125,0.032377373427152634,0.0828121230006218,0.056303516030311584
1769659406902215200,9.156215087890626,0.0375342033803463,0.09032125025987625,0.05725667625665665
1769659406912203300,9.166203369140625,0.042798738926649094,0.0872463658452034,0.05342598631978035
1769659406922191400,9.17619140625,0.04378877207636833,0.0799914076924324,0.04851663112640381
1769659406932180200,9.18618017578125,0.04205452278256416,0.07396094501018524,0.047778137028217316
1769659406942168300,9.196168212890624,0.03840015083551407,0.07276497781276703,0.04814974218606949
1769659406952156400,9.206156494140625,0.03824488818645477,0.0705481618642807,0.04599737748503685
1769659406962144300,9.216144287109374,0.037045057862997055,0.06271710991859436,0.03930956870317459
1769659406972132000,9.226132080078125,0.036925751715898514,0.05746082961559296,0.031200511381030083
1769659406982120200,9.2361201171875,0.03932319954037666,0.05765524506568909,0.02860988676548004
1769659406992108300,9.2461083984375,0.03880095109343529,0.06027579680085182,0.02780880779027939
1769659407002097400,9.256097412109375,0.03207605332136154,0.06010156497359276,0.02070452645421028
1769659407012085200,9.266085205078125,0.02435714565217495,0.04375108703970909,0.012478552758693695
1769659407022073300,9.2760732421875,0.01716374047100544,0.031750839203596115,-0.0011949138715863228
1769659407032061400,9.2860615234375,0.012269383296370506,0.015849370509386063,-0.008403291925787926
1769659407042049300,9.29604931640625,0.004606147762387991,-0.0019146641716361046,-0.01154465600848198
1769659407052037000,9.306037109375,-0.0009324282291345298,0.007849549874663353,-0.019347451627254486
1769659407062025200,9.316025146484375,-0.0065330443903803825,0.009914880618453026,-0.021392393857240677
1769659407072013300,9.326013427734376,-0.012385341338813305,0.01321879867464304,-0.015853017568588257
1769659407082002200,9.336002197265625,-0.01639232039451599,0.022678397595882416,-0.010251227766275406
1769659407091990300,9.345990234375,-0.020451776683330536,0.02914455160498619,-0.0051478128880262375
1769659407101978400,9.355978271484375,-0.028431281447410583,0.02378065511584282,-0.003803364234045148
1769659407111966500,9.365966552734376,-0.03455442190170288,0.010346071794629097,-0.008299312554299831
1769659407121954300,9.375954345703125,-0.035319361835718155,0.0033496273681521416,-0.016176613047719002
1769659407131942400,9.3859423828125,-0.03281465917825699,0.004577078390866518,-0.02658105082809925
1769659407141930200,9.39593017578125,-0.03461943194270134,-0.0011794243473559618,-0.03083530254662037
1769659407151919400,9.40591943359375,-0.03474220633506775,-0.004932084586471319,-0.0343908853828907
1769659407161907200,9.4159072265625,-0.0333809033036232,-0.001813946757465601,-0.04181697592139244
1769659407171895300,9.425895263671874,-0.032037872821092606,-0.00606381893157959,-0.044969625771045685
1769659407181883400,9.43588330078125,-0.031080175191164017,-0.00442082853987813,-0.044849835336208344
1769659407191871200,9.445871337890624,-0.03483390063047409,-0.009625444188714027,-0.042215436697006226
1769659407201859300,9.455859375,-0.04609634354710579,-0.03612390533089638,-0.04601927474141121
1769659407211847400,9.465847412109374,-0.05615270882844925,-0.05995520204305649,-0.056283894926309586
1769659407221835300,9.475835205078125,-0.06882557272911072,-0.08596368879079819,-0.0670933872461319
1769659407231824100,9.48582421875,-0.07757831364870071,-0.10207847505807877,-0.07965151965618134
1769659407241812200,9.495812255859375,-0.08547849208116531,-0.10760229080915451,-0.08544892072677612
1769659407251800300,9.50580029296875,-0.09253613650798798,-0.10600706189870834,-0.08217696100473404
1769659407261788400,9.515788330078125,-0.09539633989334106,-0.10705781728029251,-0.07539118081331253
1769659407271776300,9.5257763671875,-0.095392607152462,-0.10362952947616577,-0.07803250849246979
1769659407281764400,9.535764404296875,-0.08989983052015305,-0.09784567356109619,-0.08333192020654678
1769659407291752400,9.54575244140625,-0.09139946103096008,-0.10268623381853104,-0.08638869225978851
1769659407301741300,9.5557412109375,-0.09566164761781693,-0.11023839563131332,-0.10089119523763657
1769659407311729200,9.565729248046875,-0.09446962177753448,-0.0894889086484909,-0.12818486988544464
1769659407321717200,9.57571728515625,-0.08971591293811798,-0.11255764216184616,-0.1010463684797287
1769659407331705300,9.585705322265625,-0.08325614780187607,-0.13717642426490784,-0.08481147140264511
1769659407341693200,9.595693115234376,-0.08572594076395035,-0.1287151724100113,-0.07459792494773865
1769659407351681300,9.605681396484375,-0.07783312350511551,-0.11190157383680344,-0.0598626583814621
1769659407361669400,9.61566943359375,-0.0697467029094696,-0.0934022068977356,-0.052454255521297455
1769659407371658200,9.625658203125,-0.059213366359472275,-0.07017864286899567,-0.0494036041200161
1769659407381646000,9.63564599609375,-0.0495830662548542,-0.04760283976793289,-0.04543481394648552
1769659407391634200,9.64563427734375,-0.04132087528705597,-0.026751618832349777,-0.03534063324332237
1769659407401622300,9.655622314453124,-0.0337170735001564,-0.020656397566199303,-0.028969554230570793
1769659407411610400,9.6656103515625,-0.02986587956547737,-0.010508423671126366,-0.025364965200424194
1769659407421598200,9.67559814453125,-0.02586095780134201,0.006971190217882395,-0.027487238869071007
1769659407431586300,9.68558642578125,-0.01665174588561058,0.02094852551817894,-0.02233215793967247
1769659407441574400,9.695574462890624,-0.01141703687608242,0.032344721257686615,-0.011766331270337105
1769659407451563300,9.705563232421875,-0.00792430154979229,0.0400143601000309,0.004666171036660671
1769659407461551000,9.715551025390624,-0.007105333264917135,0.04097222164273262,0.012190284207463264
1769659407471539200,9.725539306640625,-0.00412765285000205,0.04146623611450195,0.015567438676953316
1769659407481527300,9.73552734375,-0.006603931076824665,0.03973677381873131,0.015203816816210747
1769659407491515100,9.74551513671875,-0.010472705587744713,0.02567395009100437,0.01733088307082653
1769659407501503200,9.755503173828124,-0.015323027968406677,0.01996956579387188,0.015935685485601425
1769659407511491300,9.7654912109375,-0.022697320207953453,0.017121315002441406,0.01765182800590992
1769659407521480400,9.77548046875,-0.03075014054775238,0.007627863436937332,0.024620670825242996
1769659407531468300,9.78546826171875,-0.03852257505059242,0.004956446588039398,0.03149349242448807
1769659407541456100,9.7954560546875,-0.04526415839791298,-0.0020138146355748177,0.041863057762384415
1769659407551444200,9.8054443359375,-0.044035907834768295,-0.008225638419389725,0.049454931169748306
1769659407561432300,9.815432373046875,-0.043953560292720795,-0.01013382337987423,0.04714621976017952
1769659407571420200,9.825420166015626,-0.04018358886241913,-0.0133900698274374,0.040253691375255585
1769659407581408300,9.835408203125,-0.033272117376327515,-0.013097785413265228,0.03157370164990425
1769659407591397400,9.8453974609375,-0.024799006059765816,-0.010916123166680336,0.01573721505701542
1769659407601385500,9.855385498046875,-0.01656966470181942,-0.006845853757113218,0.0018778254743665457
1769659407611373300,9.865373291015626,-0.010080073960125446,0.00008928379975259304,-0.00544773181900382
1769659407621361200,9.875361083984375,-0.004525727592408657,0.005874171853065491,-0.008956464007496834
1769659407631349200,9.885349365234376,0.0016573336906731129,0.017348667606711388,-0.011445986106991768
1769659407641337000,9.895337158203125,0.004148421343415976,0.028244856745004654,-0.011650304310023785
1769659407651325200,9.9053251953125,0.0007893762085586786,0.038655418902635574,-0.009475832805037498
1769659407661313300,9.915313232421875,0.0006332255434244871,0.048048269003629684,-0.00881006009876728
1769659407671302400,9.925302490234374,-0.0007710593054071069,0.04650017246603966,-0.009637503884732723
1769659407681290500,9.93529052734375,-0.0012992267729714513,0.03381558135151863,-0.007032129913568497
1769659407691278300,9.9452783203125,-0.0023826006799936295,0.035709086805582047,-0.008377025835216045
1769659407701266200,9.95526611328125,-0.002200428396463394,0.0327351875603199,-0.009777218103408813
1769659407711255600,9.965255615234375,-0.0039719631895422935,0.026189403608441353,-0.010068301111459732
1769659407721243600,9.97524365234375,-0.010267862118780613,0.017374927178025246,-0.0031239076051861048
1769659407731231700,9.985231689453125,-0.015402702614665031,0.0007607972947880626,0.005710063502192497
1769659407741219800,9.9952197265625,-0.01975482702255249,-0.013827946968376637,0.011214116588234901
1769659407751208400,10.00520849609375,-0.022388428449630737,-0.020645372569561005,0.014289001934230328
1769659407761196500,10.015196533203126,-0.021513277664780617,-0.019414326176047325,0.01151750236749649
1769659407771184600,10.0251845703125,-0.018816562369465828,-0.014182545244693756,0.006753107532858849
1769659407781172700,10.0351728515625,-0.019493872299790382,-0.011734586209058762,0.0012072573881596327
1769659407791160600,10.04516064453125,-0.019571103155612946,-0.0167170949280262,-0.0039731236174702644
1769659407801148700,10.055148681640626,-0.021648980677127838,-0.02355746179819107,-0.0036172843538224697
1769659407811136800,10.06513671875,-0.022237272933125496,-0.0236221756786108,0.0001726602204144001
1769659407821125600,10.075125732421874,-0.024177227169275284,-0.01956021413207054,0.0070512122474610806
1769659407831113500,10.085113525390625,-0.025734908878803253,-0.013373958878219128,0.016138184815645218
1769659407841101600,10.0951015625,-0.025087494403123856,-0.005484610330313444,0.023759618401527405
1769659407851089700,10.105089599609375,-0.024375632405281067,-0.004250235389918089,0.027558350935578346
1769659407861077500,10.115077392578126,-0.02417755126953125,-0.010812501423060894,0.026453958824276924
1769659407871065600,10.125065673828125,-0.022837715223431587,-0.019521571695804596,0.01986742950975895
1769659407881053700,10.1350537109375,-0.022319430485367775,-0.02377130649983883,0.01469668559730053
1769659407891042800,10.145042724609375,-0.021310359239578247,-0.019468970596790314,0.014781905338168144
1769659407901030700,10.15503076171875,-0.0191535335034132,-0.011966317892074585,0.013453152030706406
1769659407911018500,10.1650185546875,-0.019247276708483696,-0.011866183020174503,0.014991926960647106
1769659407921006600,10.175006591796874,-0.021178310737013817,-0.013940701261162758,0.011130829341709614
1769659407930994700,10.18499462890625,-0.023880353197455406,-0.01847153715789318,0.010336408391594887
1769659407940982500,10.194982421875,-0.025046467781066895,-0.019342582672834396,0.006708825007081032
1769659407950970600,10.204970703125,-0.027580199763178825,-0.010793570429086685,0.005548485554754734
1769659407960958700,10.214958740234374,-0.030141133815050125,-0.006530003156512976,0.009676892310380936
1769659407970947800,10.22494775390625,-0.030860453844070435,-0.005564074497669935,0.010399142280220985
1769659407980935700,10.234935791015625,-0.030425865203142166,-0.008992793969810009,0.009303871542215347
1769659407990923500,10.244923583984376,-0.030299631878733635,-0.0120351891964674,0.0019910975825041533
1769659408000911600,10.25491162109375,-0.02374964766204357,-0.00772696640342474,-0.006196234840899706
1769659408010899500,10.2648994140625,-0.017252333462238312,0.0015669334679841995,-0.01330554485321045
1769659408020887600,10.274887451171875,-0.011567321605980396,0.006243024952709675,-0.01734904944896698
1769659408030875600,10.284875732421876,-0.007336357608437538,0.005720512941479683,-0.01539588626474142
1769659408040864800,10.29486474609375,-0.006839748006314039,0.0004599657841026783,-0.01483725756406784
1769659408050852600,10.3048525390625,-0.006115368101745844,-0.006411256268620491,-0.016680696979165077
1769659408060840700,10.3148408203125,-0.006632530130445957,-0.008796829730272293,-0.01627461425960064
1769659408070828800,10.324828857421876,-0.007959849201142788,-0.005717150401324034,-0.01314832828938961
1769659408080816600,10.334816650390625,-0.009313232265412807,-0.006308753043413162,-0.011813790537416935
1769659408090804500,10.344804443359376,-0.010368376970291138,-0.0018008199986070395,-0.016046619042754173
1769659408100792600,10.35479248046875,-0.011773786507546902,-0.007174517959356308,-0.020036280155181885
1769659408110781700,10.36478173828125,-0.01275729201734066,-0.020980611443519592,-0.021910877898335457
1769659408120769800,10.374769775390625,-0.012265498749911785,-0.03007567673921585,-0.021187596023082733
1769659408130757600,10.384757568359374,-0.012188001535832882,-0.0307430662214756,-0.020347634330391884
1769659408140745700,10.394745849609375,-0.011905785650014877,-0.02881659008562565,-0.018944084644317627
1769659408150733800,10.40473388671875,-0.00939229503273964,-0.025111068040132523,-0.01967618614435196
1769659408160721700,10.4147216796875,-0.006523503456264734,-0.017927588894963264,-0.019636455923318863
1769659408170709500,10.42470947265625,-0.0021809530444443226,-0.014494774863123894,-0.021149130538105965
1769659408180698600,10.43469873046875,-0.0005672709085047245,-0.018768325448036194,-0.0237610824406147
1769659408190686700,10.444686767578125,-0.001490855123847723,-0.017870040610432625,-0.02828126586973667
1769659408200674600,10.454674560546875,-0.002386918757110834,-0.011376900598406792,-0.03157820180058479
1769659408210662700,10.46466259765625,-0.007108170539140701,-0.007114510517567396,-0.032315898686647415
1769659408220650800,10.474650634765625,-0.008575443178415298,-0.013380937278270721,-0.03443438187241554
1769659408230638800,10.484638916015625,-0.014768358319997787,-0.023271650075912476,-0.029201535508036613
1769659408240626700,10.494626708984375,-0.016015414148569107,-0.021829409524798393,-0.023107802495360374
1769659408250614500,10.504614501953125,-0.016781073063611984,-0.01534487958997488,-0.01622219942510128
1769659408260603600,10.514603759765626,-0.01554674468934536,-0.009267466142773628,-0.013483554124832153
1769659408270591700,10.524591796875,-0.015503068454563618,0.003167897928506136,-0.011710155755281448
1769659408280579600,10.53457958984375,-0.012879136949777603,0.01056690327823162,-0.011397434398531914
1769659408290567700,10.544567626953125,-0.011409338563680649,0.016304152086377144,-0.011106615886092186
1769659408300555800,10.5545556640625,-0.0057653943076729774,0.019942454993724823,-0.012440361082553864
1769659408310543600,10.564543701171875,-0.000036135781556367874,0.028278149664402008,-0.011500797234475613
1769659408320531700,10.57453173828125,0.00746671948581934,0.040050916373729706,-0.010960012674331665
1769659408330520600,10.5845205078125,0.014658053405582905,0.05178693309426308,-0.006043816916644573
1769659408340508700,10.5945087890625,0.014996068552136421,0.052306223660707474,-0.004922115709632635
1769659408350496500,10.60449658203125,0.014172620140016079,0.04772292450070381,-0.007019088603556156
1769659408360484600,10.614484619140624,0.011627675965428352,0.042764812707901,-0.008208116516470909
1769659408370472700,10.62447265625,0.010815944522619247,0.04136079549789429,-0.011010026559233665
1769659408380460800,10.634460693359374,0.008134627714753151,0.0329841673374176,-0.015576167032122612
1769659408390448600,10.64444873046875,0.010673951357603073,0.0317564494907856,-0.01965692825615406
1769659408400437500,10.6544375,0.007988699711859226,0.0208125077188015,-0.01393076777458191
1769659408410425600,10.664425537109375,0.003494615200906992,0.009715382009744644,-0.014685241505503654
1769659408420413700,10.67441357421875,-0.0034817680716514587,0.0018056610133498907,-0.018773142248392105
1769659408430401500,10.684401611328125,-0.010729826986789703,-0.004665021784603596,-0.01856088824570179
1769659408440389600,10.6943896484375,-0.011542323045432568,-0.008714488707482815,-0.011996944434940815
1769659408450377700,10.704377685546875,-0.013043014332652092,-0.009618631564080715,-0.006846390664577484
1769659408460365600,10.714365478515624,-0.01003218349069357,-0.004124022554606199,-0.007217018865048885
1769659408470353700,10.724353759765625,-0.007971695624291897,0.0021756847854703665,-0.0043037873692810535
1769659408480342500,10.734342529296875,-0.0004058040212839842,0.01162212435156107,-0.0010137555655092
1769659408490330600,10.74433056640625,0.003425152972340584,0.01785152405500412,-0.0013660916592925787
1769659408500318700,10.754318603515625,0.012202007696032524,0.026257554069161415,-0.0016143838874995708
1769659408510306600,10.764306640625,0.02336118556559086,0.031196119263768196,-0.009255791082978249
1769659408520294700,10.774294677734375,0.013838413171470165,0.026526907458901405,-0.021535756066441536
1769659408530282800,10.78428271484375,0.010715323500335217,0.009992670267820358,-0.0048401327803730965
1769659408540270600,10.7942705078125,0.008351734839379787,0.011874591931700706,0.0009412709623575211
1769659408550259700,10.804259765625,0.008977844379842281,0.016608361154794693,0.002208136720582843
1769659408560247600,10.81424755859375,0.007856260985136032,0.01641504280269146,0.0007965759141370654
1769659408570235600,10.824235595703126,0.00388575391843915,0.012712182477116585,-0.0035086902789771557
1769659408580223500,10.834223388671875,0.0004994978662580252,0.0066511742770671844,-0.0045045954175293446
1769659408590211600,10.844211669921876,-0.008348056115210056,-0.00025520147755742073,-0.002218005247414112
1769659408600199700,10.85419970703125,-0.01565667614340782,-0.012228399515151978,0.0006958970334380865
1769659408610187500,10.8641875,-0.02460329979658127,-0.012891792692244053,0.006272556260228157
1769659408620176600,10.8741767578125,-0.030779609456658363,-0.009654347784817219,0.006040360778570175
1769659408630164700,10.884164794921874,-0.03129412978887558,-0.012166507542133331,0.005929307080805302
1769659408640152600,10.894152587890625,-0.030145730823278427,-0.009297298267483711,0.0003325568977743387
1769659408650140700,10.904140625,-0.021812966093420982,-0.003702795598655939,-0.005798039957880974
1769659408660128500,10.91412841796875,-0.01220535859465599,0.009552238509058952,-0.008387528359889984
1769659408670116600,10.92411669921875,-0.009858313947916031,0.016616806387901306,-0.011364409700036049
1769659408680104700,10.934104736328125,-0.013332067988812923,0.001963584451004863,-0.01509568840265274
1769659408690092500,10.944092529296874,-0.01433208491653204,0.0042949155904352665,-0.010090809315443039
1769659408700081700,10.95408154296875,-0.01463261991739273,0.0028757243417203426,-0.008398431353271008
1769659408710068200,10.964068115234374,-0.014454720541834831,-0.000056149670854210854,-0.012753231450915337
1769659408720056300,10.974056396484375,-0.01676815189421177,-0.007159097120165825,-0.014583107084035873
1769659408730044200,10.984044189453124,-0.015175048261880875,-0.011592195369303226,-0.018686240538954735
1769659408740032300,10.9940322265625,-0.012920473702251911,-0.013501917012035847,-0.02252703160047531
1769659408750020400,11.004020263671874,-0.012506884522736073,-0.008073861710727215,-0.01819673180580139
1769659408760008200,11.01400830078125,-0.011188017204403877,-0.0030782842077314854,-0.009436983615159988
1769659408769997000,11.0239970703125,-0.01397794485092163,-0.003959790803492069,0.0017389722634106874
1769659408779985200,11.033985107421875,-0.012798571027815342,-0.0060357507318258286,0.003574241418391466
1769659408789973200,11.04397314453125,-0.007422980386763811,-0.004195505753159523,0.002607247792184353
1769659408799961000,11.053961181640625,-0.005417052656412125,-0.003943169489502907,0.0018837177194654942
1769659408809949200,11.06394921875,0.0002517519751563668,-0.0030030731577426195,0.0014203276950865984
1769659408819937300,11.073937255859375,0.00203713052906096,-0.0005072122439742088,0.0009228509152308106
1769659408829925400,11.08392529296875,0.00790167786180973,0.004455056041479111,-0.005087637342512608
1769659408839914000,11.0939140625,0.0069303931668400764,0.009790883399546146,-0.0018330407328903675
1769659408849902000,11.103902099609375,-0.0022194297052919865,-0.009310373105108738,-0.002027717884629965
1769659408859890200,11.11389013671875,-0.008049089461565018,-0.020220277830958366,-0.006298096384853125
1769659408869878300,11.123878173828125,-0.012033977545797825,-0.023522865027189255,-0.0112845990806818
1769659408879866000,11.1338662109375,-0.01413247361779213,-0.024312468245625496,-0.015555169433355331
1769659408889854200,11.143854248046875,-0.013513821177184582,-0.024951092898845673,-0.016292599961161613
1769659408899842300,11.15384228515625,-0.013337567448616028,-0.02244231477379799,-0.01886403001844883
1769659408909831200,11.1638310546875,-0.011167357675731182,-0.021892372518777847,-0.020529305562376976
1769659408919819000,11.173819091796876,-0.012685224413871765,-0.02627965807914734,-0.0243573896586895
1769659408929807000,11.18380712890625,-0.020335951820015907,-0.019867831841111183,-0.02538909763097763
1769659408939795200,11.193795166015626,-0.022355297580361366,-0.028122305870056152,-0.016921253874897957
1769659408949783000,11.203782958984375,-0.025710614398121834,-0.027722831815481186,-0.005664605647325516
1769659408959771100,11.213771240234376,-0.027811061590909958,-0.028511714190244675,-0.0036010167095810175
1769659408969759200,11.22375927734375,-0.030546661466360092,-0.04255988821387291,-0.0066079916432499886
1769659408979747300,11.233747314453124,-0.034755174070596695,-0.056114256381988525,-0.011501614935696125
1769659408989736200,11.243736083984375,-0.03520018979907036,-0.024153128266334534,-0.04681433364748955
1769659408999724000,11.25372412109375,-0.03485705703496933,-0.03659415990114212,-0.023590249940752983
1769659409009712000,11.263712158203125,-0.03484933450818062,-0.028002005070447922,0.011155746877193451
1769659409019700200,11.2737001953125,-0.027145273983478546,-0.023531626909971237,0.01438290998339653
1769659409029688000,11.28368798828125,-0.017805300652980804,-0.013368737883865833,0.007503964472562075
1769659409039676200,11.29367626953125,-0.014083847403526306,-0.011343058198690414,0.007627386599779129
1769659409049664300,11.303664306640625,-0.011614564806222916,-0.011187530122697353,0.009568298235535622
1769659409059653400,11.3136533203125,-0.013356490060687065,-0.016194060444831848,0.013008053414523602
1769659409069641200,11.32364111328125,-0.015216175466775894,-0.021410658955574036,0.013287419453263283
1769659409079629000,11.333629150390625,-0.01777937449514866,-0.031119391322135925,0.012453369796276093
1769659409089617200,11.3436171875,-0.020523229613900185,-0.030444812029600143,0.006324371322989464
1769659409099605000,11.35360498046875,-0.023465348407626152,-0.030347829684615135,0.0008775674505159259
1769659409109593000,11.363593017578125,-0.025545012205839157,-0.03292923420667648,0.0009777023224160075
1769659409119581200,11.373581298828125,-0.028861258178949356,-0.034808143973350525,0.0013846958754584193
1769659409129570300,11.3835703125,-0.03322884067893028,-0.0347847081720829,0.007493454962968826
1769659409139558100,11.39355810546875,-0.032340552657842636,-0.029279716312885284,0.014897128567099571
1769659409149546200,11.403546142578126,-0.027930092066526413,-0.021696630865335464,0.01627451553940773
1769659409159534300,11.413534423828125,-0.01965872012078762,-0.01999303326010704,0.013762975111603737
1769659409169522200,11.423522216796876,-0.013921739533543587,-0.011615527793765068,0.0070739127695560455
1769659409179510000,11.433510009765625,-0.006554591469466686,-0.005784899462014437,0.0021259314380586147
1769659409189498000,11.443498046875,-0.004705825354903936,-0.0024357084184885025,0.0007450825069099665
1769659409199487200,11.4534873046875,-0.006371018476784229,-0.005033284891396761,0.001393475686199963
1769659409209475300,11.463475341796874,-0.008850155398249626,-0.015133322216570377,0.004863041918724775
1769659409219463200,11.473463134765625,-0.00989071186631918,-0.016301622614264488,0.004836696200072765
1769659409229451300,11.483451171875,-0.009210539981722832,-0.011586230248212814,0.011286872439086437
1769659409239439400,11.493439453125,-0.008630177937448025,-0.004545127507299185,0.019452903419733047
1769659409249427200,11.50342724609375,-0.0071334815584123135,0.004365010652691126,0.01839269883930683
1769659409259415000,11.5134150390625,-0.007828938774764538,0.006745719350874424,0.016184275969862938
1769659409269404200,11.523404052734374,-0.007070470601320267,0.010103432461619377,0.014871603809297085
1769659409279392300,11.533392333984375,-0.00286581227555871,0.01992594078183174,0.016361355781555176
1769659409289380000,11.543380126953124,0.0006090800743550062,0.02118029072880745,0.015128047205507755
1769659409299368200,11.5533681640625,0.0032148314639925957,0.02020549587905407,0.011704539880156517
1769659409309356300,11.563356201171874,0.00537492148578167,0.018187351524829865,0.008241365663707256
1769659409319344400,11.573344482421875,0.007731437683105469,0.023250363767147064,0.006750274915248156
1769659409329332200,11.583332275390624,0.008688844740390778,0.02556838095188141,0.005622159689664841
1769659409339321000,11.593321044921876,0.007822186686098576,0.019083848223090172,0.007280135527253151
1769659409349309200,11.60330908203125,0.002243663650006056,0.009169432334601879,0.009334231726825237
1769659409359297300,11.61329736328125,0.000826206523925066,0.0006028402131050825,0.007755727507174015
1769659409369285000,11.62328515625,-0.00192910002078861,-0.003660347778350115,0.006108029745519161
1769659409379273200,11.633273193359376,0.00009573705028742552,-0.003608490340411663,0.005743054207414389
1769659409389261300,11.64326123046875,0.002339982893317938,-0.0004414590075612068,0.007718853186815977
1769659409399249200,11.653249267578126,0.004935712553560734,0.007901741191744804,0.009402228519320488
1769659409409237200,11.6632373046875,0.006891804281622171,0.013751907274127007,0.011162844486534595
1769659409419226000,11.67322607421875,0.009302903898060322,0.02082342468202114,0.009851683862507343
1769659409429214200,11.683214111328125,0.007093546446412802,0.023252228274941444,0.012951603159308434
1769659409439202300,11.693202392578126,0.007232657168060541,0.019555069506168365,0.018393803387880325
1769659409449190100,11.703190185546875,0.0029750620014965534,0.01221379917114973,0.012974271550774574
1769659409459178200,11.71317822265625,0.002364808926358819,0.007744802162051201,0.005923863500356674
1769659409469166300,11.723166259765625,0.002084644278511405,0.005613474175333977,-0.0027511173393577337
1769659409479154200,11.733154296875,0.0030332624446600676,0.008090481162071228,-0.006004967726767063
1769659409489143000,11.74314306640625,0.004080151207745075,0.006686462089419365,-0.010957648046314716
1769659409499131100,11.753131103515624,0.0040803709998726845,0.00818323902785778,-0.010596673004329205
1769659409509119200,11.763119140625,0.0021013757213950157,0.005125130992382765,-0.011508805677294731
1769659409519107000,11.773107177734374,0.002400555880740285,0.001190735143609345,-0.010507861152291298
1769659409529095200,11.78309521484375,0.0009046581108123064,0.0011097750393673778,-0.012946784496307373
1769659409539083300,11.793083251953124,-0.0017620951402932405,0.0027747906278818846,-0.013622754253447056
1769659409549071000,11.803071044921875,-0.004170391708612442,-0.000395169947296381,-0.014818779192864895
1769659409559060200,11.813060302734375,-0.005501776002347469,-0.002244474133476615,-0.01326945424079895
1769659409569048000,11.823048095703125,-0.005279135424643755,-0.0017959980759769678,-0.012991685420274734
1769659409579036200,11.8330361328125,-0.0016554186586290598,0.0005652412073686719,-0.0162946879863739
1769659409589024300,11.843024169921875,0.003880760632455349,0.009280968457460403,-0.026414966210722923
1769659409599012000,11.85301220703125,0.005716409534215927,0.003314403584226966,-0.034279629588127136
1769659409609000200,11.863000244140625,0.005342235788702965,0.0038046916015446186,-0.0385044701397419
1769659409618988300,11.87298828125,0.006619176361709833,0.010901820845901966,-0.03604960814118385
1769659409628977400,11.882977294921876,0.007216256577521563,0.008326011709868908,-0.029630057513713837
1769659409638965200,11.89296533203125,0.005001997575163841,0.004138323478400707,-0.025282440707087517
1769659409648953000,11.902953125,0.006226785480976105,0.0011987265897914767,-0.025860613211989403
1769659409658941200,11.912941162109375,0.0061092134565114975,0.012729973532259464,-0.03205601125955582
1769659409668929000,11.922928955078126,0.009625119157135487,0.01143567729741335,-0.031798217445611954
1769659409678917000,11.932917236328125,0.026961326599121094,0.020433273166418076,-0.039299242198467255
1769659409688905200,11.9429052734375,0.016376059502363205,0.04355883225798607,-0.052177220582962036
1769659409698894300,11.952894287109375,0.010127231478691101,0.024363618344068527,-0.025033125653862953
1769659409708882400,11.96288232421875,0.008837196975946426,0.027413737028837204,-0.01298152282834053
1769659409718870500,11.97287060546875,0.013262463733553886,0.02566467970609665,-0.016467195004224777
