time,seconds_elapsed,z,y,x
1769659397808029700,0.06202978515625,0.015284680761396885,0.012121643871068954,-0.04679733142256737
1769659397818017800,0.072017822265625,0.017587516456842422,0.011071027256548405,-0.05343659222126007
1769659397828005600,0.082005615234375,0.02376152202486992,0.01465670671314001,-0.06270945072174072
1769659397837993700,0.09199365234375,0.028854284435510635,0.01561438012868166,-0.07292267680168152
1769659397847981600,0.101981689453125,0.0335177481174469,0.012912603095173836,-0.08776713907718658
1769659397857970700,0.111970703125,0.036255210638046265,0.01426575519144535,-0.1121252030134201
1769659397867958500,0.12195849609375,0.04011945798993111,0.009831325151026249,-0.1371152400970459
1769659397877946600,0.131946533203125,0.04134850576519966,0.010477407835423946,-0.15811321139335632
1769659397887934700,0.141934814453125,0.04026353359222412,0.017292171716690063,-0.17258082330226898
1769659397897922800,0.1519228515625,0.0459752157330513,0.02099343203008175,-0.1895427703857422
1769659397907910700,0.16191064453125,0.07386942952871323,-0.0011462245602160692,-0.23686952888965607
1769659397917898800,0.171898681640625,0.06972182542085648,-0.04035860672593117,-0.2834809720516205
1769659397927886800,0.181886962890625,0.06689833849668503,-0.05012308806180954,-0.30231112241744995
1769659397937875700,0.191875732421875,0.05487576499581337,-0.04700612276792526,-0.3162311911582947
1769659397947863600,0.201863525390625,0.047559529542922974,-0.03441976010799408,-0.3308660686016083
1769659397957851600,0.2118515625,0.04362950101494789,-0.02550669200718403,-0.34624236822128296
1769659397967839700,0.22183984375,0.042089663445949554,-0.027902204543352127,-0.3616487383842468
1769659397977827600,0.23182763671875,0.0486769899725914,0.031078023836016655,-0.3650115132331848
1769659397987815700,0.241815673828125,0.05782574787735939,0.050875965505838394,-0.3895863890647888
1769659397997803800,0.2518037109375,0.05876903980970383,0.08521875739097595,-0.38430240750312805
1769659398007791900,0.2617919921875,0.048047952353954315,0.10529579967260361,-0.3719266951084137
1769659398017779700,0.27177978515625,0.03905632346868515,0.10095591098070145,-0.356060653924942
1769659398027768600,0.2817685546875,0.030600786209106445,0.07281668484210968,-0.3433986306190491
1769659398037756700,0.291756591796875,0.027230022475123405,0.037332989275455475,-0.3255879580974579
1769659398047744800,0.301744873046875,0.029137378558516502,-0.017607223242521286,-0.2958396375179291
1769659398057732600,0.311732666015625,0.029025793075561523,-0.0020610203500837088,-0.2640766501426697
1769659398067720700,0.321720703125,0.022663766518235207,0.04525189846754074,-0.21779997646808624
1769659398077708800,0.331708740234375,0.025978071615099907,0.019060509279370308,-0.17853325605392456
1769659398087696600,0.341696533203125,0.03153742104768753,-0.022165756672620773,-0.15575231611728668
1769659398097684700,0.351684814453125,0.033371273428201675,-0.024021446704864502,-0.14471004903316498
1769659398107672600,0.361672607421875,0.0346626378595829,0.03158189356327057,-0.13012871146202087
1769659398117661700,0.37166162109375,0.027240142226219177,0.05574262514710426,-0.12138181924819946
1769659398127649500,0.3816494140625,0.021743644028902054,0.03895192593336105,-0.10290081799030304
1769659398137637600,0.3916376953125,0.0163054708391428,-0.008065116591751575,-0.09925734251737595
1769659398147625700,0.401625732421875,0.005290369503200054,-0.04416186735033989,-0.09737236052751541
1769659398157613800,0.41161376953125,0.00007084008393576369,-0.0443488210439682,-0.09949090331792831
1769659398167601700,0.4216015625,-0.00001704423084447626,-0.02810513786971569,-0.100925013422966
1769659398177589800,0.43158984375,-0.002016545506194234,-0.011266502551734447,-0.09156693518161774
1769659398187577600,0.44157763671875,-0.00006764429417671636,-0.0005880259559489787,-0.06942807883024216
1769659398197565400,0.4515654296875,0.010339190252125263,0.009621468372642994,-0.049197107553482056
1769659398207554600,0.461554443359375,0.017316406592726707,0.012780509889125824,-0.03081676922738552
1769659398217542700,0.471542724609375,0.025654496625065804,0.007663778495043516,-0.016455139964818954
1769659398227530800,0.48153076171875,0.026675552129745483,0.00239258399233222,-0.012107263319194317
1769659398237518600,0.4915185546875,0.02441985532641411,0.0021558289881795645,-0.010881676338613033
1769659398247506700,0.501506591796875,0.02058543637394905,-0.003763579297810793,-0.019040003418922424
1769659398257494800,0.511494873046875,0.01974068209528923,-0.009207080118358135,-0.03393026813864708
1769659398267483000,0.52148291015625,0.014741661958396435,0.020867731422185898,-0.029925674200057983
1769659398277470500,0.531470458984375,0.015246597118675709,0.03369884192943573,-0.021614214405417442
1769659398287459600,0.54145947265625,0.01980406418442726,0.00993012823164463,-0.0223282091319561
1769659398297447700,0.55144775390625,0.023993749171495438,0.009591374546289444,-0.017345434054732323
1769659398307435800,0.561435791015625,0.024335432797670364,0.021212078630924225,-0.006558566819876432
1769659398317423600,0.571423583984375,0.027838289737701416,0.0210120752453804,0.00009933590627042577
1769659398327411700,0.58141162109375,0.029798375442624092,0.0111647704616189,-0.0018018947448581457
1769659398337399800,0.59139990234375,0.03038347139954567,0.010703244246542454,-0.004350007511675358
1769659398347387600,0.6013876953125,0.025966353714466095,0.010178601369261742,-0.009050220251083374
1769659398357375700,0.611375732421875,0.021932994946837425,0.006200904026627541,-0.01654355600476265
1769659398367363600,0.621363525390625,0.01751667633652687,0.008717857301235199,-0.02340998500585556
1769659398377352700,0.631352783203125,0.01477308664470911,0.012919526547193527,-0.026007631793618202
1769659398387340500,0.641340576171875,0.012385829351842403,0.00923557672649622,-0.025969015434384346
1769659398397328600,0.65132861328125,0.015532087534666061,0.0007771103992126882,-0.020837903022766113
1769659398407316700,0.661316650390625,0.013079582713544369,0.0002031991898547858,-0.012929114513099194
1769659398417304800,0.671304931640625,0.014211959205567837,0.0018548916559666395,-0.006361759267747402
1769659398427292700,0.681292724609375,0.011022557504475117,0.00038296254933811724,0.00043888893560506403
1769659398437280800,0.69128076171875,0.011354120448231697,0.0009664611425250769,0.0006716492353007197
1769659398447268600,0.7012685546875,0.009048622101545334,-0.004644020460546017,-0.003934820648282766
1769659398457256400,0.71125634765625,0.012339224107563496,-0.00974663719534874,-0.007509581744670868
1769659398467245600,0.72124560546875,0.011291536502540112,-0.012587164528667927,-0.008948487229645252
1769659398477233700,0.731233642578125,0.013787983916699886,-0.011770106852054596,-0.006449110805988312
1769659398487221800,0.7412216796875,0.011887019500136375,-0.013347497209906578,-0.006091182120144367
1769659398497209600,0.751209716796875,0.010522149503231049,-0.009274991229176521,-0.00872025452554226
1769659398507197700,0.76119775390625,0.006170277949422598,-0.008440889418125153,-0.014704111032187939
1769659398517185800,0.771185791015625,0.003087402554228902,-0.011285943910479546,-0.015063371509313583
1769659398527173600,0.781173583984375,-0.005037102848291397,-0.017832526937127113,-0.010494719259440899
1769659398537161500,0.791161376953125,-0.00797403696924448,-0.024927986785769463,-0.012093414552509785
1769659398547150600,0.801150634765625,-0.00606321869418025,-0.02893604338169098,-0.010248908773064613
1769659398557138700,0.811138671875,-0.0026783409994095564,-0.02148185670375824,-0.004291417542845011
1769659398567126800,0.821126708984375,0.0004886900424025953,-0.00917352456599474,0.006797985173761845
1769659398577114600,0.831114501953125,-0.0012988236267119646,-0.0008122641011141241,0.012771455571055412
1769659398587102700,0.841102783203125,0.0016919062472879887,0.00007776429993100464,0.007156978826969862
1769659398597090800,0.8510908203125,0.007138603366911411,0.0014998923288658261,-0.010045976378023624
1769659398607078700,0.86107861328125,0.007932225242257118,0.004756139125674963,-0.018932944163680077
1769659398617066500,0.87106640625,0.004612861201167107,0.002305764937773347,-0.014395983889698982
1769659398627055600,0.8810556640625,0.0013885721564292908,-0.004050934221595526,-0.009874468669295311
1769659398637043700,0.891043701171875,0.0020514330826699734,-0.01019617822021246,-0.010396980680525303
1769659398647031600,0.901031494140625,0.0012833772925660014,-0.012059326283633709,-0.0135067543014884
1769659398657019600,0.91101953125,-0.002758768619969487,-0.01375389564782381,-0.013850301504135132
1769659398667007700,0.9210078125,-0.005054946057498455,-0.014620753936469555,-0.010844391770660877
1769659398676995800,0.930995849609375,-0.006419016979634762,-0.014645521529018879,-0.009150088764727116
1769659398686983700,0.940983642578125,-0.005348692648112774,-0.0123056685552001,-0.006479204632341862
1769659398696971800,0.9509716796875,-0.004923386033624411,-0.013353089801967144,-0.0024767396971583366
1769659398706959600,0.960959716796875,-0.008295480161905289,-0.024468058720231056,0.0007552724564447999
1769659398716948700,0.97094873046875,-0.013108611106872559,-0.03761794790625572,-0.0057465690188109875
1769659398726936600,0.9809365234375,-0.01943468488752842,-0.037223801016807556,-0.006813963875174522
1769659398736924700,0.990924560546875,-0.0171494260430336,-0.03239788860082626,-0.010661965236067772
1769659398746912800,1.000912841796875,-0.013908891007304192,-0.031442079693078995,-0.010054764337837696
1769659398756900600,1.010900634765625,-0.011887285858392715,-0.024865668267011642,-0.007240069564431906
1769659398766888700,1.020888671875,-0.006265086587518454,-0.012301141396164894,-0.006388390902429819
1769659398776876800,1.030876708984375,-0.0024708807468414307,-0.005839513149112463,-0.006091448478400707
1769659398786864600,1.04086474609375,0.00589623861014843,-0.003846669802442193,-0.003831756068393588
1769659398796852500,1.0508525390625,0.008952748961746693,0.004248807206749916,-0.002901514060795307
1769659398806841600,1.060841552734375,0.005197425372898579,0.002070607617497444,-0.006998254451900721
1769659398816829700,1.07082958984375,0.0054549528285861015,-0.0010258496040478349,-0.009270197711884975
1769659398826817800,1.08081787109375,0.0010985539993271232,-0.0051902346312999725,-0.01040630228817463
1769659398836805600,1.0908056640625,-0.002835467690601945,-0.002120941411703825,-0.011888617649674416
1769659398846793700,1.100793701171875,-0.001288171042688191,-0.0010101370280608535,-0.014431935735046864
1769659398856781800,1.11078173828125,-0.0002359560749027878,-0.006157494615763426,-0.013530190102756023
1769659398866769700,1.120769775390625,0.0004727110790554434,-0.004853877238929272,-0.014958443120121956
1769659398876757500,1.130757568359375,0.0008274441352114081,-0.0023611586075276136,-0.01287398673593998
1769659398886745600,1.14074560546875,0.00012383698776829988,0.005315402988344431,-0.011271297000348568
1769659398896734700,1.150734619140625,-0.001841575838625431,0.009137039072811604,-0.010358365252614021
1769659398906722600,1.16072265625,0.0010255833622068167,0.0051835766062140465,-0.011248127557337284
1769659398916710700,1.170710693359375,0.001290834159590304,-0.0007504787645302713,-0.011960522271692753
1769659398926698800,1.18069873046875,0.0036218990571796894,-0.005145493429154158,-0.011000719852745533
1769659398936686800,1.190686767578125,0.003367567202076316,-0.003864779369905591,-0.011807390488684177
1769659398946674700,1.2006748046875,0.002636795863509178,0.006077866069972515,-0.012263324111700058
1769659398956662500,1.21066259765625,0.0068051754496991634,0.016578443348407745,-0.012354670092463493
1769659398966650600,1.220650634765625,0.007418235298246145,0.02106320671737194,-0.012680375017225742
1769659398976638500,1.230638427734375,0.009394832886755466,0.020836573094129562,-0.010008958168327808
1769659398986627600,1.240627685546875,0.009321862831711769,0.017478326335549355,-0.010900851339101791
1769659398996615700,1.25061572265625,0.009251821786165237,0.016569389030337334,-0.014451643452048302
1769659399006603800,1.260603759765625,0.008392952382564545,0.019114838913083076,-0.015968579798936844
1769659399016591600,1.270591552734375,0.010542921721935272,0.02034575119614601,-0.015689747408032417
1769659399026579700,1.280579833984375,0.010003099218010902,0.026630012318491936,-0.016406936571002007
1769659399036567800,1.29056787109375,0.00848563015460968,0.027476098388433456,-0.015266304835677147
1769659399046555600,1.3005556640625,0.007171892561018467,0.021990785375237465,-0.014738465659320354
1769659399056543500,1.31054345703125,0.0019124159589409828,0.017676997929811478,-0.01625087484717369
1769659399066532600,1.32053271484375,-0.003486344125121832,-0.002424009144306183,-0.01330089196562767
1769659399076520700,1.330520751953125,-0.009104282595217228,-0.006870156619697809,-0.010946923866868019
1769659399086508800,1.3405087890625,-0.009554356336593628,-0.0014149374328553677,-0.00544350128620863
1769659399096496600,1.35049658203125,-0.001058872789144516,0.0033574472181499004,-0.001336107961833477
1769659399106484700,1.360484619140625,0.00899695698171854,0.016102004796266556,0.0068144965916872025
1769659399116472800,1.370472900390625,0.008778844028711319,0.029137644916772842,0.009100553579628468
1769659399126460700,1.380460693359375,0.007472563534975052,0.027940820902585983,0.006747385021299124
1769659399136448500,1.390448486328125,0.0022160164080560207,0.017954498529434204,-0.002996056107804179
1769659399146436600,1.4004365234375,-0.00015100123709999025,0.016051670536398888,-0.010772219859063625
1769659399156425700,1.41042578125,-0.002688460983335972,0.01967916265130043,-0.015443671494722366
1769659399166413600,1.42041357421875,0.0013651363551616669,0.024760739877820015,-0.013099823147058487
1769659399176401700,1.430401611328125,0.003876497270539403,0.03026868961751461,-0.014155765995383263
1769659399186389800,1.4403896484375,0.00896819494664669,0.03723738342523575,-0.016691895201802254
1769659399196377900,1.4503779296875,0.010065683163702488,0.041267279535532,-0.016140354797244072
1769659399206365700,1.46036572265625,0.00968778133392334,0.040814805775880814,-0.014168815687298775
1769659399216353500,1.470353515625,0.010304302908480167,0.03750423341989517,-0.016344351693987846
1769659399226341600,1.480341552734375,0.007466704584658146,0.03128495067358017,-0.017121195793151855
1769659399236329500,1.49032958984375,0.00569916469976306,0.03248337283730507,-0.01847860962152481
1769659399246318600,1.500318603515625,0.003412840887904167,0.028083566576242447,-0.017972076311707497
1769659399256306700,1.510306640625,-0.0005408879951573908,0.01920405402779579,-0.017309214919805527
1769659399266294800,1.520294677734375,-0.007207312621176243,0.011417238041758537,-0.014562430791556835
1769659399276282600,1.53028271484375,-0.013442039489746094,-0.0014498248929157853,-0.012138421647250652
1769659399286270700,1.540270751953125,-0.019218968227505684,-0.015729160979390144,-0.010515491478145123
1769659399296258600,1.550258544921875,-0.025292839854955673,-0.027226295322179794,-0.010435597039759159
1769659399306246700,1.56024658203125,-0.027119236066937447,-0.03242318704724312,-0.01058952696621418
1769659399316234500,1.570234375,-0.025131985545158386,-0.028261732310056686,-0.01420237123966217
1769659399326222600,1.58022265625,-0.0202778410166502,-0.018679944798350334,-0.012326174415647984
1769659399336211700,1.590211669921875,-0.012192483991384506,-0.008154865354299545,-0.007160441018640995
1769659399346199800,1.60019970703125,-0.006734868045896292,0.002487925114110112,-0.0035108451265841722
1769659399356187600,1.610187744140625,-0.0041364217177033424,0.009459015913307667,-0.0015776565996930003
1769659399366175700,1.62017578125,-0.000720118754543364,0.010970626026391983,-0.00566933723166585
1769659399376163800,1.630163818359375,-0.0002466087171342224,0.005828594323247671,-0.009046492166817188
1769659399386151700,1.640151611328125,-0.007991613820195198,-0.0019558256026357412,-0.012168249115347862
1769659399396139500,1.650139404296875,-0.013688115403056145,-0.015748336911201477,-0.011346664279699326
1769659399406127600,1.660127685546875,-0.020297814160585403,-0.034389931708574295,-0.01643410138785839
1769659399416116700,1.67011669921875,-0.02455620840191841,-0.046238068491220474,-0.016860738396644592
1769659399426104600,1.6801044921875,-0.028431108221411705,-0.04604099318385124,-0.011875834316015244
1769659399436092700,1.6900927734375,-0.029675336554646492,-0.041243843734264374,-0.012113920412957668
1769659399446080800,1.700080810546875,-0.029266009107232094,-0.0394081249833107,-0.008385761640965939
1769659399456068900,1.71006884765625,-0.027828967198729515,-0.035598739981651306,-0.0037710361648350954
1769659399466056700,1.720056640625,-0.025620941072702408,-0.026339728385210037,0.0031995216850191355
1769659399476044500,1.73004443359375,-0.02130395732820034,-0.02033456601202488,0.005123921670019627
1769659399486032600,1.74003271484375,-0.016657274216413498,-0.01871776208281517,0.007963118143379688
1769659399496020500,1.7500205078125,-0.014707573689520359,-0.0160687156021595,0.012796488590538502
1769659399506009600,1.760009521484375,-0.014750183559954166,-0.01110644731670618,0.013313940726220608
1769659399515997700,1.769997802734375,-0.013681990094482899,-0.010212955996394157,0.006639793049544096
1769659399525985800,1.77998583984375,-0.01588442362844944,-0.009352223016321659,-0.00022210762836039066
1769659399535973600,1.7899736328125,-0.010628676041960716,-0.0043798345141112804,-0.008072040975093842
1769659399545961700,1.799961669921875,-0.006724747829139233,-0.00842783972620964,-0.01618802547454834
1769659399555949600,1.809949462890625,-0.002862099092453718,-0.005872536450624466,-0.01571185141801834
1769659399565937700,1.819937744140625,-0.005298092495650053,-0.0019044264918193221,-0.010600713081657887
1769659399575925500,1.829925537109375,-0.010071010328829288,-0.002174471039324999,-0.004886634182184935
1769659399585913600,1.83991357421875,-0.013803962618112564,-0.008158859796822071,-0.0014516890514642
1769659399595902700,1.84990283203125,-0.015746738761663437,-0.014870825223624706,-0.004187288228422403
1769659399605890800,1.859890869140625,-0.017944112420082092,-0.02046692557632923,-0.0007387608638964593
1769659399615878700,1.869878662109375,-0.014960307627916336,-0.020974524319171906,-0.002597647253423929
1769659399625866800,1.87986669921875,-0.013243100605905056,-0.02155296318233013,-0.004450408276170492
1769659399635854800,1.889854736328125,-0.009209743700921535,-0.019229087978601456,-0.0010181264951825142
1769659399645842400,1.899842529296875,-0.008310660719871521,-0.015442339703440666,0.002374740783125162
1769659399655830500,1.90983056640625,-0.002844256116077304,-0.0051990230567753315,0.002055161399766803
1769659399665818600,1.919818603515625,-0.00010705907334340736,0.0076035913079977036,-0.003772634081542492
1769659399675806700,1.929806640625,0.0017739315517246723,0.016941964626312256,-0.018365690484642982
1769659399685795600,1.939795654296875,0.0041065942496061325,0.02058197371661663,-0.033961161971092224
1769659399695783700,1.94978369140625,0.004068511072546244,0.015439409762620926,-0.048941709101200104
1769659399705772300,1.959772216796875,0.004551342222839594,0.01768685132265091,-0.056402288377285004
1769659399715760400,1.969760498046875,0.005060538649559021,0.009280317462980747,-0.05897783115506172
1769659399725748500,1.97974853515625,0.010848652571439743,0.005015264730900526,-0.057189784944057465
1769659399735736300,1.989736328125,0.0142945172265172,0.01315175462514162,-0.05676128342747688
1769659399745724400,1.999724365234375,0.013272928074002266,0.026445988565683365,-0.05626913160085678
1769659399755712500,2.00971240234375,0.01798991858959198,0.041257958859205246,-0.062257781624794006
1769659399765700400,2.019700439453125,0.021339910104870796,0.051606468856334686,-0.07733020931482315
1769659399775689500,2.029689453125,0.02009008824825287,0.044264134019613266,-0.08339688926935196
1769659399785677300,2.03967724609375,0.018575549125671387,0.017858093604445457,-0.0831896960735321
1769659399795665400,2.04966552734375,0.011665976606309414,-0.0018924422329291701,-0.08165305107831955
1769659399805653200,2.0596533203125,0.010600446723401546,-0.010011621750891209,-0.07846471667289734
1769659399815641300,2.069641357421875,0.014977351762354374,0.0016929714474827051,-0.0846903845667839
1769659399825629400,2.07962939453125,0.015386679209768772,0.013994378969073296,-0.08961323648691177
1769659399835617500,2.089617431640625,0.0226224884390831,0.034983549267053604,-0.10428299754858017
1769659399845605400,2.09960546875,0.02153884805738926,0.034993935376405716,-0.12404205650091171
1769659399855594500,2.109594482421875,0.022426212206482887,0.03045005165040493,-0.13213565945625305
1769659399865582600,2.11958251953125,0.02334314025938511,0.03683950752019882,-0.14591379463672638
1769659399875570400,2.1295703125,0.0233513955026865,0.04940749704837799,-0.14995408058166504
1769659399885558300,2.139558349609375,0.01992443948984146,0.03604988008737564,-0.13012737035751343
1769659399895546400,2.14954638671875,0.022841665893793106,0.022897591814398766,-0.11306636780500412
1769659399905534500,2.159534423828125,0.02683214657008648,0.04055062308907509,-0.10150105506181717
1769659399915522300,2.169522216796875,0.03117469698190689,0.049438390880823135,-0.08597749471664429
1769659399925510400,2.179510498046875,0.027999943122267723,0.0399966835975647,-0.08095157146453857
1769659399935498500,2.18949853515625,0.021411282941699028,0.020781444385647774,-0.08256864547729492
1769659399945487600,2.199487548828125,0.0182943195104599,-0.0008298410102725029,-0.07600688189268112
1769659399955475500,2.209475341796875,0.015006113797426224,-0.009059807285666466,-0.06894098222255707
1769659399965463300,2.21946337890625,0.016691895201802254,0.0027651600539684296,-0.06430894881486893
1769659399975451400,2.229451416015625,0.017188573256134987,0.009613212198019028,-0.061232198029756546
1769659399985439500,2.239439453125,0.015847139060497284,0.0030415961518883705,-0.059659335762262344
1769659399995427300,2.24942724609375,0.014358965680003166,-0.004972388036549091,-0.060927532613277435
1769659400005415400,2.25941552734375,0.013539244420826435,-0.010702445171773434,-0.06139491870999336
1769659400015403500,2.269403564453125,0.014676947146654129,-0.014080931432545185,-0.05703159421682358
1769659400025391400,2.279391357421875,0.01876836083829403,-0.012643623165786266,-0.05705316737294197
1769659400035380500,2.28938037109375,0.023487215861678123,-0.0020128171890974045,-0.06487753242254257
1769659400045368300,2.299368408203125,0.02514503337442875,0.013423929922282696,-0.07959655672311783
1769659400055356400,2.3093564453125,0.026585804298520088,0.026990871876478195,-0.09096585959196091
1769659400065344300,2.31934423828125,0.029142439365386963,0.03561445325613022,-0.10531789809465408
1769659400075332400,2.329332275390625,0.02924896590411663,0.04995957016944885,-0.1272524893283844
1769659400085320400,2.339320556640625,0.02907159924507141,0.04862372949719429,-0.13856427371501923
1769659400095308500,2.34930859375,0.03418726474046707,0.04757817089557648,-0.15792572498321533
1769659400105296400,2.35929638671875,0.03840731084346771,0.04169232025742531,-0.1705554872751236
1769659400115285500,2.369285400390625,0.03742753341794014,0.02623346820473671,-0.17064763605594635
1769659400125273300,2.3792734375,0.03494147211313248,0.013508884236216545,-0.15335626900196075
1769659400135261400,2.389261474609375,0.0315515361726284,0.01326760184019804,-0.13475754857063293
1769659400145249300,2.399249267578125,0.03019784949719906,0.021098893135786057,-0.1213834211230278
1769659400155237400,2.4092373046875,0.03157949820160866,0.025977272540330887,-0.10481935739517212
1769659400165225500,2.4192255859375,0.029691049829125404,0.025740783661603928,-0.09894388914108276
1769659400175213300,2.42921337890625,0.024835841730237007,0.01537842396646738,-0.08958207815885544
1769659400185201400,2.439201416015625,0.024927986785769463,0.002133724745362997,-0.08394097536802292
1769659400195189500,2.449189453125,0.024981781840324402,0.00199284334667027,-0.07935341447591782
1769659400205178600,2.4591787109375,0.025375664234161377,0.00270630419254303,-0.06942860782146454
1769659400215166200,2.469166259765625,0.024766067042946815,0.003680488560348749,-0.06280266493558884
1769659400225154300,2.479154296875,0.022829947993159294,0.01119166798889637,-0.05626007542014122
1769659400235142400,2.489142333984375,0.022546587511897087,0.010400709696114063,-0.05150366947054863
1769659400245130500,2.499130615234375,0.023625168949365616,-0.0019494339358061552,-0.05487603321671486
1769659400255118300,2.509118408203125,0.027269437909126282,-0.01059352234005928,-0.05643744394183159
1769659400265106400,2.5191064453125,0.02666489966213703,-0.019239740446209908,-0.055503737181425095
1769659400275094500,2.529094482421875,0.029510488733649254,-0.018668759614229202,-0.05384458974003792
1769659400285082400,2.539082275390625,0.027523769065737724,-0.011228153482079506,-0.05655009299516678
1769659400295071500,2.549071533203125,0.028076907619833946,-0.0008492820779792964,-0.05733732506632805
1769659400305059300,2.559059326171875,0.020726317539811134,-0.010466755367815495,-0.05209409445524216
1769659400315047400,2.56904736328125,0.020667994394898415,-0.021795842796564102,-0.04079722985625267
1769659400325035300,2.57903515625,0.01702292636036873,-0.020128438249230385,-0.03254276141524315
1769659400335023400,2.5890234375,0.017066868022084236,-0.017664747312664986,-0.02340945228934288
1769659400345011500,2.599011474609375,0.017956363037228584,-0.020534569397568703,-0.01726394146680832
1769659400354999600,2.60899951171875,0.01799018494784832,-0.025678997859358788,-0.013881727121770382
1769659400364987400,2.6189873046875,0.016091085970401764,-0.028269454836845398,-0.013099823147058487
1769659400374976500,2.6289765625,0.013914749957621098,-0.02586968056857586,-0.012707273475825787
1769659400384964400,2.63896435546875,0.010844391770660877,-0.023255255073308945,-0.013818610459566116
1769659400394952400,2.648952392578125,0.007692806888371706,-0.028608474880456924,-0.021995579823851585
1769659400404940300,2.658940185546875,0.0035441347863525152,-0.03435717523097992,-0.03121917136013508
1769659400414928400,2.668928466796875,0.0014860439114272594,-0.044308342039585114,-0.036681849509477615
1769659400424916500,2.67891650390625,-0.0030887341126799583,-0.05142830312252045,-0.04181269556283951
1769659400434904300,2.688904296875,0.002520149340853095,-0.04635018855333328,-0.04550356790423393
1769659400444892400,2.698892333984375,0.009216135367751122,-0.04110216349363327,-0.049424007534980774
1769659400454880500,2.708880615234375,0.015271364711225033,-0.036483973264694214,-0.048575259745121
1769659400464869400,2.718869384765625,0.02449415810406208,-0.024391891434788704,-0.042438801378011703
1769659400474857200,2.728857177734375,0.03315875306725502,-0.006600910797715187,-0.03615400940179825
1769659400484845300,2.73884521484375,0.03834499046206474,0.007285343483090401,-0.03212970495223999
1769659400494833400,2.74883349609375,0.04447532072663307,0.02263420633971691,-0.02815600484609604
1769659400504821500,2.758821533203125,0.049494050443172455,0.0329667367041111,-0.023736754432320595
1769659400514809300,2.768809326171875,0.04957554116845131,0.028416460379958153,-0.02069542557001114
1769659400524797400,2.77879736328125,0.04629239812493324,0.017361147329211235,-0.012924587354063988
1769659400534785500,2.78878564453125,0.03738439083099365,0.007648598402738571,-0.006165218073874712
1769659400544773400,2.7987734375,0.028839105740189552,-0.006980943959206343,-0.00824008695781231
1769659400554762200,2.80876220703125,0.023851802572607994,-0.025065138936042786,-0.013517406769096851
1769659400564750300,2.818750244140625,0.019185146316885948,-0.045698247849941254,-0.008651278913021088
1769659400574738400,2.828738525390625,0.012146944180130959,-0.05589628964662552,0.0029862024821341038
1769659400584726300,2.838726318359375,0.00896686315536499,-0.059368252754211426,0.015630358830094337
1769659400594714400,2.84871435546875,0.007595867849886417,-0.06279627233743668,0.01757340133190155
1769659400604702500,2.858702392578125,0.009863017126917839,-0.074520044028759,0.017830129712820053
1769659400614690600,2.868690673828125,0.008606270886957645,-0.0821092501282692,0.018544921651482582
1769659400624678400,2.878678466796875,0.010695520788431168,-0.09152432531118393,0.017740381881594658
1769659400634667500,2.88866748046875,0.012295548804104328,-0.10236498713493347,0.013575197197496891
1769659400644655400,2.8986552734375,0.014221279881894588,-0.11815140396356583,0.013322995975613594
1769659400654643500,2.9086435546875,0.017602428793907166,-0.142989382147789,0.02436818927526474
1769659400664631300,2.91863134765625,0.01979021541774273,-0.16561293601989746,0.03092808835208416
1769659400674619400,2.928619384765625,0.020848024636507034,-0.19115744531154633,0.03002314642071724
1769659400684607500,2.938607421875,0.02468004636466503,-0.20609484612941742,0.011433749459683895
1769659400694595300,2.94859521484375,0.03021223098039627,-0.2089012861251831,-0.019566776230931282
1769659400704583000,2.9585830078125,0.04241589829325676,-0.21110105514526367,-0.07304198294878006
1769659400714571000,2.968571044921875,0.05591945722699165,-0.18499861657619476,-0.11226049810647964
1769659400724560100,2.97856005859375,0.0654386579990387,-0.12627485394477844,-0.1378641277551651
1769659400734548000,2.9885478515625,0.059420183300971985,-0.11496120691299438,-0.15441833436489105
1769659400744535800,2.998535888671875,0.037758830934762955,-0.12241512537002563,-0.17332038283348083
1769659400754524000,3.00852392578125,0.021628595888614655,-0.12727752327919006,-0.17749010026454926
1769659400764511700,3.01851171875,-0.0005150553770363331,-0.14397980272769928,-0.17146709561347961
1769659400774499800,3.028499755859375,-0.013286244124174118,-0.1639396697282791,-0.14960627257823944
1769659400784488000,3.038488037109375,-0.019639747217297554,-0.1693008840084076,-0.11727895587682724
1769659400794476000,3.04847607421875,-0.011225223541259766,-0.16834959387779236,-0.09284365177154541
1769659400804465200,3.058465087890625,-0.0026727484073489904,-0.17017333209514618,-0.0741615816950798
1769659400814453000,3.068452880859375,-0.00166580721270293,-0.17039410769939423,-0.06826187670230865
1769659400824440800,3.07844091796875,-0.0005313006113283336,-0.15376879274845123,-0.07015272229909897
1769659400834429000,3.088428955078125,0.00112465291749686,-0.1286567747592926,-0.05962498113512993
1769659400844416800,3.098416748046875,0.002930808812379837,-0.11399421095848083,-0.04205584153532982
1769659400854404900,3.10840478515625,0.0038538603112101555,-0.09818249195814133,-0.031862325966358185
1769659400864393000,3.11839306640625,0.00006205165118444711,-0.12190832942724228,-0.013966416008770466
1769659400874380800,3.128380859375,-0.000434361572843045,-0.2732592225074768,0.023388680070638657
1769659400884369000,3.138368896484375,-0.004941495135426521,-0.32092636823654175,0.024032631888985634
1769659400894358000,3.14835791015625,-0.017886588349938393,-0.2845827341079712,0.009620402939617634
1769659400904346000,3.15834619140625,-0.03900199383497238,-0.28368738293647766,0.030735008418560028
1769659400914334000,3.168333984375,-0.05856078118085861,-0.2895878851413727,0.06977375596761703
1769659400924321800,3.17832177734375,-0.06834017485380173,-0.28719502687454224,0.09331396967172623
1769659400934310000,3.188309814453125,-0.07339059561491013,-0.2806095480918884,0.10955419391393661
1769659400944298000,3.198298095703125,-0.07720344513654709,-0.282656729221344,0.12858620285987854
1769659400954285800,3.208285888671875,-0.08026713877916336,-0.28918465971946716,0.13877226412296295
1769659400964274000,3.21827392578125,-0.08226983994245529,-0.3222326338291168,0.12211259454488754
1769659400974263000,3.228262939453125,-0.0812985822558403,-0.3392648696899414,0.1214931383728981
1769659400984251100,3.238251220703125,-0.09008115530014038,-0.31498244404792786,0.13926973938941956
1769659400994239000,3.248239013671875,-0.09288280457258224,-0.2902912199497223,0.15017539262771606
1769659401004226800,3.258226806640625,-0.08712531626224518,-0.2594936192035675,0.1685197651386261
1769659401014215000,3.26821484375,-0.08166477084159851,-0.2153804898262024,0.16990461945533752
1769659401024202800,3.27820263671875,-0.07434213906526566,-0.17438511550426483,0.16829127073287964
1769659401034190800,3.28819091796875,-0.06306631863117218,-0.1398327350616455,0.1768149882555008
1769659401044179000,3.298178955078125,-0.048223454505205154,-0.13362117111682892,0.16438761353492737
1769659401054167000,3.3081669921875,-0.031494010239839554,-0.146352156996727,0.1390787959098816
1769659401064156200,3.31815625,-0.009850500151515007,-0.14878548681735992,0.1100894883275032
1769659401074144000,3.32814404296875,-0.0022272015921771526,-0.136360764503479,0.07956966012716293
1769659401084131800,3.3381318359375,0.004475974943488836,-0.12813852727413177,0.05877383425831795
1769659401094120000,3.348119873046875,0.030125411227345467,-0.16128422319889069,0.022843530401587486
1769659401104107800,3.358107666015625,0.026861974969506264,-0.18668945133686066,-0.00410552928224206
1769659401114095900,3.368095947265625,0.008529571816325188,-0.16256441175937653,0.003824033075943589
1769659401124084000,3.378083984375,0.0016476977616548538,-0.11185888946056366,0.012772520072758198
1769659401134071800,3.38807177734375,0.0052115400321781635,-0.08001254498958588,0.008253135718405247
1769659401144061000,3.39806103515625,0.014753646217286587,-0.07340257614850998,0.0065527078695595264
1769659401154049000,3.408049072265625,0.02520602010190487,-0.07886072993278503,0.004831773228943348
1769659401164036900,3.418036865234375,0.03587996959686279,-0.0796588733792305,0.01510145515203476
1769659401174025000,3.42802490234375,0.04338662326335907,-0.0641491562128067,0.0359840989112854
1769659401184012800,3.4380126953125,0.05155480280518532,-0.042636409401893616,0.054669901728630066
1769659401194001000,3.4480009765625,0.052080512046813965,-0.022047512233257294,0.05910646170377731
1769659401203989000,3.457989013671875,0.05534688010811806,0.019208582118153572,0.06445515900850296
1769659401213976800,3.467976806640625,0.06215205416083336,0.05158569663763046,0.05368932709097862
1769659401223965000,3.47796484375,0.06952475011348724,0.08101335912942886,0.0426502600312233
1769659401233954000,3.4879541015625,0.0713423565030098,0.11487092822790146,0.014882276766002178
1769659401243942100,3.497942138671875,0.07177245616912842,0.14846031367778778,-0.0016615461790934205
1769659401253929700,3.5079296875,0.0818711668252945,0.20801818370819092,-0.030286001041531563
1769659401263917800,3.517917724609375,0.0946735143661499,0.2617059051990509,-0.10177243500947952
1769659401273906000,3.527906005859375,0.11649838089942932,0.28762325644493103,-0.1911340057849884
1769659401283893800,3.537893798828125,0.13226190209388733,0.26974838972091675,-0.2637704014778137
1769659401293881900,3.5478818359375,0.13997600972652435,0.22818176448345184,-0.27391862869262695
1769659401303870000,3.557869873046875,0.14475585520267487,0.18038681149482727,-0.268500953912735
1769659401313859000,3.567859130859375,0.15267956256866455,0.17143726348876953,-0.2723095417022705
1769659401323847200,3.57784716796875,0.1473660171031952,0.15328888595104218,-0.26556164026260376
1769659401333835000,3.5878349609375,0.13049381971359253,0.09202899038791656,-0.21273596584796906
1769659401343822800,3.59782275390625,0.11112039536237717,0.04742610454559326,-0.1489844173192978
1769659401353811000,3.60781103515625,0.09953031688928604,0.03692792356014252,-0.09412144124507904
1769659401363798800,3.617798828125,0.08727391809225082,0.04821706563234329,-0.049432530999183655
1769659401373787000,3.627786865234375,0.06960810720920563,0.0639273151755333,-0.023857129737734795
1769659401383775000,3.63777490234375,0.055875781923532486,0.07127657532691956,-0.005016596522182226
1769659401393762800,3.6477626953125,0.03969920799136162,0.07801809906959534,0.009186840616166592
1769659401403752000,3.657751953125,0.020593425258994102,0.04583433270454407,0.013790114782750607
1769659401413740000,3.667739990234375,0.011542938649654388,-0.010440124198794365,0.01563754864037037
1769659401423727900,3.677727783203125,0.0016218650853261352,-0.038717303425073624,0.020427243784070015
1769659401433716000,3.687716064453125,-0.008852081373333931,-0.03484133630990982,0.033295903354883194
1769659401443703800,3.697703857421875,-0.014782141894102097,-0.040169790387153625,0.05311408266425133
1769659401453692000,3.70769189453125,-0.015595737844705582,-0.0434606596827507,0.0687955766916275
1769659401463680000,3.717679931640625,-0.014860172756016254,-0.03292705863714218,0.08401820808649063
1769659401473667800,3.727667724609375,-0.015239140018820763,-0.0040852888487279415,0.09043482691049576
1769659401483657000,3.737656982421875,-0.011603126302361488,0.029450833797454834,0.08945424854755402
1769659401493645000,3.74764501953125,-0.005134308245033026,0.047935035079717636,0.08184799551963806
1769659401503633000,3.7576328125,0.002011485630646348,0.053224604576826096,0.06465702503919601
1769659401513620700,3.767620849609375,0.002971555106341839,0.04073517769575119,0.047333694994449615
1769659401523608800,3.77760888671875,0.004544950556010008,0.032580580562353134,0.00945129245519638
1769659401533597000,3.787596923828125,0.006567621603608131,0.014765364117920399,0.015987489372491837
1769659401543584800,3.797584716796875,0.004493019077926874,0.0007872303831391037,0.037700507789850235
1769659401553572900,3.80757275390625,-0.00009960222087102011,0.0022178804501891136,0.056234508752822876
1769659401563562000,3.81756201171875,-0.009119994938373566,0.0009795106016099453,0.05638737604022026
1769659401573550000,3.827550048828125,-0.014887336641550064,0.001198688754811883,0.054674964398145676
1769659401583538200,3.8375380859375,-0.020259199663996696,0.0011941614793613553,0.0487331859767437
1769659401593525800,3.84752587890625,-0.023136477917432785,0.010302971117198467,0.05134760960936546
1769659401603513900,3.857513916015625,-0.03274969011545181,0.03416862338781357,0.04531155526638031
1769659401613502000,3.867501953125,-0.032227709889411926,0.04440927505493164,0.03584454953670502
1769659401623489800,3.87748974609375,-0.014220747165381908,0.024528246372938156,0.019935358315706253
1769659401633478000,3.887477783203125,-0.00267674308270216,-0.004547880031168461,0.0022716764360666275
1769659401643466000,3.897466064453125,-0.0035057852510362864,-0.024531709030270576,-0.015292136929929256
1769659401653455000,3.907455078125,-0.002950516063719988,-0.04701384902000427,-0.025843847543001175
1769659401663443000,3.91744287109375,-0.009651295840740204,-0.06209985539317131,-0.020292755216360092
1769659401673431000,3.92743115234375,-0.019813384860754013,-0.06632469594478607,-0.014651380479335785
1769659401683419000,3.9374189453125,-0.025592444464564323,-0.05686408281326294,-0.020608339458703995
1769659401693407000,3.947406982421875,-0.026140790432691574,-0.04457066208124161,-0.026741066947579384
1769659401703394600,3.95739453125,-0.030249781906604767,-0.04704713821411133,-0.029390113428235054
1769659401713382700,3.967382568359375,-0.024394288659095764,-0.048645298928022385,-0.02287122793495655
1769659401723370500,3.97737060546875,-0.017721205949783325,-0.041437987238168716,-0.011717642657458782
1769659401733359600,3.987359619140625,-0.011500328779220581,-0.034695662558078766,-0.0006620618514716625
1769659401743347700,3.99734765625,-0.0060323262587189674,-0.013068131171166897,-0.0017757958266884089
1769659401753335800,4.007335693359375,0.000886566296685487,0.012475578114390373,-0.015264173969626427
1769659401763323600,4.01732373046875,0.005252286326140165,0.014052435755729675,-0.0290532223880291
1769659401773311500,4.0273115234375,0.012509932741522789,0.007260309532284737,-0.034394457936286926
1769659401783299600,4.037299560546875,0.009955961257219315,0.02521800436079502,-0.025603363290429115
1769659401793287700,4.04728759765625,0.010757839307188988,0.02364647388458252,-0.014516890980303288
1769659401803275500,4.057275634765625,0.0065559037029743195,0.008039018139243126,-0.008595618419349194
1769659401813263600,4.067263671875,-0.0003944141499232501,-0.0003438140847720206,0.0075194351375103
1769659401823252700,4.077252685546875,-0.018859706819057465,-0.025728799402713776,0.025347966700792313
1769659401833240800,4.08724072265625,-0.03443067893385887,-0.0706251710653305,0.024599086493253708
1769659401843228700,4.097228759765625,-0.048884984105825424,-0.10287338495254517,0.01750708743929863
1769659401853216800,4.107216796875,-0.06010248512029648,-0.10058706253767014,0.006021939683705568
1769659401863204600,4.11720458984375,-0.06415128707885742,-0.09641122072935104,-0.002965429797768593
1769659401873192400,4.1271923828125,-0.06905816495418549,-0.11870002001523972,-0.00006844323797849938
1769659401883180500,4.1371806640625,-0.07005897909402847,-0.13408775627613068,-0.000472977408207953
1769659401893168600,4.147168701171875,-0.06398963183164597,-0.14275209605693817,0.014536865055561066
1769659401903157800,4.15715771484375,-0.06611829996109009,-0.13914084434509277,0.03475691378116608
1769659401913145600,4.1671455078125,-0.0630846917629242,-0.1114780604839325,0.04849429801106453
1769659401923133700,4.1771337890625,-0.055650744587183,-0.09045666456222534,0.0517425574362278
1769659401933121800,4.187121826171875,-0.05020218342542648,-0.08606484532356262,0.04160017520189285
1769659401943109600,4.197109619140625,-0.03909706696867943,-0.08373510837554932,0.021229121834039688
1769659401953097500,4.207097412109375,-0.0292524266988039,-0.0697881355881691,-0.0052235242910683155
1769659401963085600,4.21708544921875,-0.021743910387158394,-0.07174236327409744,-0.004495948553085327
1769659401973073700,4.22707373046875,-0.006646983791142702,-0.0484468936920166,-0.011391671374440193
1769659401983062800,4.237062744140625,-0.006897320970892906,-0.0317550003528595,0.008168714120984077
1769659401993050600,4.247050537109375,0.004808870144188404,-0.013605291023850441,0.013618607074022293
1769659402003038700,4.257038818359375,0.010377539321780205,-0.00029401297797448933,0.024579910561442375
1769659402013026800,4.26702685546875,0.010971158742904663,-0.0015076154377311468,0.025905633345246315
1769659402023014700,4.2770146484375,0.0067905280739068985,-0.018909242004156113,0.020609937608242035
1769659402033002500,4.28700244140625,0.01083001121878624,-0.017187776044011116,0.0004370247188489884
1769659402042990600,4.296990478515625,0.008311991579830647,-0.028014590963721275,-0.010626545175909996
1769659402052978700,4.306978759765625,-0.0017856494523584843,-0.04053570702672005,-0.009644904173910618
1769659402062966500,4.316966552734375,-0.000511593243572861,-0.03080078959465027,0.006031793542206287
1769659402072955600,4.32695556640625,-0.008057394064962864,-0.019470904022455215,0.024837972596287727
1769659402082943700,4.33694384765625,-0.004193946253508329,-0.010319482535123825,0.03584454953670502
1769659402092931800,4.346931884765625,-0.006435528863221407,-0.0002948119363281876,0.03844859078526497
1769659402102919700,4.356919677734375,-0.006452572997659445,-0.007193730678409338,0.030974959954619408
1769659402112907800,4.36690771484375,-0.004021639470010996,-0.002944657113403082,0.03208017349243164
1769659402122895600,4.3768955078125,-0.01119113527238369,-0.010908573865890503,0.02472265623509884
1769659402132883500,4.386883544921875,-0.01549187395721674,-0.018684204667806625,0.030706513673067093
1769659402142871600,4.39687158203125,-0.021265607327222824,-0.031007982790470123,0.02642308548092842
1769659402152860700,4.406860595703125,-0.013495835475623608,-0.03717746213078499,0.02672215737402439
1769659402162848800,4.416848876953125,-0.011598865501582623,-0.037037111818790436,0.027149595320224762
1769659402172836600,4.426836669921875,-0.013044695369899273,-0.05158010497689247,0.0293714702129364
1769659402182824700,4.43682470703125,-0.009988718666136265,-0.029769878834486008,0.03578303009271622
1769659402192812800,4.446812744140625,-0.004988633096218109,-0.010718956589698792,0.03786402568221092
1769659402202800600,4.456800537109375,0.001026115962304175,0.02197294309735298,0.029346968978643417
1769659402212788500,4.46678857421875,0.00185036426410079,0.008297344669699669,0.021634722128510475
1769659402222776600,4.476776611328125,0.01546151377260685,0.04568120092153549,0.014956312254071236
1769659402232765700,4.486765625,0.0157155804336071,0.03524294123053551,0.015242336317896843
1769659402242753800,4.49675390625,0.019701799377799034,0.03708638250827789,0.014665761962532997
1769659402252741600,4.50674169921875,0.012162123806774616,0.024263260886073112,0.01769404299557209
1769659402262729700,4.516729736328125,0.004714061506092548,0.012560532428324223,0.022058963775634766
1769659402272717800,4.5267177734375,-0.011708321049809456,0.021444572135806084,0.02822604589164257
1769659402282705700,4.53670556640625,-0.021457621827721596,0.014885472133755684,0.03551671653985977
1769659402292693500,4.546693603515625,-0.029153358191251755,0.010101369582116604,0.048049286007881165
1769659402302681600,4.556681640625,-0.03391855210065842,0.004546282347291708,0.045940328389406204
1769659402312670700,4.566670654296875,-0.038183070719242096,0.007583883590996265,0.04319727048277855
1769659402322658600,4.576658447265625,-0.043958667665719986,-0.004050934221595526,0.02442171983420849
1769659402332646700,4.586646728515625,-0.05474606901407242,-0.007541273254901171,0.011565842665731907
1769659402342634800,4.596634765625,-0.0508597195148468,-0.014307566918432713,0.00469515286386013
1769659402352622800,4.606622802734375,-0.04152906686067581,-0.03430577740073204,0.010790329426527023
1769659402362610700,4.616610595703125,-0.04791586101055145,-0.036314863711595535,0.004305799026042223
1769659402372598500,4.6265986328125,-0.04800507798790932,-0.020854149013757706,0.008592156693339348
1769659402382586600,4.636586669921875,-0.054063767194747925,-0.016511864960193634,0.0034850125666707754
1769659402392574500,4.646574462890625,-0.04615684226155281,-0.018314825370907784,0.00017097493400797248
1769659402402563600,4.6565634765625,-0.04320472851395607,-0.02214072272181511,0.0011398328933864832
1769659402412551700,4.6665517578125,-0.0385173000395298,-0.012889167293906212,-0.0015867113834246993
1769659402422539800,4.676539794921875,-0.032156605273485184,0.005482915788888931,0.0019185412675142288
1769659402432527600,4.686527587890625,-0.023368971422314644,0.026395387947559357,0.009580722078680992
1769659402442515700,4.696515625,-0.015022625215351582,0.034571826457977295,0.004089550115168095
1769659402452503800,4.70650390625,-0.003768372815102339,0.03756362199783325,-0.005481318105012178
1769659402462491600,4.71649169921875,0.010060356929898262,0.028390629217028618,-0.02214711345732212
1769659402472479500,4.7264794921875,0.009575662203133106,0.009455553255975246,-0.032472722232341766
1769659402482468600,4.736468505859375,0.005250421818345785,-0.010121343657374382,-0.03309563547372818
1769659402492456700,4.746456787109375,-0.0010098706698045135,-0.01649162545800209,-0.026214027777314186
1769659402502444800,4.75644482421875,-0.003546265186741948,-0.025562351569533348,-0.023754864931106567
1769659402512432600,4.7664326171875,-0.005319664254784584,-0.0408712662756443,-0.030042586848139763
1769659402522420700,4.776420654296875,-0.0016053534345701337,-0.040834780782461166,-0.04068963974714279
1769659402532408800,4.786408935546875,0.006126868538558483,-0.027052922174334526,-0.04661969840526581
1769659402542396700,4.796396728515625,0.01134080532938242,-0.011153585277497768,-0.03832928091287613
1769659402552384500,4.806384521484375,0.00839747954159975,0.002810700098052621,-0.027065439149737358
1769659402562373600,4.81637353515625,0.007258445490151644,0.016998691484332085,-0.018032796680927277
1769659402572361700,4.82636181640625,0.009806823916733265,0.01776115410029888,-0.00933065079152584
1769659402582349600,4.836349609375,0.011085940524935722,0.010744256898760796,-0.004117513541132212
1769659402592337700,4.846337646484375,0.009580455720424652,0.00936207640916109,-0.00031638352083973587
1769659402602325800,4.85632568359375,0.010647584684193134,0.012656140141189098,0.007791344076395035
1769659402612313900,4.86631396484375,0.013349893502891064,0.014667359180748463,0.01998009905219078
1769659402622301700,4.8763017578125,0.016208797693252563,0.0315944105386734,0.031918782740831375
1769659402632289500,4.88628955078125,0.021394504234194756,0.046358175575733185,0.030846329405903816
1769659402642278700,4.896278564453125,0.03105671890079975,0.05787288770079613,0.027004718780517578
1769659402652266800,4.906266845703125,0.03409644961357117,0.07542844116687775,0.019646672531962395
1769659402662254600,4.916254638671875,0.038952458649873734,0.08598707616329193,0.01979607529938221
1769659402672242700,4.92624267578125,0.045945387333631516,0.09433049708604813,0.015280685387551785
1769659402682230800,4.936230712890625,0.05191006883978844,0.09734972566366196,0.005032042972743511
1769659402692218600,4.946218505859375,0.056891243904829025,0.09886772185564041,-0.0021281319204717875
1769659402702207000,4.95620703125,0.06004229933023453,0.11171001940965652,-0.006992129608988762
1769659402712194800,4.96619482421875,0.06307883560657501,0.1333966702222824,-0.007089600898325443
1769659402722184000,4.976183837890625,0.06559738516807556,0.1479726880788803,-0.009107477962970734
1769659402732172000,4.986172119140625,0.0694160908460617,0.16113989055156708,-0.012271846644580364
1769659402742160100,4.99616015625,0.07424120604991913,0.15922081470489502,-0.018079401925206184
1769659402752148000,5.00614794921875,0.07163530588150024,0.14020530879497528,-0.023795610293745995
1769659402762136000,5.016135986328125,0.06148786097764969,0.11710851639509201,-0.030940072610974312
1769659402772124200,5.026124267578125,0.05247572436928749,0.10117188841104507,-0.035297002643346786
1769659402782112000,5.036112060546875,0.03984541818499565,0.08183521032333374,-0.03127536550164223
1769659402792099800,5.046099853515625,0.03393692895770073,0.0708688497543335,-0.039564985781908035
1769659402802088000,5.056087890625,0.033433590084314346,0.07667586952447891,-0.035956136882305145
1769659402812077000,5.0660771484375,0.033663153648376465,0.09282101690769196,-0.026035862043499947
1769659402822065200,5.076065185546875,0.03526531159877777,0.12555313110351562,-0.01709775999188423
1769659402832053000,5.086052978515625,0.036606479436159134,0.14397262036800385,-0.006742857396602631
1769659402842041000,5.096041015625,0.03786375746130943,0.12839099764823914,-0.0030189594253897667
1769659402852029200,5.106029296875,0.03596918657422066,0.10085870325565338,-0.0033446638844907284
1769659402862017000,5.11601708984375,0.03495372086763382,0.09572945535182953,-0.0014596786350011826
1769659402872004900,5.1260048828125,0.029759492725133896,0.11399661004543304,-0.010974620468914509
1769659402881993000,5.135992919921875,0.019153455272316933,0.09489615261554718,-0.023069899529218674
1769659402891982000,5.145982177734375,0.016503077000379562,0.06420961022377014,-0.03527703136205673
1769659402901970000,5.155969970703125,0.023380422964692116,0.07669850438833237,-0.04408996179699898
1769659402911958000,5.1659580078125,0.032766733318567276,0.0943336933851242,-0.05091990530490875
1769659402921946000,5.175946044921875,0.04012451693415642,0.08549705892801285,-0.059963468462228775
1769659402931934200,5.185934326171875,0.04586975276470184,0.07879574596881866,-0.06538832932710648
1769659402941922000,5.195922119140625,0.04247156158089638,0.0722358450293541,-0.06192009150981903
1769659402951910100,5.20591015625,0.033847976475954056,0.0550568588078022,-0.05519933998584747
1769659402961898000,5.21589794921875,0.01810869574546814,0.03771115839481354,-0.04168486222624779
1769659402971887000,5.22588720703125,0.0039017973467707634,0.010112554766237736,-0.017786987125873566
1769659402981875000,5.235875,0.006186523009091616,-0.0005249090609140694,0.007011570502072573
1769659402991863000,5.245863037109375,0.012546151876449585,0.00678253872320056,0.029171999543905258
1769659403001851100,5.25585107421875,0.011810320429503918,0.0031643679831176996,0.05204003304243088
1769659403011839000,5.2658388671875,0.006690659560263157,-0.016881512477993965,0.05458308383822441
1769659403021827000,5.2758271484375,0.0048738508485257626,-0.01979767344892025,0.04927460476756096
1769659403031815200,5.285815185546875,0.007984689436852932,-0.024456074461340904,0.04517094045877457
1769659403041803000,5.295802978515625,0.012506471015512943,-0.03333451971411705,0.04091094806790352
1769659403051792000,5.3057919921875,0.01341407559812069,-0.036503151059150696,0.039140745997428894
1769659403061780000,5.315780029296875,0.007536479737609625,-0.046541403979063034,0.04668920859694481
1769659403071768000,5.32576806640625,-0.0010791128734126687,-0.055082160979509354,0.059057991951704025
1769659403081756200,5.335756103515625,-0.008589493110775948,-0.06060795485973358,0.07232745736837387
1769659403091744000,5.345743896484375,-0.01714702881872654,-0.07390058785676956,0.08230233192443848
1769659403101732000,5.355732177734375,-0.022595856338739395,-0.07817469537258148,0.08150391280651093
1769659403111720200,5.36572021484375,-0.021340709179639816,-0.08007939159870148,0.06419123709201813
1769659403121708000,5.3757080078125,-0.01968262530863285,-0.09988531470298767,0.04644766077399254
1769659403131697000,5.38569677734375,-0.011748002842068672,-0.09483329951763153,0.046307843178510666
1769659403141685000,5.39568505859375,-0.0019419770687818527,-0.07008481025695801,0.05469440296292305
1769659403151673000,5.405673095703125,0.0013467605458572507,-0.05669363960623741,0.06314807385206223
1769659403161661000,5.415660888671875,-0.004346811678260565,-0.0542757548391819,0.0631060004234314
1769659403171649000,5.42564892578125,-0.0100198769941926,-0.055271778255701065,0.04813956469297409
1769659403181637000,5.43563720703125,-0.012732040137052536,-0.07070239633321762,0.017678862437605858
1769659403191625200,5.445625244140625,-0.013500096276402473,-0.07142305374145508,-0.00785339530557394
1769659403201613000,5.455613037109375,-0.01648603193461895,-0.06829863041639328,-0.021138042211532593
1769659403211602000,5.465601806640625,-0.024982847273349762,-0.06990265101194382,-0.024145815521478653
1769659403221590000,5.475590087890625,-0.039075497537851334,-0.06470203399658203,-0.00634924229234457
1769659403231578000,5.485578125,-0.04956675320863724,-0.06407298892736435,0.007092796731740236
1769659403241566000,5.49556591796875,-0.06359175592660904,-0.0695553719997406,0.002180596347898245
1769659403251554000,5.505553955078125,-0.06865256279706955,-0.09706982225179672,-0.005672266706824303
1769659403261542100,5.515542236328125,-0.06721312552690506,-0.13665984570980072,-0.0019768644124269485
1769659403271530000,5.525530029296875,-0.06924325227737427,-0.14989762008190155,0.0033454629592597485
1769659403281518000,5.53551806640625,-0.07038494944572449,-0.12949354946613312,0.012525378726422787
1769659403291506200,5.545506103515625,-0.07629690319299698,-0.10136550664901733,0.01679469272494316
1769659403301495000,5.5554951171875,-0.07531126588582993,-0.08665420114994049,0.012298211455345154
1769659403311483000,5.56548291015625,-0.06521868705749512,-0.07561912387609482,0.009219064377248287
1769659403321471000,5.575470947265625,-0.054735418409109116,-0.05201233550906181,0.0022338596172630787
1769659403331459000,5.585458984375,-0.04902400076389313,-0.0294958408921957,0.00012410330236889422
1769659403341447200,5.595447265625,-0.0451994352042675,-0.009092298336327076,0.000011984225238848012
1769659403351435000,5.60543505859375,-0.04319167882204056,-0.004887965973466635,-0.014098241925239563
1769659403361423000,5.615423095703125,-0.03977910429239273,-0.003477022983133793,-0.034498054534196854
1769659403371412000,5.625411865234375,-0.03742300719022751,0.005557218100875616,-0.04373496398329735
1769659403381400000,5.635400146484375,-0.03253716975450516,0.0004849616379942745,-0.03755722939968109
1769659403391388000,5.645387939453125,-0.03760330006480217,-0.009723734110593796,-0.03413746505975723
1769659403401376000,5.6553759765625,-0.030902255326509476,-0.012093414552509785,-0.028082501143217087
1769659403411364000,5.665364013671875,-0.025538116693496704,-0.006446714047342539,-0.023849673569202423
1769659403421352000,5.67535205078125,-0.02383689023554325,0.004999552387744188,-0.022959910333156586
1769659403431340000,5.685340087890625,-0.016685768961906433,0.018922025337815285,-0.014146978035569191
1769659403441328000,5.695328125,-0.013628726825118065,0.017437046393752098,-0.006038185209035873
1769659403451316200,5.705316162109375,-0.012368785217404366,0.014429273083806038,0.007722900714725256
1769659403461305000,5.71530517578125,-0.008889098651707172,0.026085928082466125,0.026519758626818657
1769659403471293000,5.72529296875,-0.002924150787293911,0.03189348429441452,0.04134131595492363
1769659403481281000,5.735281005859375,0.0006468818173743784,0.031073497608304024,0.046552855521440506
1769659403491269000,5.74526904296875,0.001116130850277841,0.03712766245007515,0.0504077784717083
1769659403501257000,5.755257080078125,-0.00022423815971706063,0.04683568328619003,0.053521282970905304
1769659403511245000,5.7652451171875,-0.0018791264155879617,0.05176838859915733,0.04806659370660782
1769659403521233200,5.775233154296875,-0.0027153589762747288,0.053460296243429184,0.04127926379442215
1769659403531221000,5.785220947265625,0.0005126585019752383,0.044085703790187836,0.03129427134990692
1769659403541209900,5.7952099609375,0.0018165421206504107,0.044560544192790985,0.027246801182627678
1769659403551198000,5.805197998046875,-0.0011446266435086727,0.05088954418897629,0.02875841036438942
1769659403561186000,5.81518603515625,-0.00021997711155563593,0.056418001651763916,0.028440162539482117
1769659403571174000,5.825173828125,0.004445614758878946,0.05456257611513138,0.025776736438274384
1769659403581162000,5.835161865234375,0.008195611648261547,0.056047555059194565,0.02473650500178337
1769659403591150000,5.845150146484375,0.0041492050513625145,0.04921814426779747,0.020061591640114784
1769659403601138200,5.85513818359375,0.00173744629137218,0.03534254431724548,0.014453241601586342
1769659403611127000,5.865126953125,0.00041278995922766626,0.03970000892877579,0.009967679157853127
1769659403621115000,5.875114990234375,0.0015933692920953035,0.05524194985628128,0.00276169809512794
1769659403631103000,5.88510302734375,0.006943659856915474,0.06066254898905754,-0.006876281928271055
1769659403641091000,5.895091064453125,0.0070131681859493256,0.04248407855629921,-0.017858626320958138
1769659403651079000,5.905078857421875,-0.005842975340783596,0.020417656749486923,-0.019885024055838585
1769659403661067000,5.91506689453125,-0.018340125679969788,-0.0041188448667526245,-0.011453723534941673
1769659403671055000,5.92505517578125,-0.027784759178757668,-0.027572505176067352,-0.0014682007022202015
1769659403681043000,5.93504296875,-0.03557717055082321,-0.029758960008621216,-0.00015659387281630188
1769659403691031000,5.945031005859375,-0.037222471088171005,-0.023328758776187897,-0.013516607694327831
1769659403701020700,5.955020751953125,-0.035901542752981186,-0.027721907943487167,-0.03296301141381264
1769659403711008800,5.9650087890625,-0.037265345454216,-0.03808320313692093,-0.04188832640647888
1769659403720996600,5.97499658203125,-0.04280072823166847,-0.04464123770594597,-0.03758892044425011
1769659403730984700,5.984984619140625,-0.04805460944771767,-0.052384909242391586,-0.02323741279542446
1769659403740972800,5.994972900390625,-0.05969395488500595,-0.061699315905570984,-0.009640377014875412
1769659403750960600,6.004960693359375,-0.06984246522188187,-0.07332880795001984,0.0005195827106945217
1769659403760948700,6.01494873046875,-0.07950548082590103,-0.08281765133142471,0.00017843178648035973
1769659403770936800,6.024936767578125,-0.09120820462703705,-0.10644841194152832,-0.011081946082413197
1769659403780925700,6.03492578125,-0.10117215663194656,-0.14354118704795837,-0.014504640363156796
1769659403790913500,6.04491357421875,-0.10463745892047882,-0.15566761791706085,-0.00794341042637825
1769659403800901600,6.054901611328125,-0.10138387978076935,-0.1474757343530655,0.0019558256026357412
1769659403810889700,6.0648896484375,-0.09276748448610306,-0.14249269664287567,0.008974320255219936
1769659403820877800,6.0748779296875,-0.08547522127628326,-0.13745346665382385,0.01324150338768959
1769659403830865700,6.08486572265625,-0.07885859906673431,-0.11700598150491714,0.00815166998654604
1769659403840853800,6.094853759765625,-0.06054456904530525,-0.09239651262760162,-0.0014064153656363487
1769659403850841900,6.104841796875,-0.03690182417631149,-0.051832836121320724,-0.011569304391741753
1769659403860830700,6.114830810546875,-0.020324446260929108,-0.009315204806625843,-0.020614730194211006
1769659403870818600,6.124818603515625,-0.00759906368330121,0.011685950681567192,-0.023033147677779198
1769659403880806700,6.134806640625,0.001633316627703607,0.01643010601401329,-0.021801436319947243
1769659403890794800,6.144794677734375,0.008231830783188343,0.02281317114830017,-0.023546870797872543
1769659403900782600,6.154782470703125,0.01641998626291752,0.05046876519918442,-0.023506125435233116
1769659403910770700,6.164770751953125,0.020718861371278763,0.06168892979621887,-0.025013741105794907
1769659403920758800,6.1747587890625,0.02321663871407509,0.05895918980240822,-0.026459570974111557
1769659403930747000,6.184746826171875,0.017228255048394203,0.042877160012722015,-0.029041238129138947
1769659403940735500,6.194735595703125,0.011111240833997726,0.023373765870928764,-0.02635277807712555
1769659403950723600,6.2047236328125,-0.0000804274677648209,0.013108877465128899,-0.01944267377257347
1769659403960711700,6.214711669921875,-0.00762835843488574,0.021887987852096558,-0.011636416427791119
1769659403970699800,6.22469970703125,-0.016337694600224495,0.027339212596416473,-0.005045624915510416
1769659403980687600,6.2346875,-0.024350613355636597,0.022038722410798073,0.008533300831913948
1769659403990675700,6.24467578125,-0.0317014716565609,0.03283517807722092,0.025538116693496704
1769659404000663800,6.254663818359375,-0.04106008633971214,0.029503563418984413,0.0335792638361454
1769659404010651600,6.264651611328125,-0.047565922141075134,0.00019654128118418157,0.027646807953715324
1769659404020640500,6.274640625,-0.059847887605428696,-0.040820665657520294,0.01492435485124588
1769659404030628600,6.284628662109375,-0.06160051375627518,-0.06326525658369064,0.008393751457333565
1769659404040616700,6.29461669921875,-0.05696368217468262,-0.05392235517501831,0.016093216836452484
1769659404050604500,6.3046044921875,-0.05241180956363678,-0.03802594542503357,0.032344091683626175
1769659404060592600,6.314592529296875,-0.05036729946732521,-0.026639332994818687,0.04703914746642113
1769659404070580700,6.324580810546875,-0.050328951328992844,-0.023855797946453094,0.059427108615636826
1769659404080568800,6.33456884765625,-0.05295056477189064,-0.020742297172546387,0.06447166949510574
1769659404090557700,6.3445576171875,-0.05354897677898407,-0.019568108022212982,0.06338643282651901
1769659404100545500,6.354545654296875,-0.05290289595723152,-0.027710456401109695,0.052567604929208755
1769659404110533600,6.36453369140625,-0.0572209432721138,-0.031144604086875916,0.04091440886259079
1769659404120521700,6.374521728515625,-0.05988463759422302,-0.07842370122671127,0.03377394378185272
1769659404130509600,6.384509521484375,-0.061164021492004395,-0.08505070954561234,0.04283934086561203
1769659404140497700,6.39449755859375,-0.05570454150438309,-0.07723060250282288,0.05423953756690025
1769659404150485800,6.40448583984375,-0.04655205458402634,-0.049197107553482056,0.06760460883378983
1769659404160473600,6.4144736328125,-0.03905525803565979,-0.025235582143068314,0.06929678469896317
1769659404170462700,6.424462646484375,-0.040791105479002,-0.02514476701617241,0.0528285950422287
1769659404180450600,6.434450439453125,-0.042162634432315826,-0.047566719353199005,0.040656350553035736
1769659404190438700,6.444438720703125,-0.052195824682712555,-0.10095404088497162,0.032329708337783813
1769659404200426500,6.454426513671875,-0.06201596558094025,-0.09338480979204178,0.04469290375709534
1769659404210414600,6.46441455078125,-0.07161186635494232,-0.08453059941530228,0.03837162256240845
1769659404220402700,6.474402587890625,-0.07346808910369873,-0.11066392809152603,0.04290032759308815
1769659404230390800,6.484390869140625,-0.08328130841255188,-0.10441748797893524,0.053401704877614975
1769659404240378600,6.494378662109375,-0.0905647873878479,-0.09441331773996353,0.05288638547062874
1769659404250367700,6.50436767578125,-0.09327481687068939,-0.10875631123781204,0.05709550902247429
1769659404260355600,6.51435546875,-0.10194740444421768,-0.12041136622428894,0.06731805205345154
1769659404270343700,6.52434375,-0.10968787968158722,-0.11795832961797714,0.07932757586240768
1769659404280331500,6.53433154296875,-0.11514949053525925,-0.11872798204421997,0.07369019836187363
1769659404290319600,6.544319580078125,-0.11146341264247894,-0.13540709018707275,0.07270163297653198
1769659404300307700,6.5543076171875,-0.10657517611980438,-0.12719416618347168,0.06650738418102264
1769659404310295600,6.564295654296875,-0.09482664614915848,-0.11302348971366882,0.04667669162154198
1769659404320283600,6.57428369140625,-0.07869401574134827,-0.08700520545244217,0.031008249148726463
1769659404330272800,6.584272705078125,-0.060134176164865494,-0.062001585960388184,0.016586434096097946
1769659404340260900,6.5942607421875,-0.041189782321453094,-0.034455977380275726,0.006838198751211166
1769659404350248400,6.60424853515625,-0.025361815467476845,-0.008656605146825314,-0.0081514036282897
1769659404360236500,6.614236572265625,-0.013687316328287125,0.00017017599020618945,-0.022954585030674934
1769659404370224600,6.624224609375,-0.006030994467437267,0.0030810111202299595,-0.027396736666560173
1769659404380212700,6.634212646484375,-0.002055960241705179,0.00652687530964613,-0.02737729623913765
1769659404390200600,6.64420068359375,0.0048980857245624065,0.004972121678292751,-0.020653346553444862
1769659404400188700,6.654188720703125,0.011468903161585331,0.008641957305371761,-0.011622301302850246
1769659404410177800,6.664177734375,0.020852018147706985,0.022597454488277435,-0.0027105652261525393
1769659404420166000,6.674165771484375,0.029888922348618507,0.0544094443321228,0.007255782373249531
1769659404430153700,6.68415380859375,0.040275782346725464,0.07901811599731445,0.00720678037032485
1769659404440141600,6.6941416015625,0.04517919570207596,0.0822778269648552,0.0013249226612970233
1769659404450129700,6.704129638671875,0.04580770060420036,0.0854848101735115,-0.0025209481827914715
1769659404460117500,6.714117431640625,0.04629133269190788,0.08198274672031403,-0.009126652963459492
1769659404470105600,6.724105712890625,0.05028554052114487,0.06853938102722168,-0.014550979249179363
1769659404480093700,6.73409375,0.05315563082695007,0.06848344951868057,-0.013597301207482815
1769659404490082800,6.744082763671875,0.055872052907943726,0.07026990503072739,-0.00791305024176836
1769659404500070700,6.754070556640625,0.054792143404483795,0.06850741803646088,-0.0037348170299082994
1769659404510058800,6.764058837890625,0.0534224770963192,0.029638053849339485,-0.008825449272990227
1769659404520046600,6.774046630859375,0.051527105271816254,0.039259787648916245,-0.007212905213236809
1769659404530034700,6.78403466796875,0.04777497798204422,0.06435289233922958,-0.019536683335900307
1769659404540022500,6.7940224609375,0.048591770231723785,0.041972748935222626,-0.017173128202557564
1769659404550010600,6.8040107421875,0.04346678406000137,0.03266500309109688,-0.006608634255826473
1769659404559998700,6.813998779296875,0.04453045129776001,0.05238757282495499,-0.005682120565325022
1769659404569987800,6.82398779296875,0.04939471185207367,0.05794372782111168,-0.003150519449263811
1769659404579975700,6.8339755859375,0.04969405382871628,0.05646354332566261,-0.008011853322386742
1769659404589963800,6.8439638671875,0.048834916204214096,0.05956319347023964,-0.00691969133913517
1769659404599952000,6.853951904296875,0.043288085609674454,0.0626780316233635,-0.0025624935515224934
1769659404609939500,6.863939453125,0.03785044327378273,0.055154331028461456,-0.00031611722079105675
1769659404619927600,6.873927490234375,0.03189241886138916,0.049844253808259964,-0.0012037487467750907
1769659404629915600,6.88391552734375,0.02809608355164528,0.05060698464512825,-0.01142842322587967
1769659404639903700,6.89390380859375,0.023800671100616455,0.04020041599869728,-0.024696825072169304
1769659404649892900,6.903892822265625,0.018509235233068466,0.029808761551976204,-0.027036411687731743
1769659404659880700,6.913880615234375,0.016406403854489326,0.02262222208082676,-0.022305838763713837
1769659404669868800,6.923868896484375,0.014092382974922657,0.011416172608733177,-0.02015054225921631
1769659404679857000,6.93385693359375,0.009678193368017673,0.01270008273422718,-0.011756524443626404
1769659404689844700,6.9438447265625,0.001957689644768834,0.006146309431642294,-0.0071753547526896
1769659404699832600,6.95383251953125,-0.005868541542440653,-0.0038863508962094784,-0.003966245800256729
1769659404709820400,6.9638203125,-0.006107427179813385,-0.014066284522414207,-0.009548231028020382
1769659404719809500,6.9738095703125,-0.0073473951779305935,-0.02257588319480419,-0.016409333795309067
1769659404729797600,6.983797607421875,-0.011453989893198013,-0.039624109864234924,-0.01919952780008316
1769659404739785700,6.99378564453125,-0.01332965400069952,-0.054733287543058395,-0.019165173172950745
1769659404749773600,7.003773681640625,-0.017669275403022766,-0.06565411388874054,-0.01799018494784832
1769659404759761700,7.01376171875,-0.01715262234210968,-0.06956283003091812,-0.021940985694527626
1769659404769749800,7.023749755859375,-0.017678329721093178,-0.0644298568367958,-0.022971361875534058
1769659404779737600,7.033737548828125,-0.013980796560645103,-0.05613730475306511,-0.028794096782803535
1769659404789725400,7.043725341796875,-0.004578240215778351,-0.04511181637644768,-0.03453880175948143
1769659404799714600,7.053714599609375,-0.00002663161103555467,-0.03870159015059471,-0.03863820433616638
1769659404809702700,7.06370263671875,0.001466869143769145,-0.03413506597280502,-0.04193945974111557
1769659404819690500,7.0736904296875,0.0014018879737704992,-0.03178323060274124,-0.044747497886419296
1769659404829678600,7.0836787109375,0.0032826124224811792,-0.028560804203152657,-0.044269461184740067
1769659404839666700,7.093666748046875,0.007757788058370352,-0.01642025262117386,-0.044310472905635834
1769659404849654800,7.10365478515625,0.017128920182585716,0.008046475239098072,-0.04650997743010521
1769659404859642600,7.113642578125,0.026379942893981934,0.023987358435988426,-0.05447389557957649
1769659404869630500,7.12363037109375,0.035540152341127396,0.02436579391360283,-0.07012315839529037
1769659404879619600,7.13361962890625,0.04267502576112747,0.02714213915169239,-0.07815312594175339
1769659404889607700,7.143607666015625,0.04530223459005356,0.039434224367141724,-0.07904262095689774
1769659404899595500,7.153595458984375,0.05054839327931404,0.05748007073998451,-0.070272296667099
1769659404909583600,7.16358349609375,0.051483698189258575,0.06601843237876892,-0.06193021312355995
1769659404919571700,7.17357177734375,0.04646310582756996,0.05781083554029465,-0.05812402442097664
1769659404929559600,7.1835595703125,0.04249419644474983,0.041554100811481476,-0.06228893995285034
1769659404939547600,7.193547607421875,0.042147185653448105,0.036493029445409775,-0.07057776302099228
1769659404949535500,7.203535400390625,0.04056314006447792,0.03628396987915039,-0.07056604325771332
1769659404959524600,7.213524658203125,0.037936195731163025,0.043475303798913956,-0.06181995943188667
1769659404969512400,7.223512451171875,0.033791519701480865,0.05343419685959816,-0.050390470772981644
1769659404979500500,7.23350048828125,0.03166019171476364,0.06289374083280563,-0.046786680817604065
1769659404989488600,7.243488525390625,0.02600204013288021,0.034501783549785614,-0.0451219379901886
1769659404999476700,7.253476806640625,0.02142619527876377,0.01854092814028263,-0.04012931138277054
1769659405009464600,7.263464599609375,0.014140852726995945,0.007712780963629484,-0.031136879697442055
1769659405019452700,7.27345263671875,0.004119643941521645,-0.007761516608297825,-0.018274344503879547
1769659405029440800,7.283440673828125,0.00002103897168126423,-0.019168367609381676,-0.01014105137437582
1769659405039429600,7.2934296875,0.0006205165409483016,-0.015019962564110756,-0.007846738211810589
1769659405049417500,7.30341748046875,0.006719687953591347,0.00375985074788332,-0.023514647036790848
1769659405059405600,7.313405517578125,0.014729411341249943,0.007209975738078356,-0.03840278089046478
1769659405069393700,7.3233935546875,0.021564148366451263,0.019167834892868996,-0.04502926021814346
1769659405079381500,7.333381591796875,0.025563150644302368,0.04621436819434166,-0.05277266725897789
1769659405089369600,7.34336962890625,0.025380723178386688,0.07448621839284897,-0.060629259794950485
1769659405099357700,7.353357666015625,0.017793910577893257,0.07465746253728867,-0.06437020003795624
1769659405109346600,7.3633466796875,0.008144212886691093,0.09089715033769608,-0.058930959552526474
1769659405119334400,7.37333447265625,0.016818394884467125,0.13284672796726227,-0.060318466275930405
1769659405129322500,7.383322509765625,0.02183419279754162,0.16993018984794617,-0.07634323835372925
1769659405139310600,7.393310546875,0.02895362116396427,0.16915041208267212,-0.10440576821565628
1769659405149298700,7.403298583984375,0.019237609580159187,0.14986006915569305,-0.1252165138721466
1769659405159286500,7.41328662109375,0.0018442390719428658,0.1351540982723236,-0.12647618353366852
1769659405169274600,7.423274658203125,-0.02063070982694626,0.11412763595581055,-0.11621022969484329
1769659405179262700,7.4332626953125,-0.032821863889694214,0.08853679150342941,-0.08836155384778976
1769659405189251600,7.44325146484375,-0.030609574168920517,0.08280540257692337,-0.058582086116075516
1769659405199239400,7.453239501953125,-0.03790370747447014,0.057432930916547775,-0.04187341406941414
1769659405209227500,7.4632275390625,-0.03737906366586685,0.07158736884593964,-0.04171761870384216
1769659405219215600,7.473215576171875,-0.02286163903772831,0.10660367459058762,-0.05603610351681709
1769659405229203500,7.483203369140625,-0.002436259761452675,0.10037267953157425,-0.06482506543397903
1769659405239191600,7.493191650390625,0.016762468963861465,0.07826923578977585,-0.07154342532157898
1769659405249179600,7.5031796875,0.040946900844573975,0.10688916593790054,-0.08031827211380005
1769659405259167700,7.513167724609375,0.05073348432779312,0.12550386786460876,-0.07187552005052567
1769659405269156400,7.52315625,0.045592520385980606,0.13677968084812164,-0.07100546360015869
1769659405279144400,7.53314453125,0.03854819014668465,0.15156050026416779,-0.07394266873598099
1769659405289132500,7.543132568359375,0.03231745958328247,0.13478204607963562,-0.0762670710682869
1769659405299120600,7.55312060546875,0.02888863906264305,0.12241432815790176,-0.06636091321706772
1769659405309108500,7.5631083984375,0.006188920233398676,0.10071169584989548,-0.06474065035581589
1769659405319096600,7.5730966796875,-0.007507983595132828,0.08334841579198837,-0.0622607097029686
1769659405329084700,7.583084716796875,-0.020314060151576996,0.06883712112903595,-0.051113784313201904
1769659405339073500,7.593073486328125,-0.028197549283504486,0.04637282341718674,-0.03917616605758667
1769659405349061400,7.603061279296875,-0.035585690289735794,0.026449184864759445,-0.03304610028862953
1769659405359049500,7.613049560546875,-0.04200870171189308,0.011493404395878315,-0.016444753855466843
1769659405369037600,7.62303759765625,-0.0374339260160923,-0.006061621010303497,-0.008388690650463104
1769659405379025400,7.633025390625,-0.031556326895952225,-0.015734488144516945,-0.0029760824982076883
1769659405389013500,7.643013427734375,-0.02394075319170952,-0.001199221471324563,0.012496616691350937
1769659405399001600,7.653001708984375,-0.014595188200473785,0.022792929783463478,0.017733456566929817
1769659405408989700,7.66298974609375,0.004282096866518259,0.047331295907497406,0.010500045493245125
1769659405418978600,7.672978515625,0.01871749572455883,0.047135818749666214,-0.002811499172821641
1769659405428966400,7.68296630859375,0.02581535093486309,0.041192974895238876,-0.004600610584020615
1769659405438954500,7.69295458984375,0.02538498491048813,0.033791784197092056,0.010193781927227974
1769659405448942600,7.702942626953125,0.02413835935294628,0.023974042385816574,0.019589679315686226
1769659405458930400,7.712930419921875,0.031744346022605896,0.033239446580410004,0.025848641991615295
1769659405468918500,7.72291845703125,0.04013117402791977,0.05547710880637169,0.019931362941861153
1769659405478906600,7.73290673828125,0.050104446709156036,0.06911089271306992,0.008359928615391254
1769659405488894500,7.74289453125,0.06035841628909111,0.06268921494483948,-0.004974252078682184
1769659405498883600,7.752883544921875,0.06299681216478348,0.050036534667015076,-0.014563229866325855
1769659405508871700,7.76287158203125,0.05905160307884216,0.05224322900176048,-0.020146546885371208
1769659405518859500,7.772859619140625,0.06137361377477646,0.07191280275583267,-0.02853204309940338
1769659405528847400,7.782847412109375,0.05818687379360199,0.07093649357557297,-0.03779930993914604
1769659405538835500,7.79283544921875,0.05084693431854248,0.04116900637745857,-0.05771016702055931
1769659405548823600,7.802823486328125,0.0403122678399086,0.0079146483913064,-0.07383028417825699
1769659405558811600,7.812811767578125,0.026746392250061035,0.006224073935300112,-0.06675665825605392
1769659405568800500,7.822800537109375,0.013528858311474323,0.020906347781419754,-0.04351605102419853
1769659405578788600,7.83278857421875,0.006691991351544857,0.02810487151145935,-0.028434570878744125
1769659405588776700,7.842776611328125,0.0068051754496991634,0.0371263287961483,-0.025479527190327644
1769659405598764500,7.8527646484375,0.006824616342782974,0.05323978513479233,-0.03051210194826126
1769659405608752400,7.86275244140625,0.006601976230740547,0.05842522531747818,-0.03261546790599823
1769659405618740500,7.872740478515625,0.021807027980685234,0.06969679147005081,-0.029768016189336777
1769659405628728600,7.882728515625,0.030778951942920685,0.07381536811590195,-0.02275511436164379
1769659405638716400,7.89271630859375,0.03211425989866257,0.059414323419332504,-0.030182402580976486
1769659405648705500,7.90270556640625,0.03563229739665985,0.03284157067537308,-0.04381432756781578
1769659405658693600,7.912693603515625,0.0423157662153244,0.01605806313455105,-0.03714577108621597
1769659405668681700,7.922681640625,0.05056330934166908,0.013815414160490036,-0.018275143578648567
1769659405678669600,7.932669677734375,0.06727011501789093,0.0276247039437294,-0.008378570899367332
1769659405688657400,7.942657470703125,0.07982984930276871,0.0586039237678051,-0.009248092770576477
1769659405698645500,7.9526455078125,0.0846155509352684,0.09035253524780273,-0.011552260257303715
1769659405708632800,7.9626328125,0.08723876625299454,0.13399775326251984,-0.007779892534017563
1769659405718620700,7.97262060546875,0.09377043694257736,0.18420100212097168,-0.0028128307312726974
1769659405728609800,7.98260986328125,0.0930660292506218,0.20188118517398834,-0.014874020591378212
1769659405738598000,7.992597900390625,0.07929002493619919,0.17885124683380127,-0.028388498350977898
1769659405748585700,8.002585693359375,0.06502427160739899,0.14223170280456543,-0.040648628026247025
1769659405758573800,8.01257373046875,0.0530533641576767,0.10463958978652954,-0.064732126891613
1769659405768562000,8.02256201171875,0.04782318323850632,0.07720717042684555,-0.08914238959550858
1769659405778549800,8.0325498046875,0.03369111940264702,0.049742523580789566,-0.09010405838489532
1769659405788537900,8.042537841796875,0.019605392590165138,0.019335880875587463,-0.0721178725361824
1769659405798526700,8.052526611328124,0.004399542231112719,-0.0014077469240874052,-0.04988127201795578
1769659405808514800,8.062514892578125,-0.011699000373482704,-0.015109444037079811,-0.03314357250928879
1769659405818502700,8.072502685546874,-0.025525333359837532,-0.030851656571030617,-0.022176941856741905
1769659405828490800,8.08249072265625,-0.0413501039147377,-0.031618911772966385,-0.017655160278081894
1769659405838478800,8.092478759765624,-0.0462881363928318,0.0010133327450603247,-0.019452260807156563
1769659405848467000,8.102467041015625,-0.042744267731904984,0.03457821533083916,-0.03430311381816864
1769659405858454800,8.112454833984375,-0.04432538524270058,0.04573499783873558,-0.056470733135938644
1769659405868443000,8.12244287109375,-0.046170689165592194,0.035895150154829025,-0.0819084495306015
1769659405878431700,8.132431640625,-0.050164900720119476,0.024414530023932457,-0.09677287936210632
1769659405888419800,8.142419921875,-0.06281890720129013,0.015604792162775993,-0.08679135143756866
1769659405898407700,8.15240771484375,-0.08012812584638596,0.004199805203825235,-0.0633573979139328
1769659405908395800,8.162395751953126,-0.10063233226537704,-0.02846226841211319,-0.03315369039773941
1769659405918383900,8.1723837890625,-0.10852967202663422,-0.05814133211970329,-0.007991347461938858
1769659405928371700,8.182371826171876,-0.11228073388338089,-0.07177378982305527,0.017969412729144096
1769659405938359800,8.19235986328125,-0.11057870835065842,-0.056404951959848404,0.0443301796913147
1769659405948348000,8.202347900390626,-0.1066417545080185,-0.017666611820459366,0.06196616590023041
1769659405958336800,8.212336669921875,-0.09194563329219818,0.0370514951646328,0.05245574936270714
1769659405968324600,8.22232470703125,-0.07994303852319717,0.07898802310228348,0.02027837373316288
1769659405978312700,8.232312744140625,-0.06323809176683426,0.09970315545797348,-0.007131945341825485
1769659405988300800,8.24230078125,-0.05686088651418686,0.11448050290346146,-0.017257817089557648
1769659405998289000,8.252288818359375,-0.0555596649646759,0.11767816543579102,-0.009906427003443241
1769659406008276700,8.26227685546875,-0.05257372930645943,0.11204451322555542,0.004066114313900471
1769659406018264800,8.272264892578125,-0.044918205589056015,0.1067512109875679,0.021225392818450928
1769659406028253700,8.282253662109374,-0.03351029008626938,0.11018376052379608,0.027640415355563164
1769659406038241800,8.29224169921875,-0.024577248841524124,0.10519246757030487,0.021501297131180763
1769659406048229600,8.302229736328124,-0.021501563489437103,0.08634660392999649,0.016873788088560104
1769659406058217700,8.3122177734375,-0.03506557643413544,0.07068987935781479,0.018137991428375244
1769659406068205800,8.322205810546874,-0.053109556436538696,0.05302060768008232,0.010157030075788498
1769659406078193700,8.332193603515625,-0.07140174508094788,0.03014991246163845,-0.005327120888978243
1769659406088181800,8.342181640625,-0.08551197499036789,0.015334481373429298,-0.02057291939854622
1769659406098169900,8.352169921875,-0.10146643966436386,-0.020915934816002846,-0.02737489901483059
1769659406108158700,8.36215869140625,-0.11714340001344681,-0.06568153947591782,-0.04247156158089638
1769659406118146600,8.372146484375,-0.1341247856616974,-0.12630094587802887,-0.045656967908144
1769659406128134700,8.382134765625,-0.14735350012779236,-0.15366758406162262,-0.04332457110285759
1769659406138122800,8.392122802734375,-0.15566788613796234,-0.1547112762928009,-0.026689933612942696
1769659406148110800,8.40211083984375,-0.1401435285806656,-0.14792661368846893,-0.002213885774835944
1769659406158098700,8.4120986328125,-0.1160011738538742,-0.12376508116722107,0.019352659583091736
1769659406168086800,8.422086669921875,-0.08647310733795166,-0.08141522854566574,0.034400053322315216
1769659406178076000,8.432075927734376,-0.05850831791758537,-0.03822435066103935,0.04158312827348709
1769659406188063700,8.442063720703125,-0.03189587965607643,0.004573446698486805,0.0414678156375885
1769659406198051600,8.452051513671876,-0.011750132776796818,0.0355454757809639,0.04208194091916084
1769659406208039700,8.462039794921875,0.0007640608819201589,0.04928366094827652,0.0397290363907814
1769659406218027800,8.47202783203125,0.010205233469605446,0.05366189777851105,0.026333069428801537
1769659406228015600,8.482015625,0.01261219847947359,0.05383739992976189,0.0031427964568138123
1769659406238003700,8.492003662109376,0.004736698232591152,0.04674060642719269,-0.01961657777428627
1769659406247991800,8.50199169921875,-0.011268367059528828,0.02376498468220234,-0.032280974090099335
1769659406257981000,8.51198095703125,-0.035719648003578186,-0.0015656723408028483,-0.03117389790713787
1769659406267968800,8.52196875,-0.04133252426981926,-0.015955530107021332,-0.022110361605882645
1769659406277956600,8.53195654296875,-0.03863847255706787,-0.03008599765598774,-0.006615824531763792
1769659406287944700,8.54194482421875,-0.035345207899808884,-0.02340066432952881,0.009109875187277794
1769659406297932800,8.551932861328124,-0.03044259361922741,0.007383880205452442,0.00935967918485403
1769659406307920600,8.561920654296875,-0.022973492741584778,0.03158056363463402,-0.00640676636248827
1769659406317908700,8.57190869140625,-0.013792244717478752,0.03256646543741226,-0.023366309702396393
1769659406327897900,8.58189794921875,-0.0030977888964116573,0.015055381692945957,-0.03942969813942909
1769659406337886000,8.591885986328125,0.006096508353948593,0.0060208747163414955,-0.04701331630349159
1769659406347873800,8.601873779296875,0.0027896612882614136,0.020200610160827637,-0.05116065591573715
1769659406357861600,8.611861572265624,-0.0018823222490027547,0.013696637004613876,-0.051845621317625046
1769659406367849700,8.621849609375,-0.003990214318037033,0.00891040451824665,-0.054366834461688995
1769659406377837600,8.631837646484374,-0.009667540900409222,0.01050430629402399,-0.05783427134156227
1769659406387825700,8.64182568359375,-0.01161804050207138,0.022225942462682724,-0.05994589254260063
1769659406397813800,8.651813720703124,-0.016882045194506645,0.045394912362098694,-0.06622935086488724
1769659406407803000,8.661802978515626,-0.028500083833932877,0.0799986943602562,-0.06530550122261047
1769659406417791000,8.671791015625,-0.03566904738545418,0.10273436456918716,-0.0551612563431263
1769659406427778800,8.68177880859375,-0.03798839449882507,0.11258779466152191,-0.032155804336071014
1769659406437767000,8.691766845703125,-0.038544461131095886,0.11706004291772842,-0.0073388731107115746
1769659406447754800,8.701754638671876,-0.04176182672381401,0.1181066632270813,0.013974671252071857
1769659406457742600,8.71174267578125,-0.04237328842282295,0.11980443447828293,0.02388722263276577
1769659406467730700,8.721730712890626,-0.036185700446367264,0.1213727667927742,0.028960278257727623
1769659406477719800,8.7317197265625,-0.028726985678076744,0.11485201865434647,0.02161022089421749
1769659406487708000,8.7417080078125,-0.02485661394894123,0.09407483041286469,-0.00430286955088377
1769659406497695700,8.75169580078125,-0.03182131424546242,0.05938928946852684,-0.02852991223335266
1769659406507683800,8.761683837890626,-0.04286517575383186,0.019451728090643883,-0.048104412853717804
1769659406517672000,8.771671875,-0.052566006779670715,-0.005029646214097738,-0.05842762440443039
1769659406527659800,8.78165966796875,-0.05257266387343407,-0.014229802414774895,-0.050405651330947876
1769659406537647600,8.791647705078125,-0.04308462142944336,0.005169728305190802,-0.04819655790925026
1769659406547635700,8.8016357421875,-0.021166803315281868,0.0504666343331337,-0.049808569252491
1769659406557624800,8.811624755859375,0.001427720650099218,0.08851947635412216,-0.0534517727792263
1769659406567613000,8.821613037109374,0.020717529579997063,0.12119007110595703,-0.05853281915187836
1769659406577600800,8.831600830078125,0.027769578620791435,0.14322933554649353,-0.055691756308078766
1769659406587588900,8.8415888671875,0.02383182942867279,0.14010384678840637,-0.04463937506079674
1769659406597577000,8.851576904296875,0.00657561095431447,0.12014584988355637,-0.03973010182380676
1769659406607564800,8.861564697265624,-0.009282448329031467,0.09185082465410233,-0.049018409103155136
1769659406617552600,8.871552734375,-0.022067751735448837,0.05986786261200905,-0.05486138537526131
1769659406627541800,8.881541748046875,-0.03648131340742111,0.05253538116812706,-0.05614396184682846
1769659406637529900,8.89152978515625,-0.05577830970287323,0.0306929312646389,-0.045512355864048004
1769659406647517700,8.901517578125,-0.07652326673269272,-0.009586581028997898,-0.0394589938223362
1769659406657505800,8.911505859375,-0.09280503541231155,-0.03254968672990799,-0.042505647987127304
1769659406667494000,8.921493896484375,-0.10654029250144958,-0.05482516437768936,-0.05191433057188988
1769659406677482000,8.93148193359375,-0.11275824159383774,-0.06280266493558884,-0.0551852248609066
1769659406687469800,8.9414697265625,-0.11051692068576813,-0.05194069445133209,-0.04947460815310478
1769659406697457700,8.951457763671876,-0.10066135972738266,-0.05107277259230614,-0.030548853799700737
1769659406707447300,8.961447265625,-0.08620385825634003,-0.054002247750759125,-0.025230521336197853
1769659406717435400,8.971435302734376,-0.06840675324201584,-0.04663461446762085,-0.01691320352256298
1769659406727423200,8.98142333984375,-0.047333694994449615,-0.01679815538227558,-0.0016559535870328546
1769659406737411300,8.991411376953126,-0.031568046659231186,0.019363045692443848,0.012923521921038628
1769659406747399400,9.0013994140625,-0.022586535662412643,0.04117007181048393,0.01938168704509735
1769659406757387300,9.01138720703125,-0.02015080861747265,0.028987709432840347,0.011403122916817665
1769659406767375000,9.021375,-0.02124669961631298,0.01494965422898531,0.001954760169610381
1769659406777364200,9.0313642578125,-0.023449664935469627,0.014194382354617119,0.009046758525073528
1769659406787352300,9.041352294921875,-0.023897342383861542,0.00872131995856762,0.02883191406726837
1769659406797340200,9.051340087890624,-0.02225363999605179,-0.007254450581967831,0.03597451373934746
1769659406807328300,9.061328369140625,-0.017257550731301308,0.004268248099833727,0.038902390748262405
1769659406817316400,9.07131640625,-0.00654525076970458,0.029341643676161766,0.041972748935222626
1769659406827304400,9.081304443359375,0.005203816574066877,0.04519038274884224,0.03515079617500305
1769659406837292300,9.091292236328124,0.0121852932497859,0.04481647163629532,0.03283650800585747
1769659406847280400,9.1012802734375,0.014677479863166809,0.030882548540830612,0.034446656703948975
1769659406857269200,9.111269287109375,0.017401626333594322,0.02966548316180706,0.0378299355506897
1769659406867257300,9.12125732421875,0.021763352677226067,0.039190810173749924,0.0406867079436779
1769659406877245200,9.1312451171875,0.026510968804359436,0.05860259383916855,0.044432979077100754
1769659406887233300,9.1412333984375,0.03241892531514168,0.07483775913715363,0.05158143490552902
1769659406897221400,9.151221435546875,0.03773859143257141,0.08459611237049103,0.05661747232079506
1769659406907209200,9.161209228515625,0.04306970536708832,0.08670426905155182,0.052206747233867645
1769659406917197300,9.171197265625,0.04416852816939354,0.08058911561965942,0.048528920859098434
1769659406927186200,9.181186279296876,0.046001315116882324,0.07437862455844879,0.045097969472408295
1769659406937174300,9.19117431640625,0.04351099207997322,0.07232826203107834,0.04519304260611534
1769659406947162400,9.201162353515626,0.03849945589900017,0.07173517346382141,0.045280396938323975
1769659406957150200,9.211150146484375,0.038606248795986176,0.06421227753162384,0.039982303977012634
1769659406967138300,9.22113818359375,0.0385761559009552,0.05844040587544441,0.03080398589372635
1769659406977126400,9.23112646484375,0.039080556482076645,0.05643291398882866,0.025909626856446266
1769659406987114200,9.2411142578125,0.04081933572888374,0.057555437088012695,0.025526398792862892
1769659406997102300,9.251102294921875,0.03759025037288666,0.06258747726678848,0.021472269669175148
1769659407007091200,9.26109130859375,0.030721960589289665,0.050584614276885986,0.015915850177407265
1769659407017079300,9.271079345703125,0.020847758278250694,0.03367353975772858,0.0035478631034493446
1769659407027067100,9.281067138671874,0.016294019296765327,0.02515249140560627,-0.009407083503901958
1769659407037055200,9.29105517578125,0.009757556021213531,0.00011345066013745964,-0.012137356214225292
1769659407047043300,9.301043212890624,0.004508731886744499,0.0024000408593565226,-0.017018664628267288
1769659407057031200,9.31103125,-0.0025398568250238895,0.007184942252933979,-0.02321823686361313
1769659407067019300,9.321019287109374,-0.008590824902057648,0.005315669346600771,-0.022163625806570053
1769659407077008100,9.331008056640625,-0.012455337680876255,0.016345949843525887,-0.01769084669649601
1769659407086996200,9.340996337890624,-0.01733904331922531,0.02491653524339199,-0.009759952314198017
1769659407096984300,9.350984375,-0.022832345217466354,0.025944780558347702,-0.0046730488538742065
1769659407106972200,9.36097216796875,-0.030527016147971153,0.01366308145225048,-0.0070555126294493675
1769659407116960300,9.370960205078125,-0.034570761024951935,0.0012953615514561534,-0.015105449594557285
1769659407126948400,9.3809482421875,-0.0330335833132267,0.0054757255129516125,-0.02725612185895443
1769659407136936200,9.390936279296875,-0.02972221001982689,-0.0009962886106222868,-0.031244205310940742
1769659407146924300,9.40092431640625,-0.0315462090075016,-0.005441104527562857,-0.03476756811141968
1769659407156913400,9.410913330078126,-0.033432524651288986,-0.0051782503724098206,-0.04044888913631439
1769659407166901200,9.4209013671875,-0.03182770311832428,-0.007137005217373371,-0.04529824107885361
1769659407176889000,9.43088916015625,-0.031190942972898483,-0.008325307630002499,-0.04791133105754852
1769659407186877200,9.440877197265625,-0.031079355627298355,-0.006935670506209135,-0.04620451480150223
1769659407196865300,9.450865234375,-0.04078231751918793,-0.025894980877637863,-0.04689826816320419
1769659407206853400,9.460853271484375,-0.05062349513173103,-0.05204855278134346,-0.05356442555785179
1769659407216841200,9.47084130859375,-0.0620332770049572,-0.0738060474395752,-0.06407245993614197
1769659407226830300,9.480830322265625,-0.07377355545759201,-0.0963321253657341,-0.07731236517429352
1769659407236818400,9.490818359375,-0.08057473599910736,-0.10940079391002655,-0.08810003101825714
1769659407246806300,9.50080615234375,-0.08742491900920868,-0.11053530126810074,-0.08515031635761261
1769659407256794000,9.510794189453126,-0.09322022646665573,-0.10748731344938278,-0.08167675137519836
1769659407266782200,9.5207822265625,-0.09492065012454987,-0.1088002473115921,-0.07952412217855453
1769659407276770300,9.530770263671876,-0.09009793400764465,-0.10281240195035934,-0.08342085778713226
1769659407286758100,9.540758056640625,-0.08981750160455704,-0.1029823049902916,-0.08784303814172745
1769659407296746200,9.550746337890626,-0.09103137254714966,-0.1097126454114914,-0.09419654309749603
1769659407306735400,9.5607353515625,-0.09925708174705505,-0.10470297932624817,-0.11828695982694626
1769659407316723500,9.570723388671874,-0.08835382759571075,-0.09805146604776382,-0.1210731640458107
1769659407326711300,9.580711181640625,-0.08585019409656525,-0.13241156935691833,-0.093424491584301
1769659407336699100,9.59069921875,-0.08439850062131882,-0.13433091342449188,-0.08318915963172913
1769659407346687200,9.600687255859375,-0.07963011413812637,-0.1246228888630867,-0.06905204057693481
1769659407356675300,9.61067529296875,-0.07211467623710632,-0.10332611948251724,-0.05670349299907684
1769659407366663200,9.6206630859375,-0.06345220655202866,-0.08422966301441193,-0.05323419347405434
1769659407376652300,9.63065234375,-0.05293911322951317,-0.060507550835609436,-0.05114627629518509
1769659407386640400,9.640640380859375,-0.04392724484205246,-0.03616652637720108,-0.04469636455178261
1769659407396628500,9.65062841796875,-0.03702113404870033,-0.024512533098459244,-0.0329185351729393
1769659407406616300,9.6606162109375,-0.03166152164340019,-0.018501779064536095,-0.03182397410273552
1769659407416604200,9.670604248046875,-0.02773682214319706,-0.005608617328107357,-0.029453495517373085
1769659407426592300,9.68059228515625,-0.019052786752581596,0.012457202188670635,-0.029457757249474525
1769659407436580000,9.690580078125,-0.013626595959067345,0.02539670281112194,-0.019896741956472397
1769659407446569200,9.7005693359375,-0.007395864464342594,0.03526797518134117,-0.006030728109180927
1769659407456557300,9.710557373046875,-0.00498037738725543,0.038548458367586136,0.006479737348854542
1769659407466545400,9.72054541015625,-0.005064799915999174,0.03960466757416725,0.010231331922113895
1769659407476533200,9.730533203125,-0.0051566786132752895,0.03898734599351883,0.013170663267374039
1769659407486521300,9.740521240234376,-0.006294913589954376,0.029444441199302673,0.013787717558443546
1769659407496509400,9.750509521484375,-0.012173841707408428,0.01992364041507244,0.012624981813132763
1769659407506497300,9.760497314453126,-0.01751108281314373,0.016411198303103447,0.016274310648441315
1769659407516485000,9.770485107421875,-0.026390062645077705,0.009400425478816032,0.015731025487184525
1769659407526474200,9.78047412109375,-0.034152645617723465,0.005543369799852371,0.02527979016304016
1769659407536462300,9.79046240234375,-0.04031439870595932,0.0013427657540887594,0.03269056975841522
1769659407546450400,9.800450439453124,-0.04222841188311577,-0.008501076139509678,0.04398290440440178
1769659407556438300,9.810438232421875,-0.04306944087147713,-0.011626828461885452,0.046844203025102615
1769659407566426400,9.82042626953125,-0.03985900059342384,-0.014212491922080517,0.04139005020260811
1769659407576414500,9.83041455078125,-0.035589683800935745,-0.01595419831573963,0.03074539639055729
1769659407586402300,9.84040234375,-0.027511518448591232,-0.013146961107850075,0.020144416019320488
1769659407596391200,9.85039111328125,-0.020615529268980026,-0.009319465607404709,0.005804625805467367
1769659407606379300,9.860379150390624,-0.013543505221605301,-0.004495682194828987,-0.006755907088518143
1769659407616367400,9.870367431640625,-0.003968109842389822,-0.0004111920716241002,-0.00899882148951292
1769659407626355200,9.880355224609374,0.0004876247840002179,0.008894957602024078,-0.0118529312312603
1769659407636343300,9.89034326171875,0.0038368161767721176,0.021637916564941406,-0.013221262954175472
1769659407646331400,9.900331298828124,0.00481393001973629,0.03044099546968937,-0.011327222920954227
1769659407656319500,9.910319580078125,0.004248008131980896,0.04088085517287254,-0.01227530837059021
1769659407666307300,9.920307373046874,0.0015699334908276796,0.05318279564380646,-0.01239275373518467
1769659407676296200,9.930296142578126,-0.0017294568242505193,0.03423014283180237,-0.011127752251923084
1769659407686284300,9.9402841796875,-0.0016591493040323257,0.03183729201555252,-0.01002280693501234
1769659407696272400,9.9502724609375,-0.0005491438205353916,0.031259916722774506,-0.012448147870600224
1769659407706261800,9.96026171875,-0.0015033544041216373,0.027393274009227753,-0.014533136039972305
1769659407716249600,9.97024951171875,-0.004023237619549036,0.019788619130849838,-0.011382617056369781
1769659407726237400,9.980237548828125,-0.012003665789961815,0.006147108506411314,-0.0015140071045607328
1769659407736225500,9.9902255859375,-0.01624022237956524,-0.008669388480484486,0.005976932588964701
1769659407746214700,10.000214599609375,-0.020169716328382492,-0.020866399630904198,0.010771687142550945
1769659407756202800,10.01020263671875,-0.0200464129447937,-0.02388935349881649,0.01071150042116642
1769659407766190800,10.02019091796875,-0.0180549006909132,-0.017825068905949593,0.008038751780986786
1769659407776178700,10.0301787109375,-0.0177579578012228,-0.014668957330286503,0.0018066884949803352
1769659407786166800,10.040166748046875,-0.01781867817044258,-0.01555152889341116,-0.0027348001021891832
1769659407796154600,10.050154541015624,-0.021316207945346832,-0.021152690052986145,-0.007348992861807346
1769659407806142500,10.060142578125,-0.020788369700312614,-0.02562999539077282,-0.00433189794421196
1769659407816131600,10.070131591796875,-0.021139374002814293,-0.022184398025274277,0.001704955706372857
1769659407826119700,10.08011962890625,-0.022102372720837593,-0.0201052688062191,0.006867227144539356
1769659407836107800,10.090107666015625,-0.02197161130607128,-0.009911220520734787,0.017118532210588455
1769659407846095600,10.100095703125,-0.0228579118847847,-0.003772101365029812,0.02478311024606228
1769659407856083700,10.110083740234375,-0.022661635652184486,-0.007842210121452808,0.025596706196665764
1769659407866071800,10.12007177734375,-0.02281157299876213,-0.01750442571938038,0.02209465019404888
1769659407876059600,10.1300595703125,-0.02232847549021244,-0.02395327016711235,0.01341940276324749
1769659407886048500,10.140048583984376,-0.019770508632063866,-0.025922410190105438,0.011578358709812164
1769659407896036600,10.15003662109375,-0.018101505935192108,-0.01703837141394615,0.011208179406821728
1769659407906024700,10.160024658203126,-0.01925119198858738,-0.012003399431705475,0.012055064551532269
1769659407916012800,10.1700126953125,-0.019242137670516968,-0.014809039421379566,0.01085930597037077
1769659407926000600,10.180000732421876,-0.02009062096476555,-0.01931963488459587,0.008987103588879108
1769659407935988700,10.18998876953125,-0.023073893040418625,-0.022525282576680183,0.006310093682259321
1769659407945976800,10.199976806640626,-0.02568565495312214,-0.01774197816848755,0.0029465213883668184
1769659407955964700,10.209964599609375,-0.02701111137866974,-0.011437743902206421,0.004259459674358368
1769659407965953500,10.21995361328125,-0.029280390590429306,-0.009582852013409138,0.007774566300213337
1769659407975941600,10.229941650390625,-0.031078290194272995,-0.009947705082595348,0.009843043051660061
1769659407985929700,10.2399296875,-0.029077457264065742,-0.012317386455833912,0.004196609370410442
1769659407995917600,10.24991748046875,-0.026802852749824524,-0.012317919172346592,-0.0026471822056919336
1769659408005905700,10.25990576171875,-0.018675150349736214,-0.004232828039675951,-0.012369051575660706
1769659408015893800,10.269893798828125,-0.012327772565186024,0.002567820018157363,-0.019300194457173347
1769659408025881900,10.2798818359375,-0.0070824106223881245,0.0054363105446100235,-0.019412580877542496
1769659408035870500,10.289870361328125,-0.005939381662756205,0.001320927869528532,-0.01786954514682293
1769659408045858600,10.299858642578124,-0.005889314226806164,-0.0051843756809830666,-0.01637231558561325
1769659408055846700,10.3098466796875,-0.0038360171020030975,-0.009973804466426373,-0.018582738935947418
1769659408065834800,10.319834716796874,-0.005989182740449905,-0.0114590497687459,-0.01702026277780533
1769659408075822600,10.329822509765625,-0.007102650590240955,-0.010647051967680454,-0.016041284427046776
1769659408085810700,10.339810791015625,-0.007319165393710136,-0.005613410845398903,-0.014485465362668037
1769659408095798800,10.349798828125,-0.007515440694987774,-0.003982757218182087,-0.020720457658171654
1769659408105787600,10.35978759765625,-0.010519219562411308,-0.01441276166588068,-0.024113325402140617
1769659408115775500,10.369775390625,-0.011721370741724968,-0.027221234515309334,-0.02299399860203266
1769659408125763600,10.379763671875,-0.011907791718840599,-0.034378744661808014,-0.02311890199780464
1769659408135751700,10.389751708984376,-0.010565558448433876,-0.03196246176958084,-0.023506391793489456
1769659408145739500,10.399739501953125,-0.01184840314090252,-0.02864336222410202,-0.02160516008734703
1769659408155727600,10.4097275390625,-0.0060179452411830425,-0.021920477971434593,-0.02177560329437256
1769659408165715700,10.4197158203125,-0.002959837205708027,-0.016814399510622025,-0.02382623590528965
1769659408175703800,10.429703857421876,0.0001656486128922552,-0.01798246242105961,-0.024504544213414192
1769659408185692700,10.439692626953125,0.0006514092092402279,-0.02094442956149578,-0.02978399395942688
1769659408195680500,10.449680419921876,0.0006085322820581496,-0.017786987125873566,-0.03281334042549133
1769659408205668600,10.459668701171875,-0.0013187973527237773,-0.011564777232706547,-0.036020852625370026
1769659408215656700,10.46965673828125,-0.006342317909002304,-0.009314139373600483,-0.036603283137083054
1769659408225644500,10.47964453125,-0.010704842396080494,-0.024160996079444885,-0.035466913133859634
1769659408235632600,10.489632568359376,-0.013341105543076992,-0.0261855311691761,-0.0275043286383152
1769659408245620700,10.499620849609375,-0.013977867551147938,-0.019237875938415527,-0.02130874991416931
1769659408255609900,10.50960986328125,-0.016354471445083618,-0.015175756998360157,-0.014990135096013546
1769659408265597700,10.51959765625,-0.01227291114628315,-0.00595615990459919,-0.013951501809060574
1769659408275585500,10.52958544921875,-0.012632171623408794,0.0035454663448035717,-0.013129650615155697
1769659408285573600,10.53957373046875,-0.011837484315037727,0.012405270710587502,-0.011864382773637772
1769659408295561500,10.5495615234375,-0.009016131982207298,0.016525713726878166,-0.015235944651067257
1769659408305549600,10.559549560546875,-0.0018492990639060736,0.020773988217115402,-0.015115569345653057
1769659408315537700,10.56953759765625,0.005169461946934462,0.033300697803497314,-0.013576262630522251
1769659408325525800,10.57952587890625,0.012251339852809906,0.04584471881389618,-0.011384746991097927
1769659408335514600,10.5895146484375,0.017404822632670403,0.05006689578294754,-0.007935155183076859
1769659408345502700,10.599502685546875,0.01678697019815445,0.04916488379240036,-0.008684834465384483
1769659408355490600,10.609490478515625,0.01443886011838913,0.0421285443007946,-0.009016131982207298
1769659408365478700,10.619478759765625,0.01213016640394926,0.03959215059876442,-0.010952516458928585
1769659408375466500,10.629466552734375,0.010010556317865849,0.03447062522172928,-0.014481204561889172
1769659408385454600,10.63945458984375,0.009802563115954399,0.030163228511810303,-0.021854698657989502
1769659408395442700,10.649442626953125,0.011746404692530632,0.026205237954854965,-0.01968049444258213
1769659408405431800,10.659431884765626,0.00777536490932107,0.011898204684257507,-0.015343536622822285
1769659408415419600,10.669419677734375,0.0023555660154670477,0.004069310147315264,-0.019651465117931366
1769659408425407700,10.67940771484375,-0.0059966398403048515,-0.0026969832833856344,-0.022225411608815193
1769659408435395800,10.689395751953125,-0.01013838779181242,-0.010260360315442085,-0.01745116151869297
1769659408445383400,10.699383544921876,-0.012193016707897186,-0.012915532104671001,-0.010416155681014061
1769659408455371500,10.70937158203125,-0.010970093309879303,-0.009500826708972454,-0.009905095212161541
1769659408465359600,10.719359619140626,-0.00863476749509573,-0.003397927153855562,-0.007715976797044277
1769659408475348700,10.7293486328125,-0.0025835325941443443,0.0051654670387506485,-0.007222226355224848
1769659408485336600,10.739336669921874,0.0046631949953734875,0.010468353517353535,-0.0021022993605583906
1769659408495324700,10.74932470703125,0.00954077485948801,0.019642943516373634,-0.005372661165893078
1769659408505312800,10.759312744140624,0.019747605547308922,0.02822631224989891,-0.005587045568972826
1769659408515300900,10.76930078125,0.028381040319800377,0.023012109100818634,-0.02215004339814186
1769659408525288700,10.779288818359374,0.015199192799627781,0.01581438258290291,-0.016232233494520187
1769659408535276500,10.789276611328125,0.010625746101140976,0.006287190597504377,-0.001758218975737691
1769659408545265700,10.799265625,0.01053493283689022,0.011876899749040604,0.0008873652550391853
1769659408555253800,10.809253662109375,0.00920441746711731,0.013777864165604115,-0.001047421246767044
1769659408565241600,10.81924169921875,0.006680539343506098,0.015322763472795486,-0.005136438645422459
1769659408575229700,10.829229736328125,0.00455693481490016,0.008594819344580173,-0.007911984808743
1769659408585217800,10.8392177734375,-0.0014900385867804289,0.00039468047907575965,-0.005906891077756882
1769659408595205600,10.84920556640625,-0.010703244246542454,-0.009404420852661133,-0.00390259618870914
1769659408605193700,10.85919384765625,-0.018228804692626,-0.01690974086523056,0.001112668658606708
1769659408615181600,10.869181640625,-0.026702716946601868,-0.012924587354063988,0.003525492735207081
1769659408625170700,10.879170654296875,-0.031035147607326508,-0.012325641699135303,0.004894357640296221
1769659408635158500,10.889158447265626,-0.030478812754154205,-0.014466024935245514,0.0011078750248998404
1769659408645146600,10.899146728515625,-0.023551132529973984,-0.007992679253220558,-0.004890895448625088
1769659408655134700,10.909134765625,-0.015687350183725357,-0.0009659285424277186,-0.010324010625481606
1769659408665122800,10.919122802734375,-0.008190818130970001,0.013411945663392544,-0.014154435135424137
1769659408675110700,10.929110595703126,-0.00794314406812191,0.011447331868112087,-0.015143266879022121
1769659408685098800,10.9390986328125,-0.012832974083721638,0.0006194512825459242,-0.01629854552447796
1769659408695087600,10.949087646484376,-0.01317971758544445,0.0027206854429095984,-0.011476626619696617
1769659408705074200,10.95907421875,-0.014032994396984577,-0.00046152580762282014,-0.011710984632372856
1769659408715062000,10.96906201171875,-0.014568023383617401,-0.005066930316388607,-0.01836249604821205
1769659408725050000,10.979050048828125,-0.011920841410756111,-0.011385812424123287,-0.020737236365675926
1769659408735038200,10.9890380859375,-0.01187929604202509,-0.016081498935818672,-0.022949790582060814
1769659408745026000,10.999026123046875,-0.011005513370037079,-0.014750449918210506,-0.023801736533641815
1769659408755014100,11.00901416015625,-0.010724815540015697,-0.00743101816624403,-0.017233848571777344
1769659408765003300,11.019003173828125,-0.012094213627278805,-0.004027232062071562,-0.006392918061465025
1769659408774991400,11.028991455078126,-0.01131097786128521,-0.007053648587316275,0.002442385070025921
1769659408784979200,11.038979248046875,-0.009868609718978405,-0.007890946231782436,0.0006729807937517762
1769659408794967300,11.04896728515625,-0.005559348501265049,-0.004709533881396055,0.00048629322554916143
1769659408804955100,11.058955078125,-0.002287655370309949,-0.00512791657820344,-0.0028099012561142445
1769659408814943000,11.06894287109375,0.003304982790723443,-0.002210423583164811,-0.0009779128013178706
1769659408824931000,11.07893115234375,0.006372678093612194,-0.00196408131159842,-0.003948402591049671
1769659408834919200,11.088919189453126,0.00953970942646265,0.008379636332392693,-0.009500028565526009
1769659408844908300,11.098908203125,0.0046384274028241634,-0.0032322786282747984,-0.005684517323970795
1769659408854896400,11.108896484375,-0.00472657848149538,-0.018459435552358627,-0.005798234138637781
1769659408864884200,11.11888427734375,-0.009730657562613487,-0.02442385070025921,-0.012617524713277817
1769659408874872300,11.128872314453124,-0.011343734338879585,-0.026758110150694847,-0.01696007512509823
1769659408884860200,11.138860107421875,-0.012226039543747902,-0.024984445422887802,-0.01925625279545784
1769659408894848000,11.148847900390624,-0.012701679952442646,-0.026028670370578766,-0.019166769459843636
1769659408904836000,11.158836181640625,-0.009795638732612133,-0.02315938100218773,-0.02183685638010502
1769659408914825200,11.1688251953125,-0.011344267055392265,-0.026317091658711433,-0.024871261790394783
1769659408924813300,11.178813232421875,-0.015989085659384727,-0.028497422114014626,-0.027514448389410973
1769659408934801200,11.18880126953125,-0.01877235621213913,-0.025522936135530472,-0.025424933061003685
1769659408944789200,11.198789306640625,-0.021510351449251175,-0.029587453231215477,-0.01332725677639246
1769659408954777300,11.20877734375,-0.025020664557814598,-0.0284713227301836,-0.006229666527360678
1769659408964765200,11.21876513671875,-0.028897162526845932,-0.03225886821746826,-0.007056045345962048
1769659408974753000,11.2287529296875,-0.03521577641367912,-0.0640341117978096,-0.01019484642893076
1769659408984742100,11.2387421875,-0.0037766287568956614,-0.06361279636621475,-0.033553432673215866
1769659408994730200,11.248730224609375,-0.041133053600788116,-0.019633356481790543,-0.04723009467124939
1769659409004718300,11.25871826171875,-0.03563442826271057,-0.03825763985514641,-0.00683047529309988
1769659409014706200,11.2687060546875,-0.029895048588514328,-0.03050171583890915,0.00956687331199646
1769659409024694300,11.2786943359375,-0.019086875021457672,-0.018219484016299248,0.006853112485259771
1769659409034682400,11.288682373046875,-0.014845258556306362,-0.014268684200942516,0.005121791269630194
1769659409044670200,11.298670166015626,-0.011302721686661243,-0.013314739800989628,0.005064267199486494
1769659409054659000,11.3086591796875,-0.009097624570131302,-0.01528894156217575,0.009608418680727482
1769659409064647200,11.318647216796874,-0.012521650642156601,-0.019063172861933708,0.010981544852256775
1769659409074635300,11.32863525390625,-0.015476427972316742,-0.028785042464733124,0.01016661711037159
1769659409084623000,11.338623046875,-0.018814699724316597,-0.032582975924015045,0.007383347954601049
1769659409094611200,11.348611083984375,-0.019587017595767975,-0.03158748894929886,-0.0002665824140422046
1769659409104599300,11.358599365234374,-0.023068301379680634,-0.033246371895074844,-0.0032091091852635145
1769659409114587400,11.36858740234375,-0.026514165103435516,-0.0365939624607563,-0.0031228226143866777
1769659409124576000,11.378575927734374,-0.030546722933650017,-0.037768684327602386,0.0015986956423148513
1769659409134564000,11.388564208984375,-0.0327179990708828,-0.035534292459487915,0.00959723349660635
1769659409144552200,11.39855224609375,-0.028922993689775467,-0.027383953332901,0.01290621142834425
1769659409154540300,11.408540283203125,-0.0227963924407959,-0.022664299234747887,0.014314224012196064
1769659409164528000,11.418528076171874,-0.014333931729197502,-0.018204037100076675,0.005857622716575861
1769659409174516200,11.42851611328125,-0.008271778002381325,-0.010940532200038433,0.0018634138396009803
1769659409184504300,11.43850439453125,-0.00529542937874794,-0.004999019671231508,-0.003063966752961278
1769659409194492200,11.4484921875,-0.002730805426836014,-0.0025917883031070232,-0.0017925737192854285
1769659409204481000,11.45848095703125,-0.0043891556560993195,-0.012369584292173386,0.0013781858142465353
1769659409214469000,11.46846923828125,-0.008463526144623756,-0.018604310229420662,0.002817890839651227
1769659409224457200,11.478457275390625,-0.007987619377672672,-0.017731592059135437,0.005403021350502968
1769659409234445000,11.488445068359376,-0.006384129635989666,-0.012056129984557629,0.012554939836263657
1769659409244433200,11.49843310546875,-0.004172907210886478,0.00024740767548792064,0.016579775139689445
1769659409254421200,11.508421142578126,-0.0046421559527516365,0.00529596209526062,0.014309696853160858
1769659409264409300,11.518409423828125,-0.007662447169423103,0.003096723696216941,0.01302445586770773
1769659409274398200,11.528398193359376,-0.0033755565527826548,0.013450294733047485,0.01321007777005434
1769659409284386000,11.538385986328125,0.00009640643111197278,0.019831495359539986,0.011913917027413845
1769659409294374100,11.5483740234375,0.002127066720277071,0.019626963883638382,0.01062201801687479
1769659409304362200,11.5583623046875,0.004512459971010685,0.01703810505568981,0.008297611027956009
1769659409314350000,11.56835009765625,0.009216668084263802,0.018016550689935684,0.005425924435257912
1769659409324338200,11.578338134765625,0.007607319392263889,0.022654712200164795,0.0041585261933505535
1769659409334326300,11.588326171875,0.009758621454238892,0.02004454843699932,0.004318315535783768
1769659409344315400,11.5983154296875,0.005417402368038893,0.01341380923986435,0.0057220677845180035
1769659409354303200,11.60830322265625,0.0037803570739924908,0.001945705502294004,0.006001699715852737
1769659409364291000,11.618291015625,-0.00033209618413820863,-0.00410499656572938,0.005869340617209673
1769659409374279200,11.628279052734374,-0.00039015308720991015,-0.006738596595823765,0.00350472005084157
1769659409384267000,11.63826708984375,0.001627191435545683,-0.0032951291650533676,0.003213636577129364
1769659409394255000,11.648255126953124,0.004653075244277716,0.003552656853571534,0.007847269997000694
1769659409404243200,11.6582431640625,0.007327421568334103,0.009063802659511566,0.008098140358924866
1769659409414232300,11.668232421875,0.00774740194901824,0.015446334145963192,0.006464024540036917
1769659409424220200,11.67822021484375,0.011124822311103344,0.021505558863282204,0.008329036645591259
1769659409434208300,11.688208251953125,0.009663013741374016,0.01967942900955677,0.012567190453410149
1769659409444196400,11.6981962890625,0.006440322380512953,0.014855112880468369,0.013366671279072762
1769659409454184200,11.70818408203125,0.005116465035825968,0.006703975144773722,0.0079159801825881
1769659409464172000,11.718172119140625,0.002630404196679592,0.003668504301458597,-0.0017536915838718414
1769659409474160000,11.72816015625,0.004487426485866308,0.006107693538069725,-0.007336475886404514
1769659409484149200,11.738149169921876,0.00649784691631794,0.006717823911458254,-0.01164760161191225
1769659409494137300,11.748137451171875,0.006037119776010513,0.004782238509505987,-0.013189838267862797
1769659409504125200,11.758125244140626,0.0052112736739218235,0.0035747610963881016,-0.014355503022670746
1769659409514113300,11.76811328125,0.003724430687725544,-0.000761664065066725,-0.014645787887275219
1769659409524101400,11.778101318359376,0.0030690268613398075,-0.0006886934279464185,-0.015626097097992897
1769659409534089200,11.788089111328125,0.0027947211638092995,-0.00047590688336640596,-0.017307084053754807
1769659409544077000,11.7980771484375,-0.0008839031797833741,-0.0003933488915208727,-0.01678270846605301
1769659409554066200,11.808066162109375,-0.004579305648803711,-0.004759334959089756,-0.01679016463458538
1769659409564054300,11.81805419921875,-0.004779042676091194,-0.004066913388669491,-0.01697339117527008
1769659409574042000,11.8280419921875,-0.001606685109436512,-0.0026517093647271395,-0.01685594581067562
1769659409584030200,11.8380302734375,0.0012721919920295477,-0.0005739112384617329,-0.023425431922078133
1769659409594018300,11.848018310546875,0.004454136826097965,0.007286408916115761,-0.035167042165994644
1769659409604006400,11.85800634765625,0.006249906495213509,0.0012990899849683046,-0.0381588377058506
1769659409613994200,11.867994140625,0.008645686320960522,0.0046445527113974094,-0.04080308973789215
1769659409623983000,11.877983154296874,0.008591623976826668,0.008704542182385921,-0.03610926866531372
1769659409633971200,11.88797119140625,0.008206530474126339,0.003287938656285405,-0.027547471225261688
1769659409643959300,11.897959228515624,0.005937251262366772,-0.000023435817638528533,-0.027301128953695297
1769659409653947100,11.907947021484375,0.006322344299405813,-0.0008367652189917862,-0.03364504501223564
1769659409663935200,11.917935302734374,0.009738913737237453,0.011034541763365269,-0.035840023308992386
1769659409673923300,11.92792333984375,0.016510000452399254,0.015396000817418098,-0.033121466636657715
1769659409683911200,11.9379111328125,0.03009798191487789,0.030951524153351784,-0.053285058587789536
1769659409693900000,11.947900146484375,0.013332316651940346,0.03441469743847847,-0.04286464303731918
1769659409703888100,11.95788818359375,0.01017034612596035,0.020327908918261528,-0.018319884315133095
