time,seconds_elapsed,acc_z,acc_y,acc_x,gyro_z,gyro_y,gyro_x
1.76966E+18,0.067023438,-0.043741015,-0.039500236,-0.042644087,0.015209798,0.014367587,-0.046496887
1.76966E+18,0.077011475,-0.040264279,-0.029604865,-0.053762862,0.019572584,0.014556095,-0.055458002
1.76966E+18,0.086999756,-0.05325462,-0.014453473,-0.06674597,0.024815287,0.017589746,-0.063784264
1.76966E+18,0.096987549,-0.054008507,0.006275427,-0.0594393,0.030181557,0.016979083,-0.077932306
1.76966E+18,0.106976563,-0.06355375,0.012160393,-0.045617257,0.034135293,0.015187886,-0.096054211
1.76966E+18,0.116964844,-0.07337043,0.014964345,-0.016634178,0.03857851,0.013987333,-0.122337475
1.76966E+18,0.126952637,-0.084519746,0.005554712,-0.027789047,0.03955948,0.012049328,-0.14557828
1.76966E+18,0.13694043,-0.106695119,-0.038892917,-0.025424364,0.039082773,0.016322102,-0.162207052
1.76966E+18,0.146928467,-0.10823358,-0.060585694,-0.008577859,0.035543252,0.025158711,-0.178201228
1.76966E+18,0.156916504,-0.034484453,-0.045163668,0.05379881,0.067718498,0.022650545,-0.207763106
1.76966E+18,0.166904785,0.210776401,0.049803019,0.160857794,0.067583077,-0.023636505,-0.257182151
1.76966E+18,0.176892578,0.199970638,-0.036764089,-0.060063716,0.068647012,-0.044244044,-0.294621915
1.76966E+18,0.186880615,-0.07386267,-0.021000118,0.033118864,0.059269045,-0.045655414,-0.306920916
1.76966E+18,0.196869873,-0.092334585,0.004095745,-0.02714885,0.048864339,-0.040898211,-0.322684944
1.76966E+18,0.20685791,-0.088801442,-0.001519757,-0.025325288,0.043854147,-0.025492758,-0.335195333
1.76966E+18,0.216845459,-0.088666125,-0.029363457,-0.089364921,0.04208288,-0.022736918,-0.351256073
1.76966E+18,0.226833496,-0.068745619,-0.036986792,-0.100245358,0.042990781,-0.015637986,-0.367895246
1.76966E+18,0.236821533,-0.137577894,-0.045845805,-0.078275957,0.052343003,0.04816949,-0.373866856
1.76966E+18,0.24680957,-0.069181673,-0.020757541,-0.117218266,0.059109662,0.069065683,-0.388730943
1.76966E+18,0.256797607,-0.165516579,0.023495442,-0.067326546,0.053233664,0.098766856,-0.377571225
1.76966E+18,0.266785645,-0.123151894,-0.00247019,-0.010851941,0.040506139,0.110903241,-0.3614963
1.76966E+18,0.276773682,0.030501521,-0.040426703,0.028883126,0.031160574,0.090018198,-0.345902443
1.76966E+18,0.286762939,0.150480484,-0.105263625,-0.005705957,0.02598042,0.059582204,-0.334965974
1.76966E+18,0.296750732,0.23216961,-0.143601831,-0.043330608,0.021826955,0.01583712,-0.305224836
1.76966E+18,0.306738525,0.197606831,-0.154889533,-0.059472034,0.0298084,-0.020065982,-0.283238053
1.76966E+18,0.316726563,0.146892689,-0.103645668,-0.034173049,0.023595778,0.026007503,-0.239262328
1.76966E+18,0.3267146,0.03272402,-0.001593991,-0.041231297,0.022191493,0.043413393,-0.196295425
1.76966E+18,0.336702637,0.086976857,0.008728081,-0.062001844,0.026252547,0.001802033,-0.159932092
1.76966E+18,0.346690674,0.104461076,0.056484104,-0.130214964,0.032850578,-0.032266758,-0.14756678
1.76966E+18,0.356678467,0.048854193,0.043942602,-0.08208134,0.031747494,0.004685931,-0.134330332
1.76966E+18,0.366667725,-0.070152125,0.001538462,-0.000161182,0.03046003,0.051568832,-0.119564429
1.76966E+18,0.376655762,0.01977759,-0.013027239,0.006584347,0.022111285,0.047810312,-0.111216217
1.76966E+18,0.386643555,0.097279348,-0.022899814,0.02560805,0.016811596,0.023463078,-0.094013229
1.76966E+18,0.396631348,0.207465377,-0.047041737,0.071727412,0.01034118,-0.029607862,-0.095268115
1.76966E+18,0.406619629,0.20882176,-0.068317165,0.066500032,0.003323262,-0.04576233,-0.095937252
1.76966E+18,0.416607666,0.103539723,-0.018113749,0.060226505,-0.002521312,-0.034361605,-0.100307494
1.76966E+18,0.426595703,0.027878187,0.012137597,0.021709289,-0.002984966,-0.017525593,-0.09674301
1.76966E+18,0.436583496,-0.029054245,0.034413726,-0.061324091,-0.00324569,-0.002212683,-0.078880392
1.76966E+18,0.446571533,-0.02038827,0.017139351,-0.102197661,0.003055546,0.008725261,-0.054477982
1.76966E+18,0.456560791,0.041650984,0.016049802,-0.090079353,0.013213375,0.014119228,-0.035328787
1.76966E+18,0.466548584,0.093641576,-0.00922434,-0.083515319,0.021125115,0.011817914,-0.020876054
1.76966E+18,0.476536377,0.095226507,-0.01772095,-0.065893006,0.025506817,0.006804247,-0.011979232
1.76966E+18,0.486524658,0.055025576,-0.008778934,-0.034697219,0.024164099,0.004843139,-0.007703836
1.76966E+18,0.496512695,0.049236471,-0.02017185,0.004641688,0.021731036,0.000678222,-0.012147853
1.76966E+18,0.506500488,0.079065646,-0.055187634,0.005986965,0.020242333,-0.005162845,-0.025207087
1.76966E+18,0.516488525,0.06043138,-0.053717562,0.003965104,0.017149337,-0.000850388,-0.036102347
1.76966E+18,0.526476563,-0.010176234,-0.033101475,-0.010336977,0.01201299,0.037347436,-0.023041369
1.76966E+18,0.536464844,0.04204466,-0.020521395,0.004915683,0.015273765,0.024176773,-0.021106848
1.76966E+18,0.546453857,0.164113142,-0.031000703,-0.036186581,0.021845991,0.008148508,-0.019115631
1.76966E+18,0.556441406,0.11586276,-0.039400867,-0.034644174,0.021993265,0.018277843,-0.008136747
1.76966E+18,0.566429688,0.055364598,-0.062801616,-0.032788902,0.02404199,0.023873944,0.001171152
1.76966E+18,0.576417725,0.087174426,-0.059285717,-0.027791532,0.028205575,0.018169718,0.002580497
1.76966E+18,0.586405518,0.09379852,-0.05176935,-0.021441578,0.031566754,0.011623526,0.001162704
1.76966E+18,0.596393555,0.058351505,-0.033287353,0.019438714,0.027396511,0.011482112,-0.00375429
1.76966E+18,0.606381592,0.038829643,-0.028618192,0.050270636,0.024143856,0.010187528,-0.009877885
1.76966E+18,0.616369629,0.051136021,-0.042712184,0.040413259,0.018867068,0.008694293,-0.017971497
1.76966E+18,0.626358643,0.060747022,-0.06735095,0.034145577,0.015217382,0.013154718,-0.021737244
1.76966E+18,0.63634668,0.060286419,-0.084687869,0.02445888,0.012287375,0.012593058,-0.024909869
1.76966E+18,0.646334473,0.08281623,-0.079647537,0.01142185,0.012201929,0.008032005,-0.022203524
1.76966E+18,0.65632251,0.089837507,-0.065368836,0.01366013,0.012481029,0.004073748,-0.015321118
1.76966E+18,0.666310547,0.078914839,-0.049303252,0.015925883,0.013462991,0.00092088,-0.007126087
1.76966E+18,0.676298584,0.045884968,-0.014664485,0.021800328,0.010933254,0.003161398,0.000218112
1.76966E+18,0.686286621,0.050187049,-0.014465163,0.024100276,0.008568181,0.004428502,0.004997393
1.76966E+18,0.696274658,0.061551324,-0.024915246,0.019449674,0.007512236,0.001439903,0.003241038
1.76966E+18,0.706262695,0.062086746,-0.040232057,0.016900281,0.008735606,-0.005667069,-0.003356868
1.76966E+18,0.716251709,0.05292948,-0.028191491,0.00984934,0.011030718,-0.008120373,-0.004497767
1.76966E+18,0.726239502,0.048260173,0.004537059,0.028503625,0.01227872,-0.010015827,-0.005843577
1.76966E+18,0.736227539,0.03220248,-0.005526654,0.012456308,0.011588429,-0.012090961,-0.003555921
1.76966E+18,0.746215576,0.025084172,-0.037632688,0.004443535,0.011251938,-0.009366835,-0.0043239
1.76966E+18,0.756203613,0.002372282,-0.057037061,0.001459113,0.007016446,-0.005992078,-0.008202794
1.76966E+18,0.766191406,0.030925884,-0.07867197,-0.01055062,0.003231561,-0.007474394,-0.01291579
1.76966E+18,0.776179688,0.038949032,-0.083609427,-0.023900223,-0.002115001,-0.012999387,-0.009934381
1.76966E+18,0.786167725,0.042152212,-0.103415951,-0.048388476,-0.00849367,-0.018913448,-0.00940955
1.76966E+18,0.796156738,0.110386959,-0.058939096,-0.042611353,-0.008863317,-0.026091199,-0.010485999
1.76966E+18,0.806144531,0.106015758,0.032826165,-0.05699293,-0.005903471,-0.024374705,-0.006365605
1.76966E+18,0.816132568,0.004587182,0.079336572,-0.063617609,-0.000940405,-0.013142556,0.003790094
1.76966E+18,0.826120605,-0.046705929,0.083797058,-0.07279621,-0.002726801,-0.004153091,0.013632329
1.76966E+18,0.836108643,-0.028643618,0.02513035,-0.101634182,-0.001731045,0.001414514,0.012609409
1.76966E+18,0.846096436,0.026997166,-0.082121818,-0.055272536,0.003704805,0.004427806,0.000767265
1.76966E+18,0.856084717,0.074255615,-0.06283435,0.02420812,0.007458264,0.005260044,-0.014044437
1.76966E+18,0.866072754,-0.013150573,2.51344E-05,0.031285073,0.005927662,0.007295215,-0.016205942
1.76966E+18,0.876060547,-0.09944091,0.035093525,0.027725042,0.00119629,0.002161173,-0.007944549
1.76966E+18,0.886049561,-0.064761226,0.016098317,0.023831542,1.50878E-05,-0.006635086,-0.006134169
1.76966E+18,0.896037598,0.020287293,-0.025995442,0.047355772,0.001680629,-0.008277723,-0.01011453
1.76966E+18,0.906025635,0.034196869,-0.036381227,0.033445173,-0.004047599,-0.009566521,-0.010885184
1.76966E+18,0.916013428,-0.015846096,-0.032481297,0.007819734,-0.006776008,-0.011873085,-0.009697947
1.76966E+18,0.926001465,-0.000309504,-0.009582652,-0.016917379,-0.008481371,-0.010961287,-0.006309369
1.76966E+18,0.935989746,0.016842414,-0.014803017,-0.013088906,-0.006832874,-0.012148524,-0.002849123
1.76966E+18,0.945977783,0.034381431,-0.031795068,-0.029507542,-0.007168705,-0.009508618,-0.000246371
1.76966E+18,0.955965576,0.040293724,-0.07616028,-0.026886107,-0.009568745,-0.016172647,0.003458086
1.76966E+18,0.965953613,0.073985566,-0.082431615,-0.005203852,-0.011433491,-0.030045094,-0.000612936
1.76966E+18,0.975942871,0.074988313,-0.057643211,0.008043752,-0.01729431,-0.036517374,-0.003881167
1.76966E+18,0.985930664,0.045527095,-0.015256606,-0.010999971,-0.018250341,-0.033333872,-0.006811976
1.76966E+18,0.995918457,0.031107086,-0.000807809,-0.044254883,-0.015529655,-0.029312499,-0.00823011
1.76966E+18,1.005906494,0.038498804,-0.005036825,-0.060685501,-0.015835382,-0.028388605,-0.006384162
1.76966E+18,1.015894775,0.012384558,-0.006253215,-0.099066816,-0.010573776,-0.017037679,-0.005132742
1.76966E+18,1.025882568,-0.005745558,-0.02396189,-0.092851741,-0.003321455,-0.007419141,-0.005496264
1.76966E+18,1.035870605,0.004146452,0.003315408,-0.085468352,-0.000366146,-0.003688053,-0.002822716
1.76966E+18,1.045858643,-0.028068741,-0.034386838,-0.048444297,0.005253343,0.003272957,0.001400794
1.76966E+18,1.05584668,-0.000808978,-0.052579498,0.002766542,0.006074662,0.008526042,-0.002528434
1.76966E+18,1.065835693,0.049527563,-0.058960723,-0.000950725,0.003038489,0.002334915,-0.007826801
1.76966E+18,1.075823486,0.043384091,-0.055030982,-0.001101532,0.001490393,-0.002392196,-0.00689363
1.76966E+18,1.085811523,-0.009721914,-0.056717328,-0.001816256,-0.002960866,-0.001871102,-0.006209799
1.76966E+18,1.095799561,0.011267244,-0.045463528,-0.000872107,-0.003246624,0.002504738,-0.01002744
1.76966E+18,1.105787598,0.038357495,-0.050609074,-0.002871756,-0.00261109,-0.001245208,-0.010265999
1.76966E+18,1.115775635,0.053565294,-0.052284899,-0.03455635,-0.000478164,-0.005203465,-0.011707036
1.76966E+18,1.125763672,0.031801206,-0.045371174,-0.016069237,0.001267967,-0.002250829,-0.010952506
1.76966E+18,1.135751465,0.013335282,-0.033785365,-0.013751024,0.001067697,0.002020083,-0.009262731
1.76966E+18,1.145740723,-0.006338702,-0.039426586,0.009004267,-0.000977513,0.011010081,-0.008157148
1.76966E+18,1.155728516,-0.000568155,-0.0448188,0.005789251,-0.001031043,0.00967424,-0.008223461
1.76966E+18,1.165716553,0.018406594,-0.06021803,-0.015934213,0.000796721,0.004237717,-0.008603942
1.76966E+18,1.175704346,0.032797815,-0.034139001,-0.018382629,0.001430819,-0.002730444,-0.007389273
1.76966E+18,1.185692627,0.011939444,0.004384499,-0.015017829,0.000422016,-0.003578885,-0.007980915
1.76966E+18,1.195680664,-0.010259528,0.009532383,-0.012085136,0.000439593,0.001961023,-0.008015536
1.76966E+18,1.205668701,-0.026060324,0.007962942,0.001714987,0.003502494,0.014709309,-0.009589997
1.76966E+18,1.215656494,-0.030377603,-0.019276363,-0.007807167,0.00608363,0.02270625,-0.009116487
1.76966E+18,1.225644775,-0.012099603,-0.031069677,-0.003856529,0.008920783,0.022956112,-0.007665938
1.76966E+18,1.235633545,0.022205987,-0.046453708,0.019839111,0.008689886,0.02059309,-0.00709469
1.76966E+18,1.245621582,0.063729253,-0.031896775,0.022628596,0.007655649,0.019791501,-0.010040755
1.76966E+18,1.255609375,0.056671735,-0.012663082,0.008126608,0.006540051,0.019211465,-0.010292425
1.76966E+18,1.265597656,0.037116263,0.011053309,-0.021988106,0.007225109,0.022445753,-0.012227596
1.76966E+18,1.275585693,0.026673195,0.002324059,-0.031853082,0.008222463,0.026315328,-0.012505097
1.76966E+18,1.285573486,0.020618864,-0.024202713,-0.03627689,0.008424953,0.030328548,-0.012515448
1.76966E+18,1.295561523,0.031379473,-0.062139938,-0.021578502,0.006894434,0.025679467,-0.012176161
1.76966E+18,1.305549805,0.078236209,-0.064475687,0.017090689,0.005446868,0.023578966,-0.013523486
1.76966E+18,1.315537842,0.068046531,-0.071516838,0.009996639,-0.004619082,0.010751852,-0.011295219
1.76966E+18,1.325526611,0.090964319,-0.057020695,0.036540217,-0.009240201,-0.004584004,-0.009268666
1.76966E+18,1.335514404,0.125338152,-0.006028174,0.02425985,-0.012151835,-0.002906478,-0.005848635
1.76966E+18,1.345502686,0.086449911,-0.024729952,-0.043214434,-0.007714294,0.003382292,-0.003440951
1.76966E+18,1.355490723,0.054794251,-0.016439094,-0.092421679,0.001773483,0.01181173,0.005413261
1.76966E+18,1.365478516,-0.008137714,0.021065584,-0.06887436,0.006424291,0.026994079,0.010549931
1.76966E+18,1.375466553,-0.014711247,0.024743396,-0.043295244,0.005465553,0.032147564,0.01121439
1.76966E+18,1.385454834,0.031189942,-0.042140521,-0.005868161,0.002497016,0.025776319,0.005568793
1.76966E+18,1.395442627,0.057148705,-0.075870941,0.015919454,-4.28403E-05,0.017696023,-0.005108352
1.76966E+18,1.405431641,0.020702304,-0.062328738,0.002930062,-0.001862002,0.017138194,-0.011659273
1.76966E+18,1.415419434,-0.002217676,-0.046495209,-0.025626755,-0.001636432,0.02363098,-0.012805764
1.76966E+18,1.425407715,-0.019073826,-0.045648821,-0.047708823,0.000717979,0.029582815,-0.012229911
1.76966E+18,1.435395508,-0.001746698,-0.052114803,-0.057984279,0.005109265,0.036817029,-0.01301208
1.76966E+18,1.445383545,0.013705869,-0.056388827,-0.044374418,0.008829213,0.041494522,-0.013831118
1.76966E+18,1.455371582,-0.00408347,-0.038628714,-0.034653526,0.009462247,0.044622671,-0.012851873
1.76966E+18,1.465359863,0.012960458,-0.02786825,-0.015914777,0.008020685,0.041270144,-0.012595342
1.76966E+18,1.475347656,0.05813567,-0.010464695,-0.013461831,0.007227596,0.037157424,-0.014439316
1.76966E+18,1.485335693,0.046255555,-0.007177929,-0.008636749,0.005946918,0.033986457,-0.015740717
1.76966E+18,1.49532373,0.030539369,-0.028348727,0.006770663,0.003335423,0.033211209,-0.012677283
1.76966E+18,1.505312744,0.024474808,-0.052306526,0.02582067,0.001059801,0.025961822,-0.013067859
1.76966E+18,1.515300537,0.048472354,-0.055538932,0.052263856,-0.003620438,0.016987767,-0.01339543
1.76966E+18,1.525288574,0.037917935,-0.058020227,0.069044895,-0.010202797,0.006969652,-0.01103271
1.76966E+18,1.535276611,0.043048868,-0.063236501,0.088532708,-0.016132325,-0.007613019,-0.007441171
1.76966E+18,1.545264404,0.049160629,-0.064698974,0.066232175,-0.023319623,-0.018907608,-0.00830426
1.76966E+18,1.555252686,0.051935793,-0.045007601,0.049193362,-0.027176145,-0.029735755,-0.007801722
1.76966E+18,1.565240723,0.038499973,-0.025945758,0.017087621,-0.027065936,-0.030187346,-0.00980244
1.76966E+18,1.57522876,0.000681553,-0.009475684,-0.035096594,-0.023118066,-0.02296672,-0.010934284
1.76966E+18,1.585217773,-0.045853404,0.005887889,-0.071794047,-0.015950035,-0.011671208,-0.006827347
1.76966E+18,1.595205566,-0.060930854,0.0137047,-0.104853436,-0.009901463,-0.001321631,-0.001093827
1.76966E+18,1.605193604,-0.0512652,0.002999182,-0.09321429,-0.005628064,0.008373752,0.002716507
1.76966E+18,1.615181641,-0.013531682,-0.016780454,-0.085796415,-0.003384351,0.014827123,-0.000337606
1.76966E+18,1.625169434,0.028068595,-0.023712884,-0.036604514,-0.0029075,0.011565395,-0.00713279
1.76966E+18,1.635157715,0.050718672,-0.033434652,-0.001789222,-0.005505147,0.003961804,-0.008840942
1.76966E+18,1.645145752,0.025804011,-0.032801615,0.024722646,-0.012340873,-0.006085267,-0.009454823
1.76966E+18,1.655133545,0.058859016,-0.042075639,0.037790363,-0.018926604,-0.021640258,-0.011514512
1.76966E+18,1.665121582,0.116714993,-0.035140871,0.047321869,-0.02467547,-0.039525855,-0.016123392
1.76966E+18,1.675110596,0.098838852,-0.03071721,0.020895927,-0.027453948,-0.045865778,-0.010923569
1.76966E+18,1.685098633,0.039905163,-0.035562312,-0.004214549,-0.030297991,-0.040628944,-0.008084741
1.76966E+18,1.695086426,0.063545713,-0.02799626,-0.030913755,-0.031624775,-0.038435832,-0.009069311
1.76966E+18,1.705074463,0.072617785,-0.035684477,-0.049655281,-0.030324528,-0.036287047,-0.0045615
1.76966E+18,1.715062744,0.055189096,-0.043542205,-0.057662938,-0.027409432,-0.029323146,0.000389583
1.76966E+18,1.725050781,0.021056524,-0.017070377,-0.055575318,-0.02730291,-0.019589603,0.007850852
1.76966E+18,1.735038574,0.022570436,0.000188216,-0.057555094,-0.018700367,-0.017210068,0.007729678
1.76966E+18,1.745026611,0.028752486,0.043875967,-0.0718034,-0.016576499,-0.015871381,0.011778259
1.76966E+18,1.755014893,-0.017016601,0.046337973,-0.082373017,-0.014355956,-0.011557328,0.016582867
1.76966E+18,1.765003662,-0.009360826,-0.000631284,-0.041978901,-0.013985865,-0.009088904,0.014219121
1.76966E+18,1.774991455,0.005749796,-0.054976622,-0.020916385,-0.017081523,-0.009131514,0.007257884
1.76966E+18,1.784979492,0.023405133,-0.085869773,-0.024921675,-0.015306158,-0.003370596,-0.001120056
1.76966E+18,1.794967773,0.023041853,-0.094386257,-0.002559329,-0.012163894,-0.003772201,-0.010061086
1.76966E+18,1.804955566,0.037677112,-0.054666825,-0.001826485,-0.008512268,-0.004805167,-0.016072894
1.76966E+18,1.814943604,0.009470278,-0.003505962,0.00686594,-0.006050708,-0.00149619,-0.011909573
1.76966E+18,1.824931641,-0.013072248,0.022217093,0.023015549,-0.009076235,0.003487487,-0.004928593
1.76966E+18,1.834919922,-0.007547493,0.01209142,0.018327245,-0.013337294,-0.002629794,-0.000228646
1.76966E+18,1.844908691,0.049845689,-0.02925649,0.007270868,-0.015873326,-0.010796762,0.000880972
1.76966E+18,1.854896484,0.083294662,-0.051450201,0.002054594,-0.019051544,-0.015828272,0.002304698
1.76966E+18,1.864884521,0.064421619,-0.043617023,-0.03350231,-0.017709319,-0.021073988,0.000743867
1.76966E+18,1.874872803,0.060767919,-0.032224107,-0.019883973,-0.013539339,-0.018450242,-0.002971775
1.76966E+18,1.884860596,0.03357523,-0.019110943,-0.04262962,-0.013750974,-0.020244621,-0.002728171
1.76966E+18,1.894848633,-0.00986293,-0.029819969,-0.064242171,-0.011096334,-0.016926056,0.002347814
1.76966E+18,1.90483667,-0.018809914,-0.054355275,-0.056613137,-0.009123199,-0.008730975,0.007485584
1.76966E+18,1.914824463,-0.035063276,-0.057388359,-0.027199265,-0.004560938,0.000458794,0.000521684
1.76966E+18,1.924812744,-0.049737114,-0.064506667,-0.031993952,0.000865432,0.017348235,-0.009171881
1.76966E+18,1.934801514,-0.083668609,-0.021152094,-0.030681554,0.001526961,0.020835379,-0.025841936
1.76966E+18,1.944789551,-0.076853815,0.020568156,-0.040904696,0.003569293,0.021033557,-0.040191315
1.76966E+18,1.954778564,-0.018706746,0.018272154,-0.037615299,0.002406823,0.019647382,-0.050576046
1.76966E+18,1.964766602,-0.024805648,-0.021148002,-0.04267872,0.004332911,0.015968246,-0.05720884
1.76966E+18,1.974754395,-0.000960077,-0.048855509,-0.037159518,0.00558939,0.007565174,-0.056593116
1.76966E+18,1.984742432,-0.011129297,-0.030859249,-0.039651189,0.010881093,0.010223665,-0.054330155
1.76966E+18,1.994730713,-0.041814358,-0.00652794,-0.052367754,0.01057989,0.023490202,-0.053781278
1.76966E+18,2.004718506,-0.053249944,-0.025451837,-0.046868865,0.013798717,0.03694021,-0.054547124
1.76966E+18,2.014706299,-0.011270751,-0.017700492,-0.020371757,0.018676829,0.050903164,-0.067146532
1.76966E+18,2.024695313,0.037141982,0.012691139,0.011587562,0.020296386,0.051206786,-0.081119269
1.76966E+18,2.034683594,0.028447511,-0.037875849,-0.011765403,0.018251078,0.03247251,-0.079218306
1.76966E+18,2.044671387,-0.0090918,-0.012163901,-0.027013679,0.014243478,0.008996325,-0.081673756
1.76966E+18,2.054659424,-0.012203648,-0.001531447,-0.064762687,0.010189348,-0.004980477,-0.076236114
1.76966E+18,2.064647461,-0.017434096,-0.011940029,-0.050567573,0.01027278,-0.002036424,-0.077810973
1.76966E+18,2.074635742,0.021177228,-0.037615737,-0.037303456,0.012842198,0.008306229,-0.085660644
1.76966E+18,2.084623535,0.02597966,-0.082588851,-0.035941082,0.017039789,0.025793858,-0.08950153
1.76966E+18,2.094611572,0.015072481,-0.073980013,0.015605858,0.022065973,0.037754912,-0.113033488
1.76966E+18,2.104600342,0.05980828,-0.095445995,-0.05254618,0.018170174,0.034288079,-0.128194839
1.76966E+18,2.114588623,-0.037851592,-0.071793317,-0.046428574,0.023159873,0.032972474,-0.136116669
1.76966E+18,2.124576416,-0.025289924,-0.050740592,-0.044223319,0.020080056,0.051198326,-0.147338092
1.76966E+18,2.134564453,-0.051461307,-0.062579498,-0.123607237,0.018744748,0.044685565,-0.139665529
1.76966E+18,2.14455249,-0.055085489,-0.082880528,-0.118894675,0.020649699,0.02970938,-0.117763609
1.76966E+18,2.154540527,0.022504093,-0.067556117,-0.072147975,0.021551978,0.030024163,-0.103016078
1.76966E+18,2.164528564,0.075159286,-0.058071665,-0.04404124,0.028261634,0.050142094,-0.092905775
1.76966E+18,2.174516602,0.094693423,-0.095333182,-0.014660686,0.025021365,0.047837395,-0.078894347
1.76966E+18,2.184504395,0.086991178,-0.096858784,-0.00362389,0.02485452,0.031991031,-0.078784816
1.76966E+18,2.194492188,0.082305066,-0.076242113,0.008076777,0.01766292,0.013142243,-0.076817535
1.76966E+18,2.204481445,0.021364275,-0.03501403,0.020589199,0.015751436,-0.007309441,-0.069313519
1.76966E+18,2.214469482,0.021397008,-0.007794599,0.013588673,0.0153493,-0.002478999,-0.064260967
1.76966E+18,2.22445752,0.021060178,-0.005499182,0.048487698,0.014710321,0.010427952,-0.058785968
1.76966E+18,2.234445557,0.021260522,-0.013804653,0.023512831,0.016489845,0.009334457,-0.058332428
1.76966E+18,2.244433594,-0.008694179,-0.011021745,-0.004738865,0.014688703,-0.000633407,-0.058196757
1.76966E+18,2.254421631,-0.034564825,0.01347849,0.010588468,0.012627417,-0.006110464,-0.057334695
1.76966E+18,2.264409424,-0.065530895,0.054418988,0.024972967,0.011781561,-0.01023766,-0.056584947
1.76966E+18,2.274397217,-0.090156364,0.061210548,0.019519816,0.016098546,-0.013826536,-0.054779857
1.76966E+18,2.284386475,-0.072154697,0.051435004,0.001934767,0.018117342,-0.005202841,-0.057449397
1.76966E+18,2.294374512,-0.057796355,0.051633157,-0.01018354,0.021517932,0.007413352,-0.070988104
1.76966E+18,2.304362305,-0.076556878,0.07480828,-0.032180268,0.025157725,0.022123059,-0.081989788
1.76966E+18,2.314350586,-0.078567195,0.037083238,-0.016762334,0.027176667,0.031004967,-0.095336221
1.76966E+18,2.324338623,-0.067042615,0.037288405,0.008197335,0.028632708,0.046522778,-0.115657695
1.76966E+18,2.33432666,-0.063275371,0.018776597,0.005245499,0.028170649,0.050006192,-0.127905846
1.76966E+18,2.344314453,-0.032287528,-0.065130936,-0.070349694,0.031896982,0.051196683,-0.143997639
1.76966E+18,2.354302246,0.018380729,-0.04289397,-0.047871904,0.034069058,0.045599252,-0.162436575
1.76966E+18,2.364290527,0.000141454,-0.07786533,-0.065620619,0.037417188,0.036744591,-0.17199257
1.76966E+18,2.374279541,-0.00097469,-0.070045012,-0.067307842,0.034716208,0.021277484,-0.158818707
1.76966E+18,2.384267334,-0.031680794,-0.090955698,-0.051738517,0.031504255,0.014524791,-0.141997844
1.76966E+18,2.394255371,-0.013915128,-0.107529816,-0.056280836,0.028148673,0.019629804,-0.126071334
1.76966E+18,2.404243652,0.015113398,-0.112635615,-0.058490329,0.028406028,0.02639176,-0.108265713
1.76966E+18,2.414231445,0.033892771,-0.130322078,-0.041120238,0.031725124,0.029916454,-0.098748103
1.76966E+18,2.424219482,0.09310367,-0.117968792,-0.01698796,0.024369175,0.024001744,-0.093311198
1.76966E+18,2.43420752,0.061484981,-0.113646253,0.005013444,0.024248533,0.009882995,-0.082174122
1.76966E+18,2.444195313,0.069305445,-0.060696169,0.032453532,0.023771379,0.003660311,-0.079419419
1.76966E+18,2.454184326,0.033796179,-0.005178279,0.023824235,0.022519693,0.001731384,-0.070245899
1.76966E+18,2.464172363,-0.009965368,0.036354923,0.042102381,0.02211755,0.004060539,-0.063466661
1.76966E+18,2.4741604,-0.000862754,0.053794134,0.023987755,0.0213708,0.009488328,-0.056567479
1.76966E+18,2.484148682,-0.040763534,0.056252049,0.014862784,0.019633796,0.014643305,-0.050381523
1.76966E+18,2.494136475,-0.014937165,0.039329555,0.030993981,0.019818354,0.006805623,-0.049432639
1.76966E+18,2.504124512,0.040516135,0.049183425,0.016019261,0.022746148,-0.00311338,-0.053151142
1.76966E+18,2.514112549,0.030551206,0.054344169,0.023097529,0.023497159,-0.013422476,-0.053136494
1.76966E+18,2.524100586,0.027272622,0.041859951,-0.041530134,0.027997451,-0.017721601,-0.051858358
1.76966E+18,2.534088379,0.052776774,0.050305123,-0.034916561,0.026545761,-0.012233092,-0.052536398
1.76966E+18,2.544077393,0.091224285,0.035113983,-0.053941726,0.028547172,-0.000472655,-0.054857992
1.76966E+18,2.55406543,0.125650287,0.055389294,-0.044655134,0.022422433,-0.001026592,-0.055150405
1.76966E+18,2.564053467,0.125268594,0.032578328,-0.094735362,0.020123331,-0.016091786,-0.042897627
1.76966E+18,2.574041504,0.148165485,-0.009502572,-0.110561585,0.016222598,-0.020518225,-0.035079386
1.76966E+18,2.584029541,0.135459149,-0.046152095,-0.10742884,0.013113752,-0.016073739,-0.025854491
1.76966E+18,2.594017578,0.155088855,-0.09199147,-0.109207394,0.016506886,-0.016573349,-0.019269295
1.76966E+18,2.604005615,0.1594225,-0.126752987,-0.08737404,0.016414579,-0.022069344,-0.015578855
1.76966E+18,2.613993408,0.140353058,-0.124774965,-0.066578505,0.016901404,-0.025229983,-0.010600874
1.76966E+18,2.623981445,0.118228028,-0.102947164,-0.057629036,0.014368154,-0.025667239,-0.010131616
1.76966E+18,2.633970459,0.087345398,-0.128592478,-0.055758712,0.011870109,-0.02237504,-0.009304971
1.76966E+18,2.643958496,0.050667234,-0.173137137,-0.062218264,0.005706015,-0.024324462,-0.016368378
1.76966E+18,2.653946533,0.060842007,-0.190752289,-0.039416795,0.004290811,-0.029059296,-0.024448408
1.76966E+18,2.66393457,0.049539399,-0.152696407,-0.032506285,0.000906579,-0.036447864,-0.033221632
1.76966E+18,2.673922363,0.032753976,-0.101958738,-0.092199706,-0.002300133,-0.047904518,-0.036220353
1.76966E+18,2.683910645,0.022514906,-0.054136079,-0.104844376,-0.002978522,-0.047350857,-0.042192843
1.76966E+18,2.693898438,0.051684887,0.020529578,-0.081258333,0.007185699,-0.040565126,-0.044546012
1.76966E+18,2.70388623,0.085330844,0.088971246,-0.093810503,0.011592296,-0.036015138,-0.046618406
1.76966E+18,2.713875244,0.045370881,0.112477794,-0.105931441,0.020015342,-0.028656024,-0.043623149
1.76966E+18,2.723863525,0.042260056,0.13257541,-0.083411274,0.028382011,-0.012393149,-0.036244776
1.76966E+18,2.733851563,0.044098669,0.126232178,-0.068899349,0.034775995,0.003320034,-0.032155491
1.76966E+18,2.7438396,0.032473698,0.049707741,-0.076092767,0.041215651,0.018335406,-0.026545314
1.76966E+18,2.753827393,0.008429098,0.007557868,-0.005013737,0.046090301,0.03027489,-0.023024617
1.76966E+18,2.763815674,-0.002682079,-0.012025369,0.074176266,0.049226802,0.034222458,-0.01997892
1.76966E+18,2.773803711,-0.01594225,0.007218845,0.130500795,0.046502389,0.023750911,-0.014606526
1.76966E+18,2.78379126,-0.071973642,0.011547814,0.158119016,0.040613268,0.01602032,-0.0094746
1.76966E+18,2.793779297,-0.089976916,-0.020271804,0.159815883,0.030302573,0.002338597,-0.002414294
1.76966E+18,2.803768555,-0.01602759,-0.03771043,0.147306677,0.025889739,-0.014036911,-0.010221093
1.76966E+18,2.813756592,0.047099897,0.020743513,0.159733904,0.020821476,-0.033944309,-0.010496464
1.76966E+18,2.823744385,-0.010632453,0.033335868,0.158410839,0.011957452,-0.050419051,-0.002578425
1.76966E+18,2.833732422,-0.042219724,0.041196518,0.151842566,0.007739005,-0.05627561,0.011356299
1.76966E+18,2.843720459,-0.027888416,-0.011261399,0.138204209,0.006155985,-0.058852542,0.018852746
1.76966E+18,2.85370874,0.003045359,-0.067252166,0.135063719,0.005502179,-0.065827355,0.021022158
1.76966E+18,2.863696533,0.013109657,-0.056489949,0.114232236,0.008038176,-0.076369196,0.019028436
1.76966E+18,2.873684326,-0.013269231,-0.060983753,0.064845836,0.009468827,-0.085053764,0.020192238
1.76966E+18,2.883673584,-0.030468788,-0.057446227,0.035367374,0.008847829,-0.092050187,0.017342379
1.76966E+18,2.893661621,-0.057972296,-0.045261283,0.034428778,0.010052644,-0.107118621,0.017843852
1.76966E+18,2.903649414,-0.120348673,-0.041018239,0.05173384,0.013559046,-0.128031835,0.020953821
1.76966E+18,2.913637451,-0.215781224,-0.090079499,0.048673138,0.013758251,-0.145374075,0.030332942
1.76966E+18,2.923625488,-0.274383635,-0.134141344,0.052588412,0.01933912,-0.178069666,0.034500532
1.76966E+18,2.933613525,-0.240932032,-0.204701904,0.087178663,0.022180181,-0.199700922,0.02572941
1.76966E+18,2.943601563,-0.166613288,-0.308563845,0.083153061,0.025979705,-0.206780761,0.000511983
1.76966E+18,2.953589111,-0.066550447,-0.402130017,0.090107849,0.030736642,-0.207400203,-0.041897789
1.76966E+18,2.963576904,0.035303953,-0.422269135,0.054808426,0.047552116,-0.200186685,-0.090156183
1.76966E+18,2.973565918,0.077177932,-0.373907547,0.025815409,0.064193673,-0.153960332,-0.123241961
1.76966E+18,2.983553955,0.085776541,-0.284740486,0.131503104,0.062525898,-0.113198094,-0.14704825
1.76966E+18,2.993541992,0.15433716,-0.2704197,0.060881316,0.047509663,-0.116388559,-0.161578462
1.76966E+18,3.003529785,0.216999075,-0.177420514,0.009375585,0.028153038,-0.121397875,-0.173982993
1.76966E+18,3.013518066,0.294301803,-0.057862991,0.04363339,0.009455251,-0.131466225,-0.172857553
1.76966E+18,3.023506104,0.314719737,0.044359951,-0.05820289,-0.009869591,-0.153163895,-0.160196215
1.76966E+18,3.033494141,0.256750948,0.167499424,-0.170744981,-0.018770408,-0.167033643,-0.130168006
1.76966E+18,3.043481934,0.206176945,0.256579975,-0.212931241,-0.017323541,-0.165210232,-0.102093592
1.76966E+18,3.053469727,0.248703835,0.344756271,-0.16526202,-0.008786512,-0.164119139,-0.082402706
1.76966E+18,3.063458984,0.176129305,0.294100435,-0.171600868,-0.004805671,-0.168713316,-0.066951297
1.76966E+18,3.073447021,0.124826695,0.246319278,-0.142072575,-0.001540369,-0.161847696,-0.068385676
1.76966E+18,3.083434814,0.036347032,0.270966812,-0.044204614,-0.00144872,-0.138570771,-0.061238889
1.76966E+18,3.093423096,-0.05690496,0.216857621,-0.086559655,0.001969713,-0.118640736,-0.049756669
1.76966E+18,3.103411133,-0.101362233,0.147070968,-0.140268156,0.000922251,-0.103626244,-0.032519668
1.76966E+18,3.113398926,-0.075368545,0.105747609,-0.165612149,-0.001755291,-0.092970669,-0.020492299
1.76966E+18,3.123386963,0.001305822,0.073350483,-0.150178579,-0.000970134,-0.188586131,0.01177386
1.76966E+18,3.133375,0.273745045,0.117986912,-0.186056532,-0.000181839,-0.317926556,0.030288422
1.76966E+18,3.143364014,0.249571558,0.025683892,-0.052989832,-0.014648654,-0.298427075,0.015114101
1.76966E+18,3.153351807,0.123608552,0.029723523,-0.016413959,-0.027845949,-0.279050201,0.016404668
1.76966E+18,3.163339844,0.107278471,0.092950671,-0.064121467,-0.052413266,-0.285052419,0.052276473
1.76966E+18,3.173327881,0.123807581,0.074426588,-0.128540894,-0.064677924,-0.284941643,0.083385929
1.76966E+18,3.183316162,0.224260006,0.112500005,-0.074577102,-0.073151626,-0.281530142,0.103716396
1.76966E+18,3.193303955,0.283764627,0.06758359,-0.094549923,-0.077305891,-0.278098941,0.120609894
1.76966E+18,3.203291992,0.290042684,0.023550971,-0.103735246,-0.079759128,-0.287278771,0.137414113
1.76966E+18,3.213280029,0.300768953,0.020672201,-0.1329704,-0.083249465,-0.297596127,0.134911001
1.76966E+18,3.223268066,0.314781404,-0.021148002,-0.142235657,-0.081226952,-0.336812198,0.120130107
1.76966E+18,3.233256836,0.175440446,0.062997431,-0.079602821,-0.08798153,-0.326435179,0.13347654
1.76966E+18,3.243244873,-0.065705375,0.037705169,-0.119885001,-0.095173173,-0.298895597,0.145524263
1.76966E+18,3.25323291,-0.068002108,0.035419104,-0.10227701,-0.091230363,-0.27486378,0.164438561
1.76966E+18,3.263220947,-0.031372167,0.049524786,-0.075254125,-0.084639125,-0.237596318,0.173316941
1.76966E+18,3.273208984,0.04173837,-0.019883097,-0.048662616,-0.07658013,-0.193742573,0.170521677
1.76966E+18,3.283197021,0.024775399,-0.09760405,-0.038294952,-0.071536817,-0.151732177,0.173846677
1.76966E+18,3.293185059,-0.040118952,-0.172505269,0.00906345,-0.059010636,-0.129924878,0.178431302
1.76966E+18,3.303173096,-0.04018325,-0.264283389,0.033238107,-0.041971687,-0.137899518,0.154734373
1.76966E+18,3.313160889,-0.022853637,-0.286362534,0.074253277,-0.020995567,-0.146467716,0.128962442
1.76966E+18,3.323149902,-0.077858023,-0.298030176,0.1452835,-0.006073778,-0.142111972,0.097498395
1.76966E+18,3.333137939,-0.099927524,-0.284274038,0.117744336,-0.000221747,-0.125658959,0.072325133
1.76966E+18,3.343125977,-0.130479607,-0.189810624,0.149040076,0.005529561,-0.132884115,0.050251689
1.76966E+18,3.353114014,-0.006202216,-0.059186348,0.244756997,0.03440595,-0.174034491,0.002917461
1.76966E+18,3.363102051,0.023288813,-0.03668927,0.122677701,0.014796033,-0.178545043,0.000131904
1.76966E+18,3.373089844,-0.243896142,-0.130261288,-0.016866379,0.000484472,-0.133442819,0.012736379
1.76966E+18,3.383078125,-0.212643657,-0.044122635,0.076792878,0.002141315,-0.089856878,0.014024054
1.76966E+18,3.393065918,-0.034885435,0.031128129,0.075389003,0.00775153,-0.072714642,0.009144876
1.76966E+18,3.403054932,0.086567984,0.041111178,0.028508155,0.019571921,-0.072526589,0.009481505
1.76966E+18,3.413042725,0.149163264,0.03980068,-0.008277707,0.028416013,-0.076878458,0.009192819
1.76966E+18,3.423031006,0.103125151,0.045517304,-0.031793753,0.038177159,-0.071942657,0.027111484
1.76966E+18,3.433019043,0.038924482,0.05856091,-0.039270226,0.046003658,-0.049775839,0.047956314
1.76966E+18,3.44300708,-0.015579993,0.067892217,0.002322598,0.050504949,-0.031493556,0.058995932
1.76966E+18,3.452994873,-0.053845864,0.056857613,0.002343641,0.051187783,0.000176225,0.064461805
1.76966E+18,3.462983154,-0.13963848,0.043019058,-0.03078896,0.055861659,0.036464691,0.065129854
1.76966E+18,3.472971191,-0.107913408,0.017216508,-0.08025544,0.067196339,0.068507046,0.050939206
1.76966E+18,3.48295874,-0.140993694,0.01647358,-0.089281189,0.06928391,0.104468532,0.030164717
1.76966E+18,3.492947754,-0.17771219,0.03547288,-0.101111473,0.069988579,0.126202598,0.008249031
1.76966E+18,3.502936035,-0.283519274,0.043781274,-0.064396046,0.075636707,0.179004967,-0.007293832
1.76966E+18,3.512924072,-0.374585885,0.019876667,-0.031858343,0.085423827,0.238520488,-0.06085293
1.76966E+18,3.522911865,-0.282182618,-0.117723293,-0.116489952,0.102475695,0.28141731,-0.141501099
1.76966E+18,3.532899902,-0.301615633,-0.190214529,-0.180750243,0.124332264,0.284236521,-0.229410186
1.76966E+18,3.542888184,-0.363108651,-0.203484345,-0.253454537,0.135609359,0.250954777,-0.274054617
1.76966E+18,3.552876221,-0.405514107,-0.161257314,-0.275528275,0.140404388,0.203149959,-0.267903239
1.76966E+18,3.562864014,-0.203747672,-0.145749364,-0.29716143,0.146640584,0.174593434,-0.268226385
1.76966E+18,3.572852783,-0.038357495,-0.06342121,-0.261924551,0.148861125,0.169879645,-0.269637316
1.76966E+18,3.582841064,0.061633157,-0.029294484,-0.183445473,0.140715972,0.12718302,-0.240183473
1.76966E+18,3.592829102,0.160978205,0.134056588,-0.154690211,0.117783226,0.066857368,-0.178194925
1.76966E+18,3.602816895,0.249049141,0.188222478,-0.05289397,0.103397958,0.040573843,-0.117756248
1.76966E+18,3.612804932,0.342222369,0.182493579,-0.012365853,0.092929602,0.042664155,-0.066293858
1.76966E+18,3.622792969,0.360240402,0.131287124,-0.004882219,0.079699941,0.05862233,-0.030795436
1.76966E+18,3.632781006,0.341706821,0.034577977,0.022780279,0.059905201,0.071665429,-0.008925293
1.76966E+18,3.642769043,0.209402629,-0.024909985,0.100864221,0.045749608,0.079819925,0.00663206
1.76966E+18,3.652757813,0.09543635,-0.109310854,0.1530743,0.028892333,0.069022402,0.014328595
1.76966E+18,3.662746094,0.127023183,-0.158760821,0.109383627,0.015141577,0.017724583,0.017060632
1.76966E+18,3.672733887,0.181428434,-0.122166829,0.123015554,0.005615715,-0.02805702,0.018907536
1.76966E+18,3.682721924,0.145185885,-0.086805008,0.09567542,-0.00468694,-0.035682485,0.029282937
1.76966E+18,3.692709961,0.104276952,-0.006315174,0.024937457,-0.012757383,-0.033330914,0.046523176
1.76966E+18,3.702697998,0.102013098,0.051797407,-0.032167116,-0.017162833,-0.042023167,0.062972732
1.76966E+18,3.712686035,0.152796068,0.118570265,-0.077645257,-0.016746316,-0.038716853,0.078767672
1.76966E+18,3.722674072,0.162528503,0.181139826,-0.095665483,-0.015387832,-0.018151348,0.088810563
1.76966E+18,3.732661865,0.128406454,0.181163792,-0.074347677,-0.015156936,0.015613539,0.09254884
1.76966E+18,3.742651123,0.085088705,0.113353992,-0.047068917,-0.011200804,0.041735467,0.089501761
1.76966E+18,3.752638916,0.052826312,0.018543957,-0.014043723,-0.004114399,0.057494722,0.075231746
1.76966E+18,3.762626953,0.058024611,-0.059615972,0.096088092,0.000441632,0.049176861,0.061037153
1.76966E+18,3.77261499,0.031638562,-0.112817401,0.108858726,0.003449672,0.039320767,0.032230802
1.76966E+18,3.782602783,0.109372521,-0.062491235,0.094317575,0.005178954,0.026186202,0.012176551
1.76966E+18,3.792591064,-0.143359254,-0.205400408,0.103859895,0.002909674,0.008032232,0.02746629
1.76966E+18,3.802579102,-0.238402075,-0.132369658,0.079784023,-0.002245841,0.002969488,0.049988896
1.76966E+18,3.812567139,-0.142302731,-0.066157357,0.103656774,-0.00657907,0.004252066,0.060107045
1.76966E+18,3.822555664,0.019693127,-0.035030397,0.094045188,-0.010996248,0.00334641,0.06096603
1.76966E+18,3.832543945,0.072403411,-0.003048282,0.093020229,-0.018082919,0.000457147,0.052499041
1.76966E+18,3.842531982,0.122760118,0.032174423,0.104891284,-0.022034992,0.005776726,0.051212884
1.76966E+18,3.85252002,0.055841714,0.013996961,0.112559627,-0.030210629,0.025655359,0.0527988
1.76966E+18,3.862507813,0.038651218,-0.084454061,0.081170801,-0.035752844,0.044961516,0.044740379
1.76966E+18,3.872496094,0.055000295,-0.231366039,0.106111766,-0.027080525,0.038446624,0.03051164
1.76966E+18,3.882484131,0.009464578,-0.301156199,0.205583071,-0.008314441,0.012776529,0.014289543
1.76966E+18,3.892471924,-0.00679229,-0.318577289,0.179732882,-0.002484782,-0.011043049,-0.002074517
1.76966E+18,3.902459961,0.048090516,-0.275354818,0.029814124,-0.005123113,-0.035037771,-0.019608181
1.76966E+18,3.912448975,0.061011518,-0.173094467,-0.00061404,-0.007693863,-0.052387465,-0.022083856
1.76966E+18,3.922437012,0.029137539,-0.120748778,-0.043246437,-0.015976856,-0.064991236,-0.012939038
1.76966E+18,3.932424805,0.072613839,-0.072365564,-0.048183601,-0.025386868,-0.061177585,-0.015943084
1.76966E+18,3.942412842,0.115994716,-0.050949851,-0.04830635,-0.028384112,-0.048857067,-0.021038812
1.76966E+18,3.952400879,0.105974111,-0.045535424,-0.06120821,-0.030514108,-0.042310752,-0.024872698
1.76966E+18,3.962388672,0.023752339,-0.046498716,-0.075000004,-0.028521704,-0.046497628,-0.024241382
1.76966E+18,3.972376709,-0.096819037,-0.03176818,-0.048097968,-0.021402542,-0.044087466,-0.016365349
1.76966E+18,3.982364746,-0.133143565,-0.014819383,-0.035015492,-0.014513517,-0.036478423,-0.001113203
1.76966E+18,3.99235376,-0.124136521,-0.010420856,-0.063445759,-0.009743795,-0.024586344,0.001592303
1.76966E+18,4.002341553,-0.08139555,-0.00831307,-0.069608374,-0.003361912,0.004130905,-0.004020446
1.76966E+18,4.01232959,-0.040257338,-0.030304537,-0.015008184,0.002246706,0.019874714,-0.019118173
1.76966E+18,4.022317627,0.011147125,-0.018467385,-0.034999417,0.006761639,0.007330969,-0.031820294
1.76966E+18,4.03230542,-0.004843056,0.018300211,-0.028906069,0.00963732,0.017773757,-0.029260196
1.76966E+18,4.042293701,-0.105525783,-0.012082067,0.035506198,0.009752093,0.028534701,-0.017228251
1.76966E+18,4.052281738,-0.066013564,0.041464814,0.06152619,0.007319827,0.016924651,-0.008898947
1.76966E+18,4.062269775,-0.03999971,0.098746205,0.04447744,0.001951453,0.005480699,0.002454265
1.76966E+18,4.072258789,-0.085494948,0.080037413,0.046831017,-0.009564321,-0.006567974,0.021396
1.76966E+18,4.082246582,-0.009626053,0.060869187,0.067808923,-0.027875358,-0.044222265,0.030058231
1.76966E+18,4.092234619,0.195314482,-0.018337036,0.161821378,-0.042130459,-0.088046178,0.025089039
1.76966E+18,4.102222656,0.24856165,-0.128525258,0.171987967,-0.05649941,-0.09732648,0.014181985
1.76966E+18,4.112210449,0.240409908,-0.178590142,0.117779992,-0.065021262,-0.096848704,0.004036939
1.76966E+18,4.12219873,0.229287625,-0.185182964,0.070574004,-0.06829682,-0.102259912,-0.002158345
1.76966E+18,4.132186768,0.213985573,-0.150869191,-0.022641163,-0.071851075,-0.124999844,0.002309108
1.76966E+18,4.142174561,0.173791071,-0.083991119,-0.056447863,-0.066350326,-0.136434183,0.007096572
1.76966E+18,4.152162598,0.038290714,-0.010593875,-0.103586047,-0.066639811,-0.140139967,0.025350677
1.76966E+18,4.162151611,-0.05249708,0.020941666,-0.107595867,-0.067625329,-0.125970945,0.044332869
1.76966E+18,4.172139648,-0.056689709,0.046006549,-0.04899857,-0.060797513,-0.094709702,0.053871248
1.76966E+18,4.182127686,-0.062610478,-0.049663902,-0.064287617,-0.053840142,-0.084736727,0.052924573
1.76966E+18,4.192115479,-0.008985709,-0.08856325,-0.069583532,-0.047865074,-0.08529599,0.034110673
1.76966E+18,4.20210376,0.092113636,-0.056274845,-0.037454848,-0.035097137,-0.074478768,0.008117054
1.76966E+18,4.212091797,0.082842242,-0.051567106,-0.044683484,-0.025286319,-0.068773478,-0.004629102
1.76966E+18,4.22207959,-0.001125497,-0.053401335,-0.125043407,-0.018800501,-0.06483911,-0.00606017
1.76966E+18,4.232067627,-0.029457273,-0.005050269,-0.147216952,-0.007853578,-0.032908339,-0.000743701
1.76966E+18,4.242056641,-0.086847093,0.021881577,-0.176013716,-0.003218375,-0.022219257,0.014067907
1.76966E+18,4.252044678,-0.046212447,0.026570612,-0.102484954,0.006343172,-0.004895661,0.023286173
1.76966E+18,4.262032471,-0.057584758,0.006372458,-0.096597503,0.010853796,0.001720213,0.029450953
1.76966E+18,4.272020508,-0.01309066,-0.008282675,-0.048429831,0.006885421,-0.00856092,0.02789833
1.76966E+18,4.282008789,0.035475656,0.004916998,0.019070611,0.010768444,-0.01152979,0.012778421
1.76966E+18,4.291996582,0.072806878,-0.004348843,0.066306556,0.006798205,-0.021654062,-0.000679065
1.76966E+18,4.301984619,0.073759648,0.01505553,0.031184681,0.003794581,-0.030365104,-0.011501914
1.76966E+18,4.311972656,0.064985975,0.036895022,0.002153671,-0.00412566,-0.04010801,0.000927059
1.76966E+18,4.32196167,0.05186565,0.041824295,-0.05201558,-0.007162744,-0.01909603,0.016475182
1.76966E+18,4.331949707,0.084859573,-0.025964462,-0.132436878,-0.008614433,-0.016432336,0.0327463
1.76966E+18,4.3419375,0.123813427,-0.082885788,-0.032425037,-0.005295341,0.001821191,0.042030238
1.76966E+18,4.351925537,0.13651158,-0.118866618,-0.042741556,-0.00596699,-0.002736542,0.038652018
1.76966E+18,4.361913818,0.123537532,-0.112746089,0.004735504,-0.005775107,-0.005157067,0.0330332
1.76966E+18,4.371901611,-0.006512451,-0.077630937,-0.001303922,-0.009280892,-0.000278689,0.028180921
1.76966E+18,4.381889648,-0.088226565,-0.067002575,-0.040362552,-0.016133623,-0.018572228,0.033634625
1.76966E+18,4.391877686,-0.137984575,-0.050153732,-0.01580138,-0.018947786,-0.016802559,0.029819911
1.76966E+18,4.401866699,-0.112019236,-0.032173254,-0.042019233,-0.020507369,-0.039105475,0.029504219
1.76966E+18,4.411854492,-0.110267424,0.000735913,0.01854688,-0.014097938,-0.031640898,0.029417668
1.76966E+18,4.421842529,-0.08867314,0.052504679,-0.033491789,-0.014944844,-0.044282619,0.029772788
1.76966E+18,4.431830566,-0.038183016,0.08745675,-0.03546002,-0.010086706,-0.036488079,0.038549237
1.76966E+18,4.441818848,-0.040887014,0.103344055,-0.059842328,-0.011901664,-0.023587022,0.041866787
1.76966E+18,4.451806641,0.036235681,0.093833299,-0.082819884,9.98715E-05,0.015831223,0.033010446
1.76966E+18,4.461794678,0.040181496,0.049518356,-0.112803811,-0.002969727,0.012333555,0.030920355
1.76966E+18,4.471782715,0.06953034,-0.013429975,-0.059533993,0.009740209,0.029530119,0.017625855
1.76966E+18,4.481770508,-0.013304887,0.004967852,-0.062828066,0.012679312,0.045954239,0.018846959
1.76966E+18,4.491759521,0.032265462,-0.007351532,-0.137318367,0.019174229,0.039673973,0.013565377
1.76966E+18,4.501747559,0.037983255,0.03195815,-0.070659052,0.015252687,0.035879627,0.023862446
1.76966E+18,4.511735596,0.08469956,0.023477906,-0.133666858,0.00839984,0.017861478,0.018892454
1.76966E+18,4.521723633,0.142879362,0.02831424,-0.145899002,-0.004345085,0.019979296,0.027411921
1.76966E+18,4.53171167,0.122065706,-0.004155951,-0.153242058,-0.020904353,0.018406434,0.033587258
1.76966E+18,4.541699707,0.154671506,-0.045122752,-0.074541154,-0.025531182,0.01851627,0.043128166
1.76966E+18,4.5516875,0.085670159,-0.091212887,-0.027677696,-0.032507598,0.007605032,0.052995179
1.76966E+18,4.561675537,0.073979428,-0.135825352,-0.007522797,-0.036303312,0.013435328,0.046868347
1.76966E+18,4.571664551,0.031893852,-0.120733581,0.023989801,-0.041383293,0.002386139,0.038018398
1.76966E+18,4.581652588,0.023709377,-0.117065121,0.043744888,-0.050540343,-0.003979752,0.018531468
1.76966E+18,4.591640625,-0.004008651,-0.116458972,0.039679976,-0.055232301,-0.008021632,0.009547028
1.76966E+18,4.601628662,-0.089763565,-0.114146604,0.143851275,-0.047143009,-0.021840254,0.011847106
1.76966E+18,4.611616699,-0.124018886,-0.103521165,0.153185798,-0.0466679,-0.036434643,0.011468938
1.76966E+18,4.621604736,-0.05923048,-0.044028527,0.051736909,-0.050212611,-0.026562758,0.006487077
1.76966E+18,4.631592529,-0.112049924,-0.006294716,0.091641196,-0.051601451,-0.015516232,0.009583801
1.76966E+18,4.641580566,-0.089421035,0.002862988,0.017440964,-0.052941378,-0.015444696,0.003068076
1.76966E+18,4.65156958,-0.073794427,0.04738719,0.063637483,-0.044225384,-0.02100005,0.003052895
1.76966E+18,4.661557617,-0.075320322,0.033660862,0.036941491,-0.043292303,-0.018832874,-0.000529625
1.76966E+18,4.67154541,-0.050152855,0.0415975,-0.014510464,-0.035018131,-0.002844319,0.004330112
1.76966E+18,4.681533447,-0.112844289,0.021194764,0.01915902,-0.029001469,0.021595962,0.007588906
1.76966E+18,4.691521729,-0.151636669,-0.013799393,0.085364307,-0.018548295,0.032169774,0.009172688
1.76966E+18,4.701509766,-0.094634971,-0.075337273,0.080674396,-0.01218568,0.041445844,0.002867219
1.76966E+18,4.711497559,-0.07919424,-0.146290631,0.137381057,0.001389251,0.036372788,-0.013526934
1.76966E+18,4.721485596,-0.049244946,-0.080489833,0.161200031,0.010459393,0.021926772,-0.023079684
1.76966E+18,4.731474854,-0.061772273,-0.034493221,0.093774262,0.006185019,0.000743721,-0.03015144
1.76966E+18,4.741462646,-0.056144643,0.008109657,-0.002155132,0.000595567,-0.015059298,-0.026358251
1.76966E+18,4.751450439,-0.055853551,-0.017201895,-0.029215281,-0.0033547,-0.01772459,-0.021207698
1.76966E+18,4.761438477,-0.015862755,-0.059086395,-0.019484014,-0.005892566,-0.031156173,-0.025437035
1.76966E+18,4.771426758,0.040250177,-0.09215046,0.004984657,-0.004434219,-0.040678307,-0.034590319
1.76966E+18,4.781414551,0.042048167,-0.081042791,-0.001678455,-0.000734565,-0.032064095,-0.042017713
1.76966E+18,4.791402588,0.040548576,-0.050902504,-0.031657121,0.009346565,-0.016247846,-0.039136704
1.76966E+18,4.801390625,0.020449791,0.014070026,-0.048271279,0.007935696,-0.001177807,-0.030148705
1.76966E+18,4.811378662,-0.005526216,0.040380526,-0.039770139,0.006019819,0.01263308,-0.018424407
1.76966E+18,4.821367676,0.067043346,0.043657355,-0.045004678,0.006679247,0.021263368,-0.01188066
1.76966E+18,4.831355469,0.128021107,-0.017107787,-0.059580024,0.007334651,0.016769286,-0.004000898
1.76966E+18,4.841343506,0.176824886,-0.06055939,-0.069102762,0.010528941,0.009495541,-0.00010801
1.76966E+18,4.851331787,0.186543439,-0.037175008,-0.058621993,0.007964583,0.014273519,0.005811664
1.76966E+18,4.86131958,0.136238024,-0.008739187,-0.075483988,0.010287257,0.014073493,0.018224204
1.76966E+18,4.871307617,0.096544019,-0.00358195,-0.094493955,0.012018045,0.023590565,0.029364739
1.76966E+18,4.881295654,0.062855831,-0.030629532,-0.069975307,0.017161731,0.043394908,0.034389425
1.76966E+18,4.891283691,0.070176383,-0.06831658,-0.053933543,0.025642036,0.051640052,0.030596817
1.76966E+18,4.901272705,0.046717181,-0.084288056,-0.025316374,0.029827744,0.069068141,0.02602677
1.76966E+18,4.911260498,-0.020064298,-0.099696638,-0.052038523,0.034954861,0.083742425,0.022357468
1.76966E+18,4.921248535,-0.057039984,-0.079150694,-0.052491819,0.040768698,0.093610838,0.019428017
1.76966E+18,4.931236572,-0.082790511,-0.054310851,-0.021496523,0.046702754,0.0989803,0.014040175
1.76966E+18,4.941224609,-0.075157825,-0.029919922,-0.028087154,0.054606177,0.099080823,0.00495289
1.76966E+18,4.951212646,-0.06890081,-0.013521745,-0.055210284,0.055733759,0.105595455,-0.000943348
1.76966E+18,4.961200928,-0.097406043,-0.048127194,-0.063840019,0.059883311,0.123583257,-0.003975266
1.76966E+18,4.971189209,-0.108974462,-0.086211134,-0.055605713,0.062118236,0.14200674,-0.003600027
1.76966E+18,4.981177979,-0.100094697,-0.108020814,-0.017857728,0.065349773,0.157878652,-0.007907063
1.76966E+18,4.991165771,-0.084531218,-0.076859952,0.032071547,0.072655894,0.164371967,-0.013474403
1.76966E+18,5.001153809,-0.075003511,-0.02111936,0.079213676,0.07162194,0.153360397,-0.018286446
1.76966E+18,5.01114209,-0.055319736,0.018811083,0.085050127,0.064736873,0.129905403,-0.02575315
1.76966E+18,5.021130127,-0.033492812,0.054788406,0.07671879,0.056733184,0.109358706,-0.031845808
1.76966E+18,5.03111792,0.034997517,0.07262626,0.060004533,0.043954536,0.093256436,-0.029286511
1.76966E+18,5.041105957,0.082395082,0.044498482,0.044288493,0.034721855,0.078852639,-0.034088127
1.76966E+18,5.051094238,0.159491035,-0.019250059,0.073412881,0.0326856,0.072721772,-0.034225009
1.76966E+18,5.061082031,0.112812725,-0.040695583,0.054419426,0.033057082,0.086687036,-0.029424872
1.76966E+18,5.071070801,0.050793783,-0.104501992,0.057703709,0.032845628,0.110563874,-0.018950127
1.76966E+18,5.081058838,-0.012117285,-0.100990185,0.064934244,0.03344785,0.139197707,-0.01004272
1.76966E+18,5.091047119,0.010365034,-0.083414781,0.024194676,0.038038075,0.140873089,-0.003393074
1.76966E+18,5.101034912,0.04446458,-0.042260348,-0.026831893,0.036681637,0.113780387,-0.000496122
1.76966E+18,5.111022949,0.030591391,-0.031062078,-0.066552055,0.035607584,0.095824562,0.000402961
1.76966E+18,5.121010986,-0.037201311,-0.028116672,-0.069617142,0.034833495,0.102046072,0.000640816
1.76966E+18,5.130999268,-0.120491881,-0.006927753,-0.032191666,0.020236176,0.118648484,-0.017278263
1.76966E+18,5.140988037,-0.165059337,-0.029287469,0.046104602,0.014565988,0.077000678,-0.023494603
1.76966E+18,5.15097583,-0.097583591,-0.061340896,-0.028583997,0.017280281,0.068984561,-0.035330221
1.76966E+18,5.160963867,-0.167148857,-0.107858317,-0.012497955,0.025427256,0.092679918,-0.046519354
1.76966E+18,5.170952148,-0.130634505,-0.077689973,0.005154752,0.035180017,0.09293665,-0.05027521
1.76966E+18,5.180939941,0.000847849,-0.043429392,-0.031155601,0.041440926,0.084563464,-0.060923934
1.76966E+18,5.190927979,0.054399845,-0.002823241,-0.018454379,0.044033781,0.078286394,-0.060684249
1.76966E+18,5.200916016,0.124546271,0.036715573,-0.04918591,0.036088064,0.06721174,-0.058391765
1.76966E+18,5.210904053,0.228184779,0.045009939,-0.0812256,0.02530599,0.043346889,-0.045045599
1.76966E+18,5.22089209,0.263230373,0.027796354,-0.07303601,0.007686243,0.02592391,-0.028352477
1.76966E+18,5.230881104,0.238961755,-0.01210954,-0.033967736,0.002096268,0.002577042,-0.001214332
1.76966E+18,5.240868896,0.217395089,-0.012779402,-0.063591013,0.008592426,0.004475505,0.022400148
1.76966E+18,5.250856934,0.120919167,0.015663433,-0.026882892,0.011948542,0.010288919,0.045401074
1.76966E+18,5.260844971,0.038650779,0.079430095,-0.014769261,0.007185097,-0.005392188,0.058102082
1.76966E+18,5.270833008,0.007577742,0.167873518,0.029400136,0.00324282,-0.018196667,0.055274338
1.76966E+18,5.280821045,-0.093717271,0.184447051,0.065871087,0.006047062,-0.022653792,0.04931052
1.76966E+18,5.290809082,-0.111809831,0.175521402,0.046204848,0.010362715,-0.028189439,0.044603381
1.76966E+18,5.300797119,-0.068676354,0.165604404,0.03530746,0.011057857,-0.032978591,0.043656461
1.76966E+18,5.310786133,-0.037922319,0.097681207,0.038244244,0.009012017,-0.039713457,0.043789085
1.76966E+18,5.320773926,0.00383008,0.032907413,0.014279431,0.002554326,-0.048654765,0.053261053
1.76966E+18,5.330761963,0.035350715,-0.041064416,0.008888094,-0.005569647,-0.054058854,0.068598464
1.76966E+18,5.34075,0.015377602,-0.095231475,0.019758155,-0.013286897,-0.065413229,0.079948425
1.76966E+18,5.350738037,0.015142332,-0.11079554,-0.016019991,-0.024429031,-0.077415563,0.087790363
1.76966E+18,5.36072583,0.013027824,-0.129631758,-0.031717473,-0.02463706,-0.073560774,0.075688913
1.76966E+18,5.370713867,0.043702656,-0.147486563,-0.064045917,-0.021408509,-0.088894986,0.059586644
1.76966E+18,5.380702148,0.05451368,-0.112370826,-0.124198042,-0.017294962,-0.100112133,0.048533667
1.76966E+18,5.390691162,-0.013514584,-0.051239773,-0.158941146,-0.00734193,-0.081022061,0.050985374
1.76966E+18,5.400678955,-0.065405369,-0.001695698,-0.175408735,-0.001484177,-0.059602279,0.061172046
1.76966E+18,5.410666992,-0.050054655,0.072307111,-0.126028765,-0.001847698,-0.053066351,0.068987362
1.76966E+18,5.420655029,-0.044056292,0.073645666,-0.000358166,-0.008187132,-0.052520853,0.060367353
1.76966E+18,5.430643066,-0.053887073,0.041345571,0.158329006,-0.012628486,-0.060160931,0.039509211
1.76966E+18,5.440630859,-0.007843261,0.016802666,0.232889887,-0.012422922,-0.072444059,0.006338533
1.76966E+18,5.450618896,-0.052827919,-0.023503625,0.256581583,-0.016560143,-0.066878051,-0.014199499
1.76966E+18,5.460607178,-0.099421328,-0.052578328,0.241362825,-0.022183822,-0.067951411,-0.021132905
1.76966E+18,5.470596191,-0.012797522,-0.079806527,0.140407419,-0.034980845,-0.067338355,-0.017016456
1.76966E+18,5.480583984,-0.007214461,-0.155911862,0.034805794,-0.044734035,-0.057559036,0.002504762
1.76966E+18,5.490572021,0.106675099,-0.170168935,-0.004212649,-0.056583237,-0.069203705,0.012157923
1.76966E+18,5.500560059,0.272811563,-0.117704588,-0.080632457,-0.070479929,-0.077208333,-0.001793303
1.76966E+18,5.510547852,0.30454628,-0.110161333,-0.080559684,-0.070907101,-0.116909407,-0.001931521
1.76966E+18,5.520535889,0.176544608,-0.173683081,-0.110728904,-0.0713199,-0.146729663,0.005497526
1.76966E+18,5.530523926,0.082065997,-0.102679453,-0.164041831,-0.072338022,-0.141850218,0.009587609
1.76966E+18,5.540512207,0.02026289,0.02794833,-0.103659112,-0.074680008,-0.109663785,0.019328387
1.76966E+18,5.550500977,0.001663549,0.069354107,-0.068731299,-0.075783357,-0.091888785,0.018956078
1.76966E+18,5.560489014,0.062777505,0.061460723,-0.062105743,-0.07245151,-0.081883118,0.012462286
1.76966E+18,5.570477295,0.052853638,0.039705987,-0.031366468,-0.061018821,-0.063874558,0.007740236
1.76966E+18,5.580465088,-0.023460078,0.025375264,-0.048236208,-0.053340282,-0.036990102,0.004838477
1.76966E+18,5.590452881,-0.058249652,0.015148469,-0.087911654,-0.04712899,-0.014963632,0.003641652
1.76966E+18,5.600440918,-0.099713735,-0.034658641,-0.059127604,-0.045832902,-0.003075205,-0.004604696
1.76966E+18,5.610428955,-0.043391398,-0.052048752,-0.087409257,-0.043927673,-0.004057645,-0.023938181
1.76966E+18,5.620416992,-0.028862522,-0.050860419,-0.039630438,-0.036708795,0.003018483,-0.039249472
1.76966E+18,5.630406006,-0.138082483,-0.0254419,0.015203268,-0.032473836,0.006595108,-0.040822066
1.76966E+18,5.640394043,-0.203414494,-0.004197452,-0.009343144,-0.034611326,-0.003041904,-0.035194471
1.76966E+18,5.650382324,-0.125542442,0.046337973,-0.093701782,-0.036713626,-0.009715253,-0.025986595
1.76966E+18,5.660370117,-0.090678196,0.07449147,-0.031100072,-0.030001968,-0.00587245,-0.021199873
1.76966E+18,5.67035791,-0.037433659,0.097397713,-0.016895167,-0.028845357,0.001915964,-0.019940997
1.76966E+18,5.680345947,-0.004981442,0.065870941,-0.008068594,-0.021635853,0.013468504,-0.015565065
1.76966E+18,5.690333984,-0.047570437,-0.079216745,0.025189532,-0.017178254,0.022425514,-0.008795842
1.76966E+18,5.700322021,-0.007347586,-0.162577165,-0.039741936,-0.012019856,0.016100967,0.004564683
1.76966E+18,5.710311035,0.058978113,-0.140428461,-0.084369451,-0.011861931,0.022023305,0.017557712
1.76966E+18,5.720299072,0.044817631,-0.067770637,-0.073761256,-0.006845859,0.034675229,0.036411665
1.76966E+18,5.730287354,0.037983401,-0.015528409,-0.090062987,-0.00205856,0.033444848,0.04708162
1.76966E+18,5.740275146,0.049165597,0.025946342,-0.092194884,0.001101372,0.032929119,0.050501399
1.76966E+18,5.750262939,-0.010955109,0.106737204,-0.028400896,-0.001401467,0.045569014,0.054358192
1.76966E+18,5.760250977,-0.086539635,0.118323013,0.003415069,-0.003603605,0.05103416,0.056336612
1.76966E+18,5.77023877,-0.055186173,0.100236152,-0.021870325,-0.003324239,0.056027856,0.047920756
1.76966E+18,5.780227051,-0.024441491,0.0476134,-0.006609627,-0.002619658,0.049922984,0.038354114
1.76966E+18,5.790216064,0.055146718,-0.020006431,-0.002537556,0.000396905,0.045165781,0.031104991
1.76966E+18,5.800204102,0.04522329,-0.177464937,-0.033094168,-0.001662123,0.050087601,0.029234299
1.76966E+18,5.810191895,0.048468555,-0.215011116,-0.044713586,-0.001573706,0.056640573,0.031903852
1.76966E+18,5.820180176,0.084954411,-0.175472302,-0.023520284,0.000754133,0.059629824,0.02939192
1.76966E+18,5.830167969,0.116515379,-0.144184599,-0.038164311,0.005475119,0.055916045,0.027840896
1.76966E+18,5.840156006,0.065235858,-0.068822776,-0.060959934,0.005512209,0.055648901,0.024883172
1.76966E+18,5.850143799,0.030218905,-0.061361939,-0.071896046,0.001896968,0.044069476,0.019432746
1.76966E+18,5.86013208,0.005621347,-0.107971714,-0.089921386,-0.000402933,0.038765304,0.013588548
1.76966E+18,5.870121094,-0.056233344,-0.199789582,-0.069772478,-0.000688424,0.050675225,0.009868644
1.76966E+18,5.880109131,-0.073769001,-0.246661223,0.001994535,0.003686084,0.064629123,0.000981942
1.76966E+18,5.890096924,-0.03709522,-0.251767606,0.072559333,0.005593174,0.054573558,-0.009648865
1.76966E+18,5.900085205,-0.008810791,-0.155802556,0.096599549,-0.000721441,0.033888567,-0.017819602
1.76966E+18,5.910073242,-0.060451254,-0.071287705,0.082522508,-0.014556829,0.010198152,-0.013716204
1.76966E+18,5.920060791,-0.092836981,0.015994857,0.09162176,-0.027105406,-0.016640743,-0.005123192
1.76966E+18,5.930048828,-0.07439327,0.08216858,0.110904407,-0.035045624,-0.03001008,0.003281477
1.76966E+18,5.940037109,-0.058403235,0.001194763,0.123897744,-0.039131746,-0.022168804,-0.001400942
1.76966E+18,5.950026123,-0.002452362,-0.037337505,0.174747057,-0.037944511,-0.021884112,-0.020186082
1.76966E+18,5.960014648,0.080615213,0.012142858,0.161635208,-0.03948814,-0.031419575,-0.038107909
1.76966E+18,5.97000293,0.051499886,0.022651392,0.109802583,-0.040439155,-0.038804255,-0.038552392
1.76966E+18,5.979990723,0.024304712,0.041633741,0.093568511,-0.047665611,-0.047708973,-0.028567463
1.76966E+18,5.989978516,0.029771892,0.078839728,0.104888946,-0.054194883,-0.053491227,-0.015745942
1.76966E+18,5.999966553,0.070797291,0.070739424,0.079707597,-0.06495063,-0.065966681,-0.00140939
1.76966E+18,6.00995459,0.062588266,0.027172085,0.073173373,-0.074802458,-0.075844876,0.004619474
1.76966E+18,6.019942627,0.056981094,-0.078525255,0.090365184,-0.088238224,-0.088150688,-0.004804795
1.76966E+18,6.029931641,0.085639033,-0.133484341,0.076384298,-0.097572334,-0.12485864,-0.009057065
1.76966E+18,6.039919678,0.143776895,-0.144402041,0.020349983,-0.10382653,-0.150767654,-0.010423953
1.76966E+18,6.049907959,0.117753396,-0.139103935,-0.055072045,-0.106042549,-0.149505049,-0.000367324
1.76966E+18,6.059895752,0.086392628,-0.108677232,-0.090184567,-0.098795839,-0.143192023,0.007919638
1.76966E+18,6.069883545,0.046737786,-0.048424131,-0.099493955,-0.089144804,-0.139028177,0.014076068
1.76966E+18,6.079871582,-0.038326808,-0.017709844,-0.134515584,-0.085976899,-0.12656346,0.014623811
1.76966E+18,6.089859619,-0.120832073,-0.023964813,-0.148012195,-0.07082431,-0.103515394,0.005532313
1.76966E+18,6.099847656,-0.149934541,0.02714052,-0.138915573,-0.051200926,-0.073126793,-0.004359181
1.76966E+18,6.10983667,-0.187565768,0.052645549,-0.133367875,-0.029500689,-0.020832429,-0.013579576
1.76966E+18,6.119824707,-0.144558255,0.063910454,-0.153279321,-0.014562101,-0.000810591,-0.019717917
1.76966E+18,6.129812744,-0.096580698,0.023202012,-0.192078715,-0.006215755,0.020168461,-0.015982833
1.76966E+18,6.139800781,-0.055295917,-0.021864041,-0.098729693,0.003353462,0.017674711,-0.018242778
1.76966E+18,6.149788574,0.043654433,0.004624153,-0.076946608,0.011574906,0.03798078,-0.021825263
1.76966E+18,6.159776611,-0.025342969,-0.028488428,0.007296294,0.018317249,0.060367409,-0.020289477
1.76966E+18,6.169764648,-0.021022038,0.003260463,-0.020516572,0.021097323,0.063281171,-0.023044519
1.76966E+18,6.179752686,0.020961978,-0.017761867,-0.05253069,0.018464688,0.055932824,-0.026528336
1.76966E+18,6.189741699,0.075626611,-0.005665771,-0.083628716,0.011681615,0.03456362,-0.026400238
1.76966E+18,6.199729736,0.115595049,0.011319266,-0.092609602,0.003353682,0.016499005,-0.022244861
1.76966E+18,6.209717773,0.080893153,0.011331541,-0.103808311,-0.004391322,0.018640986,-0.010593799
1.76966E+18,6.219705811,0.025989305,-0.031714989,-0.016797113,-0.013249025,0.028176878,-0.006399529
1.76966E+18,6.229693848,0.008915128,-0.066058572,0.095476244,-0.021659289,0.025655396,0.002016858
1.76966E+18,6.239681641,0.022608138,-0.055949851,0.175542445,-0.027848685,0.028397888,0.0192941
1.76966E+18,6.249669434,0.018461539,-0.060152563,0.227852916,-0.037713032,0.037610028,0.033004317
1.76966E+18,6.259657715,0.111626438,-0.065455346,0.18224092,-0.046023462,0.020887105,0.033371251
1.76966E+18,6.269646729,0.158013802,-0.103132458,0.134108318,-0.05580179,-0.018165756,0.025915468
1.76966E+18,6.279634766,0.148894384,-0.095574005,0.033116818,-0.062535889,-0.05560036,0.012679785
1.76966E+18,6.289622559,0.075412676,-0.069988313,-0.063501874,-0.060686857,-0.060373545,0.014120822
1.76966E+18,6.29961084,-0.027716859,-0.04727087,-0.127646283,-0.055872504,-0.042954847,0.024965923
1.76966E+18,6.309598877,-0.053873921,-0.004667407,-0.131117758,-0.0514418,-0.028831037,0.043383278
1.76966E+18,6.31958667,-0.038946401,0.011222236,-0.082057813,-0.051935278,-0.023083847,0.055655345
1.76966E+18,6.329574463,-0.043805824,-0.050924132,-0.0093788,-0.052679632,-0.020449981,0.065245651
1.76966E+18,6.339562744,-0.023349019,-0.085071316,0.052634735,-0.056586958,-0.019454211,0.066054016
1.76966E+18,6.349551758,0.009802724,-0.103179219,0.091983141,-0.056392279,-0.020991122,0.060275752
1.76966E+18,6.359539795,0.044584115,-0.061238605,0.10629516,-0.050985973,-0.028862789,0.0486921
1.76966E+18,6.369527588,0.035776247,-0.013221885,0.095137367,-0.058578115,-0.056839295,0.038255174
1.76966E+18,6.379515869,0.116476508,0.064823478,-0.091633889,-0.062348045,-0.081368998,0.037968934
1.76966E+18,6.389503906,0.033926527,0.057657824,-0.120019295,-0.060146675,-0.082610831,0.052630432
1.76966E+18,6.399491699,0.060016223,0.06699673,-0.144014503,-0.052696832,-0.062416673,0.063163035
1.76966E+18,6.409479492,-0.010623101,0.032629765,-0.092586368,-0.044518799,-0.034367196,0.074142717
1.76966E+18,6.419467529,-0.031097441,0.02283084,-0.008107903,-0.040281717,-0.019398147,0.065887079
1.76966E+18,6.429456787,-0.007102818,-0.003073416,0.062827481,-0.040946178,-0.030128023,0.048700638
1.76966E+18,6.43944458,0.000818623,0.010628946,0.06854279,-0.047806844,-0.072704338,0.035279058
1.76966E+18,6.449432617,0.022558161,0.024238369,-0.014845541,-0.05603468,-0.104752287,0.042768396
1.76966E+18,6.459420898,-0.008109657,0.011184242,-0.018439474,-0.069748513,-0.078144774,0.044701472
1.76966E+18,6.469408936,0.118507137,-0.004901216,-0.031995705,-0.075652748,-0.094371147,0.041624721
1.76966E+18,6.479396729,0.136038117,-0.041632572,-0.036778117,-0.079411596,-0.109780207,0.051083378
1.76966E+18,6.489384521,0.075041943,-0.062256842,0.003851561,-0.088376597,-0.094776757,0.056486398
1.76966E+18,6.499372559,0.115633627,-0.093041272,0.035254853,-0.09490598,-0.098782562,0.056511559
1.76966E+18,6.509361816,0.133787708,-0.073361004,0.007061463,-0.098790735,-0.110654399,0.06683024
1.76966E+18,6.519349609,0.119898591,-0.089198625,-0.052828942,-0.107757472,-0.119361684,0.077773154
1.76966E+18,6.529337646,0.08245295,-0.149418408,-0.080014763,-0.115100071,-0.110824123,0.082712516
1.76966E+18,6.539325928,0.10479703,-0.169864984,-0.03420096,-0.116809435,-0.126666501,0.075658679
1.76966E+18,6.549313721,0.093055885,-0.167685886,-0.054092679,-0.112311088,-0.131571501,0.075347356
1.76966E+18,6.559301758,0.001886544,-0.146961078,-0.031571927,-0.104760811,-0.118812256,0.059704758
1.76966E+18,6.569289795,-0.05858809,-0.117830261,-0.05647709,-0.089340046,-0.098622039,0.040556896
1.76966E+18,6.579277588,-0.174942872,-0.040840544,-0.113348439,-0.070683353,-0.072691694,0.025404381
1.76966E+18,6.589266602,-0.268739492,0.027670097,-0.157445647,-0.051831897,-0.045703486,0.015189294
1.76966E+18,6.599254639,-0.292695537,0.078644498,-0.131102853,-0.032740623,-0.018816397,0.001904121
1.76966E+18,6.609242676,-0.242443313,0.060030983,-0.080854867,-0.021120984,-0.000872548,-0.014170719
1.76966E+18,6.619230957,-0.177981362,0.034760932,-0.054728346,-0.012443344,0.003194837,-0.022750711
1.76966E+18,6.62921875,-0.12161577,0.016003625,-0.010182664,-0.005437633,0.008237267,-0.024098272
1.76966E+18,6.639206787,-0.056493018,0.043691258,-0.029257951,0.000658077,0.007245505,-0.022272408
1.76966E+18,6.649194824,0.007868541,0.068798811,-0.060401131,0.00708748,0.008687607,-0.014727673
1.76966E+18,6.659182617,0.0121205,0.087471363,-0.096410456,0.015125381,0.017206829,-0.003970091
1.76966E+18,6.669171631,-0.004457564,0.07118366,-0.092128687,0.025073087,0.041472223,0.006534748
1.76966E+18,6.679159668,-0.02898308,0.011062077,-0.056147127,0.035051554,0.073094085,0.010851652
1.76966E+18,6.689147705,-0.014353666,-0.011828385,-0.042155573,0.043917216,0.082555227,0.004462196
1.76966E+18,6.699135498,-0.029369595,-0.035807811,-0.013472353,0.045408208,0.088686213,0.00229158
1.76966E+18,6.709123779,-0.048865153,-0.057247489,-0.011813187,0.044883031,0.089008451,-0.004003068
1.76966E+18,6.719111816,-0.045628948,-0.055933484,0.000504442,0.048943531,0.078341872,-0.00784516
1.76966E+18,6.729099854,-0.039580023,-0.036641924,0.014025164,0.050506808,0.070489012,-0.010879832
1.76966E+18,6.739088623,-0.076656539,-0.018388474,0.025896073,0.05291171,0.07253886,-0.005878848
1.76966E+18,6.74907666,-0.085794662,0.008505378,-0.00149433,0.054831583,0.073463775,-0.005011722
1.76966E+18,6.759064697,-0.057414078,0.002278466,-0.000316519,0.053037614,0.056762271,-0.002789672
1.76966E+18,6.769052734,0.038534459,0.007014263,-0.002365414,0.052022152,0.027085602,-0.00425441
1.76966E+18,6.779040527,0.024273148,0.016828385,0.020992373,0.047556479,0.063123174,-0.011194006
1.76966E+18,6.789028809,0.062129124,-0.006743629,0.007165215,0.047073383,0.05561386,-0.01925859
1.76966E+18,6.799016846,0.0766089,-0.00926058,-0.044115474,0.043917727,0.035314173,-0.007807359
1.76966E+18,6.809004639,0.002431903,-0.059610711,-0.083103669,0.043136891,0.046712767,-0.004497848
1.76966E+18,6.818993652,-0.031234512,-0.035779169,-0.064116791,0.045718074,0.060938761,-0.000875534
1.76966E+18,6.828981689,-0.09294921,-0.042016602,-0.072320263,0.046593986,0.059828226,-0.001721087
1.76966E+18,6.838969727,-0.107707218,-0.045619595,-0.033166503,0.047743525,0.06098716,-0.002758941
1.76966E+18,6.84895752,-0.126772276,3.09797E-05,0.028289544,0.044985823,0.065703079,-0.002602347
1.76966E+18,6.858945557,-0.107943657,0.026059155,0.009225509,0.039301336,0.061044827,0.002648111
1.76966E+18,6.868933838,-0.051449617,0.029339492,0.016030951,0.033148367,0.056057792,0.002858234
1.76966E+18,6.878921875,0.022903906,0.029376901,0.023074878,0.028574431,0.049537662,-0.00268572
1.76966E+18,6.888909668,0.06493556,0.000607318,0.051013856,0.024706988,0.047129899,-0.016910996
1.76966E+18,6.898898682,0.067950524,-0.027426352,0.035334202,0.018902784,0.03900582,-0.024312219
1.76966E+18,6.908886719,0.060005848,-0.0528513,0.001815525,0.015509386,0.028532941,-0.022822978
1.76966E+18,6.918874756,0.081821666,-0.051445525,-0.039283086,0.014980162,0.01755782,-0.018697729
1.76966E+18,6.928862549,0.071196227,-0.030847558,-0.052810384,0.011128698,0.01381528,-0.012145819
1.76966E+18,6.938850586,0.036672757,-0.026368367,-0.042483782,0.00395539,0.013016276,-0.006778948
1.76966E+18,6.948838867,0.049274319,-0.024068858,-0.03933204,-0.005232249,0.002899193,-0.002073675
1.76966E+18,6.95882666,0.052209349,-0.046905544,-0.03304653,-0.008737997,-0.007608171,-0.005875824
1.76966E+18,6.968814697,0.053746642,-0.069776716,-0.015254122,-0.009718573,-0.015563566,-0.009663638
1.76966E+18,6.978803223,0.01090937,-0.06501637,-0.019223464,-0.011012456,-0.028726701,-0.015961459
1.76966E+18,6.988791504,-0.000610241,-0.047849546,0.005551204,-0.013492126,-0.045893967,-0.01673351
1.76966E+18,6.998779541,-0.023663784,-0.029545243,-0.003652093,-0.015853945,-0.059092037,-0.014942617
1.76966E+18,7.008767578,-0.044775546,-0.011200024,-0.020145109,-0.020855095,-0.067166746,-0.017577283
1.76966E+18,7.018755371,-0.041873687,-0.020815994,-0.033066549,-0.020689378,-0.066921979,-0.017698906
1.76966E+18,7.028743652,-0.030885406,-0.030528994,-0.083492961,-0.018137537,-0.057992667,-0.022520294
1.76966E+18,7.038731689,-0.025314182,-0.055571665,-0.129099258,-0.009833686,-0.0472381,-0.030257858
1.76966E+18,7.048719482,-0.032817105,-0.025971477,-0.10293372,-0.002118508,-0.038048595,-0.035515204
1.76966E+18,7.058708496,-0.024098815,-0.009387422,-0.076755177,-0.000796321,-0.034962855,-0.037841666
1.76966E+18,7.068696533,-0.043084232,-0.004675591,-0.039773646,0.001129943,-0.032390241,-0.041089125
1.76966E+18,7.07868457,-0.030282618,-0.003359832,-0.009640081,0.001665414,-0.028417176,-0.042670276
1.76966E+18,7.088672363,-0.017077099,-0.015194647,-0.014402035,0.004317123,-0.022723069,-0.043266561
1.76966E+18,7.0986604,-0.028529344,-0.026643677,0.000469517,0.010313778,-0.002031013,-0.042363804
1.76966E+18,7.108648682,-0.049667702,-0.04821195,-0.026604075,0.019249484,0.018612213,-0.047224872
1.76966E+18,7.118636719,-0.059627955,-0.08170447,-0.05233166,0.029110681,0.027267141,-0.058275778
1.76966E+18,7.128624512,-0.066554978,-0.062472531,-0.069524349,0.038758516,0.024352845,-0.072485074
1.76966E+18,7.138613525,-0.105339174,-0.024334231,-0.081823566,0.043259066,0.034280583,-0.077257097
1.76966E+18,7.148601563,-0.143752784,-0.005399813,-0.091306411,0.048997644,0.050233983,-0.0717614
1.76966E+18,7.1585896,-0.130465724,0.004796587,-0.080216569,0.048639216,0.065259054,-0.062568344
1.76966E+18,7.168577393,-0.079562489,-0.029300913,-0.065046619,0.04727168,0.066182375,-0.057817258
1.76966E+18,7.17856543,-0.016941782,-0.037213002,-0.049386547,0.042159151,0.051302623,-0.057371218
1.76966E+18,7.188553711,0.044655427,-0.02942717,-0.012861674,0.041812405,0.040832937,-0.063498087
1.76966E+18,7.198541504,0.065666358,0.007958266,0.031121991,0.040408205,0.036740795,-0.067751236
1.76966E+18,7.208530518,0.077545012,0.036475919,0.03251403,0.038425483,0.040631142,-0.06479007
1.76966E+18,7.218518555,0.059886606,0.051863458,0.031825609,0.034117345,0.049916472,-0.053989086
1.76966E+18,7.228506592,0.061750061,0.044778468,0.026961803,0.031968173,0.06553831,-0.046421979
1.76966E+18,7.238494385,0.080596508,0.06509528,0.026499154,0.026738232,0.051962432,-0.04518605
1.76966E+18,7.248482422,0.095071609,0.039209728,0.032551878,0.022321379,0.028477881,-0.041009419
1.76966E+18,7.258470459,0.022430443,0.053855509,0.061671589,0.017068109,0.014011435,-0.033563986
1.76966E+18,7.26845874,-0.012173253,0.059527125,0.049538376,0.008014426,0.004854955,-0.023336384
1.76966E+18,7.278446533,0.030483986,0.052042906,0.005267273,-0.000962944,-0.012753318,-0.011222536
1.76966E+18,7.288435547,0.07164514,0.008812252,-0.068620824,-0.000724591,-0.016655648,-0.00355929
1.76966E+18,7.298423584,0.111689566,-0.038782443,-0.132458067,0.00135092,-0.001891414,-0.009552761
1.76966E+18,7.308411865,0.124889239,-0.090442487,-0.143581811,0.007089233,0.010606801,-0.029591186
1.76966E+18,7.318399414,0.110222416,-0.083980013,-0.190675424,0.018821374,0.011315142,-0.039291516
1.76966E+18,7.328387451,0.06374898,-0.054881929,-0.256342659,0.023837436,0.035517681,-0.044969648
1.76966E+18,7.338375488,0.034740474,-0.033795302,-0.273048879,0.02566006,0.06585142,-0.053474851
1.76966E+18,7.348363281,0.053173956,0.007459084,-0.300859846,0.017860195,0.077111267,-0.061542101
1.76966E+18,7.358351563,0.108819271,-0.015111644,-0.423270128,0.011975601,0.081202671,-0.059605278
1.76966E+18,7.368340576,0.121720546,-0.090455347,-0.500643291,0.008179798,0.109383978,-0.056722403
1.76966E+18,7.378328613,0.171347624,-0.118480249,-0.365129928,0.021785345,0.158836693,-0.063038193
1.76966E+18,7.388316895,0.252507611,-0.118306646,-0.29483138,0.024579002,0.175851107,-0.088442616
1.76966E+18,7.398304688,0.346473012,-0.024980127,-0.148516199,0.025617227,0.158925116,-0.115761258
1.76966E+18,7.40829248,0.234879892,0.129887194,-0.042123716,0.008383647,0.146206394,-0.125261024
1.76966E+18,7.418280518,0.109901806,0.29727322,-0.028339813,-0.010214619,0.129452094,-0.121797226
1.76966E+18,7.428268311,0.182479551,0.454075893,-0.124351333,-0.030648522,0.098876342,-0.100668773
1.76966E+18,7.438256592,0.183924489,0.40710839,-0.211604231,-0.031954102,0.086972393,-0.072824225
1.76966E+18,7.448245605,0.119215285,0.329084655,-0.12440847,-0.036749125,0.071429655,-0.043975804
1.76966E+18,7.458233643,0.017097265,0.180166013,-0.115127285,-0.041216362,0.05788704,-0.035545729
1.76966E+18,7.46822168,-0.045273705,0.171600429,0.089383042,-0.029967438,0.095768109,-0.045479588
1.76966E+18,7.478209717,-0.14630466,0.180347215,0.229894797,-0.016371004,0.10887856,-0.058665514
1.76966E+18,7.48819751,-0.250978794,0.153882986,0.154585582,0.001730236,0.088821501,-0.063480511
1.76966E+18,7.498185303,-0.291020589,0.109681441,0.004776713,0.027330671,0.09144152,-0.075209334
1.76966E+18,7.50817334,-0.416801517,0.156485278,0.070426412,0.0463254,0.120518707,-0.073410369
1.76966E+18,7.518162598,-0.498162288,0.078527009,0.01087123,0.04614345,0.133612186,-0.066892006
1.76966E+18,7.528150635,-0.409883262,-0.022703999,-0.049734191,0.04262222,0.150910482,-0.069581799
1.76966E+18,7.538138672,-0.331879839,-0.134339497,0.017236381,0.031843241,0.145025268,-0.074161775
1.76966E+18,7.548126709,-0.168823658,-0.168507724,0.040059185,0.032106362,0.129288375,-0.069170214
1.76966E+18,7.558114746,-0.065608198,-0.16198972,0.16586247,0.015827414,0.114524201,-0.060926802
1.76966E+18,7.568102539,0.094822018,-0.235347217,0.033494858,-0.004972674,0.09333396,-0.064027786
1.76966E+18,7.578090332,0.188390528,-0.175968561,0.086876904,-0.01533193,0.080373585,-0.053115521
1.76966E+18,7.588078369,0.157370682,-0.17023031,0.080927202,-0.023382399,0.059615307,-0.041947819
1.76966E+18,7.598067627,0.222170925,-0.13200667,0.045073067,-0.033127472,0.038157817,-0.035805024
1.76966E+18,7.608055664,0.213676653,-0.056838909,0.044872284,-0.040857829,0.021428103,-0.020117406
1.76966E+18,7.618043457,0.130706109,-0.029952655,0.097033118,-0.041512229,0.005379661,-0.008572588
1.76966E+18,7.628031494,0.094512367,-0.011798574,0.191719819,-0.037521213,-0.010599039,-0.004302209
1.76966E+18,7.638019775,0.054921969,-0.029652795,0.243984697,-0.026276123,-0.007322162,0.006939112
1.76966E+18,7.648007813,-0.045106093,-0.117839613,0.283472512,-0.02331735,0.013367936,0.020812318
1.76966E+18,7.657995361,-0.06325579,-0.145460026,0.282651551,-0.007643062,0.039173119,0.018305652
1.76966E+18,7.667983398,-0.020332009,-0.167122407,0.351291226,0.011108255,0.052779742,0.005475607
1.76966E+18,7.677972656,0.038383507,-0.133963065,0.31826837,0.021118917,0.046111073,-0.003016816
1.76966E+18,7.687960693,-0.045453737,-0.041540802,0.245447463,0.025173847,0.041037221,0.002907652
1.76966E+18,7.697948486,-0.118602999,-0.04194003,0.148859459,0.020809866,0.029208537,0.018145392
1.76966E+18,7.707936523,-0.069742229,-0.075657591,0.060601038,0.025495699,0.029646361,0.026451258
1.76966E+18,7.717924805,-0.075707714,-0.172953013,0.068636606,0.03174546,0.046227928,0.026840854
1.76966E+18,7.727912598,-0.007129121,-0.254230782,0.065235565,0.04489908,0.063741677,0.016592745
1.76966E+18,7.737900635,0.040576194,-0.246284207,0.139556209,0.055317879,0.072376937,0.006160504
1.76966E+18,7.747889648,0.097154552,-0.119566291,0.215000011,0.061123304,0.058301594,-0.006095629
1.76966E+18,7.757877686,0.098613227,-0.002127075,0.267027135,0.059481025,0.051508777,-0.01433435
1.76966E+18,7.767865479,0.079188249,-0.025519057,0.264086113,0.057178989,0.061051682,-0.020566147
1.76966E+18,7.777853516,0.141418349,-0.096363694,0.201811735,0.05987737,0.079201408,-0.030133473
1.76966E+18,7.787841553,0.258629455,-0.157872933,0.058089201,0.054783009,0.060875665,-0.045825087
1.76966E+18,7.797829834,0.339933381,-0.163835056,-0.034959816,0.043583237,0.02284259,-0.06735377
1.76966E+18,7.807817627,0.280017549,-0.101093061,-0.064890844,0.030820303,0.004580761,-0.070575662
1.76966E+18,7.817805664,0.14112112,-0.018248189,-0.143770173,0.015979711,0.01613198,-0.053091567
1.76966E+18,7.827794678,0.070949267,0.072383099,-0.207284614,0.009637391,0.025605643,-0.030875742
1.76966E+18,7.837782715,0.130305127,0.112383686,-0.241670575,0.005567934,0.035901349,-0.022957386
1.76966E+18,7.847770508,0.184978966,0.109046066,-0.210234404,0.006705903,0.046344135,-0.024515335
1.76966E+18,7.857758545,0.148544548,0.075751114,-0.216754161,0.003495667,0.059476491,-0.029328197
1.76966E+18,7.867746582,0.112597621,0.091342067,-0.194169258,0.012218319,0.063155651,-0.029864024
1.76966E+18,7.877734619,0.069185472,0.15964871,-0.085762221,0.023340015,0.079390556,-0.021624638
1.76966E+18,7.887722656,0.055737085,0.202653739,-0.086357995,0.030604322,0.067961067,-0.021113044
1.76966E+18,7.897711426,0.07465046,0.181996736,-0.060567428,0.031205747,0.048492614,-0.034615871
1.76966E+18,7.907699463,0.001463351,0.13781331,-0.024857232,0.036755241,0.025554541,-0.041552607
1.76966E+18,7.9176875,-0.146166713,0.093769002,0.038535336,0.044162221,0.01643241,-0.022279941
1.76966E+18,7.927675537,-0.316846228,-0.01883388,0.046787178,0.057386413,0.021668984,-0.011074692
1.76966E+18,7.937663574,-0.370515859,-0.165619601,0.066867697,0.070986591,0.043353852,-0.006284081
1.76966E+18,7.947651611,-0.498420646,-0.301990896,0.100390319,0.080341749,0.076224722,-0.006605258
1.76966E+18,7.957638672,-0.542202505,-0.33686055,0.133476012,0.085156664,0.11087691,-0.008537582
1.76966E+18,7.967626953,-0.460121019,-0.305009367,0.122730892,0.089662202,0.162406415,-2.2124E-05
1.76966E+18,7.977615967,-0.289708922,-0.230170107,0.149595372,0.093982972,0.199885577,-0.002583289
1.76966E+18,7.98760376,-0.043357203,-0.136247376,0.116670569,0.085012116,0.197513238,-0.018909533
1.76966E+18,7.997591797,0.112947165,-0.033763153,-0.010594605,0.070525073,0.163545504,-0.029638138
1.76966E+18,8.007579834,0.21806612,0.006626725,-0.176851336,0.055947192,0.127343029,-0.050742358
1.76966E+18,8.017567627,0.289458455,0.041551908,-0.347368061,0.047791366,0.091161154,-0.075726226
1.76966E+18,8.027555664,0.244612766,0.045476972,-0.388070512,0.041068215,0.066879779,-0.090190664
1.76966E+18,8.037543701,0.087109836,0.010867431,-0.381034768,0.024341529,0.037141215,-0.080934703
1.76966E+18,8.047531738,-0.007232289,-0.046760582,-0.309491043,0.011300829,0.010045415,-0.058608092
1.76966E+18,8.057520752,-0.061718205,-0.075442487,-0.181152686,-0.004807269,-0.005462613,-0.037338018
1.76966E+18,8.067508789,-0.032888124,-0.10484686,-0.061678896,-0.020065585,-0.022832016,-0.024476547
1.76966E+18,8.077496582,-0.020873569,-0.153843823,0.02481763,-0.034836091,-0.032766141,-0.016165193
1.76966E+18,8.087484863,-0.018807869,-0.173951376,0.016386633,-0.045972366,-0.014673955,-0.016105006
1.76966E+18,8.097472656,-0.007889584,-0.078756726,0.038339521,-0.045341138,0.022276562,-0.022791669
1.76966E+18,8.107460693,0.030236441,0.001086626,0.03267302,-0.04489639,0.043330714,-0.04114804
1.76966E+18,8.11744873,0.063575231,0.033936172,-0.032511984,-0.04718373,0.048208747,-0.066482544
1.76966E+18,8.127437988,0.089793084,0.06036416,-0.062544865,-0.047415692,0.028781785,-0.089329801
1.76966E+18,8.137425781,0.120860714,0.077373163,-0.126208359,-0.057041723,0.022363165,-0.091053449
1.76966E+18,8.147413818,0.065595631,0.090558223,-0.177607268,-0.071049154,0.014117751,-0.075237997
1.76966E+18,8.157401611,0.055662851,0.141299984,-0.188938518,-0.092508547,-0.008072964,-0.044966474
1.76966E+18,8.167389648,0.03425269,0.198516493,-0.236882756,-0.105914101,-0.042883676,-0.018509563
1.76966E+18,8.177377686,-0.015693244,0.233313666,-0.162192257,-0.114245333,-0.06768886,0.007995303
1.76966E+18,8.187365723,-0.140494805,0.178331199,-0.139122493,-0.110262044,-0.066079251,0.036128141
1.76966E+18,8.19735376,-0.283272167,0.068991119,-0.037185821,-0.111823224,-0.035787273,0.057704769
1.76966E+18,8.207342773,-0.271072319,-0.034673838,-0.004691227,-0.102782056,0.01063402,0.063762128
1.76966E+18,8.217330811,-0.150912738,-0.124200965,0.138365099,-0.087715209,0.063007742,0.040976919
1.76966E+18,8.227318848,-0.087382808,-0.098847328,0.194289815,-0.073760241,0.090920597,0.00789833
1.76966E+18,8.237307129,-0.159048406,-0.033136546,0.233885767,-0.060903769,0.110022195,-0.013056304
1.76966E+18,8.247294678,-0.283057063,0.036994975,0.140416186,-0.055664796,0.120203458,-0.013442196
1.76966E+18,8.257282715,-0.300258081,0.001039864,-0.001906857,-0.057145275,0.118076026,-0.000913017
1.76966E+18,8.267270752,-0.198268948,-0.036479427,-0.07753376,-0.050733183,0.109432742,0.015836401
1.76966E+18,8.277258545,-0.120239368,-0.069338325,-0.041505292,-0.040523835,0.111009255,0.030996162
1.76966E+18,8.287247803,-0.098290863,-0.082044661,0.035216421,-0.029889034,0.11422582,0.02914633
1.76966E+18,8.29723584,-0.020826807,-0.065955696,0.063293784,-0.021977467,0.099071041,0.019684885
1.76966E+18,8.307223877,0.054189563,-0.075533672,-0.015755203,-0.028447617,0.080849431,0.019412177
1.76966E+18,8.31721167,0.088746497,-0.188804078,-0.113010293,-0.044079967,0.064459026,0.01698542
1.76966E+18,8.327199951,0.252425486,-0.266170226,-0.113947574,-0.064277649,0.043509804,0.004890941
1.76966E+18,8.337187744,0.403315428,-0.265764568,-0.033825405,-0.080217041,0.023588138,-0.012641313
1.76966E+18,8.347175781,0.445401004,-0.185890236,0.082527769,-0.093471594,0.005788635,-0.021610573
1.76966E+18,8.357164551,0.40807139,-0.052789341,0.17147768,-0.113232687,-0.035403971,-0.030918555
1.76966E+18,8.367152832,0.383521178,0.013626374,0.168057204,-0.126690969,-0.098991998,-0.041892111
1.76966E+18,8.377140869,0.319142814,-0.020806641,0.022294542,-0.142990395,-0.141386166,-0.043526791
1.76966E+18,8.387128906,0.15060528,-0.032542672,-0.077281246,-0.155655056,-0.150790319,-0.031611808
1.76966E+18,8.397116699,-0.041667058,-0.032370238,-0.135399527,-0.151393309,-0.15228717,-0.012998044
1.76966E+18,8.40710498,-0.193047122,-0.036312838,-0.062524699,-0.130063251,-0.136600628,0.013214918
1.76966E+18,8.417092773,-0.309201851,-0.091571199,-0.003908698,-0.10288994,-0.098359451,0.030616648
1.76966E+18,8.427080566,-0.36219782,-0.112665425,0.094427758,-0.073921144,-0.058631744,0.040352631
1.76966E+18,8.43706958,-0.299100435,-0.109041974,0.148155841,-0.047424093,-0.013258681,0.043533422
1.76966E+18,8.447057861,-0.148205817,0.007107202,0.156017952,-0.023843933,0.022668427,0.045041572
1.76966E+18,8.457045898,-0.060279404,0.066699208,0.128863842,-0.006948739,0.046596017,0.04717543
1.76966E+18,8.467033691,0.003152619,0.070287588,0.032467853,0.004107374,0.056272347,0.036431175
1.76966E+18,8.477021729,0.069028528,0.053237085,-0.023301965,0.011550479,0.056192607,0.018175073
1.76966E+18,8.48701001,0.095197573,-0.001996727,-0.011714842,0.00644733,0.052735824,-0.006623484
1.76966E+18,8.496997803,0.113626671,-0.030480478,-0.000366787,-0.00167466,0.037830319,-0.027073406
1.76966E+18,8.506986572,0.079208854,-0.046706222,0.039221419,-0.025411947,0.010713747,-0.028692076
1.76966E+18,8.516974609,0.013810791,-0.103757896,0.08470146,-0.041118868,-0.004735775,-0.024455044
1.76966E+18,8.526962891,-0.001483809,-0.187891054,0.234146171,-0.042178806,-0.024218129,-0.011677198
1.76966E+18,8.536950928,0.00742109,-0.271447289,0.292499722,-0.038513139,-0.028545663,0.004174236
1.76966E+18,8.546938721,-0.009730244,-0.366238035,0.322690862,-0.034253146,-0.00547523,0.014736333
1.76966E+18,8.556926758,-0.004683189,-0.393435839,0.364688906,-0.029401988,0.024088286,0.004756418
1.76966E+18,8.566915039,0.02275193,-0.300660524,0.280180923,-0.016863294,0.038144983,-0.010728532
1.76966E+18,8.576902832,-0.026895021,-0.123438164,0.045580432,-0.009458167,0.02630621,-0.029757883
1.76966E+18,8.586891602,-0.084087858,0.088497783,-0.194303844,-9.7423E-05,0.011374398,-0.042689659
1.76966E+18,8.596879639,-0.139342712,0.210246094,-0.264943022,0.003393298,0.017369898,-0.045691058
1.76966E+18,8.60686792,-0.105924427,0.13371815,-0.174715493,-0.001759919,0.018503074,-0.049708702
1.76966E+18,8.616855713,0.045908349,0.035205753,-0.023193536,-0.004304569,0.01237727,-0.049950249
1.76966E+18,8.62684375,0.170129772,-0.021386487,0.15378201,-0.008325409,0.011607883,-0.051221646
1.76966E+18,8.636831787,0.224826993,-0.070163085,0.200811618,-0.012174742,0.017659383,-0.057993263
1.76966E+18,8.646820068,0.145662855,-0.095768066,0.205466458,-0.016450182,0.035646904,-0.060230054
1.76966E+18,8.656808594,0.025336978,-0.139673844,0.112134095,-0.024757588,0.062831357,-0.062525451
1.76966E+18,8.666796631,-0.147788177,-0.151831899,0.018765491,-0.034953233,0.096019402,-0.058841765
1.76966E+18,8.676784668,-0.25436756,-0.123178051,-0.005217589,-0.037806258,0.109917998,-0.042525161
1.76966E+18,8.686772949,-0.252695827,-0.09221768,-0.037602147,-0.041734952,0.118622005,-0.01765017
1.76966E+18,8.696760742,-0.165895788,0.049004562,-0.06654884,-0.042569019,0.120568924,0.006207523
1.76966E+18,8.706748779,-0.088587507,0.211670574,-0.079107147,-0.044302735,0.122145519,0.0228616
1.76966E+18,8.716736816,-0.038870121,0.214010415,-0.093425449,-0.041071255,0.123575106,0.030958675
1.76966E+18,8.726724854,-0.021972762,0.089566289,-0.084803459,-0.033670597,0.123416379,0.030434033
1.76966E+18,8.736713623,0.001408405,-0.017276129,-0.019057752,-0.027804997,0.110724501,0.012695419
1.76966E+18,8.74670166,0.032794308,-0.067469024,0.078525401,-0.029863354,0.078244589,-0.013215274
1.76966E+18,8.756689697,0.046851475,-0.081161449,0.087839319,-0.038454223,0.041357759,-0.035286371
1.76966E+18,8.766677734,0.027402971,-0.052180269,0.081671298,-0.049066391,0.010258162,-0.054711469
1.76966E+18,8.776665771,0.02272095,-0.013384967,0.025683015,-0.054663554,-0.010891331,-0.050652809
1.76966E+18,8.786653809,-0.025766602,0.059364043,-0.023955168,-0.050336186,-0.005922405,-0.046700947
1.76966E+18,8.796641846,-0.022160394,0.077050506,-0.118984107,-0.033696461,0.029257525,-0.047080785
1.76966E+18,8.806630859,-0.084603406,0.005400398,-0.175507666,-0.011521119,0.07255546,-0.047119401
1.76966E+18,8.816618652,-0.06275164,-0.055493924,-0.211431212,0.010970918,0.107060082,-0.055266902
1.76966E+18,8.826606689,-0.006082243,-0.076651278,-0.221944423,0.022814529,0.135612622,-0.055716712
1.76966E+18,8.836594727,0.031330666,-0.02667641,-0.16116759,0.02476453,0.14717035,-0.047946893
1.76966E+18,8.846582764,0.130544488,0.027561376,-0.114370329,0.014004828,0.135078803,-0.037163485
1.76966E+18,8.856570801,0.273033974,0.072095514,-0.0702645,-0.002195006,0.106585264,-0.041207798
1.76966E+18,8.866558838,0.318667598,0.079966686,-0.017963673,-0.018344948,0.076688088,-0.049787704
1.76966E+18,8.876546631,0.265983763,0.099676764,0.05032032,-0.0311264,0.053966254,-0.052261446
1.76966E+18,8.886535889,0.218344353,0.090951606,0.096018096,-0.049406338,0.049793877,-0.048700266
1.76966E+18,8.896523682,0.256496973,0.042173839,0.085011548,-0.067766137,0.010729169,-0.038189784
1.76966E+18,8.906511719,0.368841788,0.018382629,0.028884588,-0.086991228,-0.019007154,-0.038542122
1.76966E+18,8.916499512,0.412581561,-0.047612815,-0.004805208,-0.102876499,-0.042454075,-0.04503186
1.76966E+18,8.926487793,0.351632002,-0.193445766,-0.075526658,-0.111650281,-0.05853584,-0.0503201
1.76966E+18,8.93647583,0.183227446,-0.250294027,-0.105894177,-0.114649348,-0.058213122,-0.051273711
1.76966E+18,8.946463867,0.063779814,-0.223856102,-0.139384067,-0.10662578,-0.047036368,-0.036822066
1.76966E+18,8.956452637,-0.065997198,-0.172127668,-0.11742431,-0.097658299,-0.051010545,-0.022457041
1.76966E+18,8.966441162,-0.071149758,-0.079932784,-0.151109138,-0.080321655,-0.051492844,-0.022210432
1.76966E+18,8.976429199,-0.14097119,-0.046832478,-0.151901895,-0.057127073,-0.0335331,-0.008795409
1.76966E+18,8.986417236,-0.232321732,-0.000125088,-0.200615219,-0.041756906,0.002035547,0.00762511
1.76966E+18,8.996405029,-0.22300796,0.030620764,-0.222139653,-0.027710173,0.038339555,0.020033073
1.76966E+18,9.006393311,-0.107287532,0.043805239,-0.171441878,-0.021357736,0.040298577,0.020744137
1.76966E+18,9.016381348,0.002285188,0.023307226,-0.114482119,-0.021933608,0.023220964,0.00785359
1.76966E+18,9.026369385,0.016834523,-0.00784253,-0.031354046,-0.02307051,0.016235225,0.00529589
1.76966E+18,9.036358154,-0.002934008,0.00349661,0.023101328,-0.024519494,0.01504412,0.019793402
1.76966E+18,9.046346191,0.017439795,0.00246902,0.021598961,-0.023967687,0.002727001,0.037805691
1.76966E+18,9.056334229,0.088273327,-0.00497019,-0.025118951,-0.021866366,-0.003841306,0.041613501
1.76966E+18,9.066322266,0.032902737,0.031480595,-0.0157742,-0.014501662,0.017934565,0.045632746
1.76966E+18,9.076310059,-0.033664077,0.052041737,-0.002596738,-0.003412665,0.039827321,0.041289482
1.76966E+18,9.08629834,-0.038940264,0.055857496,-0.057190937,0.007904971,0.050128162,0.034809209
1.76966E+18,9.096286377,-0.028890871,0.084075291,-0.040488516,0.012311196,0.039485473,0.034476243
1.76966E+18,9.106275391,-0.011952888,0.109506669,-0.005734306,0.014453711,0.030876007,0.038497884
1.76966E+18,9.116263184,0.017953882,0.07534078,0.042962943,0.017523104,0.034666087,0.040974244
1.76966E+18,9.126251465,0.026947336,0.026222821,0.039178164,0.022208937,0.049960356,0.043576952
1.76966E+18,9.136239258,-0.025832653,0.002244564,-0.013039222,0.026703773,0.069630541,0.049255729
1.76966E+18,9.146227051,-0.060443363,-0.023814591,-0.057251143,0.032377373,0.082812123,0.056303516
1.76966E+18,9.156215088,-0.072335168,-0.017029461,-0.073433923,0.037534203,0.09032125,0.057256676
1.76966E+18,9.166203369,-0.054452598,-0.037484804,-0.074942574,0.042798739,0.087246366,0.053425986
1.76966E+18,9.176191406,-0.038348435,-0.050755205,-0.053184624,0.043788772,0.079991408,0.048516631
1.76966E+18,9.186180176,-0.017062194,-0.023056466,-0.0425152,0.042054523,0.073960945,0.047778137
1.76966E+18,9.196168213,-0.032632104,-0.00881459,-0.032560646,0.038400151,0.072764978,0.048149742
1.76966E+18,9.206156494,-0.023434359,-0.046226914,-0.006167144,0.038244888,0.070548162,0.045997377
1.76966E+18,9.216144287,-0.03422931,-0.062016019,0.01570961,0.037045058,0.06271711,0.039309569
1.76966E+18,9.22613208,-0.076451956,-0.045150224,0.061042352,0.036925752,0.05746083,0.031200511
1.76966E+18,9.236120117,-0.065358315,-0.039670332,0.101342506,0.0393232,0.057655245,0.028609887
1.76966E+18,9.246108398,-0.03752309,-0.039662148,0.085585841,0.038800951,0.060275797,0.027808808
1.76966E+18,9.256097412,0.0101964,-0.079982468,0.054609542,0.032076053,0.060101565,0.020704526
1.76966E+18,9.266085205,0.058198799,-0.128165777,0.013973434,0.024357146,0.043751087,0.012478553
1.76966E+18,9.276073242,0.03585808,-0.128012047,0.023229338,0.01716374,0.031750839,-0.001194914
1.76966E+18,9.286061523,-0.027209786,-0.112644967,0.053540598,0.012269383,0.015849371,-0.008403292
1.76966E+18,9.296049316,-0.031605099,-0.092189039,0.026955373,0.004606148,-0.001914664,-0.011544656
1.76966E+18,9.306037109,-0.058933543,-0.080388711,0.06258169,-0.000932428,0.00784955,-0.019347452
1.76966E+18,9.316025146,-0.104534433,-0.103390816,0.077136723,-0.006533044,0.009914881,-0.021392394
1.76966E+18,9.326013428,-0.12148966,-0.080731241,0.057419631,-0.012385341,0.013218799,-0.015853018
1.76966E+18,9.336002197,-0.118517366,-0.088477325,0.073417995,-0.01639232,0.022678398,-0.010251228
1.76966E+18,9.345990234,-0.105037707,-0.098396661,0.092675361,-0.020451777,0.029144552,-0.005147813
1.76966E+18,9.355978271,-0.118365683,-0.123498369,0.1039239,-0.028431281,0.023780655,-0.003803364
1.76966E+18,9.365966553,-0.104140758,-0.150199914,0.123107616,-0.034554422,0.010346072,-0.008299313
1.76966E+18,9.375954346,-0.106374801,-0.12681027,0.129080846,-0.035319362,0.003349627,-0.016176613
1.76966E+18,9.385942383,-0.119700731,-0.051641924,0.13950214,-0.032814659,0.004577078,-0.026581051
1.76966E+18,9.395930176,-0.135777421,0.056165539,0.109622843,-0.034619432,-0.001179424,-0.030835303
1.76966E+18,9.405919434,-0.131861709,0.132003163,0.076060034,-0.034742206,-0.004932085,-0.034390885
1.76966E+18,9.415907227,-0.073708795,0.171483525,0.129297849,-0.033380903,-0.001813947,-0.041816976
1.76966E+18,9.425895264,-0.032335751,0.16116496,0.145951609,-0.032037873,-0.006063819,-0.044969626
1.76966E+18,9.435883301,-0.037501755,0.11650398,0.155414287,-0.031080175,-0.004420829,-0.044849835
1.76966E+18,9.445871338,0.014895956,0.032761283,0.187618375,-0.034833901,-0.009625444,-0.042215437
1.76966E+18,9.455859375,0.103467681,-0.021934768,0.199792358,-0.046096344,-0.036123905,-0.046019275
1.76966E+18,9.465847412,0.146728731,-0.030251346,0.176309045,-0.056152709,-0.059955202,-0.056283895
1.76966E+18,9.475835205,0.093440208,-0.035826516,0.104728641,-0.068825573,-0.085963689,-0.067093387
1.76966E+18,9.485824219,0.080249887,0.00780629,0.037593964,-0.077578314,-0.102078475,-0.07965152
1.76966E+18,9.495812256,0.056349956,0.032789924,0.025932021,-0.085478492,-0.107602291,-0.085448921
1.76966E+18,9.505800293,-0.006749182,-0.011157354,-0.00461407,-0.092536137,-0.106007062,-0.082176961
1.76966E+18,9.51578833,0.014598726,-0.094794253,0.010965777,-0.09539634,-0.107057817,-0.075391181
1.76966E+18,9.525776367,0.10210633,-0.138180975,0.031503246,-0.095392607,-0.103629529,-0.078032508
1.76966E+18,9.535764404,0.136693951,-0.141354929,0.055220806,-0.089899831,-0.097845674,-0.08333192
1.76966E+18,9.545752441,0.129025024,-0.064453475,0.008256372,-0.091399461,-0.102686234,-0.086388692
1.76966E+18,9.555741211,0.15185148,0.024241876,-0.041533203,-0.095661648,-0.110238396,-0.100891195
1.76966E+18,9.565729248,0.254410814,0.101026425,-0.123759505,-0.094469622,-0.089488909,-0.12818487
1.76966E+18,9.575717285,0.132567226,-0.042618075,-0.016191256,-0.089715913,-0.112557642,-0.101046368
1.76966E+18,9.585705322,-0.057492112,-0.020071897,0.012267215,-0.083256148,-0.137176424,-0.084811471
1.76966E+18,9.595693115,-0.029966099,-0.033240006,0.03107406,-0.085725941,-0.128715172,-0.074597925
1.76966E+18,9.605681396,-0.154862353,-0.041993806,0.020007892,-0.077833124,-0.111901574,-0.059862658
1.76966E+18,9.615669434,-0.131684598,-0.004524199,0.043431584,-0.069746703,-0.093402207,-0.052454256
1.76966E+18,9.625658203,-0.079187226,0.007338088,-0.00508987,-0.059213366,-0.070178643,-0.049403604
1.76966E+18,9.635645996,-0.032343934,0.003249942,-0.05015227,-0.049583066,-0.04760284,-0.045434814
1.76966E+18,9.645634277,0.018442542,-0.003555647,-0.066863605,-0.041320875,-0.026751619,-0.035340633
1.76966E+18,9.655622314,0.055310092,-0.035060792,-0.069573887,-0.033717074,-0.020656398,-0.028969554
1.76966E+18,9.665610352,0.048665539,-0.06025427,-0.083600366,-0.02986588,-0.010508424,-0.025364965
1.76966E+18,9.675598145,0.00027794,-0.054274611,-0.084339202,-0.025860958,0.00697119,-0.027487239
1.76966E+18,9.685586426,-0.076756784,-0.001594576,-0.080654668,-0.016651746,0.020948526,-0.022332158
1.76966E+18,9.695574463,-0.128227444,0.050354807,-0.056127838,-0.011417037,0.032344721,-0.011766331
1.76966E+18,9.705563232,-0.143700907,0.092888127,-0.042302872,-0.007924302,0.04001436,0.004666171
1.76966E+18,9.715551025,-0.078019059,0.10774492,-0.016639292,-0.007105333,0.040972222,0.012190284
1.76966E+18,9.725539307,0.022497078,0.110249596,0.007519143,-0.004127653,0.041466236,0.015567439
1.76966E+18,9.735527344,0.062063365,0.091779289,0.034048254,-0.006603931,0.039736774,0.015203817
1.76966E+18,9.745515137,0.064414897,0.0662199,0.044694151,-0.010472706,0.02567395,0.017330883
1.76966E+18,9.755503174,0.045592707,0.052680035,0.033690234,-0.015323028,0.019969566,0.015935685
1.76966E+18,9.765491211,0.017491233,0.009452888,-8.6217E-05,-0.02269732,0.017121315,0.017651828
1.76966E+18,9.775480469,0.01107289,-0.047012511,-0.058171765,-0.030750141,0.007627863,0.024620671
1.76966E+18,9.785468262,0.012428397,-0.101299982,-0.108815033,-0.038522575,0.004956447,0.031493492
1.76966E+18,9.795456055,0.034055414,-0.126832482,-0.11981442,-0.045264158,-0.002013815,0.041863058
1.76966E+18,9.805444336,0.0497735,-0.136739544,-0.143151895,-0.044035908,-0.008225638,0.049454931
1.76966E+18,9.815432373,0.035316813,-0.114954413,-0.165457396,-0.04395356,-0.010133823,0.04714622
1.76966E+18,9.825420166,-0.011769933,-0.078153499,-0.15818536,-0.040183589,-0.01339007,0.040253691
1.76966E+18,9.835408203,-0.043799102,-0.041924248,-0.169341837,-0.033272117,-0.013097785,0.031573702
1.76966E+18,9.845397461,-0.056235097,-0.016046295,-0.119755676,-0.024799006,-0.010916123,0.015737215
1.76966E+18,9.855385498,-0.058885027,-0.026911972,-0.068108344,-0.016569665,-0.006845854,0.001877825
1.76966E+18,9.865373291,-0.03609335,-0.040489831,-0.046350248,-0.010080074,8.92838E-05,-0.005447732
1.76966E+18,9.875361084,0.009098668,-0.050835284,-0.007331658,-0.004525728,0.005874172,-0.008956464
1.76966E+18,9.885349365,0.068065528,-0.041117608,0.011175328,0.001657334,0.017348668,-0.011445986
1.76966E+18,9.895337158,0.040445992,-0.030884968,-0.019198475,0.004148421,0.028244857,-0.011650304
1.76966E+18,9.905325195,-0.012321429,0.001111176,-0.096612701,0.000789376,0.038655419,-0.009475833
1.76966E+18,9.915313232,-0.043562078,0.026608021,-0.153839147,0.000633226,0.048048269,-0.00881006
1.76966E+18,9.92530249,-0.047490942,0.036070846,-0.121458973,-0.000771059,0.046500172,-0.009637504
1.76966E+18,9.935290527,-0.038239422,0.025738252,-0.092373163,-0.001299227,0.033815581,-0.00703213
1.76966E+18,9.94527832,-0.060179159,0.006423311,-0.002516805,-0.002382601,0.035709087,-0.008377026
1.76966E+18,9.955266113,-0.062947455,0.034802433,0.019708617,-0.002200428,0.032735188,-0.009777218
1.76966E+18,9.965255615,-0.040174189,0.045747021,-0.006026421,-0.003971963,0.026189404,-0.010068301
1.76966E+18,9.975243652,-0.057317047,0.040206338,-0.047309302,-0.010267862,0.017374927,-0.003123908
1.76966E+18,9.985231689,-0.061181906,0.007900982,-0.07915157,-0.015402703,0.000760797,0.005710064
1.76966E+18,9.995219727,-0.036074937,-0.001083119,-0.06746464,-0.019754827,-0.013827947,0.011214117
1.76966E+18,10.0052085,-0.003182137,0.017590602,-0.048352966,-0.022388428,-0.020645373,0.014289002
1.76966E+18,10.01519653,0.022541794,0.040171267,-0.032357232,-0.021513278,-0.019414326,0.011517502
1.76966E+18,10.02518457,-0.011764964,0.062896893,-0.050608051,-0.018816562,-0.014182545,0.006753108
1.76966E+18,10.03517285,-0.050817164,0.057961191,-0.079191172,-0.019493872,-0.011734586,0.001207257
1.76966E+18,10.04516064,-0.063133333,-0.001451368,-0.07763649,-0.019571103,-0.016717095,-0.003973124
1.76966E+18,10.05514868,-0.067133216,-0.014584406,-0.104515436,-0.021648981,-0.023557462,-0.003617284
1.76966E+18,10.06513672,-0.101529991,-0.024360534,-0.111797556,-0.022237273,-0.023622176,0.00017266
1.76966E+18,10.07512573,-0.097193423,0.010158406,-0.080351155,-0.024177227,-0.019560214,0.007051212
1.76966E+18,10.08511353,-0.050620472,0.054523617,-0.086723467,-0.025734909,-0.013373959,0.016138185
1.76966E+18,10.09510156,-0.005896365,0.066022332,-0.117707511,-0.025087494,-0.00548461,0.023759618
1.76966E+18,10.1050896,0.027186113,0.046470659,-0.135912738,-0.024375632,-0.004250235,0.027558351
1.76966E+18,10.11507739,0.06065116,0.030601474,-0.114376029,-0.024177551,-0.010812501,0.026453959
1.76966E+18,10.12506567,0.047198097,0.022334581,-0.070095134,-0.022837715,-0.019521572,0.01986743
1.76966E+18,10.13505371,0.012809213,0.020858664,-0.048742404,-0.02231943,-0.023771306,0.014696686
1.76966E+18,10.14504272,-0.018706162,0.003584873,-0.054194093,-0.021310359,-0.019468971,0.014781905
1.76966E+18,10.15503076,-0.011160861,-0.025614334,-0.037360009,-0.019153534,-0.011966318,0.013453152
1.76966E+18,10.16501855,0.032644378,-0.052713938,-0.065998659,-0.019247277,-0.011866183,0.014991927
1.76966E+18,10.17500659,0.037063656,-0.084109777,-0.078546444,-0.021178311,-0.013940701,0.011130829
1.76966E+18,10.18499463,-0.00243541,-0.130115742,-0.093855949,-0.023880353,-0.018471537,0.010336408
1.76966E+18,10.19498242,-0.045644145,-0.147473704,-0.118201432,-0.025046468,-0.019342583,0.006708825
1.76966E+18,10.2049707,-0.052037646,-0.142330496,-0.137097856,-0.0275802,-0.01079357,0.005548486
1.76966E+18,10.21495874,-0.038557694,-0.1341279,-0.143875387,-0.030141134,-0.006530003,0.009676892
1.76966E+18,10.22494775,0.025056992,-0.107950087,-0.144272277,-0.030860454,-0.005564074,0.010399142
1.76966E+18,10.23493579,0.032769758,-0.081043375,-0.11742168,-0.030425865,-0.008992794,0.009303872
1.76966E+18,10.24492358,0.029919337,-0.059791329,-0.063606503,-0.030299632,-0.012035189,0.001991098
1.76966E+18,10.25491162,0.019472762,-0.014046646,-0.017804244,-0.023749648,-0.007726966,-0.006196235
1.76966E+18,10.26489941,-0.007833762,-0.007628011,0.039814855,-0.017252333,0.001566933,-0.013305545
1.76966E+18,10.27488745,0.008564415,-0.002326982,0.053406304,-0.011567322,0.006243025,-0.017349049
1.76966E+18,10.28487573,0.036862581,-0.005328502,0.052577744,-0.007336358,0.005720513,-0.015395886
1.76966E+18,10.29486475,0.057693187,-0.014027941,0.047474868,-0.006839748,0.000459966,-0.014837258
1.76966E+18,10.30485254,0.054287763,-0.015067221,0.005225626,-0.006115368,-0.006411256,-0.016680697
1.76966E+18,10.31484082,0.007427812,-0.00616846,0.001298515,-0.00663253,-0.00879683,-0.016274614
1.76966E+18,10.32482886,-0.053599488,0.007608137,0.012938538,-0.007959849,-0.00571715,-0.013148328
1.76966E+18,10.33481665,-0.039161505,0.005756956,0.013252426,-0.009313232,-0.006308753,-0.011813791
1.76966E+18,10.34480444,-0.044894788,-0.025437224,-0.008557254,-0.010368377,-0.00180082,-0.016046619
1.76966E+18,10.35479248,-0.009849486,-0.060671034,-0.019238661,-0.011773787,-0.007174518,-0.02003628
1.76966E+18,10.36478174,0.016747429,-0.07203414,-0.027156595,-0.012757292,-0.020980611,-0.021910878
1.76966E+18,10.37476978,0.032267946,-0.053173372,0.003870119,-0.012265499,-0.030075677,-0.021187596
1.76966E+18,10.38475757,0.020528117,-0.038080432,0.017171938,-0.012188002,-0.030743066,-0.020347634
1.76966E+18,10.39474585,0.008018179,-0.034394437,0.0072602,-0.011905786,-0.02881659,-0.018944085
1.76966E+18,10.40473389,0.01980857,-0.017611645,0.003682926,-0.009392295,-0.025111068,-0.019676186
1.76966E+18,10.41472168,0.015296353,0.002242226,0.01005743,-0.006523503,-0.017927589,-0.019636456
1.76966E+18,10.42470947,0.01295885,0.009761516,0.010028058,-0.002180953,-0.014494775,-0.021149131
1.76966E+18,10.43469873,0.031052433,0.011257892,-0.008990823,-0.000567271,-0.018768325,-0.023761082
1.76966E+18,10.44468677,0.044657472,0.009012158,-0.012829233,-0.001490855,-0.017870041,-0.028281266
1.76966E+18,10.45467456,0.047100482,0.02138824,-0.021832623,-0.002386919,-0.011376901,-0.031578202
1.76966E+18,10.4646626,0.006760872,0.020030981,-0.022550562,-0.007108171,-0.007114511,-0.032315899
1.76966E+18,10.47465063,0.047013972,0.033590719,-0.026590924,-0.008575443,-0.013380937,-0.034434382
1.76966E+18,10.48463892,0.088737729,0.012790508,-0.031309184,-0.014768358,-0.02327165,-0.029201536
1.76966E+18,10.49462671,0.047223231,-0.01244564,0.006815671,-0.016015414,-0.02182941,-0.023107802
1.76966E+18,10.5046145,0.018047406,-0.007049919,0.030206776,-0.016781073,-0.01534488,-0.016222199
1.76966E+18,10.51460376,0.019046938,-0.010799626,-0.000728314,-0.015546745,-0.009267466,-0.013483554
1.76966E+18,10.5245918,0.033346682,-0.055102879,-0.02503025,-0.015503068,0.003167898,-0.011710156
1.76966E+18,10.53457959,-0.007776771,-0.071744217,-0.026933892,-0.012879137,0.010566903,-0.011397434
1.76966E+18,10.54456763,-0.020567279,-0.077789342,-0.039381578,-0.011409339,0.016304152,-0.011106616
1.76966E+18,10.55455566,0.013890578,-0.069043141,-0.067546181,-0.005765394,0.019942455,-0.012440361
1.76966E+18,10.5645437,-0.011097733,-0.055979661,-0.073707772,-3.61358E-05,0.02827815,-0.011500797
1.76966E+18,10.57453174,-0.050126844,-0.032531566,-0.06861644,0.007466719,0.040050916,-0.010960013
1.76966E+18,10.58452051,-0.064636431,-0.024478023,-0.058370356,0.014658053,0.051786933,-0.006043817
1.76966E+18,10.59450879,-0.046759998,-0.054317866,-0.013145167,0.014996069,0.052306224,-0.004922116
1.76966E+18,10.60449658,0.012016893,-0.069919339,0.025244039,0.01417262,0.047722925,-0.007019089
1.76966E+18,10.61448462,0.034361704,-0.084201547,0.038962622,0.011627676,0.042764813,-0.008208117
1.76966E+18,10.62447266,0.016784254,-0.051481181,0.019745588,0.010815945,0.041360795,-0.011010027
1.76966E+18,10.63446069,0.014731997,-0.003262801,0.024289223,0.008134628,0.032984167,-0.015576167
1.76966E+18,10.64444873,0.004338029,0.037017187,0.016017069,0.010673951,0.031756449,-0.019656928
1.76966E+18,10.6544375,-0.052121817,0.063019058,0.015289924,0.0079887,0.020812508,-0.013930768
1.76966E+18,10.66442554,-0.015864216,0.080631288,0.016471681,0.003494615,0.009715382,-0.014685242
1.76966E+18,10.67441357,0.010270926,0.036495209,0.059400868,-0.003481768,0.001805661,-0.018773142
1.76966E+18,10.68440161,0.024780513,0.011227496,0.089882662,-0.010729827,-0.004665022,-0.018560888
1.76966E+18,10.69438965,0.028479368,-0.003717559,0.076078154,-0.011542323,-0.008714489,-0.011996944
1.76966E+18,10.70437769,0.056065294,-0.022488311,0.047142421,-0.013043014,-0.009618632,-0.006846391
1.76966E+18,10.71436548,0.042932841,-0.023342297,0.021344109,-0.010032183,-0.004124023,-0.007217019
1.76966E+18,10.72435376,-0.008539573,0.010187632,0.001958879,-0.007971696,0.002175685,-0.004303787
1.76966E+18,10.73434253,-0.064900927,0.03352233,-0.047469315,-0.000405804,0.011622124,-0.001013756
1.76966E+18,10.74433057,-0.065613751,0.027998014,-0.072313687,0.003425153,0.017851524,-0.001366092
1.76966E+18,10.7543186,-0.035724517,0.007987492,-0.076758684,0.012202008,0.026257554,-0.001614384
1.76966E+18,10.76430664,-0.011275135,0.025917116,-0.031122576,0.023361186,0.031196119,-0.009255791
1.76966E+18,10.77429468,0.117155722,0.025591537,0.057882426,0.013838413,0.026526907,-0.021535756
1.76966E+18,10.78428271,0.006595745,-0.05219079,-0.116650988,0.010715324,0.00999267,-0.004840133
1.76966E+18,10.79427051,-0.078536361,0.024462826,-0.053545274,0.008351735,0.011874592,0.000941271
1.76966E+18,10.80425977,-0.03836071,-0.008266893,0.001260375,0.008977844,0.016608361,0.002208137
1.76966E+18,10.81424756,-0.012378712,-0.084887191,0.013978695,0.007856261,0.016415043,0.000796576
1.76966E+18,10.8242356,-0.003479951,-0.092319387,0.011423896,0.003885754,0.012712182,-0.00350869
1.76966E+18,10.83422339,0.032400341,-0.06736907,0.001644991,0.000499498,0.006651174,-0.004504595
1.76966E+18,10.84421167,0.046022623,-0.06466098,-0.044102177,-0.008348056,-0.000255201,-0.002218005
1.76966E+18,10.85419971,0.02828063,-0.075336688,-0.056167293,-0.015656676,-0.0122284,0.000695897
1.76966E+18,10.8641875,0.037131169,-0.091162618,-0.06746537,-0.0246033,-0.012891793,0.006272556
1.76966E+18,10.87417676,0.034611879,-0.084637016,-0.042330637,-0.030779609,-0.009654348,0.006040361
1.76966E+18,10.88416479,0.022304186,-0.07707681,-0.028198943,-0.03129413,-0.012166508,0.005929307
1.76966E+18,10.89415259,-0.014803309,-0.072062781,-0.041732963,-0.030145731,-0.009297298,0.000332557
1.76966E+18,10.90414063,-0.038946694,-0.040898997,-0.033957799,-0.021812966,-0.003702796,-0.00579804
1.76966E+18,10.91412842,-0.050559682,-0.015891981,-0.047192398,-0.012205359,0.009552239,-0.008387528
1.76966E+18,10.9241167,-0.052361763,-0.013298458,-0.065223583,-0.009858314,0.016616806,-0.01136441
1.76966E+18,10.93410474,-0.002812719,-0.010658172,-0.042448564,-0.013332068,0.001963584,-0.015095688
1.76966E+18,10.94409253,0.026005379,0.006010054,-0.036321313,-0.014332085,0.004294916,-0.010090809
1.76966E+18,10.95408154,0.002977555,0.032732641,0.004096622,-0.01463262,0.002875724,-0.008398431
1.76966E+18,10.96406812,0.060011986,0.034325463,0.022901422,-0.014454721,-5.61497E-05,-0.012753231
1.76966E+18,10.9740564,0.06558131,0.047535074,0.023420623,-0.016768152,-0.007159097,-0.014583107
1.76966E+18,10.98404419,0.056856444,0.052283145,0.048491205,-0.015175048,-0.011592195,-0.018686241
1.76966E+18,10.99403223,0.050640346,0.010427286,0.054245677,-0.012920474,-0.013501917,-0.022527032
1.76966E+18,11.00402026,0.022230244,0.003454524,0.02916282,-0.012506885,-0.008073862,-0.018196732
1.76966E+18,11.0140083,0.016675825,-0.012485972,-0.016492285,-0.011188017,-0.003078284,-0.009436984
1.76966E+18,11.02399707,-0.013153204,-0.020341946,-0.033096945,-0.013977945,-0.003959791,0.001738972
1.76966E+18,11.03398511,-0.035730946,-0.036657121,-0.031902328,-0.012798571,-0.006035751,0.003574241
1.76966E+18,11.04397314,-0.066875442,-0.030278234,-0.028434506,-0.00742298,-0.004195506,0.002607248
1.76966E+18,11.05396118,-0.091971889,0.000266542,-0.022277737,-0.005417053,-0.003943169,0.001883718
1.76966E+18,11.06394922,-0.085500355,0.001439093,-0.049126434,0.000251752,-0.003003073,0.001420328
1.76966E+18,11.07393726,-0.04609978,0.007756021,-0.04000424,0.002037131,-0.000507212,0.000922851
1.76966E+18,11.08392529,0.020273849,-0.029060675,-0.027044513,0.007901678,0.004455056,-0.005087637
1.76966E+18,11.09391406,0.059576517,-0.084607205,-0.020893881,0.006930393,0.009790883,-0.001833041
1.76966E+18,11.1039021,0.048591012,-0.071792148,0.011827508,-0.00221943,-0.009310373,-0.002027718
1.76966E+18,11.11389014,0.105836164,-0.09064707,0.045334349,-0.008049089,-0.020220278,-0.006298096
1.76966E+18,11.12387817,0.078181849,-0.087584175,0.036007425,-0.012033978,-0.023522865,-0.011284599
1.76966E+18,11.13386621,0.032116847,-0.063948448,-0.00714125,-0.014132474,-0.024312468,-0.015555169
1.76966E+18,11.14385425,0.01738222,-0.044450552,-0.040557344,-0.013513821,-0.024951093,-0.0162926
1.76966E+18,11.15384229,-5.3776E-05,-0.023853754,-0.057380468,-0.013337567,-0.022442315,-0.01886403
1.76966E+18,11.16383105,-0.005497721,-0.009682021,-0.036811727,-0.011167358,-0.021892373,-0.020529306
1.76966E+18,11.17381909,0.011890637,-0.010503858,-0.021230566,-0.012685224,-0.026279658,-0.02435739
1.76966E+18,11.18380713,0.046456046,-0.018499533,0.002611059,-0.020335952,-0.019867832,-0.025389098
1.76966E+18,11.19379517,0.031308746,-0.018497195,0.0304891,-0.022355298,-0.028122306,-0.016921254
1.76966E+18,11.20378296,0.084338618,-0.007950082,-0.002980185,-0.025710614,-0.027722832,-0.005664606
1.76966E+18,11.21377124,0.083349899,-0.021190672,-0.006110592,-0.027811062,-0.028511714,-0.003601017
1.76966E+18,11.22375928,0.062071549,-0.009195114,0.004291852,-0.030546661,-0.042559888,-0.006607992
1.76966E+18,11.23374731,0.133008248,0.00894903,0.005554712,-0.034755174,-0.056114256,-0.011501615
1.76966E+18,11.24373608,0.226133691,-0.040011108,0.277901142,-0.03520019,-0.024153128,-0.046814334
1.76966E+18,11.25372412,0.164102182,-0.160154906,-0.164200674,-0.034857057,-0.03659416,-0.02359025
1.76966E+18,11.26371216,-0.288954597,0.060097034,-0.160855309,-0.034849335,-0.028002005,0.011155747
1.76966E+18,11.2737002,-0.250825942,0.097796942,-0.110235129,-0.027145274,-0.023531627,0.01438291
1.76966E+18,11.28368799,-0.157054894,0.045639469,-0.078091832,-0.017805301,-0.013368738,0.007503964
1.76966E+18,11.29367627,-0.060307754,0.029098084,-0.043304304,-0.014083847,-0.011343058,0.007627387
1.76966E+18,11.30366431,0.018568799,0.026491117,0.010188509,-0.011614565,-0.01118753,0.009568298
1.76966E+18,11.31365332,0.047977849,0.013518822,0.042413639,-0.01335649,-0.01619406,0.013008053
1.76966E+18,11.32364111,0.021408991,0.017094927,0.06359832,-0.015216175,-0.021410659,0.013287419
1.76966E+18,11.33362915,0.047272623,0.004784312,0.038396366,-0.017779374,-0.031119391,0.01245337
1.76966E+18,11.34361719,0.026827509,-0.027310032,0.020253976,-0.02052323,-0.030444812,0.006324371
1.76966E+18,11.35360498,0.034271687,-0.046780456,0.015507658,-0.023465348,-0.03034783,0.000877567
1.76966E+18,11.36359302,0.068606795,-0.02885843,0.035300592,-0.025545012,-0.032929234,0.000977702
1.76966E+18,11.3735813,0.056378305,-0.03678747,-0.001947773,-0.028861258,-0.034808144,0.001384696
1.76966E+18,11.38357031,0.024604572,-0.063814593,0.01039353,-0.033228841,-0.034784708,0.007493455
1.76966E+18,11.39355811,0.005818623,-0.072189622,-0.004779928,-0.032340553,-0.029279716,0.014897129
1.76966E+18,11.40354614,-0.004112111,-0.053110243,-0.032667613,-0.027930092,-0.021696631,0.016274516
1.76966E+18,11.41353442,-0.007115677,-0.024363457,-0.051660337,-0.01965872,-0.019993033,0.013762975
1.76966E+18,11.42352222,-0.02796908,-0.013740356,-0.030349838,-0.01392174,-0.011615528,0.007073913
1.76966E+18,11.43351001,-0.058534314,-0.002433365,-0.01359861,-0.006554591,-0.005784899,0.002125931
1.76966E+18,11.44349805,-0.029902094,-0.011134557,-0.01863032,-0.004705825,-0.002435708,0.000745083
1.76966E+18,11.4534873,0.055929977,-0.013862521,-0.011084581,-0.006371018,-0.005033285,0.001393476
1.76966E+18,11.46347534,0.117636199,-0.021495208,0.005042963,-0.008850155,-0.015133322,0.004863042
1.76966E+18,11.47346313,0.115114572,-0.046137482,0.008436697,-0.009890712,-0.016301623,0.004836696
1.76966E+18,11.48345117,0.071128715,-0.043200844,0.00549962,-0.00921054,-0.01158623,0.011286872
1.76966E+18,11.49343945,0.028361879,-0.007704583,-0.022454262,-0.008630178,-0.004545128,0.019452903
1.76966E+18,11.50342725,-0.0033648,-0.01659633,-0.029818069,-0.007133482,0.004365011,0.018392699
1.76966E+18,11.51341504,-0.006387947,-0.025300445,-0.012526742,-0.007828939,0.006745719,0.016184276
1.76966E+18,11.52340405,0.006076982,-0.043983519,-0.015725685,-0.007070471,0.010103432,0.014871604
1.76966E+18,11.53339233,0.016591069,-0.049841012,-0.030379648,-0.002865812,0.019925941,0.016361356
1.76966E+18,11.54338013,-0.00325491,-0.047200143,-0.037309594,0.00060908,0.021180291,0.015128047
1.76966E+18,11.55336816,-0.017893384,-0.00316694,-0.036560675,0.003214831,0.020205496,0.01170454
1.76966E+18,11.5633562,-0.048676937,0.041397594,-0.050902212,0.005374921,0.018187352,0.008241366
1.76966E+18,11.57334448,-0.071820497,0.041444356,-0.051535688,0.007731438,0.023250364,0.006750275
1.76966E+18,11.58333228,-0.057363809,0.021752982,-0.022559476,0.008688845,0.025568381,0.00562216
1.76966E+18,11.59332104,0.008329145,0.015990765,-0.005319588,0.007822187,0.019083848,0.007280136
1.76966E+18,11.60330908,0.046254094,-0.00452303,0.006079904,0.002243664,0.009169432,0.009334232
1.76966E+18,11.61329736,0.055283204,-0.010559972,0.001896043,0.000826207,0.00060284,0.007755728
1.76966E+18,11.62328516,0.031593408,0.003119009,-0.008445903,-0.0019291,-0.003660348,0.00610803
1.76966E+18,11.63327319,-0.002628887,0.004104513,-0.01583236,9.57371E-05,-0.00360849,0.005743054
1.76966E+18,11.64326123,-0.034067105,0.021979777,-0.017006811,0.002339983,-0.000441459,0.007718853
1.76966E+18,11.65324927,-0.075566698,-0.000167758,-0.030823447,0.004935713,0.007901741,0.009402229
1.76966E+18,11.6632373,-0.083437869,-0.056851184,-0.035039311,0.006891804,0.013751907,0.011162844
1.76966E+18,11.67322607,-0.058847034,-0.083364512,-0.067362348,0.009302904,0.020823425,0.009851684
1.76966E+18,11.68321411,-0.070963295,-0.060329089,-0.089098087,0.007093546,0.023252228,0.012951603
1.76966E+18,11.69320239,-0.086586397,-0.030841713,-0.073184625,0.007232657,0.01955507,0.018393803
1.76966E+18,11.70319019,-0.073458035,-0.00142448,-0.062982234,0.002975062,0.012213799,0.012974272
1.76966E+18,11.71317822,-0.033461832,0.012096681,-0.059376172,0.002364809,0.007744802,0.005923864
1.76966E+18,11.72316626,-0.010011691,0.01893734,-0.051228667,0.002084644,0.005613474,-0.002751117
1.76966E+18,11.7331543,-0.022043782,0.016350831,-0.030552667,0.003033262,0.008090481,-0.006004968
1.76966E+18,11.74314307,0.000669862,-0.014667408,-0.013750585,0.004080151,0.006686462,-0.010957648
1.76966E+18,11.7531311,0.01985124,-0.034096331,0.033172494,0.004080371,0.008183239,-0.010596673
1.76966E+18,11.76311914,0.026307869,-0.035134442,0.046694823,0.002101376,0.005125131,-0.011508806
1.76966E+18,11.77310718,0.011920739,-0.041287704,0.012295418,0.002400556,0.001190735,-0.010507861
1.76966E+18,11.78309521,-0.017351825,-0.047271454,-0.040045302,0.000904658,0.001109775,-0.012946784
1.76966E+18,11.79308325,-0.052393035,-0.052603463,-0.090766751,-0.001762095,0.002774791,-0.013622754
1.76966E+18,11.80307104,-0.078964523,-0.068130118,-0.088852442,-0.004170392,-0.00039517,-0.014818779
1.76966E+18,11.8130603,-0.048442544,-0.068285016,-0.07246727,-0.005501776,-0.002244474,-0.013269454
1.76966E+18,11.8230481,-0.035612873,-0.058699442,-0.033954292,-0.005279135,-0.001795998,-0.012991685
1.76966E+18,11.83303613,-0.042224692,-0.050520811,0.000650573,-0.001655419,0.000565241,-0.016294688
1.76966E+18,11.84302417,-0.037395957,-0.009320202,0.008499679,0.003880761,0.009280968,-0.026414966
1.76966E+18,11.85301221,-0.046876317,0.028460371,-0.004703209,0.00571641,0.003314404,-0.03427963
1.76966E+18,11.86300024,-0.107379886,0.057673606,-0.001412205,0.005342236,0.003804692,-0.03850447
1.76966E+18,11.87298828,-0.104717681,0.069556936,-0.008202303,0.006619176,0.010901821,-0.036049608
1.76966E+18,11.88297729,-0.054184887,0.025783845,0.01332856,0.007216257,0.008326012,-0.029630058
1.76966E+18,11.89296533,0.014196575,0.006518588,0.013652678,0.005001998,0.004138323,-0.025282441
1.76966E+18,11.90295313,0.022403263,-0.004546411,0.033668753,0.006226785,0.001198727,-0.025860613
1.76966E+18,11.91294116,0.01070961,0.00518997,0.0163482,0.006109213,0.012729974,-0.032056011
1.76966E+18,11.92292896,-0.032294834,0.008147651,-0.003961013,0.009625119,0.011435677,-0.031798217
1.76966E+18,11.93291724,-0.021780162,0.017650223,-0.038368747,0.026961327,0.020433273,-0.039299242
1.76966E+18,11.94290527,0.165197284,-0.004064765,0.118282827,0.01637606,0.043558832,-0.052177221
1.76966E+18,11.95289429,0.024200083,-0.124968442,-0.19081834,0.010127231,0.024363618,-0.025033126
1.76966E+18,11.96288232,-0.175803142,0.050375265,-0.139952807,0.008837197,0.027413737,-0.012981523
1.76966E+18,11.97287061,-0.158927702,0.079517189,-0.101869306,0.013262464,0.02566468,-0.016467195
1.76966E+18,11.98285815,-0.079120006,0.049119128,-0.090319884,0.011452846,0.01919613,-0.021339715
1.76966E+18,11.99284619,-0.064670625,0.030778,-0.037176907,0.010502597,0.015307779,-0.022944057
1.76966E+18,12.00283423,-0.007864158,0.007079729,-0.013509324,0.008032248,0.014331198,-0.019365834
1.76966E+18,12.01282227,-0.000774199,0.002223521,-0.01551175,0.005917512,0.013153602,-0.014177794
1.76966E+18,12.02281128,0.047152796,-0.016566519,-0.005558949,0.001248725,0.008668839,-0.006864753
1.76966E+18,12.03279932,0.065920917,-0.01654723,-0.020334055,-0.003181681,0.002941817,-0.00769254
1.76966E+18,12.04278735,0.051815235,-0.025171851,-0.035614919,-0.001912951,0.003411599,-0.002576874
1.76966E+18,12.05277539,0.026108547,-0.024509003,-0.040791298,0.000107135,0.004434039,-0.004061382
1.76966E+18,12.06276343,0.006551614,-0.023041853,-0.029900779,-0.000400197,0.006608777,-0.004321307
1.76966E+18,12.07275122,-0.009060382,-0.018781273,-0.029330724,0.00089794,0.005384442,-0.006493391
1.76966E+18,12.08273926,-0.016416882,-0.035469957,-0.03321531,-0.000161466,0.003890675,-0.009412216
1.76966E+18,12.09272852,-0.020822716,-0.055847559,-0.022374329,-0.002982426,0.001701531,-0.012083814
1.76966E+18,12.10271631,-0.010840835,-0.065085928,-0.004355273,-0.004707089,-0.001442597,-0.012214042
1.76966E+18,12.11270435,-0.000581307,-0.082679452,0.006681377,-0.006458949,-3.39188E-05,-0.014184834
1.76966E+18,12.12269238,0.010685937,-0.119475105,-0.000892857,-0.008343402,-0.003531714,-0.012935013
1.76966E+18,12.13268042,0.011272797,-0.12144319,-0.043420624,-0.008250005,-0.003056661,-0.014862278
1.76966E+18,12.14266846,-0.01267448,-0.078773677,-0.068289546,-0.008524843,-0.004735784,-0.013632698
1.76966E+18,12.15265625,0.009335691,-0.057258595,-0.05678221,-0.008413317,-0.004705662,-0.012621741
1.76966E+18,12.16264526,0.052376668,-0.018080431,-0.010899872,-0.009161931,-0.001726117,-0.016348833
1.76966E+18,12.1726333,0.065085928,-0.01857669,0.038116526,-0.007983375,0.001450393,-0.020456366
1.76966E+18,12.18262134,0.053640405,-0.030263036,0.039117228,-0.00674607,0.005443803,-0.027588578
1.76966E+18,12.19260938,0.032930794,-0.019656887,0.033440059,-0.002120552,0.010296908,-0.036494538
1.76966E+18,12.20259741,-0.009390636,-0.031980946,0.002568097,0.001892565,0.013903894,-0.038262345
