time,seconds_elapsed,z,y,x
1769667742164651500,0.077651611328125,-0.05914364382624626,0.2786312997341156,-0.06646441668272018
1769667742174641000,0.087640869140625,-0.11874332278966904,0.3583628833293915,-0.08245430141687393
1769667742184630000,0.097630126953125,-0.21356967091560364,0.45063087344169617,-0.08419222384691238
1769667742194619000,0.107618896484375,-0.27625569701194763,0.5437914729118347,-0.052673984318971634
1769667742204607000,0.11760693359375,-0.3453786075115204,0.6947733163833618,-0.03945178538560867
1769667742214596000,0.12759619140625,-0.41911059617996216,0.8477402329444885,-0.06194137781858444
1769667742224584700,0.137584716796875,-0.5096163749694824,1.0040994882583618,-0.1318211406469345
1769667742234573800,0.14757373046875,-0.5379422903060913,1.087698221206665,-0.21379776298999786
1769667742244563000,0.15756298828125,-0.5381141901016235,1.1403495073318481,-0.24627785384655
1769667742254551000,0.167551025390625,-0.6262707114219666,1.2200608253479004,-0.22985467314720154
1769667742264540000,0.177539794921875,-0.6505087018013,1.2138103246688843,-0.24704067409038544
1769667742274529000,0.187529052734375,-0.6708909273147583,1.1174672842025757,-0.2712387144565582
1769667742284518000,0.197517822265625,-0.7249745726585388,1.1350984573364258,-0.34559935331344604
1769667742294505700,0.207505615234375,-0.73811936378479,1.2125718593597412,-0.40503817796707153
1769667742304494800,0.217494873046875,-0.7649054527282715,1.1727819442749023,-0.33670589327812195
1769667742314484000,0.22748388671875,-0.7996423840522766,1.1310107707977295,-0.28462138772010803
1769667742324472800,0.237472900390625,-0.8199987411499023,0.9718067049980164,-0.2104698270559311
1769667742334461000,0.2474609375,-0.8242246508598328,0.8752551674842834,-0.17280259728431702
1769667742344450000,0.257449951171875,-0.8148812055587769,0.8419298529624939,-0.1892653852701187
1769667742354439000,0.26743896484375,-0.7815882563591003,0.8255136013031006,-0.24259306490421295
1769667742364428000,0.277427978515625,-0.7334299087524414,0.8564962148666382,-0.32132717967033386
1769667742374416000,0.287415771484375,-0.6660839319229126,0.8251665234565735,-0.3991689682006836
1769667742384405000,0.297405029296875,-0.5867906212806702,0.8164862394332886,-0.4787245988845825
1769667742394393900,0.307393798828125,-0.5009521245956421,0.7871315479278564,-0.4970037341117859
1769667742404383000,0.317383056640625,-0.48588642477989197,0.7836897969245911,-0.4552709758281708
1769667742414371800,0.327371826171875,-0.5656864047050476,0.7514902949333191,-0.3968316316604614
1769667742424360000,0.33735986328125,-0.6170684099197388,0.7037826180458069,-0.32087406516075134
1769667742434348800,0.347348876953125,-0.6201278567314148,0.7049882411956787,-0.2812880277633667
1769667742444338000,0.357337890625,-0.6511592268943787,0.7362411618232727,-0.22321437299251556
1769667742454326800,0.367326904296875,-0.6809109449386597,0.7148157358169556,-0.15693016350269318
1769667742464315000,0.37731494140625,-0.6715474128723145,0.6472777724266052,-0.09677661955356598
1769667742474304000,0.387303955078125,-0.6407665610313416,0.5496587753295898,-0.053415026515722275
1769667742484292900,0.39729296875,-0.6284790635108948,0.4034444987773895,0.08441145718097687
1769667742494282000,0.407281982421875,-0.5851861834526062,0.46162447333335876,0.16478966176509857
1769667742504269800,0.417269775390625,-0.5489710569381714,0.5313011407852173,0.2533409297466278
1769667742514259000,0.427259033203125,-0.49064141511917114,0.4730072319507599,0.3076779544353485
1769667742524247800,0.437247802734375,-0.35871556401252747,0.29145124554634094,0.3402121663093567
1769667742534237000,0.44723681640625,-0.24969905614852905,0.15342067182064056,0.32457008957862854
1769667742544225000,0.45722509765625,-0.15364010632038116,0.27243074774742126,0.27368128299713135
1769667742554214000,0.4672138671875,-0.07296363264322281,0.354487806558609,0.18480414152145386
1769667742564203000,0.477203125,0.024039149284362793,0.4440756142139435,0.05908579379320145
1769667742574191900,0.48719189453125,0.058108169585466385,0.5519869327545166,-0.037384286522865295
1769667742584180000,0.497179931640625,0.028055652976036072,0.5189712643623352,-0.0895957201719284
1769667742594168800,0.5071689453125,0.019277874380350113,0.40828606486320496,-0.08712377399206161
1769667742604158000,0.517157958984375,-0.036011435091495514,0.25618016719818115,-0.0481584295630455
1769667742614147000,0.52714697265625,-0.13759930431842804,0.09670155495405197,-0.018276965245604515
1769667742624136000,0.537135986328125,-0.23044909536838531,0.0436946377158165,-0.020063459873199463
1769667742634124000,0.5471240234375,-0.2991733253002167,0.10151958465576172,-0.029460158199071884
1769667742644113000,0.55711279296875,-0.3693258762359619,0.17459221184253693,-0.040967490524053574
1769667742654101800,0.567101806640625,-0.4605787992477417,0.19273366034030914,-0.022010311484336853
1769667742664091000,0.5770908203125,-0.5984134078025818,0.18295906484127045,0.039823226630687714
1769667742674079000,0.587078857421875,-0.7891260981559753,0.05415687710046768,0.1753150075674057
1769667742684067800,0.59706787109375,-1.0141189098358154,-0.005277271382510662,0.3463071286678314
1769667742694057000,0.607056884765625,-1.291500449180603,-0.16118644177913666,0.47559213638305664
1769667742704046000,0.617046142578125,-1.5628933906555176,-0.2181660383939743,0.6023391485214233
1769667742714034000,0.627033935546875,-1.8642785549163818,-0.23532186448574066,0.6837727427482605
1769667742724022800,0.637022705078125,-2.0128285884857178,-0.26904401183128357,0.6768026351928711
1769667742734012000,0.647011962890625,-1.9219741821289062,-0.3430069088935852,0.7450605630874634
1769667742744001000,0.6570009765625,-1.6371166706085205,-0.24846649169921875,0.8283607959747314
1769667742753990000,0.666989990234375,-1.290537714958191,-0.8233788013458252,0.6477505564689636
1769667742763978000,0.67697802734375,-1.02174973487854,-0.40073704719543457,0.7355884909629822
1769667742773967000,0.686967041015625,-0.7075352072715759,-0.13888388872146606,0.6158029437065125
1769667742783955700,0.696955810546875,-0.4382166564464569,-0.28860747814178467,0.24882301688194275
1769667742793944800,0.70694482421875,-0.20208640396595,-0.48040273785591125,-0.06401532888412476
1769667742803933000,0.716932861328125,-0.02735476940870285,-0.6443735361099243,-0.25363123416900635
1769667742813922000,0.726922119140625,0.020094238221645355,-0.4055239260196686,-0.1987658441066742
1769667742823911000,0.736910888671875,0.05961097776889801,-0.19625099003314972,-0.12603777647018433
1769667742833900000,0.746900146484375,0.1245092824101448,-0.04038362577557564,-0.15123100578784943
1769667742843888000,0.75688818359375,0.22963623702526093,-0.020461075007915497,-0.2616252899169922
1769667742853876700,0.766876708984375,0.40970003604888916,-0.037850186228752136,-0.3474096953868866
1769667742863865900,0.776865966796875,0.6275697350502014,-0.04466893896460533,-0.40714916586875916
1769667742873855000,0.78685498046875,0.8898873329162598,-0.05391357094049454,-0.49968281388282776
1769667742883843000,0.796843017578125,1.1918717622756958,-0.010976099409162998,-0.6122434139251709
1769667742893832000,0.80683203125,1.4285029172897339,-0.1070893183350563,-0.6892250180244446
1769667742903821000,0.816821044921875,1.29728364944458,-0.42488473653793335,-0.5372519493103027
1769667742913810000,0.826809814453125,0.8205128908157349,-0.6225184202194214,-0.22640855610370636
1769667742923797800,0.8367978515625,0.2136537879705429,-0.5822834968566895,0.11424720287322998
1769667742933787000,0.846786865234375,-0.20459780097007751,-0.46454834938049316,0.290089875459671
1769667742943776000,0.85677587890625,-0.3292146921157837,-0.451302170753479,0.30159857869148254
1769667742953764900,0.866764892578125,-0.3201884329319,-0.4402889311313629,0.2586037218570709
1769667742963754000,0.87675390625,-0.25004562735557556,-0.34417110681533813,0.1492006480693817
1769667742973742000,0.8867421875,-0.1709289699792862,-0.24028651416301727,0.07074099034070969
1769667742983731000,0.89673095703125,-0.07970527559518814,-0.13954001665115356,0.04885261878371239
1769667742993719800,0.9067197265625,0.001699303393252194,-0.024076269939541817,0.05175812914967537
1769667743003709000,0.916708984375,0.041239358484745026,0.10021675378084183,0.0417151153087616
1769667743013697000,0.926697021484375,0.04705224186182022,0.12626086175441742,0.03727509453892708
1769667743023686000,0.936685791015625,0.04250813275575638,0.11160045117139816,0.06445834785699844
1769667743033675000,0.946675048828125,0.02656538411974907,0.10964888334274292,0.10914406180381775
1769667743043664000,0.956663818359375,0.013539801351726055,0.10968316346406937,0.13784554600715637
1769667743053651700,0.966651611328125,0.010391412302851677,0.10387694090604782,0.1366492509841919
1769667743063640800,0.976640869140625,0.009787341579794884,0.07872594892978668,0.10312719643115997
1769667743073630000,0.9866298828125,0.010762326419353485,0.06681842356920242,0.06416621059179306
1769667743083618800,0.996618896484375,0.0013654541689902544,0.0571671724319458,0.029496580362319946
1769667743093607000,1.00660693359375,0.005276572424918413,0.06528369337320328,0.025285854935646057
1769667743103596000,1.016595947265625,-0.011602251790463924,0.06610710918903351,0.03593131899833679
1769667743113585000,1.0265849609375,-0.051038071513175964,-0.030386941507458687,0.16065460443496704
1769667743123574000,1.036573974609375,-0.029146194458007812,-0.08579330146312714,0.1276332437992096
1769667743133561900,1.046561767578125,-0.025363972410559654,-0.0598762184381485,0.05136483535170555
1769667743143551000,1.056551025390625,-0.10200213640928268,-0.09365947544574738,0.08793821185827255
1769667743153539800,1.066539794921875,-0.06428539007902145,-0.12176647782325745,0.11229149252176285
1769667743163529000,1.076529052734375,-0.016474425792694092,-0.024854626506567,0.09011255949735641
1769667743173517800,1.086517822265625,-0.0020696537103503942,0.02743574231863022,0.02267572470009327
1769667743183505400,1.09650537109375,-0.016615737229585648,0.05476386472582817,-0.0012290400918573141
1769667743193494500,1.10649462890625,-0.0074459402821958065,0.06706394255161285,0.01103188656270504
1769667743203483600,1.116483642578125,0.04782109707593918,0.0871100053191185,0.02625866048038006
1769667743213472500,1.126472412109375,0.11870432645082474,0.175416961312294,0.020169341936707497
1769667743223460600,1.136460693359375,0.07717089354991913,0.1852833330631256,-0.03154049068689346
1769667743233449700,1.14644970703125,-0.010882002301514149,0.09426981955766678,-0.01900978572666645
1769667743243438800,1.15643896484375,-0.062376968562603,-0.024517713114619255,0.06703253835439682
1769667743253427700,1.166427734375,0.025714270770549774,-0.01913839392364025,0.05574233457446098
1769667743263415600,1.17641552734375,0.12845715880393982,0.09158807247877121,-0.008958467282354832
1769667743273404700,1.18640478515625,0.1779424101114273,0.1942228376865387,-0.032416656613349915
1769667743283393500,1.1963935546875,-0.028103100135922432,0.13943438231945038,-0.040810152888298035
1769667743293382700,1.206382568359375,0.007095899432897568,0.03876929357647896,-0.03428008407354355
1769667743303371800,1.216371826171875,-0.011786737479269505,0.04654456302523613,-0.03598390892148018
1769667743313359600,1.226359619140625,-0.020444141700863838,0.038503680378198624,-0.028443964198231697
1769667743323348500,1.236348388671875,-0.017434613779187202,0.031178466975688934,0.005920830182731152
1769667743333337600,1.246337646484375,-0.040986012667417526,0.02753393165767193,0.019013462588191032
1769667743343326500,1.256326416015625,-0.05258966609835625,-0.005607418715953827,0.007906018756330013
1769667743353314600,1.266314453125,-0.05080268159508705,-0.030918898060917854,-0.001850205473601818
1769667743363303700,1.2763037109375,-0.04300307482481003,-0.023554036393761635,-0.012459658086299896
1769667743373292800,1.286292724609375,-0.051405347883701324,-0.021511390805244446,-0.02830280363559723
1769667743383281700,1.29628173828125,-0.0401010662317276,-0.025219019502401352,-0.04077331721782684
1769667743393269500,1.30626953125,-0.017326245084404945,-0.035951294004917145,-0.060530778020620346
1769667743403258600,1.316258544921875,-0.005551840644329786,-0.01930868998169899,-0.13838882744312286
1769667743413247500,1.32624755859375,0.03683210164308548,-0.08874848484992981,-0.3881656229496002
1769667743423236600,1.336236572265625,0.01288856565952301,-0.051654793322086334,-0.33263832330703735
1769667743433224700,1.346224609375,0.027235547080636024,0.14895740151405334,-0.05221838504076004
1769667743443213800,1.3562138671875,-0.03215646743774414,0.15623894333839417,0.16237200796604156
1769667743453202700,1.36620263671875,-0.08004249632358551,-0.018875349313020706,0.23018808662891388
1769667743463191800,1.37619189453125,-0.12759236991405487,-0.13034236431121826,0.29289036989212036
1769667743473179600,1.3861796875,-0.13861465454101562,-0.127934068441391,0.289182186126709
1769667743483168500,1.39616845703125,-0.11356033384799957,-0.02226240187883377,0.21201233565807343
1769667743493157600,1.40615771484375,-0.07795626670122147,0.016148634254932404,0.1729341745376587
1769667743503146800,1.416146728515625,-0.04037625342607498,-0.009728915989398956,0.1104711964726448
1769667743513134600,1.426134521484375,0.00315604405477643,-0.23084717988967896,-0.03958434984087944
1769667743523123700,1.436123779296875,0.03617043420672417,0.024451635777950287,-0.034908462315797806
1769667743533112600,1.446112548828125,0.07921963185071945,-0.12156735360622406,-0.21966072916984558
1769667743543101400,1.456101318359375,0.09975635260343552,0.4251999258995056,-0.1012977808713913
1769667743553090600,1.466090576171875,0.051915064454078674,0.29149219393730164,-0.0368863008916378
1769667743563078700,1.47607861328125,-0.015417313203215599,-0.23027479648590088,0.11097073554992676
1769667743573067800,1.48606787109375,-0.08160485327243805,-0.5805733799934387,0.22547680139541626
1769667743583056600,1.496056640625,-0.09335120022296906,-0.6637598872184753,0.19214728474617004
1769667743593045800,1.506045654296875,-0.06471529603004456,-0.5959906578063965,0.09835580736398697
1769667743603033600,1.51603369140625,-0.002492498606443405,-0.4055207669734955,0.05725019797682762
1769667743613022500,1.5260224609375,0.052810437977313995,-0.15425926446914673,0.024830471724271774
1769667743623011600,1.536011474609375,0.0813211128115654,-0.014445662498474121,0.014614869840443134
1769667743633000700,1.546000732421875,0.10407329350709915,0.021387703716754913,0.020908717066049576
1769667743642988800,1.55598876953125,0.09515076875686646,-0.039464931935071945,0.018480762839317322
1769667743652977700,1.565977783203125,0.08234335482120514,-0.13387611508369446,0.02303956262767315
1769667743662966800,1.575966796875,0.06334760040044785,-0.14987735450267792,0.031473178416490555
1769667743672955600,1.58595556640625,0.052574049681425095,-0.10209571570158005,0.022448524832725525
1769667743682943500,1.595943603515625,0.04001403972506523,-0.16772201657295227,0.0012896613916382194
1769667743692932600,1.6059326171875,0.03806593641638756,-0.13816092908382416,0.031957294791936874
1769667743702921700,1.615921630859375,0.03211735188961029,-0.09456457197666168,0.055993251502513885
1769667743712910600,1.62591064453125,0.028823554515838623,-0.13562093675136566,0.038413722068071365
1769667743722898700,1.635898681640625,0.02828729897737503,-0.1378147453069687,-0.029480069875717163
1769667743732887800,1.6458876953125,0.027463581413030624,-0.12311144173145294,-0.08803579211235046
1769667743742876400,1.65587646484375,0.01624484546482563,-0.1850036233663559,-0.11637130379676819
1769667743752865500,1.665865478515625,-0.0024305719416588545,-0.21225948631763458,-0.10963164269924164
1769667743762853600,1.675853515625,-0.01803608424961567,-0.24229566752910614,-0.12383154034614563
1769667743772842800,1.6858427734375,-0.03374873474240303,-0.20725832879543304,-0.12030631303787231
1769667743782831600,1.69583154296875,-0.030944881960749626,-0.1658696085214615,-0.13688518106937408
1769667743792820700,1.70582080078125,-0.025881147012114525,-0.09810440242290497,-0.17198671400547028
1769667743802809600,1.7158095703125,-0.02917785942554474,-0.029969239607453346,-0.19536010921001434
1769667743812797400,1.72579736328125,-0.03934207931160927,-0.04613595828413963,-0.1786748766899109
1769667743822786600,1.73578662109375,-0.04832928627729416,-0.07416129857301712,-0.1449504941701889
1769667743832775700,1.745775634765625,-0.05472966283559799,-0.06715185940265656,-0.10791152715682983
1769667743842764500,1.7557646484375,-0.060688089579343796,-0.04079421982169151,-0.08856388926506042
1769667743852752600,1.765752685546875,-0.059533342719078064,0.025548050180077553,-0.05374838039278984
1769667743862741800,1.77574169921875,-0.05302108824253082,0.09836681187152863,-0.0021071522496640682
1769667743872730600,1.785730712890625,-0.04860370233654976,0.06243916600942612,0.026301585137844086
1769667743882719500,1.795719482421875,-0.047905467450618744,-0.021083978936076164,-0.005695861764252186
1769667743892707600,1.80570751953125,-0.04654539003968239,-0.17562668025493622,-0.05323754623532295
1769667743902696700,1.81569677734375,-0.043826717883348465,-0.2542496919631958,-0.04483208432793617
1769667743912685600,1.825685546875,-0.05416271090507507,-0.2508315145969391,-0.012159891426563263
1769667743922674700,1.8356748046875,-0.04099038988351822,-0.15893428027629852,0.024726949632167816
1769667743932662800,1.845662841796875,-0.024247093126177788,-0.1269550323486328,0.02094872295856476
1769667743942651600,1.855651611328125,-0.019417855888605118,-0.10631150007247925,0.0347139798104763
1769667743952640500,1.865640625,-0.011384163051843643,-0.07321666181087494,0.04072606563568115
1769667743962629600,1.875629638671875,-0.015989309176802635,-0.028689833357930183,0.038875121623277664
1769667743972617700,1.88561767578125,-0.03700271621346474,0.01501024141907692,0.025633616372942924
1769667743982606600,1.895606689453125,-0.05241021141409874,-0.006483620963990688,0.020320242270827293
1769667743992595700,1.905595703125,-0.08299022167921066,-0.04292445257306099,0.024894222617149353
1769667744002584600,1.91558447265625,-0.11925847828388214,-0.1453728973865509,0.030265867710113525
1769667744012572400,1.925572509765625,-0.13692402839660645,-0.20415152609348297,0.04887896776199341
1769667744022561500,1.9355615234375,-0.13060152530670166,-0.15727898478507996,0.0829039141535759
1769667744032550700,1.945550537109375,-0.12157474458217621,-0.0449598953127861,0.08359713107347488
1769667744042539500,1.95553955078125,-0.0956742912530899,0.11297500133514404,0.04222852736711502
1769667744052528600,1.965528564453125,-0.06986453384160995,0.23101428151130676,0.0018880270654335618
1769667744062516700,1.975516845703125,-0.053387898951768875,0.2603743076324463,-0.05414951220154762
1769667744072505600,1.985505615234375,-0.05020861700177193,0.2265273928642273,-0.1050981879234314
1769667744082494700,1.99549462890625,-0.056113552302122116,0.13613246381282806,-0.10797134041786194
1769667744092483600,2.005483642578125,-0.07007970660924911,0.04987189173698425,-0.07904088497161865
1769667744102471700,2.0154716796875,-0.08994752168655396,0.036225683987140656,-0.05330677330493927
1769667744112460500,2.02546044921875,-0.10029363632202148,0.08832777291536331,-0.025892991572618484
1769667744122449700,2.03544970703125,-0.09249494224786758,0.14343327283859253,-0.00009897863492369652
1769667744132438800,2.045438720703125,-0.07624460011720657,0.16243013739585876,0.007577583193778992
1769667744142426600,2.055426513671875,-0.06108397990465164,0.16939803957939148,-0.0036552613601088524
1769667744152415700,2.065415771484375,-0.05379650369286537,0.17739976942539215,-0.025614354759454727
1769667744162404600,2.075404541015625,-0.04343387484550476,0.16596485674381256,-0.041616443544626236
1769667744172393000,2.08539306640625,-0.043280210345983505,0.16481409966945648,-0.04892256110906601
1769667744182380800,2.095380859375,-0.05612298846244812,0.16120262444019318,-0.03671399503946304
1769667744192370000,2.105369873046875,-0.0640626773238182,0.1474231630563736,-0.00910953152924776
1769667744202359000,2.115359130859375,-0.06402409076690674,0.14817899465560913,0.020569264888763428
1769667744212348000,2.125347900390625,-0.05702902749180794,0.1617179661989212,0.025921152904629707
1769667744222336000,2.1353359375,-0.05191461369395256,0.17786246538162231,0.004427999258041382
1769667744232325000,2.1453251953125,-0.048991795629262924,0.17457479238510132,-0.02392907440662384
1769667744242314000,2.15531396484375,-0.05002912878990173,0.15751498937606812,-0.04692845046520233
1769667744252303000,2.16530322265625,-0.061237309128046036,0.13510875403881073,-0.058859679847955704
1769667744262292000,2.1752919921875,-0.07832811772823334,0.10794980078935623,-0.07195683568716049
1769667744272280000,2.185280029296875,-0.08959515392780304,0.07078272849321365,-0.07576195895671844
1769667744282269000,2.19526904296875,-0.09462413191795349,0.05747875198721886,-0.05705656856298447
1769667744292258000,2.205258056640625,-0.10954608768224716,0.07296743243932724,-0.027674978598952293
1769667744302247200,2.2152470703125,-0.12074451148509979,0.09349178522825241,-0.004477816633880138
1769667744312235000,2.225235107421875,-0.12290246784687042,0.11003028601408005,0.00887154508382082
1769667744322223900,2.235223876953125,-0.1179613247513771,0.11204705387353897,0.010836480185389519
1769667744332213000,2.245212890625,-0.11106773465871811,0.12064586579799652,0.003741019871085882
1769667744342201900,2.255201904296875,-0.1010277271270752,0.1267234832048416,-0.014255106449127197
1769667744352190000,2.26518994140625,-0.08857585489749908,0.1327321082353592,-0.02979465201497078
1769667744362179000,2.275178955078125,-0.0789903849363327,0.15362201631069183,-0.03587639331817627
1769667744372168200,2.285168212890625,-0.07668009400367737,0.15182144939899445,-0.03166833519935608
1769667744382157000,2.295156982421875,-0.0777917206287384,0.11850925534963608,-0.013557331636548042
1769667744392145000,2.305144775390625,-0.08391539007425308,0.06572487205266953,0.010543743148446083
1769667744402134000,2.315134033203125,-0.08938755095005035,0.04425559937953949,0.03085504285991192
1769667744412123000,2.325122802734375,-0.09887426346540451,0.06930023431777954,0.04183525592088699
1769667744422112000,2.335112060546875,-0.10091756284236908,0.11704055219888687,0.04872067645192146
1769667744432100000,2.34510009765625,-0.09914762526750565,0.11960970610380173,0.0424870140850544
1769667744442089000,2.3550888671875,-0.0916178748011589,0.07105551660060883,0.035008348524570465
1769667744452078000,2.365078125,-0.08712512254714966,0.022309817373752594,0.026216456666588783
1769667744462067200,2.375067138671875,-0.08037702739238739,-0.008651337586343288,0.017667502164840698
1769667744472055000,2.385054931640625,-0.07051534205675125,-0.016496477648615837,0.011418926529586315
1769667744482044000,2.3950439453125,-0.05959219112992287,-0.007510939612984657,0.005606332793831825
1769667744492033000,2.405032958984375,-0.05479210615158081,0.012948262505233288,0.005336287897080183
1769667744502022100,2.415022216796875,-0.05134739354252815,0.02919137105345726,0.014069920405745506
1769667744512011000,2.425010986328125,-0.05235832929611206,0.022424012422561646,0.02581712231040001
1769667744521999000,2.4349990234375,-0.06689919531345367,0.0065993499010801315,0.041737716645002365
1769667744531988000,2.444988037109375,-0.0791124552488327,-0.020508434623479843,0.048417456448078156
1769667744541976800,2.454976806640625,-0.08407898247241974,-0.0635930523276329,0.030909571796655655
1769667744551966000,2.464966064453125,-0.09693405777215958,-0.08035791665315628,-0.01052016019821167
1769667744561954000,2.4749541015625,-0.10559294372797012,-0.07344739884138107,-0.06379257142543793
1769667744571943200,2.484943115234375,-0.09988179802894592,-0.07964804023504257,-0.08317133039236069
1769667744581932000,2.49493212890625,-0.11381904780864716,-0.12222243845462799,-0.08695852011442184
1769667744591921200,2.504921142578125,-0.13962213695049286,-0.14899146556854248,-0.08778330683708191
1769667744601909000,2.514908935546875,-0.1552359014749527,-0.1586228460073471,-0.08857613801956177
1769667744611897900,2.52489794921875,-0.1807742863893509,-0.15479721128940582,-0.07322701066732407
1769667744621887000,2.534886962890625,-0.19281847774982452,-0.1361692249774933,-0.041766662150621414
1769667744631876000,2.5448759765625,-0.1915942132472992,-0.090798020362854,-0.014799756929278374
1769667744641864000,2.554864013671875,-0.19201910495758057,-0.04246286302804947,-0.00369476736523211
1769667744651853000,2.56485302734375,-0.18491992354393005,-0.013902856968343258,-0.015556753613054752
1769667744661842200,2.57484228515625,-0.1779840737581253,0.011844808235764503,-0.025026364251971245
1769667744671830800,2.584830810546875,-0.19687308371067047,0.06043178215622902,-0.026578189805150032
1769667744681820000,2.59481982421875,-0.19335538148880005,0.062307484447956085,-0.015045078471302986
1769667744691808000,2.60480810546875,-0.1626368761062622,0.06730037927627563,0.02680862694978714
1769667744701797000,2.614797119140625,-0.17668521404266357,0.11203092336654663,0.05722249299287796
1769667744711786000,2.624785888671875,-0.1627132147550583,0.11110414564609528,0.07893577963113785
1769667744721775000,2.634775146484375,-0.08285477012395859,0.0584779717028141,0.08384991437196732
1769667744731763200,2.64476318359375,-0.014557475224137306,0.04259541258215904,0.07401485741138458
1769667744741751800,2.654751708984375,-0.009813826531171799,0.10560044646263123,0.04962404444813728
1769667744751741000,2.664740966796875,-0.0301063135266304,0.14614014327526093,0.03583206608891487
1769667744761730000,2.67472998046875,-0.008075992576777935,0.1334460824728012,0.04763532429933548
1769667744771718100,2.68471826171875,0.028377089649438858,0.13976256549358368,0.06856083869934082
1769667744781707000,2.69470703125,0.043772388249635696,0.19565080106258392,0.06981198489665985
1769667744791696100,2.704696044921875,0.0430847592651844,0.2199217826128006,0.04875063896179199
1769667744801685000,2.71468505859375,0.07173020392656326,0.1710173338651657,0.03662809357047081
1769667744811672800,2.7246728515625,0.08338872343301773,0.14557455480098724,0.039300575852394104
1769667744821662000,2.734661865234375,0.058615781366825104,0.17715275287628174,0.05001271143555641
1769667744831651000,2.744651123046875,0.033583130687475204,0.1614701896905899,0.08235867321491241
1769667744841640000,2.754639892578125,0.0010546554112806916,0.20401345193386078,0.16473370790481567
1769667744851629000,2.764629150390625,0.00823267363011837,0.2816922664642334,0.24665041267871857
1769667744861617200,2.7746171875,-0.0034318382386118174,0.2919512391090393,0.25473666191101074
1769667744871606000,2.78460595703125,-0.025151247158646584,0.2588721215724945,0.2191818803548813
1769667744881595000,2.794594970703125,-0.015628280118107796,0.1768506020307541,0.15942391753196716
1769667744891584000,2.804583984375,0.00010327843483537436,0.11057385057210922,0.12234073132276535
1769667744901572000,2.814572021484375,0.019432270899415016,0.058961112052202225,0.11423465609550476
1769667744911561000,2.82456103515625,-0.0043577472679317,-0.061501920223236084,0.10749286413192749
1769667744921550000,2.834550048828125,-0.019091224297881126,-0.05536303296685219,0.10468245297670364
1769667744931539000,2.8445390625,0.013523443602025509,0.0865967646241188,0.12959766387939453
1769667744941527000,2.854527099609375,0.012723414227366447,0.2733047902584076,0.17182664573192596
1769667744951516000,2.864515869140625,-0.01319926232099533,0.33420008420944214,0.23804721236228943
1769667744961505000,2.874505126953125,-0.02772790938615799,0.3446752727031708,0.2822624146938324
1769667744971494000,2.884493896484375,-0.032037701457738876,0.35170069336891174,0.2686632573604584
1769667744981482000,2.89448193359375,-0.02204899489879608,0.3318274915218353,0.22946520149707794
1769667744991471000,2.90447119140625,-0.005397846922278404,0.29181909561157227,0.192158043384552
1769667745001460000,2.9144599609375,0.01021016389131546,0.2701924741268158,0.16150060296058655
1769667745011449000,2.924448974609375,0.014039789326488972,0.26635032892227173,0.14879892766475677
1769667745021437000,2.93443701171875,0.015668699517846107,0.29369041323661804,0.15290619432926178
1769667745031426000,2.944426025390625,0.02398149110376835,0.3327038586139679,0.16323687136173248
1769667745041415000,2.954414794921875,0.03148217499256134,0.34549638628959656,0.17319940030574799
1769667745051404000,2.964404052734375,0.03874408081173897,0.3417637050151825,0.17232587933540344
1769667745061393000,2.974392822265625,0.04115324467420578,0.3094482421875,0.15657904744148254
1769667745071381000,2.984381103515625,0.05152279511094093,0.24056637287139893,0.11552988737821579
1769667745081370000,2.9943701171875,0.06007072329521179,0.1883476823568344,0.06864731758832932
1769667745091359000,3.00435888671875,0.06056367605924606,0.17754164338111877,0.038622304797172546
1769667745101347800,3.014347900390625,0.029160737991333008,0.1601017713546753,0.039693381637334824
1769667745111336000,3.0243359375,-0.027557935565710068,0.15263453125953674,0.07758590579032898
1769667745121325000,3.034324951171875,-0.06218542158603668,0.14723576605319977,0.1192137748003006
1769667745131314000,3.04431396484375,-0.053613774478435516,0.17707543075084686,0.12637048959732056
1769667745141303000,3.054302978515625,-0.0371188223361969,0.16446024179458618,0.0912267193198204
1769667745151291000,3.064290771484375,-0.034386418759822845,0.14592091739177704,0.041450902819633484
1769667745161280000,3.074280029296875,-0.031154636293649673,0.13535292446613312,0.005249353125691414
1769667745171268900,3.084268798828125,-0.036339279264211655,0.1285695880651474,-0.0074560558423399925
1769667745181258000,3.094258056640625,-0.04408032447099686,0.12171793729066849,-0.011540334671735764
1769667745191245800,3.104245849609375,-0.0569085031747818,0.11364936083555222,-0.00654078321531415
1769667745201235000,3.11423486328125,-0.06637582927942276,0.10688352584838867,-0.0001200998667627573
1769667745211223800,3.124223876953125,-0.07115168124437332,0.11830848455429077,0.000033298274502158165
1769667745221213000,3.134212890625,-0.0680532306432724,0.12625771760940552,0.0022350267972797155
1769667745231201800,3.144201904296875,-0.06571923196315765,0.11006515473127365,-0.0027599979657679796
1769667745241190000,3.15418994140625,-0.05784273520112038,0.07668884098529816,-0.027725379914045334
1769667745251179000,3.164178955078125,-0.04697943478822708,0.04017503187060356,-0.06355155259370804
1769667745261168000,3.174168212890625,-0.04039004072546959,0.01841890811920166,-0.0900593101978302
1769667745271156700,3.18415673828125,-0.03710636496543884,0.017126208171248436,-0.10998987406492233
1769667745281144800,3.194144775390625,-0.03078339248895645,0.016191108152270317,-0.10884340107440948
1769667745291134000,3.204134033203125,-0.031053969636559486,-0.0002373990137130022,-0.0992184728384018
1769667745301122800,3.214122802734375,-0.03166570886969566,-0.02282702550292015,-0.08895708620548248
1769667745311112000,3.22411181640625,-0.03075144626200199,-0.03579608350992203,-0.07675021886825562
1769667745321100000,3.23410009765625,-0.036441054195165634,-0.04013370722532272,-0.07539233565330505
1769667745331089000,3.2440888671875,-0.03676889091730118,-0.03295968100428581,-0.0807008147239685
1769667745341077800,3.254077880859375,-0.039411574602127075,-0.009887865744531155,-0.0912095159292221
1769667745351067000,3.26406689453125,-0.043094195425510406,0.0037075714208185673,-0.1171412467956543
1769667745361055000,3.274054931640625,-0.047858286648988724,0.0017882504034787416,-0.13333022594451904
1769667745371043800,3.2840439453125,-0.04428751766681671,0.008224045857787132,-0.1290590465068817
1769667745381033000,3.294032958984375,-0.041243910789489746,0.02906195819377899,-0.11490122973918915
1769667745391022000,3.30402197265625,-0.04221063479781151,0.03502530977129936,-0.10528694838285446
1769667745401011000,3.314010986328125,-0.04854046180844307,0.03066718950867653,-0.09959451854228973
1769667745410998800,3.323998779296875,-0.04554866626858711,0.04197497293353081,-0.09585064649581909
1769667745420988000,3.33398779296875,-0.029355846345424652,0.057550203055143356,-0.09506687521934509
1769667745430976800,3.343976806640625,-0.020833730697631836,0.0875357985496521,-0.09067665785551071
1769667745440966000,3.3539658203125,-0.011157340370118618,0.11736088246107101,-0.08087469637393951
1769667745450954000,3.3639541015625,-0.0011907261796295643,0.13186684250831604,-0.07350439578294754
1769667745460943000,3.373943115234375,0.00019666750449687243,0.13487036526203156,-0.07701744884252548
1769667745470931700,3.383931640625,-0.0034630484879016876,0.12416180223226547,-0.07605978101491928
1769667745480920800,3.3939208984375,-0.014049912802875042,0.10551301389932632,-0.08433821052312851
1769667745490909000,3.403908935546875,-0.027470646426081657,0.08987360447645187,-0.09282464534044266
1769667745500897800,3.413897705078125,-0.07405944168567657,0.07289271801710129,-0.03102223575115204
1769667745510887000,3.423886962890625,-0.08082173764705658,0.10490763932466507,-0.012960145249962807
1769667745520876000,3.4338759765625,-0.0757797360420227,0.14477358758449554,-0.048681072890758514
1769667745530864000,3.443864013671875,-0.061351802200078964,0.15781402587890625,-0.090355284512043
1769667745540852700,3.453852783203125,-0.025052383542060852,0.1446625292301178,-0.105559803545475
1769667745550841900,3.463841796875,-0.014942225068807602,0.14166861772537231,-0.12066498398780823
1769667745560830700,3.473830810546875,-0.014824564568698406,0.15437038242816925,-0.13019178807735443
1769667745570819800,3.48381982421875,-0.02318502590060234,0.16725501418113708,-0.11801928281784058
1769667745580808000,3.493807861328125,-0.02420397475361824,0.1713559776544571,-0.09393720328807831
1769667745590797000,3.503797119140625,-0.019011609256267548,0.14446869492530823,-0.07180127501487732
1769667745600786000,3.513785888671875,-0.009575610980391502,0.13383585214614868,-0.0529082827270031
1769667745610775000,3.523775146484375,-0.001890260260552168,0.11850962787866592,-0.03776341676712036
1769667745620763000,3.533762939453125,0.00590322632342577,0.08017482608556747,-0.03773575276136398
1769667745630751700,3.543751708984375,0.01546796876937151,0.053890496492385864,-0.03525262326002121
1769667745640740900,3.553740966796875,0.023095324635505676,0.04512903839349747,-0.027752699330449104
1769667745650730000,3.56372998046875,0.03232957050204277,0.05062367394566536,-0.017723500728607178
1769667745660718000,3.573718017578125,0.03483714908361435,0.05205467343330383,-0.011048705317080021
1769667745670707000,3.58370703125,0.04104924201965332,0.05268584564328194,-0.008531485684216022
1769667745680695800,3.59369580078125,0.04087429121136665,0.028361381962895393,0.0013449392281472683
1769667745690684700,3.6036845703125,0.04355476424098015,0.0026458988431841135,0.020375888794660568
1769667745700673800,3.613673828125,0.04298814386129379,-0.010195768438279629,0.0371977798640728
1769667745710662000,3.623661865234375,0.04913792014122009,-0.029504217207431793,0.045168887823820114
1769667745720651000,3.633651123046875,0.054831087589263916,-0.05494144558906555,0.045480307191610336
1769667745730640000,3.643639892578125,0.06335799396038055,-0.08591295033693314,0.038674600422382355
1769667745740629000,3.65362890625,0.07686421275138855,-0.10467305034399033,0.02545546554028988
1769667745750616800,3.663616943359375,0.09204503148794174,-0.10733115673065186,0.010856283828616142
1769667745760605700,3.673605712890625,0.10463284701108932,-0.1314207911491394,-0.00223680236376822
1769667745770594800,3.6835947265625,0.1165238618850708,-0.15760979056358337,-0.007408395409584045
1769667745780584000,3.693583984375,0.11945788562297821,-0.18455983698368073,0.009849779307842255
1769667745790572000,3.703572021484375,0.11294671893119812,-0.2071804702281952,0.04930184781551361
1769667745800561000,3.713560791015625,0.10256089270114899,-0.22575382888317108,0.10696794092655182
1769667745810550000,3.723550048828125,0.09209813177585602,-0.2638261318206787,0.1605139821767807
1769667745820539000,3.733538818359375,0.08967183530330658,-0.3048589527606964,0.1941673308610916
1769667745830526700,3.743526611328125,0.10514266788959503,-0.3078613877296448,0.19864197075366974
1769667745840515800,3.753515869140625,0.12974008917808533,-0.29402855038642883,0.16401217877864838
1769667745850505000,3.7635048828125,0.1574375033378601,-0.29225248098373413,0.11245284974575043
1769667745860493800,3.773493896484375,0.17777754366397858,-0.3184577226638794,0.05451437085866928
1769667745870483000,3.78348291015625,0.19505000114440918,-0.33981388807296753,0.015297460369765759
1769667745880471000,3.793470947265625,0.1941889375448227,-0.36585718393325806,0.008861957117915154
1769667745890459600,3.803459716796875,0.18251655995845795,-0.3895723521709442,0.025479016825556755
1769667745900448800,3.81344873046875,0.1637357771396637,-0.38533052802085876,0.048449840396642685
1769667745910438000,3.82343798828125,0.1481403112411499,-0.38311293721199036,0.06853886693716049
1769667745920426000,3.833426025390625,0.11284350603818893,-0.37080129981040955,0.07950747758150101
1769667745930414800,3.843414794921875,0.07770708948373795,-0.3705456554889679,0.09479508548974991
1769667745940404000,3.853404052734375,0.049592453986406326,-0.41198477149009705,0.10960464924573898
1769667745950393000,3.86339306640625,0.013194502331316471,-0.48015743494033813,0.10327564924955368
1769667745960380700,3.873380615234375,-0.007664831355214119,-0.5500938296318054,0.08460305631160736
1769667745970369800,3.883369873046875,-0.014659623615443707,-0.6228306293487549,0.059533122926950455
1769667745980359000,3.89335888671875,-0.010650970973074436,-0.6883938908576965,0.028857432305812836
1769667745990347800,3.90334765625,0.0017977089155465364,-0.7173240780830383,-0.009647882543504238
1769667746000337000,3.9133369140625,0.001578274997882545,-0.7516469359397888,-0.04891481623053551
1769667746010325000,3.923324951171875,0.009111558087170124,-0.7959640622138977,-0.062384020537137985
1769667746020313900,3.93331396484375,0.008713098242878914,-0.8187598586082458,-0.0741894319653511
1769667746030303000,3.943302978515625,0.009399394504725933,-0.7978998422622681,-0.0895465537905693
1769667746040291800,3.953291748046875,-0.026966039091348648,-0.8127852082252502,-0.09842786192893982
1769667746050280000,3.963280029296875,-0.027598805725574493,-0.8025461435317993,-0.1086602583527565
1769667746060268800,3.973268798828125,-0.022252323105931282,-0.8511621356010437,-0.11817410588264465
1769667746070258000,3.9832578125,-0.02836614102125168,-0.9506293535232544,-0.09833941608667374
1769667746080247000,3.9932470703125,-0.03751683607697487,-1.034919261932373,-0.08448560535907745
1769667746090235000,4.00323486328125,-0.03456738591194153,-1.1395233869552612,-0.10528702288866043
1769667746100223700,4.0132236328125,-0.023383036255836487,-1.2372386455535889,-0.16555100679397583
1769667746110212900,4.023212890625,-0.015481970272958279,-1.2428944110870361,-0.22063744068145752
1769667746120201700,4.03320166015625,0.006164924241602421,-1.1733958721160889,-0.2676030099391937
1769667746130190800,4.04319091796875,0.008032599464058876,-1.0079975128173828,-0.3166949152946472
1769667746140179000,4.053178955078125,0.0010739072458818555,-0.8561527729034424,-0.3454158902168274
1769667746150168000,4.06316796875,-0.03033221885561943,-0.7160332202911377,-0.3316345512866974
1769667746160157000,4.073156982421875,-0.06666622310876846,-0.6747251749038696,-0.31392765045166016
1769667746170146000,4.08314599609375,-0.09648431092500687,-0.8815896511077881,-0.2945592701435089
1769667746180134700,4.093134765625,-0.11274505406618118,-1.22211754322052,-0.3060367703437805
1769667746190123500,4.10312353515625,-0.12837541103363037,-1.4264320135116577,-0.3451010584831238
1769667746200112600,4.113112548828125,-0.13986140489578247,-1.5341715812683105,-0.38956695795059204
1769667746210101500,4.1231015625,-0.16187962889671326,-1.6118956804275513,-0.4007200002670288
1769667746220089300,4.13308935546875,-0.17760862410068512,-1.739902377128601,-0.39716365933418274
1769667746230078500,4.143078369140625,-0.2110789567232132,-1.70188307762146,-0.3770940601825714
1769667746240067600,4.153067626953125,-0.28400689363479614,-1.2831323146820068,-0.362112820148468
1769667746250056400,4.163056396484375,-0.28705301880836487,-1.0862661600112915,-0.3629898130893707
1769667746260045600,4.173045654296875,-0.3246593475341797,-1.1362954378128052,-0.3707920014858246
1769667746270033700,4.18303369140625,-0.3588325083255768,-1.1570689678192139,-0.3568492829799652
1769667746280022500,4.1930224609375,-0.34880465269088745,-1.3188244104385376,-0.3368389904499054
1769667746290011400,4.203011474609375,-0.32801973819732666,-1.5107637643814087,-0.3547343611717224
1769667746300000500,4.21300048828125,-0.31715452671051025,-1.6252278089523315,-0.3997601568698883
1769667746309988600,4.222988525390625,-0.3132665753364563,-1.5474982261657715,-0.42120233178138733
1769667746319977500,4.2329775390625,-0.3319746255874634,-1.2310997247695923,-0.4349553883075714
1769667746329966600,4.242966552734375,-0.3613879084587097,-0.7523858547210693,-0.43688511848449707
1769667746339955500,4.25295556640625,-0.36823153495788574,-0.45526808500289917,-0.4334927797317505
1769667746349943300,4.262943359375,-0.3617249131202698,-0.40334951877593994,-0.3936878442764282
1769667746359932400,4.272932373046875,-0.32842859625816345,-0.5855907797813416,-0.34844329953193665
1769667746369921500,4.282921630859375,-0.34202882647514343,-0.9001468420028687,-0.3340339958667755
1769667746379910400,4.292910400390625,-0.4744727313518524,-0.8824020028114319,-0.354266881942749
1769667746389899500,4.3028994140625,-0.5404466390609741,-0.23085005581378937,-0.39715737104415894
1769667746399887600,4.3128876953125,-0.501143217086792,0.45684587955474854,-0.4306604862213135
1769667746409876500,4.32287646484375,-0.4360896348953247,0.8598340749740601,-0.4969519078731537
1769667746419865600,4.332865478515625,-0.4044836759567261,0.8297269344329834,-0.544963002204895
1769667746429854500,4.3428544921875,-0.3876466453075409,0.4153798222541809,-0.39641985297203064
1769667746439842600,4.352842529296875,-0.38654637336730957,-0.09545960277318954,-0.21757753193378448
1769667746449831400,4.36283154296875,-0.46431171894073486,-0.3348202407360077,-0.14060978591442108
1769667746459820500,4.372820556640625,-0.5280261039733887,-0.3296522796154022,-0.17747391760349274
1769667746469809400,4.382809326171875,-0.605479896068573,-0.21871456503868103,-0.27122196555137634
1769667746479797500,4.392797607421875,-0.6487078666687012,-0.19641610980033875,-0.3931775987148285
1769667746489786600,4.40278662109375,-0.650964617729187,-0.30988672375679016,-0.4182025194168091
1769667746499775500,4.412775390625,-0.6289386749267578,-0.3556309640407562,-0.3934732675552368
1769667746509764400,4.422764404296875,-0.5947719216346741,-0.4550672769546509,-0.35267361998558044
1769667746519753500,4.43275341796875,-0.5439609885215759,-0.49095070362091064,-0.32136428356170654
1769667746529741600,4.442741455078125,-0.5046442151069641,-0.5152342319488525,-0.3032150864601135
1769667746539730400,4.45273046875,-0.44669055938720703,-0.5477705597877502,-0.27587178349494934
1769667746549719600,4.462719482421875,-0.4178575873374939,-0.4985063374042511,-0.25675535202026367
1769667746559708700,4.472708740234375,-0.403573215007782,-0.40218156576156616,-0.2485445737838745
1769667746569696500,4.482696533203125,-0.38721609115600586,-0.2829153537750244,-0.25087910890579224
1769667746579685400,4.492685302734375,-0.32616275548934937,-0.1558685004711151,-0.27646785974502563
1769667746589674500,4.502674560546875,-0.24268437922000885,-0.042153384536504745,-0.32480958104133606
1769667746599663600,4.51266357421875,-0.1757737696170807,0.039406243711709976,-0.3777206540107727
1769667746609651500,4.5226513671875,-0.13449902832508087,0.10400041937828064,-0.4159601628780365
1769667746619640600,4.532640625,-0.10052595287561417,0.17252486944198608,-0.41960808634757996
1769667746629629700,4.542629638671875,-0.06502095609903336,0.19003435969352722,-0.4171539843082428
1769667746639618300,4.552618408203125,-0.035003453493118286,0.2102867215871811,-0.4257303476333618
1769667746649607400,4.562607421875,-0.04000753536820412,0.2752329707145691,-0.4214082956314087
1769667746659595500,4.572595458984375,-0.01972854509949684,0.30018940567970276,-0.43177518248558044
1769667746669584600,4.582584716796875,0.0533379428088665,0.2884211540222168,-0.44898879528045654
1769667746679573500,4.592573486328125,0.12424315512180328,0.31215688586235046,-0.4478605091571808
1769667746689562600,4.602562744140625,0.16679753363132477,0.3728649616241455,-0.4676653742790222
1769667746699550700,4.61255078125,0.22509829699993134,0.41999509930610657,-0.47040313482284546
1769667746709539300,4.622539306640625,0.2666337490081787,0.48249390721321106,-0.4695163071155548
1769667746719528400,4.632528564453125,0.27190566062927246,0.49948155879974365,-0.46751633286476135
1769667746729517600,4.642517578125,0.21601895987987518,0.5499919056892395,-0.4390415549278259
1769667746739505400,4.65250537109375,0.16836082935333252,0.6302753686904907,-0.3538828492164612
1769667746749494500,4.66249462890625,0.11807288974523544,0.6783677935600281,-0.19108380377292633
1769667746759483600,4.672483642578125,0.046158574521541595,0.7308732867240906,-0.044845376163721085
1769667746769472500,4.682472412109375,0.002148508559912443,0.767902135848999,0.07904274761676788
1769667746779461600,4.692461669921875,-0.00560978427529335,0.8026263117790222,0.1724763661623001
1769667746789449500,4.702449462890625,0.01136493869125843,0.8101460337638855,0.21780656278133392
1769667746799438600,4.7124384765625,0.028996232897043228,0.794755756855011,0.24738581478595734
1769667746809427500,4.722427490234375,0.05910726264119148,0.8102436065673828,0.29551151394844055
1769667746819416600,4.73241650390625,0.08864445239305496,0.8836759328842163,0.3239298164844513
1769667746829404700,4.74240478515625,0.11105122417211533,0.9275984168052673,0.37704071402549744
1769667746839393500,4.7523935546875,0.1354551613330841,0.9394744038581848,0.44925302267074585
1769667746849382400,4.76238232421875,0.14798560738563538,0.9477903842926025,0.5244085192680359
1769667746859371500,4.77237158203125,0.14797694981098175,0.9695581793785095,0.562935471534729
1769667746869359600,4.782359619140625,0.16134202480316162,0.9881329536437988,0.559108555316925
1769667746879348500,4.792348388671875,0.16774046421051025,1.0625553131103516,0.5013071298599243
1769667746889337600,4.802337646484375,0.19707998633384705,1.1313135623931885,0.43198317289352417
1769667746899326500,4.812326416015625,0.23419418931007385,1.2367780208587646,0.38500460982322693
1769667746909315600,4.822315673828125,0.25637513399124146,1.2908835411071777,0.32005250453948975
1769667746919303400,4.832303466796875,0.2600128650665283,1.274930715560913,0.2780788242816925
1769667746929292500,4.84229248046875,0.2818411886692047,1.3573260307312012,0.21702663600444794
1769667746939281400,4.852281494140625,0.294800728559494,1.4823079109191895,0.15270133316516876
1769667746949270500,4.8622705078125,0.3173012435436249,1.5231828689575195,0.09606974571943283
1769667746959258600,4.872258544921875,0.3180638551712036,1.3236154317855835,0.08114289492368698
1769667746969247500,4.88224755859375,0.3002648949623108,1.3265769481658936,0.1441069394350052
1769667746979236600,4.892236572265625,0.2649078965187073,1.327066421508789,0.16057580709457397
1769667746989225700,4.902225830078125,0.20765180885791779,1.5044633150100708,0.16155850887298584
1769667746999214300,4.91221435546875,0.17349500954151154,1.630627989768982,0.17761607468128204
1769667747009202400,4.922202392578125,0.18627364933490753,1.5952290296554565,0.1647934913635254
1769667747019191600,4.932191650390625,0.21448715031147003,1.6854007244110107,0.16181252896785736
1769667747029180400,4.942180419921875,0.2471015602350235,1.7580482959747314,0.17065821588039398
1769667747039169500,4.95216943359375,0.2549533247947693,1.6789096593856812,0.1432531625032425
1769667747049157600,4.96215771484375,0.23372581601142883,1.4855470657348633,0.16056503355503082
1769667747059146500,4.972146484375,0.25289326906204224,1.8411178588867188,0.20470845699310303
1769667747069135400,4.98213525390625,0.18818403780460358,1.9597567319869995,0.19629260897636414
1769667747079124500,4.99212451171875,0.09103500097990036,1.8381587266921997,0.21870484948158264
1769667747089112600,5.002112548828125,0.02297498844563961,1.4203335046768188,0.2860729694366455
1769667747099101400,5.012101318359375,-0.061043061316013336,1.0609240531921387,0.38268545269966125
1769667747109090600,5.022090576171875,-0.11197815090417862,0.4904828369617462,0.4160583019256592
1769667747119079700,5.03207958984375,-0.16150979697704315,0.6368193626403809,0.3660796880722046
1769667747129068500,5.042068603515625,-0.22328127920627594,0.8303766250610352,0.2803719639778137
1769667747139056400,5.052056396484375,-0.2601882815361023,0.8815048933029175,0.23390084505081177
1769667747149045500,5.06204541015625,-0.2357897311449051,1.0018750429153442,0.2366015613079071
1769667747159034400,5.072034423828125,-0.17355814576148987,1.0331734418869019,0.2575584650039673
1769667747169023500,5.0820234375,-0.17163561284542084,1.0138697624206543,0.23417805135250092
1769667747179011300,5.09201123046875,-0.16194912791252136,0.9040064811706543,0.20798994600772858
1769667747189000400,5.10200048828125,-0.15871739387512207,0.6677502393722534,0.19467201828956604
1769667747198989000,5.111989013671875,-0.08750692754983902,0.9544629454612732,0.185657799243927
1769667747208978200,5.121978271484375,-0.08098697662353516,1.0923019647598267,0.13929589092731476
1769667747218966300,5.13196630859375,-0.06944742798805237,1.152755856513977,0.0634806826710701
1769667747228955400,5.141955322265625,-0.03257277235388756,1.2311947345733643,0.016933951526880264
1769667747238944300,5.1519443359375,0.019973060116171837,1.171117901802063,0.012987606227397919
1769667747248933400,5.161933349609375,0.05796278640627861,1.069114089012146,0.02256193570792675
1769667747258922200,5.171922119140625,0.07524949312210083,1.0734407901763916,0.0452394038438797
1769667747268910000,5.18191015625,0.06953861564397812,1.1538578271865845,0.06131264567375183
1769667747278899200,5.191899169921875,0.059199441224336624,1.2160017490386963,0.06640041619539261
1769667747288888300,5.201888427734375,0.04562131687998772,1.25472891330719,0.07658673822879791
1769667747298877200,5.211877197265625,0.06666877865791321,1.226036787033081,0.11701398342847824
1769667747308865300,5.221865234375,0.10860264301300049,1.158945083618164,0.1456483006477356
1769667747318854400,5.2318544921875,0.14781935513019562,1.0174740552902222,0.14652623236179352
1769667747328843300,5.24184326171875,0.10122548043727875,0.4174197018146515,0.14732730388641357
1769667747338832400,5.251832275390625,0.14762292802333832,0.5979329943656921,0.17879372835159302
1769667747348821200,5.2618212890625,0.15773122012615204,0.5645684003829956,0.10942530632019043
1769667747358809300,5.271809326171875,0.10695842653512955,0.6532951593399048,0.047141168266534805
1769667747368798200,5.281798095703125,0.15897715091705322,0.7346742153167725,-0.12629079818725586
1769667747378787300,5.291787353515625,0.2166656255722046,0.6435970067977905,-0.21232323348522186
1769667747388776200,5.301776123046875,0.16287270188331604,0.5295628309249878,-0.16597437858581543
1769667747398764300,5.311764404296875,0.11221658438444138,0.42084550857543945,-0.13284048438072205
1769667747408753200,5.321753173828125,0.16451095044612885,0.34323060512542725,-0.13742004334926605
1769667747418742300,5.3317421875,0.054731812328100204,0.2463681399822235,-0.11074132472276688
1769667747428731100,5.341731201171875,-0.147642582654953,-0.27385881543159485,-0.15563343465328217
1769667747438719200,5.35171923828125,-0.13711106777191162,0.3022134602069855,-0.2906302511692047
1769667747448708400,5.361708251953125,-0.02404550276696682,1.2786678075790405,-0.2647342085838318
1769667747458697200,5.371697265625,0.16344685852527618,1.0256407260894775,0.07981479912996292
1769667747468686300,5.381686279296875,0.10107003152370453,0.4945797622203827,0.22294825315475464
1769667747478675500,5.391675537109375,0.019729532301425934,0.25262004137039185,0.3169463574886322
1769667747488663300,5.401663330078125,0.04424765706062317,0.1688884049654007,0.3761391043663025
1769667747498652200,5.411652099609375,0.1018269807100296,0.19714753329753876,0.2310737818479538
1769667747508641300,5.421641357421875,0.06185746192932129,0.30571556091308594,-0.0653189867734909
1769667747518630100,5.431630126953125,-0.00476473942399025,0.2133098691701889,-0.007301291450858116
1769667747528618200,5.4416181640625,-0.0013503008522093296,-0.042968522757291794,0.2886001169681549
1769667747538607400,5.451607421875,0.033680714666843414,-0.057596370577812195,0.35301473736763
1769667747548596200,5.46159619140625,0.06345059722661972,0.10676886886358261,0.25476592779159546
1769667747558585000,5.471585205078125,0.12610040605068207,0.18535150587558746,0.22953544557094574
1769667747568574200,5.48157421875,0.18286435306072235,0.13672643899917603,0.23214614391326904
1769667747578562300,5.491562255859375,0.15814387798309326,0.06301805377006531,0.3176688849925995
1769667747588551200,5.50155126953125,0.15667381882667542,0.009475997649133205,0.392081081867218
1769667747598540300,5.511540283203125,0.15651994943618774,0.021560272201895714,0.4199538826942444
1769667747608529400,5.521529296875,0.1590414196252823,0.14331600069999695,0.41512662172317505
1769667747618517200,5.531517333984375,0.1949133574962616,0.20851895213127136,0.442355215549469
1769667747628506000,5.541506103515625,0.17866620421409607,0.19865326583385468,0.5263928771018982
1769667747638495200,5.5514951171875,0.23394817113876343,0.09267855435609818,0.6164342761039734
1769667747648484400,5.561484375,0.1780228465795517,-0.04321163892745972,0.6219331622123718
1769667747658472200,5.57147216796875,0.16867277026176453,-0.05593183636665344,0.650222897529602
1769667747668461300,5.58146142578125,0.15992455184459686,0.05469826981425285,0.7272135615348816
1769667747678450400,5.591450439453125,0.21782411634922028,0.21802930533885956,0.7416930198669434
1769667747688439300,5.601439208984375,0.3403140902519226,0.381192147731781,0.6529834270477295
1769667747698428200,5.61142822265625,0.539501965045929,0.45250990986824036,0.4417259991168976
1769667747708416300,5.621416259765625,0.6236376166343689,0.42320501804351807,0.32386618852615356
1769667747718405000,5.631405029296875,0.649858832359314,0.2930653989315033,0.26259469985961914
1769667747728394200,5.641394287109375,0.65709388256073,0.21096892654895782,0.3374095559120178
1769667747738383400,5.65138330078125,0.6673175096511841,0.2353125810623169,0.4669487476348877
1769667747748371500,5.661371337890625,0.6707779765129089,0.3540187180042267,0.5530140995979309
1769667747758360000,5.671360107421875,0.6818224191665649,0.5133735537528992,0.5741514563560486
1769667747768349200,5.68134912109375,0.6981164216995239,0.6061996221542358,0.5766133069992065
1769667747778338300,5.69133837890625,0.7380468249320984,0.5858016610145569,0.5818228721618652
1769667747788327200,5.7013271484375,0.791417121887207,0.5561447143554688,0.5723164081573486
1769667747798315300,5.711315185546875,0.8316012024879456,0.5534897446632385,0.5403669476509094
1769667747808304400,5.721304443359375,0.8470256924629211,0.5334851145744324,0.5255104899406433
1769667747818293200,5.731293212890625,0.8252271413803101,0.591633141040802,0.5207030177116394
1769667747828282400,5.741282470703125,0.7901216149330139,0.6857905387878418,0.519986629486084
1769667747838270200,5.751270263671875,0.7732570171356201,0.7424365282058716,0.516314685344696
1769667747848259300,5.76125927734375,0.763924241065979,0.8209888339042664,0.48623770475387573
1769667747858248200,5.771248291015625,0.7756421566009521,0.9586482048034668,0.42674872279167175
1769667747868237300,5.7812373046875,0.8254081010818481,1.0714532136917114,0.3844505250453949
1769667747878225400,5.791225341796875,0.8685117959976196,1.1381986141204834,0.3831033706665039
1769667747888214300,5.80121435546875,0.8937751054763794,1.1479063034057617,0.4122260808944702
1769667747898203400,5.811203369140625,0.9175279140472412,1.1098742485046387,0.4597131311893463
1769667747908192300,5.821192138671875,0.9475347995758057,1.0845729112625122,0.4909496307373047
1769667747918181000,5.83118115234375,0.9724950790405273,1.0488630533218384,0.49080994725227356
1769667747928169200,5.841169189453125,1.002645492553711,1.1314109563827515,0.47220510244369507
1769667747938158300,5.851158447265625,1.0486459732055664,1.1782740354537964,0.45956504344940186
1769667747948147200,5.861147216796875,1.064244031906128,1.1467567682266235,0.44147661328315735
1769667747958136300,5.87113623046875,1.0507458448410034,0.9694098830223083,0.42562535405158997
1769667747968124200,5.881124267578125,1.0613527297973633,0.9190718531608582,0.4124637246131897
1769667747978113300,5.89111328125,1.0699682235717773,0.9550975561141968,0.3962365388870239
1769667747988102100,5.90110205078125,1.0481997728347778,0.9951221942901611,0.3549596667289734
1769667747998091300,5.91109130859375,1.066820740699768,1.1991900205612183,0.28491324186325073
1769667748008080100,5.921080078125,1.1432242393493652,1.4303566217422485,0.18530969321727753
1769667748018068200,5.931068115234375,1.2594678401947021,1.4821679592132568,0.0738898441195488
1769667748028057300,5.941057373046875,1.4089473485946655,1.5023590326309204,-0.03680577874183655
1769667748038046500,5.95104638671875,1.488777756690979,1.5151292085647583,-0.13419252634048462
1769667748048035000,5.96103515625,1.542672872543335,1.40060293674469,-0.14000540971755981
1769667748058023200,5.971023193359375,1.5509346723556519,1.2403559684753418,-0.13006503880023956
1769667748068012300,5.98101220703125,1.5166529417037964,1.0945122241973877,-0.1542140394449234
1769667748078001200,5.991001220703125,1.4839638471603394,0.9533913135528564,-0.20703564584255219
1769667748087990300,6.000990234375,1.4425990581512451,0.7808419466018677,-0.26367706060409546
1769667748097978400,6.010978271484375,1.4017531871795654,0.579859733581543,-0.3284015655517578
1769667748107967500,6.020967529296875,1.3523956537246704,0.35589662194252014,-0.3635081648826599
1769667748117956000,6.0309560546875,1.2937605381011963,0.20776697993278503,-0.3877604007720947
1769667748127945200,6.0409453125,1.2373638153076172,0.11314141005277634,-0.37079712748527527
1769667748137934000,6.05093408203125,1.2252683639526367,0.06491335481405258,-0.2628594636917114
1769667748147922200,6.060922119140625,1.189145803451538,0.02729673683643341,-0.16493982076644897
1769667748157911300,6.070911376953125,1.0910409688949585,-0.08350219577550888,-0.10163794457912445
1769667748167900400,6.080900390625,0.959042489528656,-0.1287223994731903,-0.0543346144258976
1769667748177889300,6.09088916015625,1.0134109258651733,-0.05820147693157196,-0.008753187954425812
1769667748187877400,6.10087744140625,0.974969744682312,-0.23516453802585602,-0.049208734184503555
1769667748197866500,6.110866455078125,0.9224482774734497,-0.5821014642715454,-0.1577034443616867
1769667748207855400,6.12085546875,0.9338679313659668,-0.8601552248001099,-0.2998240888118744
1769667748217844500,6.130844482421875,0.9611762762069702,-1.0353208780288696,-0.44400352239608765
1769667748227833600,6.14083349609375,0.9609951972961426,-1.2470568418502808,-0.5635133981704712
1769667748237821400,6.150821533203125,0.8759112358093262,-1.3831026554107666,-0.6446806788444519
1769667748247810300,6.160810302734375,0.7311362028121948,-1.271277666091919,-0.6891450881958008
1769667748257799400,6.17079931640625,0.5834636688232422,-1.0110758543014526,-0.7030529379844666
1769667748267788300,6.180788330078125,0.44036540389060974,-0.7379891872406006,-0.6454519629478455
1769667748277776400,6.1907763671875,0.33274105191230774,-0.5014570951461792,-0.5212624073028564
1769667748287765500,6.200765625,0.23580890893936157,-0.3615884482860565,-0.38987693190574646
1769667748297754600,6.210754638671875,0.13848984241485596,-0.2809534966945648,-0.23778340220451355
1769667748307743200,6.2207431640625,0.05076877400279045,-0.24506501853466034,-0.09073244035243988
1769667748317732400,6.230732421875,-0.022890986874699593,-0.2728537917137146,0.06506218016147614
1769667748327720400,6.240720458984375,-0.111276775598526,-0.3129016160964966,0.1858019083738327
1769667748337709300,6.250709228515625,-0.18239803612232208,-0.39323171973228455,0.2792830467224121
1769667748347698400,6.260698486328125,-0.24249865114688873,-0.4984942376613617,0.3339846432209015
1769667748357687600,6.2706875,-0.31930017471313477,-0.49014100432395935,0.3356263339519501
1769667748367675600,6.280675537109375,-0.38129723072052,-0.36352822184562683,0.3025088608264923
1769667748377664300,6.290664306640625,-0.4346247911453247,-0.15713174641132355,0.2395063191652298
1769667748387653400,6.3006533203125,-0.49413207173347473,0.0965665802359581,0.1441587656736374
1769667748397642500,6.310642578125,-0.5506837964057922,0.31626585125923157,0.023080186918377876
1769667748407631400,6.32063134765625,-0.5526188611984253,0.41555672883987427,-0.08594457060098648
1769667748417619500,6.330619384765625,-0.5116226077079773,0.426532506942749,-0.1417762190103531
1769667748427608600,6.340608642578125,-0.4920496642589569,0.35916227102279663,-0.18624728918075562
1769667748437597400,6.350597412109375,-0.46863847970962524,0.26550790667533875,-0.25581681728363037
1769667748447586600,6.360586669921875,-0.40500012040138245,0.1719137728214264,-0.33025696873664856
1769667748457574400,6.370574462890625,-0.292743057012558,0.0794137716293335,-0.40770959854125977
1769667748467563300,6.380563232421875,-0.18946006894111633,0.0054458072409033775,-0.4776410162448883
1769667748477552400,6.390552490234375,-0.11681393533945084,-0.011194289661943913,-0.5677544474601746
1769667748487541500,6.40054150390625,-0.060304053127765656,-0.018169375136494637,-0.6423855423927307
1769667748497529600,6.410529541015625,-0.03749522566795349,0.021908869966864586,-0.6971853375434875
1769667748507518500,6.4205185546875,-0.04640563204884529,0.07835377007722855,-0.721879780292511
1769667748517507300,6.43050732421875,-0.07193020731210709,0.13137568533420563,-0.7458526492118835
1769667748527496400,6.440496337890625,-0.01226021721959114,0.15493427217006683,-0.7232043147087097
1769667748537485300,6.4504853515625,0.06820299476385117,0.19456444680690765,-0.657002329826355
1769667748547473400,6.460473388671875,0.10435673594474792,0.18115143477916718,-0.5962745547294617
1769667748557462500,6.470462646484375,0.09989279508590698,0.090161994099617,-0.546343982219696
1769667748567451400,6.480451416015625,0.07259539514780045,-0.08292589336633682,-0.5078930258750916
1769667748577440500,6.4904404296875,0.08618094027042389,-0.13490097224712372,-0.45400270819664
1769667748587428400,6.500428466796875,0.181118905544281,-0.09889768809080124,-0.41620391607284546
1769667748597417500,6.51041748046875,0.2272423803806305,-0.06656322628259659,-0.4256186783313751
1769667748607406300,6.52040625,0.23795628547668457,-0.015836399048566818,-0.4831885099411011
1769667748617395500,6.5303955078125,0.24605891108512878,-0.007856721989810467,-0.546603262424469
1769667748627384300,6.54038427734375,0.2237754464149475,-0.006567751988768578,-0.5726593732833862
1769667748637372400,6.550372314453125,0.2070504128932953,0.00765433581545949,-0.5749340653419495
1769667748647361500,6.560361572265625,0.20359282195568085,0.009284457191824913,-0.5491589307785034
1769667748657350700,6.5703505859375,0.20856167376041412,-0.023470371961593628,-0.4788932204246521
1769667748667339300,6.58033935546875,0.22838784754276276,-0.05791196972131729,-0.4331563413143158
1769667748677327400,6.590327392578125,0.25201624631881714,-0.1548559069633484,-0.4004429876804352
1769667748687316500,6.60031640625,0.2802761197090149,-0.21039479970932007,-0.37586709856987
1769667748697305300,6.610305419921875,0.2730744779109955,-0.25241827964782715,-0.34723901748657227
1769667748707294500,6.62029443359375,0.2853814959526062,-0.2187197357416153,-0.35251712799072266
1769667748717283600,6.63028369140625,0.30356845259666443,-0.14630256593227386,-0.37220248579978943
1769667748727271400,6.640271484375,0.31904542446136475,-0.13934719562530518,-0.37448057532310486
1769667748737260300,6.65026025390625,0.32547226548194885,-0.27328938245773315,-0.34721076488494873
1769667748747249400,6.66024951171875,0.2986166775226593,-0.3288458585739136,-0.30073273181915283
1769667748757238300,6.67023828125,0.2686130404472351,-0.3205283582210541,-0.23429976403713226
1769667748767226400,6.680226318359375,0.2492491751909256,-0.3099420368671417,-0.1410776674747467
1769667748777215500,6.690215576171875,0.22280824184417725,-0.29945820569992065,-0.0769524797797203
1769667748787204600,6.70020458984375,0.19840969145298004,-0.22078946232795715,-0.07129593193531036
1769667748797193500,6.710193359375,0.19901952147483826,-0.1275886595249176,-0.09392362087965012
1769667748807181300,6.720181396484375,0.19986534118652344,-0.054193802177906036,-0.11470533162355423
1769667748817170400,6.73017041015625,0.20945169031620026,0.051405567675828934,-0.13933010399341583
1769667748827159300,6.7401591796875,0.2228090465068817,0.14104491472244263,-0.159174382686615
1769667748837148400,6.7501484375,0.24353262782096863,0.18520736694335938,-0.19896574318408966
1769667748847137500,6.760137451171875,0.24858571588993073,0.1719277799129486,-0.2190995067358017
1769667748857125600,6.770125732421875,0.244086354970932,0.10128878802061081,-0.224815234541893
1769667748867114500,6.780114501953125,0.2469785511493683,0.023108765482902527,-0.19773061573505402
1769667748877103400,6.790103271484375,0.23958808183670044,-0.02711484581232071,-0.16236287355422974
1769667748887092200,6.80009228515625,0.22307328879833221,-0.057107098400592804,-0.1375291645526886
1769667748897080300,6.810080322265625,0.21036715805530548,-0.07891026884317398,-0.10864876210689545
1769667748907069400,6.8200693359375,0.19623883068561554,-0.08985878527164459,-0.09380723536014557
1769667748917058600,6.83005859375,0.19385750591754913,-0.09102978557348251,-0.08656877279281616
1769667748927047400,6.84004736328125,0.19810551404953003,0.017137430608272552,-0.05333785340189934
1769667748937036500,6.85003662109375,0.1916123479604721,0.0281366053968668,-0.04286162182688713
1769667748947024400,6.8600244140625,0.19827556610107422,-0.011633711867034435,-0.042106881737709045
1769667748957013200,6.87001318359375,0.2047111988067627,-0.06988600641489029,-0.03260894864797592
1769667748967002400,6.88000244140625,0.2036198377609253,-0.18724805116653442,-0.01767687126994133
1769667748976991500,6.889991455078125,0.21557295322418213,-0.45644524693489075,-0.03972369804978371
1769667748986979600,6.8999794921875,0.24607519805431366,-0.32989025115966797,-0.04185396060347557
1769667748996968400,6.909968505859375,0.2089848518371582,-0.12423986196517944,-0.009745178744196892
1769667749006957600,6.91995751953125,0.16878683865070343,-0.2016848474740982,-0.01333831436932087
1769667749016946400,6.929946533203125,0.1397511065006256,-0.3284991979598999,-0.03313092887401581
1769667749026935300,6.939935302734375,0.10639848560094833,-0.3795408010482788,-0.04914478212594986
1769667749036923400,6.94992333984375,0.07896921038627625,-0.3860781788825989,-0.04329996928572655
1769667749046912500,6.95991259765625,0.06433487683534622,-0.3756846487522125,-0.04571545496582985
1769667749056901400,6.9699013671875,0.052397213876247406,-0.3503232002258301,-0.05532784014940262
1769667749066890500,6.979890380859375,0.05457887426018715,-0.34724777936935425,-0.0735720843076706
1769667749076878300,6.98987841796875,0.05867583304643631,-0.39535772800445557,-0.10230851918458939
1769667749086867500,6.999867431640625,0.06401227414608002,-0.4352087378501892,-0.1350499391555786
1769667749096856300,7.009856201171875,0.05764034390449524,-0.44500160217285156,-0.1493140310049057
1769667749106845400,7.019845458984375,0.05414148420095444,-0.438957542181015,-0.12987135350704193
1769667749116834300,7.029834228515625,0.033064182847738266,-0.4677771329879761,-0.10249210894107819
1769667749126822400,7.039822509765625,0.017778437584638596,-0.5227780938148499,-0.07593266665935516
1769667749136811500,7.0498115234375,0.007819825783371925,-0.556807279586792,-0.06994128972291946
1769667749146800600,7.059800537109375,-0.004151083063334227,-0.5508471131324768,-0.07956089079380035
1769667749156789500,7.06978955078125,-0.019072050228714943,-0.5129992961883545,-0.07585589587688446
1769667749166777300,7.07977734375,-0.028884200379252434,-0.46595215797424316,-0.06546344608068466
1769667749176767000,7.08976708984375,-0.04485946521162987,-0.4454032778739929,-0.046313535422086716
1769667749186755600,7.099755615234375,-0.05407453328371048,-0.43745988607406616,-0.03134790435433388
1769667749196744700,7.10974462890625,-0.0814070999622345,-0.4276697039604187,-0.02723815105855465
1769667749206733800,7.11973388671875,-0.11763355135917664,-0.4280353784561157,-0.033971156924963
1769667749216721700,7.1297216796875,-0.1362989842891693,-0.42585572600364685,-0.048740893602371216
1769667749226710800,7.139710693359375,-0.1530526578426361,-0.44223976135253906,-0.07471098005771637
1769667749236700000,7.149699951171875,-0.1614646315574646,-0.45908769965171814,-0.10706712305545807
1769667749246688800,7.159688720703125,-0.16904185712337494,-0.4314529001712799,-0.15726451575756073
1769667749256676600,7.169676513671875,-0.18114382028579712,-0.38047268986701965,-0.19097323715686798
1769667749266665700,7.179665771484375,-0.20238493382930756,-0.3439101278781891,-0.19769586622714996
1769667749276654800,7.18965478515625,-0.2342395931482315,-0.341212660074234,-0.1737542748451233
1769667749286643700,7.199643798828125,-0.272968590259552,-0.3953035771846771,-0.1312377154827118
1769667749296632800,7.2096328125,-0.3001861274242401,-0.4779709577560425,-0.09721577167510986
1769667749306621000,7.219620849609375,-0.32108500599861145,-0.5422782897949219,-0.09247773885726929
1769667749316609800,7.22960986328125,-0.3358907103538513,-0.5849282741546631,-0.11400371044874191
1769667749326598700,7.2395986328125,-0.34895405173301697,-0.6162598133087158,-0.146248459815979
1769667749336587800,7.249587890625,-0.35815009474754333,-0.6283829808235168,-0.17876474559307098
1769667749346575600,7.25957568359375,-0.35983240604400635,-0.6459124684333801,-0.1947719305753708
1769667749356564700,7.269564697265625,-0.3417128324508667,-0.6412823796272278,-0.1751009225845337
1769667749366553900,7.279553955078125,-0.31110432744026184,-0.6448131799697876,-0.09141188859939575
1769667749376542700,7.289542724609375,-0.2921353578567505,-0.6368412971496582,0.0017537068342790008
1769667749386531800,7.29953173828125,-0.2603031396865845,-0.6265396475791931,0.04192669317126274
1769667749396519700,7.309519775390625,-0.23458197712898254,-0.6344851851463318,0.007775339297950268
1769667749406508800,7.3195087890625,-0.2216280996799469,-0.6232661008834839,-0.07626870274543762
1769667749416497700,7.32949755859375,-0.2315932661294937,-0.6196479201316833,-0.15012526512145996
1769667749426486800,7.33948681640625,-0.2544223964214325,-0.6422312259674072,-0.19839559495449066
1769667749436475000,7.349474853515625,-0.292327880859375,-0.6906683444976807,-0.2399427741765976
1769667749446463700,7.359463623046875,-0.3369227945804596,-0.781944215297699,-0.28457123041152954
1769667749456452900,7.369452880859375,-0.388949990272522,-0.8746777176856995,-0.3143683969974518
1769667749466442000,7.37944189453125,-0.4415871202945709,-0.908327579498291,-0.3186691403388977
1769667749476430600,7.3894306640625,-0.4923885464668274,-0.8360360264778137,-0.3118204176425934
1769667749486418700,7.399418701171875,-0.5228913426399231,-0.7735753059387207,-0.3146092891693115
1769667749496407800,7.40940771484375,-0.5238001346588135,-0.7726408839225769,-0.3066893517971039
1769667749506396700,7.419396728515625,-0.511060357093811,-0.8019081950187683,-0.291217178106308
1769667749516385800,7.4293857421875,-0.5109449028968811,-0.7838508486747742,-0.28002142906188965
1769667749526374000,7.439373779296875,-0.5091107487678528,-0.785500168800354,-0.26255083084106445
1769667749536362800,7.44936279296875,-0.5321376323699951,-0.8208243250846863,-0.244734525680542
1769667749546351600,7.4593515625,-0.5426275730133057,-0.8672158122062683,-0.22342337667942047
1769667749556340700,7.4693408203125,-0.5741657018661499,-0.9321396350860596,-0.2237355262041092
1769667749566328800,7.479328857421875,-0.6015544533729553,-0.8845018148422241,-0.27182769775390625
1769667749576317700,7.489317626953125,-0.6221460103988647,-0.8273383975028992,-0.3321322202682495
1769667749586306800,7.499306884765625,-0.6452145576477051,-0.9168376326560974,-0.3923864960670471
1769667749596296000,7.5092958984375,-0.667060375213623,-1.0759979486465454,-0.43926554918289185
1769667749606284800,7.519284912109375,-0.6835018992424011,-1.2179726362228394,-0.4713859260082245
1769667749616272600,7.529272705078125,-0.7021321058273315,-1.2903194427490234,-0.5298966765403748
1769667749626261800,7.53926171875,-0.7136881351470947,-1.3307605981826782,-0.6134153008460999
1769667749636250600,7.549250732421875,-0.6968111395835876,-1.3602550029754639,-0.6802017092704773
1769667749646239700,7.55923974609375,-0.6930019855499268,-1.3921644687652588,-0.7300336956977844
1769667749656227800,7.569227783203125,-0.6893076300621033,-1.4716448783874512,-0.7777514457702637
1769667749666217000,7.579217041015625,-0.6837344169616699,-1.587765097618103,-0.8190820813179016
1769667749676205800,7.589205810546875,-0.6789887547492981,-1.670987844467163,-0.8331295251846313
1769667749686194700,7.599194580078125,-0.6786393523216248,-1.6586558818817139,-0.8485617637634277
1769667749696183800,7.609183837890625,-0.6685880422592163,-1.5095356702804565,-0.8656822443008423
1769667749706171600,7.619171630859375,-0.6319490671157837,-1.3942012786865234,-0.8818649649620056
1769667749716160800,7.629160888671875,-0.5995005369186401,-1.4138323068618774,-0.8971701860427856
1769667749726150000,7.63914990234375,-0.5804604887962341,-1.5501563549041748,-0.916506290435791
1769667749736138800,7.649138671875,-0.5732626914978027,-1.7720659971237183,-0.9178869128227234
1769667749746126600,7.659126708984375,-0.5566680431365967,-1.7770923376083374,-0.9020975828170776
1769667749756115700,7.66911572265625,-0.5288156270980835,-1.6366406679153442,-0.9075148701667786
1769667749766104600,7.6791044921875,-0.5062767267227173,-1.5400794744491577,-0.8996774554252625
1769667749776093700,7.68909375,-0.5162007212638855,-1.6134955883026123,-0.8782374262809753
1769667749786082800,7.699082763671875,-0.5578674674034119,-1.7553960084915161,-0.8832572102546692
1769667749796071000,7.70907080078125,-0.5739967823028564,-1.9135432243347168,-0.9374659657478333
1769667749806059800,7.719059814453125,-0.5644155144691467,-1.9696898460388184,-1.0113481283187866
1769667749816049000,7.729048828125,-0.566422700881958,-2.022770881652832,-1.0200814008712769
1769667749826037800,7.739037841796875,-0.5888829827308655,-2.0859992504119873,-1.005656123161316
1769667749836026600,7.749026611328125,-0.6058537364006042,-2.1451213359832764,-1.0179071426391602
1769667749846014700,7.7590146484375,-0.6166490912437439,-2.2150213718414307,-1.0277520418167114
1769667749856003800,7.76900390625,-0.6394700407981873,-2.284923553466797,-1.030555009841919
1769667749865992700,7.77899267578125,-0.6460376977920532,-2.348280429840088,-1.0367590188980103
1769667749875981800,7.78898193359375,-0.6136882305145264,-2.359102249145508,-1.0549397468566895
1769667749885970000,7.798969970703125,-0.5807026028633118,-2.30668306350708,-1.0601966381072998
1769667749895958800,7.808958740234375,-0.5042374730110168,-2.2235286235809326,-1.0937927961349487
1769667749905947600,7.81894775390625,-0.47369685769081116,-2.1742241382598877,-1.1511101722717285
1769667749915936800,7.828936767578125,-0.4442767798900604,-2.0941426753997803,-1.177907943725586
1769667749925925600,7.838925537109375,-0.4879952371120453,-2.035280466079712,-1.1722286939620972
1769667749935913700,7.848913818359375,-0.5134521126747131,-2.004753828048706,-1.1240761280059814
1769667749945902800,7.85890283203125,-0.5167813301086426,-2.058701753616333,-1.0735317468643188
1769667749955892000,7.86889208984375,-0.5326635241508484,-2.1835777759552,-1.0262752771377563
1769667749965880800,7.878880859375,-0.5736487507820129,-2.282684087753296,-1.001717209815979
1769667749975868700,7.88886865234375,-0.6011924147605896,-2.3737664222717285,-0.9556704759597778
1769667749985857800,7.89885791015625,-0.6911513209342957,-2.4551215171813965,-0.8569033741950989
1769667749995846700,7.9088466796875,-0.6720242500305176,-2.500474214553833,-0.7252205014228821
1769667750005835800,7.918835693359375,-0.6261541843414307,-2.4223408699035645,-0.6952252984046936
1769667750015824000,7.928823974609375,-0.5558885931968689,-2.242769718170166,-0.6658360362052917
1769667750025813000,7.93881298828125,-0.5247277021408081,-1.9912807941436768,-0.6924915909767151
1769667750035801600,7.948801513671875,-0.4194101393222809,-1.9268929958343506,-0.7014164328575134
1769667750045790700,7.958790771484375,-0.43165722489356995,-1.8545035123825073,-0.6735461950302124
1769667750055779600,7.968779541015625,-0.3834352195262909,-1.8678103685379028,-0.5573950409889221
1769667750065767700,7.978767578125,-0.3994685113430023,-1.9403753280639648,-0.4633505046367645
1769667750075756800,7.9887568359375,-0.40414711833000183,-1.950393557548523,-0.3932083547115326
1769667750085746000,7.998745849609375,-0.4016442894935608,-1.8439558744430542,-0.42590078711509705
1769667750095734800,8.00873486328125,-0.25567907094955444,-1.6188764572143555,-0.4736558794975281
1769667750105722600,8.01872265625,-0.17536583542823792,-1.4769313335418701,-0.5030084848403931
1769667750115711700,8.028711669921876,-0.12777553498744965,-1.401892900466919,-0.5033435225486755
1769667750125700600,8.03870068359375,-0.10931584239006042,-1.2990176677703857,-0.4302107095718384
1769667750135689700,8.048689697265624,-0.12962757050991058,-1.1724066734313965,-0.34134605526924133
1769667750145678800,8.058678955078125,-0.16414345800876617,-1.0479319095611572,-0.2885342538356781
1769667750155667000,8.0686669921875,-0.16176770627498627,-0.8586388230323792,-0.2412918210029602
1769667750165655800,8.07865576171875,-0.1385236382484436,-0.6169590353965759,-0.21860727667808533
1769667750175645000,8.08864501953125,-0.11815491318702698,-0.36429905891418457,-0.1969262659549713
1769667750185633000,8.098633056640624,-0.10050401091575623,-0.21546617150306702,-0.1769602745771408
1769667750195622000,8.108621826171875,-0.08227123320102692,-0.1200052872300148,-0.15293437242507935
1769667750205610000,8.11860986328125,-0.06311751157045364,-0.02046751044690609,-0.11414729058742523
1769667750215599000,8.12859912109375,-0.0648694783449173,0.05823146924376488,-0.06247822567820549
1769667750225588000,8.138587890625,-0.0549452006816864,0.06625637412071228,-0.005138233304023743
1769667750235577000,8.1485771484375,-0.026697635650634766,0.06706652790307999,0.03983268141746521
1769667750245565000,8.15856494140625,-0.0006591115379706025,0.04903639853000641,0.06858416646718979
1769667750255554000,8.168553955078124,0.024933118373155594,-0.027821717783808708,0.08894366025924683
1769667750265543000,8.17854296875,0.04983314126729965,-0.09527692943811417,0.11992740631103516
1769667750275532000,8.188531982421875,0.0626651793718338,-0.11675174534320831,0.16246411204338074
1769667750285521200,8.198521240234374,0.08231398463249207,-0.1111694946885109,0.21672308444976807
1769667750295509000,8.208509033203125,0.12051098793745041,-0.07942228764295578,0.2545090615749359
1769667750305498000,8.218498046875,0.1720452755689621,-0.026333773508667946,0.27946236729621887
1769667750315487000,8.228487060546875,0.21567223966121674,0.07748156040906906,0.30654677748680115
1769667750325475800,8.238475830078125,0.25060519576072693,0.2175835520029068,0.3235739767551422
1769667750335464000,8.2484638671875,0.2824542820453644,0.35918769240379333,0.33218395709991455
1769667750345453000,8.258453125,0.30236461758613586,0.4904082715511322,0.3309546411037445
1769667750355442000,8.26844189453125,0.3261435031890869,0.626763105392456,0.33145472407341003
1769667750365431000,8.27843115234375,0.36247169971466064,0.7660083174705505,0.33125683665275574
1769667750375420200,8.288420166015625,0.39975330233573914,0.926802396774292,0.3390081226825714
1769667750385408000,8.298407958984376,0.427256315946579,1.0663264989852905,0.3544408679008484
1769667750395396900,8.30839697265625,0.44073447585105896,1.1385817527770996,0.3666553497314453
1769667750405386000,8.318385986328124,0.4401911795139313,1.1807188987731934,0.36240071058273315
1769667750415375000,8.328375,0.4213332235813141,1.1963646411895752,0.3519274592399597
1769667750425363000,8.338363037109374,0.4087221026420593,1.1973737478256226,0.35301271080970764
1769667750435352000,8.34835205078125,0.4027916491031647,1.2212882041931152,0.3662317395210266
1769667750445341200,8.358341064453125,0.4144730865955353,1.2793000936508179,0.37053194642066956
1769667750455329800,8.368329833984374,0.4230380058288574,1.3593024015426636,0.3616112768650055
1769667750465318000,8.37831787109375,0.4267731010913849,1.4365390539169312,0.34625497460365295
1769667750475307000,8.38830712890625,0.4311121702194214,1.5134116411209106,0.33902546763420105
1769667750485296000,8.398296142578126,0.43295347690582275,1.6089075803756714,0.33462753891944885
1769667750495285000,8.408284912109375,0.4198478162288666,1.6531113386154175,0.3107292056083679
1769667750505274000,8.418274169921874,0.41605785489082336,1.6167680025100708,0.262534499168396
1769667750515262200,8.42826220703125,0.4021206200122833,1.577465534210205,0.25837981700897217
1769667750525250800,8.438250732421874,0.3974369168281555,1.5806567668914795,0.2758123278617859
1769667750535240000,8.448239990234375,0.40396663546562195,1.5830391645431519,0.28370678424835205
1769667750545229000,8.45822900390625,0.4026726186275482,1.543426275253296,0.24608857929706573
1769667750555218000,8.468218017578126,0.3807416260242462,1.5046508312225342,0.23617331683635712
1769667750565206000,8.4782060546875,0.3481847643852234,1.459216594696045,0.25476938486099243
1769667750575195100,8.488195068359374,0.3277956545352936,1.4206682443618774,0.26829251646995544
1769667750585184000,8.49818408203125,0.3375406861305237,1.4271790981292725,0.26968666911125183
1769667750595173000,8.508173095703125,0.35907354950904846,1.499437928199768,0.25818923115730286
1769667750605161000,8.518160888671876,0.36435434222221375,1.5582679510116577,0.245088592171669
1769667750615150000,8.528150146484375,0.3727090656757355,1.5626847743988037,0.22330322861671448
1769667750625139000,8.538138916015624,0.3862517774105072,1.6007159948349,0.1941743642091751
1769667750635128000,8.548128173828125,0.36783719062805176,1.6671329736709595,0.16129231452941895
1769667750645117000,8.558116943359375,0.36144933104515076,1.6751786470413208,0.146364226937294
1769667750655105000,8.56810498046875,0.3308892846107483,1.6689753532409668,0.1538076549768448
1769667750665094000,8.578093994140625,0.3197961747646332,1.6969022750854492,0.1920921951532364
1769667750675083000,8.5880830078125,0.31842902302742004,1.66287362575531,0.1545674353837967
1769667750685072000,8.59807177734375,0.3318460285663605,1.65713369846344,0.15076231956481934
1769667750695060000,8.60806005859375,0.3183901309967041,1.6216964721679688,0.19390028715133667
1769667750705049000,8.618049072265626,0.29025012254714966,1.621470332145691,0.24745459854602814
1769667750715038000,8.628037841796875,0.256990522146225,1.678900957107544,0.28911092877388
1769667750725027000,8.638027099609374,0.21101424098014832,1.7112799882888794,0.30831897258758545
1769667750735016200,8.64801611328125,0.20440968871116638,1.708797574043274,0.3293539881706238
1769667750745004000,8.658004150390624,0.20311354100704193,1.7690476179122925,0.34036827087402344
1769667750754993000,8.667992919921875,0.20192784070968628,1.8191579580307007,0.3541717827320099
1769667750764982000,8.67798193359375,0.2031526267528534,1.7714470624923706,0.3595297932624817
1769667750774971100,8.68797119140625,0.1571304351091385,1.697540283203125,0.3233400583267212
1769667750784959000,8.697958984375,0.15889504551887512,1.7106527090072632,0.30488407611846924
1769667750794948000,8.707947998046874,0.17517389357089996,1.7420839071273804,0.2683301568031311
1769667750804937200,8.717937255859376,0.19365330040454865,1.6719216108322144,0.24711328744888306
1769667750814925800,8.72792578125,0.21091328561306,1.5634336471557617,0.25981655716896057
1769667750824915000,8.7379150390625,0.20928475260734558,1.4966474771499634,0.29132014513015747
1769667750834903000,8.747903076171875,0.19819848239421844,1.469293236732483,0.2718629539012909
1769667750844892000,8.757891845703124,0.20586146414279938,1.4746389389038086,0.24608993530273438
1769667750854881000,8.767881103515625,0.23133684694766998,1.3992938995361328,0.23448289930820465
1769667750864870100,8.7778701171875,0.24869002401828766,1.3487268686294556,0.23473083972930908
1769667750874858000,8.78785791015625,0.23570168018341064,1.3446145057678223,0.23414655029773712
1769667750884846800,8.797846923828125,0.2042665183544159,1.3878717422485352,0.23807470500469208
1769667750894836000,8.8078359375,0.17057009041309357,1.5136101245880127,0.26513615250587463
1769667750904825000,8.8178251953125,0.14370331168174744,1.5905791521072388,0.34813037514686584
1769667750914814000,8.82781396484375,0.10674802213907242,1.6247583627700806,0.43811583518981934
1769667750924802000,8.837802001953126,0.08135424554347992,1.6003360748291016,0.502026379108429
1769667750934791200,8.847791259765625,0.06346006691455841,1.5472825765609741,0.5404055714607239
1769667750944780000,8.857780029296874,0.07627759873867035,1.5257245302200317,0.5586330890655518
1769667750954769000,8.867768798828125,0.0955485925078392,1.4924358129501343,0.5208859443664551
1769667750964757000,8.877757080078124,0.1208275780081749,1.4502792358398438,0.45517459511756897
1769667750974746000,8.88774609375,0.1229313537478447,1.414252758026123,0.41050636768341064
1769667750984735000,8.89773486328125,0.09910591691732407,1.3784687519073486,0.41635918617248535
1769667750994724000,8.90772412109375,0.06932471692562103,1.371434211730957,0.4608495831489563
1769667751004713000,8.917712890625,0.060118697583675385,1.402367115020752,0.49088895320892334
1769667751014701000,8.927701171875,0.061672769486904144,1.4155155420303345,0.48088112473487854
1769667751024690000,8.93768994140625,0.08132264018058777,1.3900350332260132,0.4420176148414612
1769667751034679000,8.947678955078125,0.09636688977479935,1.4272578954696655,0.37974005937576294
1769667751044668000,8.95766796875,0.09635143727064133,1.5160654783248901,0.3077864944934845
1769667751054656000,8.967656005859375,0.09949997812509537,1.5128521919250488,0.28698042035102844
1769667751064645000,8.97764501953125,0.07975157350301743,1.4381214380264282,0.33003920316696167
1769667751074634000,8.987634033203125,0.049719054251909256,1.3227473497390747,0.40630558133125305
1769667751084623000,8.997623046875,-0.005869369953870773,1.2546361684799194,0.46617719531059265
1769667751094612200,9.0076123046875,-0.023813266307115555,1.214815616607666,0.48174747824668884
1769667751104600000,9.01760009765625,-0.010287337936460972,1.1535645723342896,0.4807181656360626
1769667751114589000,9.0275888671875,0.001332965912297368,1.057568073272705,0.4235365092754364
1769667751124578000,9.037578125,0.025745097547769547,0.9639329314231873,0.3650561571121216
1769667751134567000,9.04756689453125,0.046810001134872437,0.8865146636962891,0.3242157995700836
1769667751144556000,9.05755615234375,0.05057091638445854,0.8350182175636292,0.3195427656173706
1769667751154544000,9.067544189453125,0.03983253240585327,0.7832915186882019,0.3072246015071869
1769667751164533000,9.077532958984374,0.026379840448498726,0.7337548136711121,0.2641599476337433
1769667751174521900,9.08752197265625,0.04092143476009369,0.7380033731460571,0.20919930934906006
1769667751184512000,9.097511962890625,0.06043654680252075,0.7647188305854797,0.14785286784172058
1769667751194500000,9.1075,0.06802735477685928,0.7568113803863525,0.07770626246929169
1769667751204489000,9.117489013671875,0.08484867960214615,0.7967545390129089,0.05516047403216362
1769667751214478000,9.12747802734375,0.09640362113714218,0.8047870397567749,0.04769384115934372
1769667751224467000,9.137467041015626,0.11274877190589905,0.7534082531929016,0.048093847930431366
1769667751234455800,9.147455810546875,0.11877420544624329,0.7008861899375916,0.052523329854011536
1769667751244444000,9.15744384765625,0.10336941480636597,0.6838821768760681,0.055477574467659
1769667751254433000,9.16743310546875,0.07976458966732025,0.665556013584137,0.07314099371433258
1769667751264422000,9.177421875,0.05224960669875145,0.634242594242096,0.1132974699139595
1769667751274411000,9.187410888671875,0.011538848280906677,0.6216996312141418,0.13090258836746216
1769667751284399000,9.197399169921875,-0.022419650107622147,0.636777400970459,0.12051466852426529
1769667751294387700,9.2073876953125,-0.050731513649225235,0.7234382033348083,0.12022153288125992
1769667751304376800,9.217376953125,-0.06088295206427574,0.8548098206520081,0.15221142768859863
1769667751314366000,9.227365966796874,-0.043493568897247314,0.8877564072608948,0.17038118839263916
1769667751324354800,9.237354736328125,-0.023336634039878845,0.8759407997131348,0.1966295689344406
1769667751334343000,9.247343017578125,-0.012169979512691498,0.8931364417076111,0.23173034191131592
1769667751344332000,9.25733203125,0.00537359481677413,0.9129881858825684,0.28072771430015564
1769667751354321000,9.26732080078125,0.027091141790151596,0.9001485109329224,0.30825069546699524
1769667751364310000,9.27731005859375,0.03834192827343941,0.8558106422424316,0.3151029944419861
1769667751374297900,9.2872978515625,0.040885601192712784,0.8218542337417603,0.33374083042144775
1769667751384287000,9.297286865234375,0.01914515346288681,0.773373007774353,0.364288866519928
1769667751394275800,9.30727587890625,0.0387195385992527,0.6907724142074585,0.4087508022785187
1769667751404265000,9.317264892578125,0.06711415946483612,0.6077464818954468,0.43178659677505493
1769667751414253800,9.32725390625,0.08860895037651062,0.539673388004303,0.4550524353981018
1769667751424242000,9.337241943359375,0.10324089229106903,0.4671909809112549,0.509944498538971
1769667751434231000,9.34723095703125,0.10259057581424713,0.33234933018684387,0.5628820657730103
1769667751444220000,9.357219970703126,0.10346516221761703,0.18098777532577515,0.588020384311676
1769667751454208800,9.367208740234375,0.11093936115503311,0.009499061852693558,0.5901603698730469
1769667751464196900,9.37719677734375,0.11415699124336243,-0.1344011276960373,0.5832292437553406
1769667751474186000,9.38718603515625,0.15585696697235107,-0.22101348638534546,0.5752826929092407
1769667751484174800,9.3971748046875,0.19277769327163696,-0.2910516858100891,0.5718860626220703
1769667751494164000,9.4071640625,0.18134069442749023,-0.32858678698539734,0.564463198184967
1769667751504153000,9.417153076171875,0.1319369226694107,-0.30379194021224976,0.5740076899528503
1769667751514141000,9.427140869140626,0.10432332754135132,-0.2726738750934601,0.5927992463111877
1769667751524129800,9.4371298828125,0.0954616591334343,-0.1926773339509964,0.634261429309845
1769667751534119000,9.447118896484374,0.06485559791326523,-0.20779138803482056,0.644817054271698
1769667751544108000,9.45710791015625,0.01245870441198349,-0.1361081451177597,0.6637095212936401
1769667751554097000,9.467096923828125,-0.018510980531573296,-0.016121739521622658,0.693735659122467
1769667751564085000,9.4770849609375,-0.019637497141957283,0.08610796183347702,0.7072424292564392
1769667751574074000,9.48707421875,-0.02371041849255562,0.2083262801170349,0.6866446137428284
1769667751584062700,9.497062744140624,-0.025500062853097916,0.2812225818634033,0.6479845643043518
1769667751594051800,9.5070517578125,-0.06011052057147026,0.3313945233821869,0.6311247944831848
1769667751604040000,9.5170400390625,-0.08704200387001038,0.3066593408584595,0.648593008518219
1769667751614029000,9.527029052734376,-0.12492597103118896,0.24617736041545868,0.6639926433563232
1769667751624018000,9.537017822265625,-0.161831796169281,0.20299847424030304,0.6475452184677124
1769667751634007000,9.547007080078124,-0.1832658052444458,0.21226009726524353,0.6147767901420593
1769667751643996000,9.556995849609375,-0.18509460985660553,0.2841361463069916,0.5708373188972473
1769667751653983700,9.566983642578125,-0.17358991503715515,0.37163570523262024,0.5161483287811279
1769667751663972900,9.576972900390626,-0.17197658121585846,0.39923644065856934,0.45205771923065186
1769667751673962000,9.5869619140625,-0.1831199824810028,0.3950682282447815,0.38328680396080017
1769667751683950800,9.596950927734374,-0.16136355698108673,0.3437930643558502,0.32326793670654297
1769667751693939000,9.60693896484375,-0.13235241174697876,0.288546621799469,0.2598671019077301
1769667751703928000,9.616927978515625,-0.13404858112335205,0.2524954080581665,0.2049306035041809
1769667751713917000,9.6269169921875,-0.157842218875885,0.22977234423160553,0.15517958998680115
1769667751723906000,9.636906005859375,-0.1953589767217636,0.20653866231441498,0.131095290184021
1769667751733895000,9.64689501953125,-0.193607896566391,0.13209976255893707,0.1452067345380783
1769667751743883000,9.656883056640625,-0.18331557512283325,0.12020742148160934,0.1755843460559845
1769667751753872000,9.666871826171874,-0.18615365028381348,0.1485256403684616,0.19764061272144318
1769667751763861000,9.676861083984376,-0.18615604937076569,0.12311934679746628,0.1970137059688568
1769667751773849900,9.686849853515625,-0.1608552485704422,0.09342402964830399,0.18157044053077698
1769667751783839000,9.6968388671875,-0.137203186750412,0.1125660315155983,0.15922465920448303
1769667751793826800,9.706826904296875,-0.1250266432762146,0.0837620347738266,0.12431371957063675
1769667751803816000,9.71681591796875,-0.1438719779253006,-0.0017565921880304813,0.07876966893672943
1769667751813804800,9.7268046875,-0.157298281788826,-0.0589180514216423,0.044586848467588425
1769667751823794000,9.7367939453125,-0.13463905453681946,-0.06873925775289536,0.024869335815310478
1769667751833782000,9.746781982421876,-0.11237768828868866,-0.08617284148931503,-0.0005310955457389355
1769667751843771000,9.75677099609375,-0.09277868270874023,-0.12389544397592545,-0.03799671307206154
1769667751853760000,9.766760009765624,-0.07839642465114594,-0.15717796981334686,-0.08558879792690277
1769667751863749000,9.7767490234375,-0.05888717249035835,-0.1672913283109665,-0.1369369477033615
1769667751873737000,9.786737060546875,-0.048744067549705505,-0.18740473687648773,-0.1722414493560791
1769667751883725800,9.796725830078126,-0.029048658907413483,-0.22642962634563446,-0.18521156907081604
1769667751893715000,9.80671484375,-0.012133109383285046,-0.2768825888633728,-0.1863235980272293
1769667751903703800,9.816703857421874,-0.009606302715837955,-0.31005358695983887,-0.18505726754665375
1769667751913693000,9.82669287109375,-0.010659613646566868,-0.31357622146606445,-0.18216381967067719
1769667751923681000,9.836680908203125,-0.004803323186933994,-0.3151102066040039,-0.18329167366027832
1769667751933670100,9.846670166015626,0.005532752722501755,-0.3131246268749237,-0.19949834048748016
1769667751943658800,9.85665869140625,0.01777770183980465,-0.31088462471961975,-0.23706860840320587
1769667751953647900,9.86664794921875,0.02457503415644169,-0.2916494309902191,-0.28319624066352844
1769667751963636000,9.876635986328125,0.04421238601207733,-0.2597796320915222,-0.3203641176223755
1769667751973624800,9.886624755859375,0.06441696733236313,-0.25053268671035767,-0.3453238904476166
1769667751983614000,9.896614013671876,0.07442912459373474,-0.24811771512031555,-0.36526113748550415
1769667751993603000,9.90660302734375,0.08095835149288177,-0.23081859946250916,-0.384299635887146
1769667752003592000,9.916592041015624,0.07856150716543198,-0.22086717188358307,-0.40869763493537903
1769667752013579800,9.926579833984375,0.07334292680025101,-0.20337018370628357,-0.41364482045173645
1769667752023569000,9.93656884765625,0.06854364275932312,-0.19342701137065887,-0.3754177987575531
1769667752033558000,9.94655810546875,0.07354442775249481,-0.17344778776168823,-0.364950031042099
1769667752043547000,9.956546875,0.09022300690412521,-0.16877421736717224,-0.4016321301460266
1769667752053536000,9.966535888671874,0.11466778069734573,-0.20147809386253357,-0.4666050970554352
1769667752063524000,9.976524169921875,0.1377696394920349,-0.2504725456237793,-0.5282490253448486
1769667752073513000,9.986512939453124,0.15705308318138123,-0.29715847969055176,-0.5652027130126953
1769667752083501800,9.996501708984376,0.18287988007068634,-0.3168051540851593,-0.5881718993186951
1769667752093491000,10.006490966796875,0.1993812620639801,-0.299978643655777,-0.6040446162223816
1769667752103478800,10.016478759765626,0.20791509747505188,-0.27282771468162537,-0.6248087286949158
1769667752113468000,10.026468017578125,0.20843063294887543,-0.27178874611854553,-0.6241074800491333
1769667752123457000,10.03645703125,0.19805335998535156,-0.30765753984451294,-0.601936399936676
1769667752133446000,10.04644580078125,0.19485509395599365,-0.3423160910606384,-0.5706202983856201
1769667752143435000,10.05643505859375,0.19845382869243622,-0.3901592493057251,-0.5540146827697754
1769667752153422800,10.0664228515625,0.19675195217132568,-0.45074376463890076,-0.550072193145752
1769667752163412000,10.076411865234375,0.19187118113040924,-0.4971061944961548,-0.5586898922920227
1769667752173400800,10.08640087890625,0.17496535181999207,-0.49399304389953613,-0.5556687712669373
1769667752183389400,10.096389404296875,0.14383140206336975,-0.5108239054679871,-0.553011953830719
1769667752193377500,10.10637744140625,0.11794009059667587,-0.5217442512512207,-0.5299326777458191
1769667752203366400,10.116366455078126,0.09053110331296921,-0.5177716612815857,-0.4999612271785736
1769667752213355500,10.12635546875,0.06821221858263016,-0.5145036578178406,-0.4779352843761444
1769667752223344600,10.1363447265625,0.029357759281992912,-0.5654632449150085,-0.4691111743450165
1769667752233333500,10.14633349609375,-0.007818559184670448,-0.6549585461616516,-0.4556409418582916
1769667752243321300,10.1563212890625,-0.047024548053741455,-0.7452335953712463,-0.4348943829536438
1769667752253310500,10.166310546875,-0.0892052873969078,-0.8083750605583191,-0.436310350894928
1769667752263299600,10.176299560546875,-0.11817248910665512,-0.849332332611084,-0.45254549384117126
1769667752273288400,10.186288330078124,-0.1371590942144394,-0.8789247870445251,-0.47120901942253113
1769667752283277600,10.196277587890625,-0.15762680768966675,-0.8742507100105286,-0.5060080289840698
1769667752293265700,10.206265625,-0.17651888728141785,-0.8629496097564697,-0.5482978820800781
1769667752303254500,10.216254638671876,-0.20207591354846954,-0.8450667262077332,-0.5963320136070251
1769667752313243600,10.22624365234375,-0.21704095602035522,-0.8030751943588257,-0.617551863193512
1769667752323232500,10.236232421875,-0.22431671619415283,-0.7893386483192444,-0.6218552589416504
1769667752333220600,10.246220703125,-0.23092120885849,-0.794533908367157,-0.6596106886863708
1769667752343209500,10.25620947265625,-0.25629714131355286,-0.7643826603889465,-0.7247644066810608
1769667752353198600,10.266198486328125,-0.27309727668762207,-0.7346452474594116,-0.7531279921531677
1769667752363187500,10.2761875,-0.28266310691833496,-0.7262772917747498,-0.7326922416687012
1769667752373176600,10.286176513671874,-0.2921903431415558,-0.7318642735481262,-0.7224811315536499
1769667752383164400,10.296164306640625,-0.28680917620658875,-0.7568413019180298,-0.7305212020874023
1769667752393153500,10.306153564453124,-0.2605036199092865,-0.694799542427063,-0.7376184463500977
1769667752403142400,10.316142333984375,-0.23845955729484558,-0.7354138493537903,-0.7772526741027832
1769667752413131500,10.326131591796875,-0.24551768600940704,-0.8005058169364929,-0.8303232192993164
1769667752423119600,10.33611962890625,-0.2606106102466583,-0.8334968090057373,-0.8688266277313232
1769667752433108500,10.3461083984375,-0.2584218978881836,-0.8449261784553528,-0.8510616421699524
1769667752443097600,10.35609765625,-0.25774329900741577,-0.9140288233757019,-0.8079306483268738
1769667752453086700,10.366086669921875,-0.26692137122154236,-1.0350252389907837,-0.7770957946777344
1769667752463075300,10.376075439453125,-0.27699822187423706,-1.1130741834640503,-0.7510018944740295
1769667752473063400,10.3860634765625,-0.2795344591140747,-1.1591962575912476,-0.7417857050895691
1769667752483052500,10.396052490234375,-0.3016541302204132,-1.194954752922058,-0.7541691064834595
1769667752493041400,10.40604150390625,-0.3629501760005951,-1.1784281730651855,-0.7585176229476929
1769667752503030500,10.416030517578125,-0.38757240772247314,-1.1564003229141235,-0.7762220501899719
1769667752513018600,10.4260185546875,-0.3797300159931183,-1.1364853382110596,-0.8243868350982666
1769667752523007500,10.436007568359376,-0.37113574147224426,-1.1131502389907837,-0.8611176609992981
1769667752532996400,10.445996337890625,-0.40597569942474365,-1.0624284744262695,-0.8616504669189453
1769667752542985500,10.4559853515625,-0.47970134019851685,-0.943831205368042,-0.8428317904472351
1769667752552974300,10.465974365234375,-0.5687766671180725,-0.7700210213661194,-0.8137326240539551
1769667752562962400,10.47596240234375,-0.6541110277175903,-0.6743927597999573,-0.8309219479560852
1769667752572951600,10.48595166015625,-0.679725706577301,-0.6794570088386536,-0.8547184467315674
1769667752582940700,10.495940673828125,-0.6633459329605103,-0.7436363101005554,-0.8488765358924866
1769667752592929500,10.505929443359374,-0.678183376789093,-0.8461089134216309,-0.8533924221992493
1769667752602917400,10.51591748046875,-0.6992716193199158,-0.9753763675689697,-0.9077576398849487
1769667752612906500,10.525906494140624,-0.7113035321235657,-1.0428993701934814,-0.9109225273132324
1769667752622895400,10.535895263671875,-0.7427967190742493,-1.0316952466964722,-0.8468769788742065
1769667752632884500,10.545884521484375,-0.7269421219825745,-1.136600375175476,-0.8666224479675293
1769667752642873600,10.55587353515625,-0.7056490778923035,-1.1975635290145874,-0.8888552784919739
1769667752652861700,10.56586181640625,-0.6962351202964783,-1.2152951955795288,-0.8865931630134583
1769667752662850600,10.5758505859375,-0.7174911499023438,-1.2535738945007324,-0.8919903039932251
1769667752672839400,10.58583935546875,-0.7474220395088196,-1.2500241994857788,-0.9209109544754028
1769667752682828500,10.59582861328125,-0.824730634689331,-1.1645022630691528,-0.9143078923225403
1769667752692816400,10.60581640625,-0.9047470092773438,-1.0401785373687744,-0.9248982071876526
1769667752702805500,10.615805419921875,-0.923266589641571,-0.9702263474464417,-0.9727181792259216
1769667752712794600,10.625794677734374,-0.9734315276145935,-0.9217497110366821,-1.0121471881866455
1769667752722783500,10.635783447265625,-0.9890672564506531,-0.8877182602882385,-1.0412288904190063
1769667752732772600,10.645772705078125,-0.9855612516403198,-0.9048085808753967,-1.126063585281372
1769667752742760400,10.655760498046876,-0.9740686416625977,-0.9199015498161316,-1.1732808351516724
1769667752752749600,10.66574951171875,-0.9584779739379883,-1.0584372282028198,-1.2714141607284546
1769667752762738400,10.675738525390624,-0.9912028908729553,-1.1063112020492554,-1.258988380432129
1769667752772727600,10.6857275390625,-1.0364041328430176,-1.0309118032455444,-1.2328307628631592
1769667752782716400,10.69571630859375,-1.074790596961975,-0.9924485683441162,-1.2049757242202759
1769667752792704500,10.70570458984375,-1.0858213901519775,-0.9716833829879761,-1.111665964126587
1769667752802693600,10.715693603515625,-1.1453948020935059,-0.9264059066772461,-0.9993029832839966
1769667752812682800,10.725682861328124,-1.1631126403808594,-1.0383539199829102,-0.9788581132888794
1769667752822671400,10.73567138671875,-1.2016562223434448,-1.1656389236450195,-0.9208832383155823
1769667752832659500,10.745659423828124,-1.1861541271209717,-1.2550183534622192,-0.8343757390975952
1769667752842648600,10.755648681640626,-1.11627995967865,-1.3471657037734985,-0.7865490913391113
1769667752852637400,10.765637451171875,-1.1036365032196045,-1.3274770975112915,-0.6753930449485779
1769667752862626600,10.77562646484375,-1.075646162033081,-1.4441126585006714,-0.5864554047584534
1769667752872615700,10.78561572265625,-0.9957593083381653,-1.6451903581619263,-0.4885469377040863
1769667752882603500,10.795603515625,-0.9757704138755798,-1.6725101470947266,-0.38609379529953003
1769667752892592400,10.80559228515625,-0.965491771697998,-1.582957148551941,-0.309636652469635
1769667752902581500,10.81558154296875,-0.9563965201377869,-1.4808040857315063,-0.25595080852508545
1769667752912570400,10.8255703125,-0.9510031342506409,-1.3702901601791382,-0.19500915706157684
1769667752922558500,10.835558349609375,-0.9617106318473816,-1.2448331117630005,-0.12903545796871185
1769667752932547600,10.845547607421874,-0.981395423412323,-1.17422616481781,-0.11524706333875656
1769667752942536700,10.85553662109375,-0.9645476937294006,-1.104990005493164,-0.12881161272525787
1769667752952525600,10.865525634765625,-0.9284522533416748,-1.0759868621826172,-0.12004517018795013
1769667752962514400,10.875514404296876,-0.9360699653625488,-1.0754978656768799,-0.11543869972229004
1769667752972502500,10.88550244140625,-0.9520279765129089,-1.1108031272888184,-0.08949045836925507
1769667752982491400,10.895491455078124,-0.8977295756340027,-1.080869197845459,-0.02348374016582966
1769667752992480500,10.90548046875,-0.8497467041015625,-1.1255204677581787,0.024265863001346588
1769667753002469600,10.9154697265625,-0.8121218085289001,-1.2107549905776978,0.10291114449501038
1769667753012457700,10.925457763671876,-0.7407912015914917,-1.2144464254379272,0.12708933651447296
1769667753022446300,10.9354462890625,-0.6999254822731018,-1.262575626373291,0.12137606739997864
1769667753032435500,10.945435546875,-0.6365777254104614,-1.3165432214736938,0.15705937147140503
1769667753042424300,10.95542431640625,-0.5587388873100281,-1.3044703006744385,0.1752985715866089
1769667753052413400,10.965413330078125,-0.46030834317207336,-1.3562393188476562,0.10887680947780609
1769667753062401500,10.975401611328126,-0.39938080310821533,-1.3506765365600586,0.09833654761314392
1769667753072390700,10.985390625,-0.39203837513923645,-1.3866935968399048,0.14111515879631042
1769667753082379500,10.995379638671874,-0.29448387026786804,-1.5408767461776733,0.1263791024684906
1769667753092368600,11.00536865234375,-0.25366711616516113,-1.5023680925369263,0.09333803504705429
1769667753102356500,11.0153564453125,-0.1961202323436737,-1.560132384300232,0.08020145446062088
1769667753112345300,11.025345458984376,-0.1745343804359436,-1.686417579650879,0.11304385960102081
1769667753122334500,11.03533447265625,-0.13492251932621002,-1.7534754276275635,0.17461667954921722
1769667753132323600,11.045323486328124,-0.15624448657035828,-1.7522778511047363,0.20070351660251617
1769667753142312400,11.0553125,-0.11817804723978043,-1.830453872680664,0.2069409042596817
1769667753152300500,11.065300537109374,-0.11015236377716064,-1.7793902158737183,0.24906817078590393
1769667753162289700,11.07528955078125,-0.040768228471279144,-1.8194496631622314,0.2746526300907135
1769667753172278500,11.085278564453125,-0.04000527039170265,-1.7633506059646606,0.35329821705818176
1769667753182266600,11.0952666015625,-0.06459423899650574,-1.7370543479919434,0.42324507236480713
1769667753192254700,11.105254638671875,-0.07317119091749191,-1.6632540225982666,0.4196602702140808
1769667753202243800,11.115243896484374,-0.055920038372278214,-1.56773042678833,0.41926664113998413
1769667753212232700,11.125232666015625,-0.01631801575422287,-1.5899887084960938,0.4135722815990448
1769667753222221800,11.135221923828125,-0.005620897281914949,-1.5829236507415771,0.4310082793235779
1769667753232211000,11.1452109375,0.018640900030732155,-1.5327980518341064,0.4955666661262512
1769667753242198800,11.15519873046875,0.023567480966448784,-1.5098721981048584,0.6033732891082764
1769667753252187600,11.165187744140624,0.031443048268556595,-1.475558876991272,0.6914995908737183
1769667753262176800,11.1751767578125,0.011560419574379921,-1.3943694829940796,0.7233486175537109
1769667753272166000,11.185165771484375,0.004555574152618647,-1.3383338451385498,0.7292964458465576
1769667753282153700,11.19515380859375,0.002256467007100582,-1.2955386638641357,0.7198257446289062
1769667753292142800,11.205142822265625,-0.0004886050010100007,-1.248660683631897,0.69435054063797
1769667753302131700,11.215131591796874,-0.011454703286290169,-1.228269100189209,0.6732045412063599
1769667753312120600,11.22512060546875,-0.02170289307832718,-1.260543942451477,0.6739017367362976
1769667753322109700,11.235109619140625,-0.0243665874004364,-1.3172804117202759,0.6846832633018494
1769667753332097800,11.245097900390626,-0.005899630021303892,-1.3318328857421875,0.6967164278030396
1769667753342087000,11.2550869140625,0.018007833510637283,-1.3472269773483276,0.7153289914131165
1769667753352075800,11.26507568359375,0.027004173025488853,-1.3798907995224,0.7338550686836243
1769667753362065000,11.27506494140625,0.005129500757902861,-1.3749537467956543,0.7434589862823486
1769667753372052700,11.285052734375,-0.007351137697696686,-1.3673537969589233,0.7395994663238525
1769667753382041600,11.29504150390625,-0.004706085659563541,-1.3565256595611572,0.7353474497795105
1769667753392030700,11.30503076171875,-0.012265419587492943,-1.3104643821716309,0.7392528653144836
1769667753402019800,11.315019775390626,-0.028682207688689232,-1.3154860734939575,0.7607802748680115
1769667753412008700,11.3250087890625,-0.04230803623795509,-1.3063294887542725,0.7754185199737549
1769667753421996800,11.334996826171874,-0.0306101031601429,-1.2863973379135132,0.7613487839698792
1769667753431986000,11.34498583984375,-0.015241948887705803,-1.3437162637710571,0.7756550312042236
1769667753441974800,11.354974853515625,0.001070178928785026,-1.3205678462982178,0.8081179261207581
1769667753451963600,11.364963623046876,0.012318003922700882,-1.3221101760864258,0.8395189642906189
1769667753461951700,11.37495166015625,0.031031504273414612,-1.3573397397994995,0.8771587014198303
1769667753471940900,11.38494091796875,0.03385087847709656,-1.3314738273620605,0.9161747097969055
1769667753481929700,11.3949296875,0.014296885579824448,-1.2865289449691772,0.9882467985153198
1769667753491918800,11.4049189453125,-0.012406332418322563,-1.2355549335479736,1.0684818029403687
1769667753501907700,11.41490771484375,-0.032884709537029266,-1.1553021669387817,1.1405338048934937
1769667753511895600,11.4248955078125,-0.04556175693869591,-1.0249077081680298,1.2203640937805176
1769667753521884700,11.434884765625,-0.07172650843858719,-0.8892685174942017,1.3138511180877686
1769667753531873800,11.444873779296875,-0.07433655112981796,-0.7526690363883972,1.3995872735977173
1769667753541862700,11.454862548828125,-0.07882663607597351,-0.6522103548049927,1.4930369853973389
1769667753551850800,11.464850830078126,-0.0927782654762268,-0.5656659007072449,1.5743213891983032
1769667753561839900,11.47483984375,-0.14783406257629395,-0.531731903553009,1.6515021324157715
1769667753571828700,11.484828857421874,-0.14900006353855133,-0.573157012462616,1.722163438796997
1769667753581817900,11.49481787109375,-0.08653722703456879,-0.6482110023498535,1.732603907585144
1769667753591806700,11.504806640625,-0.06235596910119057,-0.6337067484855652,1.7625439167022705
1769667753601794800,11.514794921875,-0.08308415114879608,-0.5774991512298584,1.8508799076080322
1769667753611783700,11.52478369140625,-0.135964035987854,-0.43029704689979553,1.976025104522705
1769667753621772800,11.534772705078124,-0.1364564597606659,-0.2905982732772827,2.0955307483673096
1769667753631761700,11.54476171875,-0.14279058575630188,-0.256721556186676,2.1647732257843018
1769667753641749800,11.554749755859374,-0.10674097388982773,-0.32080864906311035,2.168468475341797
1769667753651738600,11.564738525390625,-0.034913621842861176,-0.3570720851421356,2.0966575145721436
1769667753661727700,11.574727783203125,0.0332353375852108,-0.2671470046043396,1.9721596240997314
1769667753671716600,11.584716552734376,0.07611729949712753,-0.14556525647640228,1.8315131664276123
1769667753681705700,11.594705810546875,0.11659708619117737,-0.04327217862010002,1.735000729560852
1769667753691693800,11.60469384765625,0.1371535360813141,-0.03886440768837929,1.7110973596572876
1769667753701682700,11.6146826171875,0.1432710736989975,-0.13286839425563812,1.7158201932907104
1769667753711671800,11.624671875,0.1428299844264984,-0.2132200449705124,1.7299009561538696
1769667753721661000,11.634660888671876,0.18429885804653168,-0.23921595513820648,1.7700728178024292
1769667753731649800,11.64464990234375,0.254804790019989,-0.24420516192913055,1.7974966764450073
1769667753741637600,11.6546376953125,0.300159752368927,-0.25908344984054565,1.775949478149414
1769667753751626800,11.664626708984375,0.26875701546669006,-0.28515133261680603,1.7009755373001099
1769667753761616000,11.674615966796875,0.1990029662847519,-0.2442619651556015,1.5754194259643555
1769667753771604700,11.684604736328126,0.12545788288116455,-0.08780354261398315,1.4259248971939087
1769667753781592800,11.6945927734375,0.0814901739358902,0.19300733506679535,1.2528200149536133
1769667753791582000,11.70458203125,0.11177567392587662,0.5060757994651794,1.1025317907333374
1769667753801570600,11.714570556640625,0.14268004894256592,0.928929328918457,0.9820064306259155
1769667753811559700,11.7245595703125,0.2939145267009735,1.4316469430923462,0.8471365571022034
1769667753821547800,11.7345478515625,0.4606526494026184,2.0631089210510254,0.7388820052146912
1769667753831537000,11.744536865234375,0.5301820635795593,2.482450485229492,0.7042444348335266
1769667753841525800,11.75452587890625,0.5685549974441528,2.5563805103302,0.7601476311683655
1769667753851515000,11.764514892578125,0.5876647233963013,2.553941488265991,0.7748161554336548
1769667753861503700,11.774503662109375,0.6144960522651672,2.660574197769165,0.717931866645813
1769667753871491600,11.78449169921875,0.6671625375747681,2.8884434700012207,0.6305098533630371
1769667753881480700,11.794480712890625,0.7005495429039001,3.101879596710205,0.5713655948638916
1769667753891469800,11.8044697265625,0.644012987613678,3.3473660945892334,0.5250587463378906
1769667753901458700,11.814458740234375,0.618539035320282,3.4755501747131348,0.41053295135498047
1769667753911446800,11.82444677734375,0.554961085319519,3.5278096199035645,0.3693062365055084
1769667753921436000,11.834435791015625,0.40691888332366943,3.51373553276062,0.3944672644138336
1769667753931424800,11.8444248046875,0.2565067410469055,3.3942627906799316,0.44866466522216797
1769667753941413600,11.85441357421875,0.07180292159318924,3.313154697418213,0.5554118752479553
1769667753951402800,11.86440283203125,-0.07687299698591232,3.2329680919647217,0.7727751731872559
1769667753961390800,11.874390869140624,-0.14930619299411774,3.0551047325134277,0.9919711947441101
1769667753971379700,11.884379638671875,-0.1456364542245865,2.8782124519348145,1.072327971458435
1769667753981368800,11.894368896484375,-0.10114729404449463,2.7997100353240967,0.938596785068512
1769667753991357700,11.904357666015626,-0.08634293079376221,2.7418265342712402,0.6954165101051331
1769667754001345800,11.914345703125,0.0027733624447137117,2.704597234725952,0.48424381017684937
1769667754011334700,11.924334716796874,0.07894372195005417,2.770336151123047,0.31659549474716187
1769667754021323800,11.93432373046875,0.11156771332025528,2.8255741596221924,0.22575640678405762
1769667754031312600,11.944312744140625,0.11749786883592606,2.780592203140259,0.19871871173381805
1769667754041301800,11.9543017578125,0.12469292432069778,2.6711626052856445,0.2267274409532547
1769667754051289900,11.964289794921875,0.11493231356143951,2.4697911739349365,0.28905802965164185
1769667754061278700,11.97427880859375,0.05210328474640846,2.2724242210388184,0.346986323595047
1769667754071267800,11.984267822265625,0.023753385990858078,2.151707887649536,0.42354816198349
1769667754081257000,11.994257080078125,-0.02383676916360855,2.086590051651001,0.48059600591659546
1769667754091245600,12.00424560546875,-0.07699780911207199,2.0746560096740723,0.5189346075057983
1769667754101233700,12.014233642578125,-0.12493471056222916,2.0655603408813477,0.5733733773231506
1769667754111222800,12.024222900390624,-0.1726202666759491,2.0138611793518066,0.6254708170890808
1769667754121211600,12.034211669921875,-0.1996670514345169,1.9186363220214844,0.6420108675956726
1769667754131200800,12.04420068359375,-0.17908114194869995,1.8348420858383179,0.6286168694496155
1769667754141188900,12.05418896484375,-0.13028857111930847,1.909578561782837,0.5874947309494019
1769667754151177700,12.064177734375,-0.08005989342927933,1.9967293739318848,0.5419321060180664
1769667754161166600,12.07416650390625,-0.030275827273726463,2.0045509338378906,0.5104415416717529
1769667754171155700,12.08415576171875,0.019581429660320282,1.9814711809158325,0.49852538108825684
1769667754181145300,12.094145263671875,0.06665519624948502,1.9349665641784668,0.4988788068294525
1769667754191133400,12.104133544921876,0.11045940220355988,1.8603698015213013,0.5142892003059387
1769667754201122300,12.114122314453125,0.14764565229415894,1.8155221939086914,0.5230829119682312
1769667754211111400,12.124111328125,0.18200762569904327,1.7593358755111694,0.530117392539978
1769667754221100300,12.134100341796875,0.19415883719921112,1.711551547050476,0.5520216226577759
1769667754231088400,12.14408837890625,0.18890148401260376,1.6865884065628052,0.587273895740509
1769667754241077500,12.154077392578126,0.21610035002231598,1.6289610862731934,0.6277595162391663
1769667754251066400,12.16406640625,0.18934257328510284,1.6081546545028687,0.6456764936447144
1769667754261055500,12.174055419921874,0.1893625408411026,1.6379433870315552,0.658406674861908
1769667754271044600,12.184044677734375,0.24107970297336578,1.6626927852630615,0.6710090041160583
1769667754281032400,12.194032470703124,0.3612777590751648,1.6418678760528564,0.7000667452812195
1769667754291021300,12.204021240234376,0.3442445397377014,1.6662887334823608,0.6296852827072144
1769667754301010400,12.214010498046875,0.37315794825553894,1.7569503784179688,0.6435866951942444
1769667754310999300,12.223999267578124,0.4002266526222229,1.8462427854537964,0.6746838688850403
1769667754320987400,12.2339873046875,0.41562238335609436,1.9604610204696655,0.6960914134979248
1769667754330976500,12.2439765625,0.4427926540374756,2.099517345428467,0.7238573431968689
1769667754340965400,12.25396533203125,0.4670484662055969,2.201838970184326,0.7643589973449707
1769667754350954200,12.263954345703125,0.47840598225593567,2.2680423259735107,0.8231173157691956
1769667754360943400,12.273943359375,0.46548059582710266,2.318549156188965,0.8936975002288818
1769667754370931500,12.283931396484375,0.4320979118347168,2.3768470287323,0.9203947186470032
1769667754380920300,12.29392041015625,0.44079792499542236,2.4329652786254883,0.9138691425323486
1769667754390909400,12.303909423828125,0.3979153335094452,2.3948771953582764,0.9297391772270203
1769667754400898600,12.313898681640625,0.3459027111530304,2.2950549125671387,0.9688599109649658
1769667754410886400,12.323886474609376,0.3046652376651764,2.189409017562866,0.9954527616500854
1769667754420875300,12.333875244140625,0.269279807806015,2.132652521133423,0.9840514659881592
1769667754430864400,12.343864501953124,0.24216970801353455,2.0992820262908936,0.9922358989715576
1769667754440853200,12.353853271484375,0.18953658640384674,1.9243640899658203,1.0381628274917603
1769667754450842400,12.36384228515625,0.17031143605709076,1.8734238147735596,1.0719823837280273
