time,seconds_elapsed,z,y,x
1769667006846086700,0.067086669921875,0.7088470458984375,0.6845245361328125,-0.11541748046875
1769667006856074500,0.077074462890625,0.732513427734375,0.67694091796875,-0.10711669921875
1769667006866063600,0.087063720703125,0.732330322265625,0.663848876953125,-0.10980224609375
1769667006876051700,0.0970517578125,0.71319580078125,0.6617889404296875,-0.1281585693359375
1769667006886040600,0.10704052734375,0.723876953125,0.6661529541015625,-0.1234588623046875
1769667006896028400,0.1170283203125,0.733856201171875,0.6593170166015625,-0.11346435546875
1769667006906017500,0.127017578125,0.7382659912109375,0.6505126953125,-0.10723876953125
1769667006916005600,0.137005615234375,0.7395172119140625,0.64581298828125,-0.0941619873046875
1769667006925994800,0.146994873046875,0.7274169921875,0.6461181640625,-0.082855224609375
1769667006935982600,0.156982666015625,0.698577880859375,0.6464691162109375,-0.08502197265625
1769667006945971700,0.1669716796875,0.6957550048828125,0.6324310302734375,-0.0864105224609375
1769667006955959600,0.17695947265625,0.7401580810546875,0.6232452392578125,-0.0697174072265625
1769667006965948700,0.18694873046875,0.7534637451171875,0.626434326171875,-0.0663299560546875
1769667006975936800,0.196936767578125,0.744415283203125,0.619598388671875,-0.074066162109375
1769667006985925600,0.206925537109375,0.751251220703125,0.5858306884765625,-0.0693511962890625
1769667006995914800,0.216914794921875,0.7780609130859375,0.5672607421875,-0.064178466796875
1769667007005902600,0.226902587890625,0.75628662109375,0.6099700927734375,-0.0850372314453125
1769667007015891500,0.236891357421875,0.7318267822265625,0.60833740234375,-0.07952880859375
1769667007025879600,0.246879638671875,0.77178955078125,0.5574951171875,-0.06170654296875
1769667007035868700,0.25686865234375,0.8083953857421875,0.539794921875,-0.0451812744140625
1769667007045856800,0.266856689453125,0.8292694091796875,0.5196380615234375,-0.031219482421875
1769667007055845600,0.276845703125,0.8067626953125,0.532440185546875,-0.024993896484375
1769667007065833500,0.28683349609375,0.800628662109375,0.546783447265625,-0.03692626953125
1769667007075822600,0.296822509765625,0.802093505859375,0.55804443359375,-0.0304718017578125
1769667007085810700,0.306810791015625,0.855743408203125,0.4962310791015625,0.012603759765625
1769667007095799800,0.3167998046875,0.840118408203125,0.50042724609375,0.00335693359375
1769667007105787400,0.326787353515625,0.8611602783203125,0.4915008544921875,-0.0111236572265625
1769667007115776500,0.336776611328125,0.8686370849609375,0.482818603515625,-0.0086212158203125
1769667007125764600,0.3467646484375,0.841217041015625,0.5064544677734375,-0.0218048095703125
1769667007135753700,0.356753662109375,0.8503570556640625,0.4922637939453125,0.0028076171875
1769667007145741800,0.366741943359375,0.910797119140625,0.4693145751953125,0.0396881103515625
1769667007155730700,0.376730712890625,0.9580841064453125,0.4464263916015625,0.067535400390625
1769667007165718500,0.386718505859375,0.91650390625,0.4228363037109375,0.0764007568359375
1769667007175707600,0.396707763671875,0.9347076416015625,0.4057464599609375,0.055511474609375
1769667007185695700,0.40669580078125,0.9796295166015625,0.4180450439453125,0.081207275390625
1769667007195684600,0.4166845703125,0.9876251220703125,0.37139892578125,0.0863037109375
1769667007205672700,0.426672607421875,0.9357757568359375,0.328155517578125,0.077606201171875
1769667007215661600,0.43666162109375,0.9780426025390625,0.259857177734375,0.0923919677734375
1769667007225649700,0.446649658203125,0.9667510986328125,0.2421417236328125,0.0781707763671875
1769667007235638500,0.456638427734375,0.964447021484375,0.21710205078125,-0.014678955078125
1769667007245626600,0.466626708984375,0.95458984375,0.2224578857421875,0.000946044921875
1769667007255615700,0.47661572265625,0.9517822265625,0.2364959716796875,0.0349273681640625
1769667007265603600,0.486603515625,0.9355621337890625,0.2831573486328125,-0.0011138916015625
1769667007275592400,0.496592529296875,1.009521484375,0.2727508544921875,-0.0324859619140625
1769667007285580500,0.50658056640625,0.95941162109375,0.2289581298828125,-0.0617828369140625
1769667007295569700,0.516569580078125,0.9840240478515625,0.2328338623046875,-0.0748443603515625
1769667007305557800,0.526557861328125,0.9357452392578125,0.2164306640625,-0.0424957275390625
1769667007315546600,0.536546630859375,0.917755126953125,0.20965576171875,-0.0670928955078125
1769667007325535500,0.546535400390625,0.9782562255859375,0.214630126953125,-0.11590576171875
1769667007335523600,0.556523681640625,0.93792724609375,0.207489013671875,-0.0667572021484375
1769667007345512700,0.5665126953125,0.987579345703125,0.17742919921875,-0.0443267822265625
1769667007355500800,0.576500732421875,1.0255584716796875,0.134063720703125,-0.0614166259765625
1769667007365489700,0.58648974609375,1.1454620361328125,0.01434326171875,-0.0111236572265625
1769667007375477500,0.5964775390625,1.2705535888671875,0.10516357421875,-0.0960845947265625
1769667007385466600,0.606466552734375,1.14947509765625,0.0937652587890625,-0.070831298828125
1769667007395454700,0.616454833984375,0.9779052734375,0.1204071044921875,-0.078125
1769667007405443600,0.626443603515625,0.9164276123046875,0.1196441650390625,-0.0699310302734375
1769667007415431700,0.636431640625,0.9813079833984375,0.109466552734375,-0.0656585693359375
1769667007425420500,0.646420654296875,1.0488739013671875,0.1116790771484375,-0.0577392578125
1769667007435408600,0.65640869140625,1.055145263671875,0.1147308349609375,-0.0820159912109375
1769667007445397500,0.6663974609375,0.9911651611328125,0.1143646240234375,-0.080780029296875
1769667007455385600,0.676385498046875,0.982086181640625,0.1100311279296875,-0.0733489990234375
1769667007465374700,0.686374755859375,1.0026092529296875,0.10784912109375,-0.06915283203125
1769667007475362600,0.696362548828125,1.0112152099609375,0.1151123046875,-0.074615478515625
1769667007485351700,0.7063515625,1.009490966796875,0.1068572998046875,-0.0753021240234375
1769667007495339500,0.716339599609375,1.0064849853515625,0.1109771728515625,-0.0788726806640625
1769667007505328600,0.72632861328125,1.004669189453125,0.1115264892578125,-0.074371337890625
1769667007515316700,0.736316650390625,0.9792633056640625,0.095672607421875,-0.0701751708984375
1769667007525305600,0.7463056640625,0.96728515625,0.105072021484375,-0.06842041015625
1769667007535293000,0.75629296875,0.982513427734375,0.102203369140625,-0.0703887939453125
1769667007545281800,0.76628173828125,0.981781005859375,0.10467529296875,-0.065765380859375
1769667007555269600,0.77626953125,1.0005645751953125,0.1011962890625,-0.0790252685546875
1769667007565258800,0.7862587890625,1.0199127197265625,0.10211181640625,-0.0875701904296875
1769667007575246800,0.796246826171875,1.0211029052734375,0.1019134521484375,-0.10003662109375
1769667007585235700,0.806235595703125,1.01544189453125,0.1051177978515625,-0.0969085693359375
1769667007595223800,0.816223876953125,1.001861572265625,0.0942230224609375,-0.1022796630859375
1769667007605213000,0.826212890625,1.0406341552734375,0.10186767578125,-0.1055755615234375
1769667007615200800,0.83620068359375,1.047393798828125,0.1065216064453125,-0.092315673828125
1769667007625190000,0.84618994140625,1.0223541259765625,0.1041717529296875,-0.0934906005859375
1769667007635177700,0.856177734375,1.0062713623046875,0.0994110107421875,-0.0897979736328125
1769667007645166800,0.866166748046875,1.0126800537109375,0.0977783203125,-0.10028076171875
1769667007655155000,0.876155029296875,0.9950103759765625,0.0984954833984375,-0.0962982177734375
1769667007665143800,0.886143798828125,0.9844970703125,0.096832275390625,-0.089996337890625
1769667007675132000,0.8961318359375,0.9855499267578125,0.1015777587890625,-0.093505859375
1769667007685120800,0.906120849609375,0.9863433837890625,0.0983734130859375,-0.0953216552734375
1769667007695108900,0.91610888671875,0.96673583984375,0.09393310546875,-0.0929107666015625
1769667007705098000,0.926097900390625,0.95733642578125,0.0951995849609375,-0.091949462890625
1769667007715085800,0.9360859375,0.9840545654296875,0.0919189453125,-0.1006622314453125
1769667007725074700,0.94607470703125,0.9911346435546875,0.0920867919921875,-0.10089111328125
1769667007735063800,0.956063720703125,0.9940185546875,0.0957794189453125,-0.1064300537109375
1769667007745052000,0.966052001953125,0.995697021484375,0.0915374755859375,-0.1087799072265625
1769667007755040800,0.976040771484375,0.9934539794921875,0.09375,-0.1131134033203125
1769667007765028600,0.986028564453125,0.9916229248046875,0.0886077880859375,-0.11529541015625
1769667007775017700,0.996017822265625,0.98992919921875,0.0828399658203125,-0.121429443359375
1769667007785005800,1.006005859375,0.9894561767578125,0.0908966064453125,-0.126373291015625
1769667007794995000,1.015994873046875,1.000213623046875,0.0934600830078125,-0.13714599609375
1769667007804982800,1.025982666015625,1.0028533935546875,0.086761474609375,-0.1415863037109375
1769667007814972000,1.035971923828125,1.0030517578125,0.0877227783203125,-0.1414642333984375
1769667007824959700,1.045959716796875,0.99237060546875,0.0854644775390625,-0.146331787109375
1769667007834948900,1.055948974609375,0.9909820556640625,0.0836639404296875,-0.14434814453125
1769667007844937000,1.06593701171875,0.99566650390625,0.0836944580078125,-0.145843505859375
1769667007854925800,1.07592578125,1.000091552734375,0.0828399658203125,-0.144134521484375
1769667007864914000,1.085913818359375,0.995391845703125,0.080718994140625,-0.1436767578125
1769667007874902800,1.09590283203125,0.9842376708984375,0.07708740234375,-0.150054931640625
1769667007884891000,1.105890869140625,0.984344482421875,0.0741119384765625,-0.148590087890625
1769667007894879700,1.115879638671875,0.9878997802734375,0.0740966796875,-0.1468505859375
1769667007904867800,1.125867919921875,0.97125244140625,0.0731658935546875,-0.1470184326171875
1769667007914857000,1.13585693359375,0.96820068359375,0.0715484619140625,-0.1504058837890625
1769667007924844800,1.1458447265625,0.9667510986328125,0.070831298828125,-0.15057373046875
1769667007934833700,1.155833740234375,0.959197998046875,0.0674285888671875,-0.1520843505859375
1769667007944821800,1.16582177734375,0.97369384765625,0.0656890869140625,-0.1502532958984375
1769667007954811000,1.175810791015625,0.9896087646484375,0.0689544677734375,-0.1537933349609375
1769667007964799000,1.185799072265625,0.998748779296875,0.06854248046875,-0.1593780517578125
1769667007974787800,1.195787841796875,1.00262451171875,0.0697479248046875,-0.1618804931640625
1769667007984775700,1.205775634765625,1.001495361328125,0.06866455078125,-0.1647796630859375
1769667007994764800,1.215764892578125,0.992431640625,0.0677337646484375,-0.162017822265625
1769667008004753000,1.2257529296875,1.0055694580078125,0.0669708251953125,-0.1606292724609375
1769667008014742000,1.235741943359375,0.9992828369140625,0.0677032470703125,-0.1617279052734375
1769667008024729900,1.245729736328125,0.98504638671875,0.0637969970703125,-0.16326904296875
1769667008034718700,1.25571875,0.996978759765625,0.0640869140625,-0.161224365234375
1769667008044706800,1.265706787109375,0.9924468994140625,0.0644378662109375,-0.161590576171875
1769667008054696000,1.275696044921875,0.9882049560546875,0.0639190673828125,-0.1640472412109375
1769667008064684000,1.28568408203125,0.9947052001953125,0.0629730224609375,-0.16326904296875
1769667008074673000,1.2956728515625,0.978851318359375,0.0636749267578125,-0.1588134765625
1769667008084660700,1.30566064453125,0.9731292724609375,0.064208984375,-0.15582275390625
1769667008094649900,1.31564990234375,0.9818572998046875,0.06195068359375,-0.1551666259765625
1769667008104638000,1.325637939453125,0.9825592041015625,0.0591583251953125,-0.1544189453125
1769667008114626800,1.335626708984375,0.99127197265625,0.0618896484375,-0.1562042236328125
1769667008124614700,1.34561474609375,0.9893951416015625,0.06146240234375,-0.158233642578125
1769667008134603800,1.355603759765625,0.99005126953125,0.060028076171875,-0.158782958984375
1769667008144592000,1.365591796875,1.000244140625,0.0612335205078125,-0.1562957763671875
1769667008154580700,1.375580810546875,0.9927215576171875,0.064117431640625,-0.1521759033203125
1769667008164568800,1.38556884765625,0.988525390625,0.0626068115234375,-0.153564453125
1769667008174558000,1.395557861328125,0.9905548095703125,0.063934326171875,-0.1544342041015625
1769667008184545800,1.4055458984375,0.993194580078125,0.06329345703125,-0.1549835205078125
1769667008194534700,1.41553466796875,0.991851806640625,0.0615997314453125,-0.155517578125
1769667008204522800,1.425522705078125,0.9874114990234375,0.0618438720703125,-0.1533203125
1769667008214511900,1.435511962890625,0.981414794921875,0.0615081787109375,-0.1529541015625
1769667008224501000,1.4455009765625,0.97998046875,0.0614471435546875,-0.15203857421875
1769667008234488800,1.45548876953125,0.98455810546875,0.0622406005859375,-0.1517486572265625
1769667008244477700,1.465477783203125,0.98675537109375,0.060760498046875,-0.1533660888671875
1769667008254465800,1.4754658203125,0.982635498046875,0.0618743896484375,-0.153289794921875
1769667008264455000,1.485454833984375,0.9840240478515625,0.0623321533203125,-0.152069091796875
1769667008274443000,1.495443115234375,0.980987548828125,0.0643310546875,-0.147979736328125
1769667008284432000,1.505431884765625,0.9784088134765625,0.0610198974609375,-0.1483306884765625
1769667008294419700,1.515419677734375,0.98345947265625,0.0628814697265625,-0.149444580078125
1769667008304408800,1.525408935546875,0.9860687255859375,0.0598602294921875,-0.15008544921875
1769667008314397000,1.53539697265625,0.9940032958984375,0.0598907470703125,-0.153045654296875
1769667008324385800,1.5453857421875,1.0016632080078125,0.06011962890625,-0.154449462890625
1769667008334374000,1.555373779296875,0.995086669921875,0.061248779296875,-0.154632568359375
1769667008344362800,1.56536279296875,0.9937286376953125,0.0604705810546875,-0.1525115966796875
1769667008354350800,1.575350830078125,0.9915924072265625,0.0597381591796875,-0.1503448486328125
1769667008364339700,1.585339599609375,0.9884185791015625,0.0614776611328125,-0.1495361328125
1769667008374327800,1.595327880859375,0.9909515380859375,0.058990478515625,-0.151153564453125
1769667008384317000,1.60531689453125,1.0000457763671875,0.0582275390625,-0.14892578125
1769667008394304800,1.6153046875,0.997100830078125,0.0579681396484375,-0.1483154296875
1769667008404294000,1.6252939453125,0.9906158447265625,0.0574798583984375,-0.14501953125
1769667008414281700,1.63528173828125,0.993255615234375,0.057525634765625,-0.1435089111328125
1769667008424270800,1.645270751953125,0.99334716796875,0.0573883056640625,-0.1423187255859375
1769667008434259000,1.655259033203125,0.99102783203125,0.05841064453125,-0.141448974609375
1769667008444247800,1.665247802734375,0.9892578125,0.058441162109375,-0.1414947509765625
1769667008454236000,1.67523583984375,0.9871673583984375,0.059295654296875,-0.1427001953125
1769667008464224800,1.685224853515625,0.987640380859375,0.05908203125,-0.1436309814453125
1769667008474212900,1.695212890625,0.9868621826171875,0.0579681396484375,-0.1441192626953125
1769667008484202000,1.705201904296875,0.98687744140625,0.057861328125,-0.1443634033203125
1769667008494189800,1.71518994140625,0.9893646240234375,0.057861328125,-0.14453125
1769667008504178700,1.7251787109375,0.989410400390625,0.0594024658203125,-0.1442718505859375
1769667008514166800,1.735166748046875,0.98846435546875,0.0585479736328125,-0.145782470703125
1769667008524156000,1.745156005859375,0.9870758056640625,0.0582733154296875,-0.1432952880859375
1769667008534144000,1.75514404296875,0.984039306640625,0.0585784912109375,-0.1443328857421875
1769667008544133400,1.76513330078125,0.984710693359375,0.0596923828125,-0.144287109375
1769667008554121500,1.77512158203125,0.98541259765625,0.0599212646484375,-0.14581298828125
1769667008564110600,1.785110595703125,0.989227294921875,0.0610504150390625,-0.1468963623046875
1769667008574098400,1.795098388671875,0.9895172119140625,0.0610198974609375,-0.1479644775390625
1769667008584087300,1.80508740234375,0.9920501708984375,0.0600738525390625,-0.1460418701171875
1769667008594075400,1.815075439453125,0.99383544921875,0.0597686767578125,-0.1473388671875
1769667008604064500,1.825064453125,0.9901123046875,0.0601043701171875,-0.1453704833984375
1769667008614052600,1.835052490234375,0.989013671875,0.05853271484375,-0.1442413330078125
1769667008624041500,1.84504150390625,0.9905853271484375,0.0601959228515625,-0.144622802734375
1769667008634029300,1.855029296875,0.990386962890625,0.059967041015625,-0.1443328857421875
1769667008644018400,1.865018310546875,0.9912872314453125,0.06097412109375,-0.1443634033203125
1769667008654006500,1.875006591796875,0.9868316650390625,0.0606689453125,-0.1431427001953125
1769667008663995400,1.884995361328125,0.9892425537109375,0.061553955078125,-0.1439056396484375
1769667008673983500,1.8949833984375,0.98974609375,0.0595245361328125,-0.1441802978515625
1769667008683972400,1.904972412109375,0.9902496337890625,0.0579071044921875,-0.144256591796875
1769667008693960400,1.91496044921875,0.9893798828125,0.0588836669921875,-0.1428680419921875
1769667008703949600,1.924949462890625,0.9896697998046875,0.0594940185546875,-0.142730712890625
1769667008713937400,1.9349375,0.98834228515625,0.059326171875,-0.143524169921875
1769667008723926500,1.944926513671875,0.9895172119140625,0.058502197265625,-0.14337158203125
1769667008733914400,1.954914306640625,0.9906005859375,0.0592803955078125,-0.142303466796875
1769667008743903500,1.964903564453125,0.9926910400390625,0.0591583251953125,-0.1430511474609375
1769667008753891600,1.9748916015625,0.9920654296875,0.05914306640625,-0.1422882080078125
1769667008763880400,1.98488037109375,0.989837646484375,0.0592803955078125,-0.14263916015625
1769667008773868500,1.99486865234375,0.990570068359375,0.0585479736328125,-0.143341064453125
1769667008783857400,2.004857421875,0.9903106689453125,0.0582275390625,-0.142547607421875
1769667008793845500,2.014845458984375,0.9900360107421875,0.0581207275390625,-0.1425018310546875
1769667008803834400,2.02483447265625,0.9887542724609375,0.058929443359375,-0.1428680419921875
1769667008813823500,2.034823486328125,0.9882049560546875,0.060791015625,-0.1425018310546875
1769667008823811600,2.0448115234375,0.9899444580078125,0.0596160888671875,-0.1434173583984375
1769667008833800400,2.054800537109375,0.99078369140625,0.059539794921875,-0.1447601318359375
1769667008843788300,2.064788330078125,0.9910430908203125,0.0594329833984375,-0.1449127197265625
1769667008853777400,2.07477734375,0.98980712890625,0.05841064453125,-0.1442718505859375
1769667008863765500,2.084765625,0.99188232421875,0.0592498779296875,-0.143524169921875
1769667008873754600,2.094754638671875,0.989166259765625,0.05816650390625,-0.144378662109375
1769667008883742500,2.104742431640625,0.9904327392578125,0.0591583251953125,-0.1453857421875
1769667008893731300,2.1147314453125,0.9920501708984375,0.0601654052734375,-0.1455230712890625
1769667008903719400,2.124719482421875,0.993682861328125,0.058990478515625,-0.1453704833984375
1769667008913708500,2.13470849609375,0.9911651611328125,0.06005859375,-0.144500732421875
1769667008923696600,2.144696533203125,0.9909515380859375,0.0599212646484375,-0.1445159912109375
1769667008933685500,2.154685546875,0.9899444580078125,0.0604248046875,-0.1447601318359375
1769667008943673300,2.16467333984375,0.988037109375,0.0594329833984375,-0.144195556640625
1769667008953662500,2.174662353515625,0.9865875244140625,0.0587921142578125,-0.144927978515625
1769667008963650600,2.184650634765625,0.9898223876953125,0.0606536865234375,-0.1446990966796875
1769667008973639400,2.194639404296875,0.989410400390625,0.060638427734375,-0.1440582275390625
1769667008983627500,2.20462744140625,0.9882659912109375,0.060455322265625,-0.1436767578125
1769667008993616400,2.214616455078125,0.9875335693359375,0.0587158203125,-0.1442718505859375
1769667009003604500,2.2246044921875,0.9868316650390625,0.0581512451171875,-0.1449432373046875
1769667009013593300,2.23459326171875,0.990081787109375,0.060028076171875,-0.145721435546875
1769667009023581400,2.24458154296875,0.9902801513671875,0.06005859375,-0.145965576171875
1769667009033570600,2.254570556640625,0.9887542724609375,0.0599212646484375,-0.145599365234375
1769667009043558400,2.264558349609375,0.9946441650390625,0.0581512451171875,-0.14691162109375
1769667009053547300,2.27454736328125,0.9945068359375,0.0592041015625,-0.144287109375
1769667009063535400,2.284535400390625,0.9905242919921875,0.0590057373046875,-0.145263671875
1769667009073524500,2.2945244140625,0.990936279296875,0.0584716796875,-0.1478729248046875
1769667009083512600,2.3045126953125,0.98919677734375,0.059967041015625,-0.144744873046875
1769667009093501400,2.31450146484375,0.987457275390625,0.06072998046875,-0.1442108154296875
1769667009103489300,2.3244892578125,0.988555908203125,0.0594635009765625,-0.144775390625
1769667009113478400,2.334478515625,0.986846923828125,0.058563232421875,-0.1446075439453125
1769667009123466500,2.344466552734375,0.986907958984375,0.05950927734375,-0.1436309814453125
1769667009133455600,2.35445556640625,0.98980712890625,0.05938720703125,-0.1441802978515625
1769667009143443500,2.364443359375,0.9915313720703125,0.0586395263671875,-0.14520263671875
1769667009153432300,2.374432373046875,0.993011474609375,0.0595703125,-0.144989013671875
1769667009163420400,2.38442041015625,0.990234375,0.0600738525390625,-0.145751953125
1769667009173409500,2.394409423828125,0.990142822265625,0.0605621337890625,-0.1455230712890625
1769667009183397600,2.404397705078125,0.9904327392578125,0.0612945556640625,-0.1448974609375
1769667009193386500,2.414386474609375,0.9920806884765625,0.0598297119140625,-0.144287109375
1769667009203374300,2.424374267578125,0.9913787841796875,0.0594482421875,-0.145111083984375
1769667009213363500,2.434363525390625,0.98974609375,0.059661865234375,-0.14453125
1769667009223351600,2.4443515625,0.98883056640625,0.059783935546875,-0.14544677734375
1769667009233340400,2.45434033203125,0.988922119140625,0.059295654296875,-0.1451873779296875
1769667009243328500,2.46432861328125,0.98980712890625,0.0606536865234375,-0.1461944580078125
1769667009253317400,2.4743173828125,0.9892425537109375,0.0594329833984375,-0.1457366943359375
1769667009263305500,2.484305419921875,0.989501953125,0.06011962890625,-0.1460418701171875
1769667009273294300,2.49429443359375,0.9897003173828125,0.0606689453125,-0.14520263671875
1769667009283283500,2.504283447265625,0.9898529052734375,0.05902099609375,-0.1450958251953125
1769667009293271600,2.514271484375,0.993133544921875,0.0604400634765625,-0.146087646484375
1769667009303260700,2.5242607421875,0.9866943359375,0.06005859375,-0.1440277099609375
1769667009313248500,2.53424853515625,0.9888153076171875,0.06072998046875,-0.1458587646484375
1769667009323237400,2.5442373046875,0.992218017578125,0.061553955078125,-0.14569091796875
1769667009333225500,2.5542255859375,0.9929046630859375,0.0605621337890625,-0.145416259765625
1769667009343214600,2.564214599609375,0.9906463623046875,0.0604705810546875,-0.1450653076171875
1769667009353202400,2.574202392578125,0.98968505859375,0.0604705810546875,-0.1456146240234375
1769667009363191300,2.58419140625,0.9893646240234375,0.0597381591796875,-0.1453857421875
1769667009373179400,2.594179443359375,0.988525390625,0.0600738525390625,-0.1465911865234375
1769667009383168500,2.60416845703125,0.98919677734375,0.060089111328125,-0.1449432373046875
1769667009393156600,2.614156494140625,0.990142822265625,0.0597991943359375,-0.14654541015625
1769667009403145500,2.6241455078125,0.9913177490234375,0.0597991943359375,-0.1459808349609375
1769667009413133300,2.63413330078125,0.9897918701171875,0.0613861083984375,-0.1455841064453125
1769667009423122400,2.644122314453125,0.99053955078125,0.060791015625,-0.1450653076171875
1769667009433110500,2.654110595703125,0.990814208984375,0.0591278076171875,-0.1454620361328125
1769667009443099400,2.664099365234375,0.9898223876953125,0.059234619140625,-0.1456756591796875
1769667009453087500,2.67408740234375,0.99029541015625,0.059326171875,-0.1450653076171875
1769667009463076400,2.684076416015625,0.990875244140625,0.059906005859375,-0.1456756591796875
1769667009473064400,2.694064453125,0.98992919921875,0.060150146484375,-0.1440277099609375
1769667009483053600,2.704053466796875,0.9885406494140625,0.0598907470703125,-0.1449432373046875
1769667009493041400,2.71404150390625,0.9885101318359375,0.0588531494140625,-0.1456298828125
1769667009503030500,2.724030517578125,0.990386962890625,0.0608673095703125,-0.1463165283203125
1769667009513018400,2.734018310546875,0.990570068359375,0.06072998046875,-0.1470947265625
1769667009523007500,2.744007568359375,0.9931488037109375,0.0603790283203125,-0.146148681640625
1769667009532995600,2.75399560546875,0.9910736083984375,0.061248779296875,-0.144439697265625
1769667009542984700,2.763984619140625,0.9886627197265625,0.0598907470703125,-0.1445465087890625
1769667009552972500,2.77397265625,0.9881744384765625,0.0611724853515625,-0.1452484130859375
1769667009562961700,2.783961669921875,0.9901123046875,0.0598602294921875,-0.146026611328125
1769667009572949800,2.79394970703125,0.9892120361328125,0.0601806640625,-0.14617919921875
1769667009582938600,2.803938720703125,0.992401123046875,0.059906005859375,-0.145416259765625
1769667009592926700,2.8139267578125,0.9894866943359375,0.060516357421875,-0.144775390625
1769667009602915600,2.82391552734375,0.9898834228515625,0.0611114501953125,-0.1446380615234375
1769667009612903700,2.833903564453125,0.9901885986328125,0.0592498779296875,-0.1449432373046875
1769667009622892500,2.843892578125,0.9901580810546875,0.05926513671875,-0.1440887451171875
1769667009632880600,2.853880615234375,0.9884185791015625,0.0606536865234375,-0.1454010009765625
1769667009642869800,2.863869873046875,0.9876708984375,0.0608062744140625,-0.144134521484375
1769667009652857600,2.873857666015625,0.9873046875,0.0618133544921875,-0.1446380615234375
1769667009662846500,2.883846435546875,0.9884490966796875,0.0607757568359375,-0.1467437744140625
1769667009672834600,2.89383447265625,0.98974609375,0.0601348876953125,-0.14483642578125
1769667009682823700,2.90382373046875,0.9902191162109375,0.0595703125,-0.14447021484375
1769667009692811800,2.913811767578125,0.990203857421875,0.060028076171875,-0.145233154296875
1769667009702800600,2.923800537109375,0.989837646484375,0.060943603515625,-0.14654541015625
1769667009712789500,2.93378955078125,0.9925384521484375,0.0606231689453125,-0.146728515625
1769667009722777600,2.943777587890625,0.993438720703125,0.05963134765625,-0.14776611328125
1769667009732766700,2.9537666015625,0.9935455322265625,0.0596466064453125,-0.1462554931640625
1769667009742754800,2.9637548828125,0.993316650390625,0.060943603515625,-0.1444549560546875
1769667009752743700,2.97374365234375,0.988433837890625,0.0597991943359375,-0.14447021484375
1769667009762731500,2.9837314453125,0.988800048828125,0.058502197265625,-0.1465606689453125
1769667009772720600,2.993720703125,0.9866943359375,0.060455322265625,-0.1459808349609375
1769667009782708700,3.003708740234375,0.9875640869140625,0.0609283447265625,-0.1449737548828125
1769667009792697600,3.013697509765625,0.9892730712890625,0.0604095458984375,-0.1464691162109375
1769667009802685700,3.023685791015625,0.9886474609375,0.05963134765625,-0.1452789306640625
1769667009812674600,3.033674560546875,0.9884796142578125,0.0612640380859375,-0.1453094482421875
1769667009822662700,3.04366259765625,0.9891204833984375,0.0604400634765625,-0.145294189453125
1769667009832651500,3.053651611328125,0.99102783203125,0.06121826171875,-0.1448974609375
1769667009842639600,3.0636396484375,0.99139404296875,0.0598907470703125,-0.146942138671875
1769667009852628700,3.073628662109375,0.99072265625,0.0613555908203125,-0.145904541015625
1769667009862616600,3.083616455078125,0.9906005859375,0.061553955078125,-0.1455078125
1769667009872605400,3.09360546875,0.991455078125,0.060577392578125,-0.145965576171875
1769667009882593500,3.103593505859375,0.9914703369140625,0.0604248046875,-0.1446990966796875
1769667009892582700,3.113582763671875,0.99072265625,0.059539794921875,-0.1457061767578125
1769667009902570800,3.12357080078125,0.9900970458984375,0.05950927734375,-0.1466522216796875
1769667009912559600,3.1335595703125,0.9895172119140625,0.0590057373046875,-0.145050048828125
1769667009922547500,3.14354736328125,0.9880828857421875,0.05914306640625,-0.14678955078125
1769667009932536600,3.15353662109375,0.9880523681640625,0.05987548828125,-0.1456298828125
1769667009942524700,3.163524658203125,0.9892425537109375,0.0597991943359375,-0.1455230712890625
1769667009952513800,3.173513671875,0.9881439208984375,0.059234619140625,-0.1450958251953125
1769667009962501600,3.183501708984375,0.990570068359375,0.0600433349609375,-0.1460418701171875
1769667009972490500,3.193490478515625,0.9905853271484375,0.0602569580078125,-0.146484375
1769667009982478600,3.203478515625,0.991180419921875,0.0605621337890625,-0.14599609375
1769667009992467700,3.2134677734375,0.9925079345703125,0.060455322265625,-0.14501953125
1769667010002455800,3.223455810546875,0.990875244140625,0.0592498779296875,-0.14544677734375
1769667010012444700,3.233444580078125,0.9886474609375,0.0606231689453125,-0.144744873046875
1769667010022432500,3.2434326171875,0.989837646484375,0.0592041015625,-0.145843505859375
1769667010032421600,3.253421630859375,0.9908599853515625,0.06048583984375,-0.1468048095703125
1769667010042409700,3.26340966796875,0.990966796875,0.0604095458984375,-0.145843505859375
1769667010052398600,3.273398681640625,0.9906158447265625,0.060821533203125,-0.144744873046875
1769667010062386400,3.283386474609375,0.988525390625,0.0612030029296875,-0.144927978515625
1769667010072375600,3.29337548828125,0.990081787109375,0.059295654296875,-0.147003173828125
1769667010082363600,3.30336376953125,0.988433837890625,0.061187744140625,-0.1454620361328125
1769667010092352500,3.3133525390625,0.98828125,0.06060791015625,-0.14471435546875
1769667010102341600,3.323341552734375,0.9887237548828125,0.0610198974609375,-0.1461639404296875
1769667010112329700,3.333329833984375,0.9892730712890625,0.0599822998046875,-0.14605712890625
1769667010122318600,3.343318603515625,0.9907989501953125,0.0597991943359375,-0.1448516845703125
1769667010132306700,3.353306640625,0.990692138671875,0.0599212646484375,-0.14630126953125
1769667010142295600,3.363295654296875,0.9895477294921875,0.0601806640625,-0.146240234375
1769667010152283600,3.37328369140625,0.9911346435546875,0.0613250732421875,-0.145904541015625
1769667010162272800,3.383272705078125,0.989990234375,0.0599212646484375,-0.14593505859375
1769667010172260600,3.393260498046875,0.99066162109375,0.060821533203125,-0.1459503173828125
1769667010182249500,3.40324951171875,0.9911041259765625,0.059814453125,-0.1461181640625
1769667010192237600,3.413237548828125,0.9913787841796875,0.0607757568359375,-0.1457977294921875
1769667010202226700,3.423226806640625,0.9883880615234375,0.060455322265625,-0.14581298828125
1769667010212214800,3.43321484375,0.9874114990234375,0.059539794921875,-0.145263671875
1769667010222203600,3.44320361328125,0.988983154296875,0.0589447021484375,-0.147491455078125
1769667010232191500,3.45319140625,0.9899139404296875,0.0589599609375,-0.1471099853515625
1769667010242180600,3.4631806640625,0.9900665283203125,0.0601654052734375,-0.146148681640625
1769667010252168700,3.473168701171875,0.9907684326171875,0.06005859375,-0.1461944580078125
1769667010262157600,3.483157470703125,0.989898681640625,0.0611724853515625,-0.146087646484375
1769667010272145400,3.4931455078125,0.989288330078125,0.060394287109375,-0.14605712890625
1769667010282134500,3.503134521484375,0.988494873046875,0.0620880126953125,-0.14788818359375
1769667010292122600,3.51312255859375,0.9897613525390625,0.0601043701171875,-0.146575927734375
1769667010302111700,3.52311181640625,0.9895172119140625,0.060394287109375,-0.146942138671875
1769667010312099600,3.533099609375,0.9907379150390625,0.0608062744140625,-0.1461944580078125
1769667010322088700,3.543088623046875,0.989288330078125,0.0607757568359375,-0.1459808349609375
1769667010332076500,3.55307666015625,0.990325927734375,0.0597991943359375,-0.144989013671875
1769667010342065700,3.563065673828125,0.99029541015625,0.06048583984375,-0.1450653076171875
1769667010352053800,3.5730537109375,0.9882354736328125,0.060546875,-0.145965576171875
1769667010362042600,3.583042724609375,0.98968505859375,0.05987548828125,-0.1468048095703125
1769667010372030700,3.59303076171875,0.98980712890625,0.059173583984375,-0.1446533203125
1769667010382019600,3.60301953125,0.988922119140625,0.0593109130859375,-0.14508056640625
1769667010392007700,3.613007568359375,0.98944091796875,0.060577392578125,-0.146026611328125
1769667010401996500,3.62299658203125,0.990142822265625,0.059783935546875,-0.1473541259765625
1769667010411984600,3.632984619140625,0.9907989501953125,0.060150146484375,-0.1460113525390625
1769667010421973800,3.642973876953125,0.9932098388671875,0.0605621337890625,-0.1478271484375
1769667010431961600,3.652961669921875,0.9940338134765625,0.0597686767578125,-0.146484375
1769667010441950500,3.662950439453125,0.9885711669921875,0.059814453125,-0.1443328857421875
1769667010451938600,3.6729384765625,0.988616943359375,0.0600433349609375,-0.1463470458984375
1769667010461927700,3.682927734375,0.98907470703125,0.0592193603515625,-0.1475677490234375
1769667010471916800,3.692916748046875,0.988922119140625,0.0600128173828125,-0.1477203369140625
1769667010481904400,3.702904296875,0.9904632568359375,0.0600738525390625,-0.147186279296875
1769667010491893500,3.7128935546875,0.988739013671875,0.059722900390625,-0.14532470703125
1769667010501881600,3.722881591796875,0.9858856201171875,0.0606842041015625,-0.14373779296875
1769667010511869700,3.73286962890625,0.9865570068359375,0.0609283447265625,-0.14324951171875
1769667010521858800,3.74285888671875,0.98822021484375,0.06085205078125,-0.1435089111328125
1769667010531847700,3.75284765625,0.9923095703125,0.060302734375,-0.1453857421875
1769667010541835000,3.7628349609375,0.990692138671875,0.060302734375,-0.14678955078125
1769667010551824100,3.77282421875,0.9907989501953125,0.0601348876953125,-0.145111083984375
1769667010561812200,3.782812255859375,0.990234375,0.06072998046875,-0.1460723876953125
1769667010571801000,3.792801025390625,0.9892120361328125,0.0607147216796875,-0.1459808349609375
1769667010581789000,3.802788818359375,0.9909820556640625,0.059417724609375,-0.147186279296875
1769667010591778000,3.812778076171875,0.9890594482421875,0.059783935546875,-0.146636962890625
1769667010601766100,3.82276611328125,0.9859466552734375,0.0605621337890625,-0.144683837890625
1769667010611755000,3.832755126953125,0.9871063232421875,0.0604248046875,-0.1470489501953125
1769667010621743000,3.8427431640625,0.990753173828125,0.0603790283203125,-0.1458587646484375
1769667010631732200,3.852732177734375,0.99267578125,0.0603790283203125,-0.1468353271484375
1769667010641720000,3.862719970703125,0.9907379150390625,0.0597991943359375,-0.1461334228515625
1769667010651709200,3.872709228515625,0.98797607421875,0.05950927734375,-0.14599609375
1769667010661697000,3.882697021484375,0.9900054931640625,0.0598907470703125,-0.1447296142578125
1769667010671686100,3.89268603515625,0.9896392822265625,0.0589599609375,-0.1455535888671875
1769667010681674200,3.90267431640625,0.9882354736328125,0.0593719482421875,-0.145416259765625
1769667010691663000,3.9126630859375,0.9924774169921875,0.0598297119140625,-0.146881103515625
1769667010701651200,3.922651123046875,0.99346923828125,0.06072998046875,-0.1454010009765625
1769667010711640000,3.93264013671875,0.9896087646484375,0.061187744140625,-0.1458587646484375
1769667010721628200,3.942628173828125,0.98876953125,0.0601806640625,-0.1454315185546875
1769667010731617300,3.9526171875,0.9882659912109375,0.060516357421875,-0.1465911865234375
1769667010741605000,3.962605224609375,0.9883575439453125,0.0604248046875,-0.146453857421875
1769667010751594000,3.972593994140625,0.9896240234375,0.059814453125,-0.14544677734375
1769667010761582000,3.98258203125,0.9897613525390625,0.060791015625,-0.145538330078125
1769667010771571200,3.9925712890625,0.990142822265625,0.06024169921875,-0.1451263427734375
1769667010781559300,4.002559326171875,0.9910888671875,0.0601043701171875,-0.1443939208984375
1769667010791548000,4.0125478515625,0.9906768798828125,0.060699462890625,-0.1442718505859375
1769667010801536000,4.022535888671875,0.9891815185546875,0.0601959228515625,-0.144775390625
1769667010811525000,4.032525146484375,0.990081787109375,0.0605316162109375,-0.145904541015625
1769667010821513200,4.04251318359375,0.99090576171875,0.0605926513671875,-0.1462860107421875
1769667010831502000,4.052502197265625,0.9928131103515625,0.0616455078125,-0.1467132568359375
1769667010841490000,4.062489990234375,0.9898681640625,0.06024169921875,-0.1468353271484375
1769667010851479000,4.07247900390625,0.989471435546875,0.060150146484375,-0.14495849609375
1769667010861467100,4.082467041015625,0.9892730712890625,0.060516357421875,-0.1459197998046875
1769667010871456300,4.092456298828125,0.9894866943359375,0.0610809326171875,-0.1459197998046875
1769667010881445000,4.102445068359375,0.988677978515625,0.0591888427734375,-0.1463165283203125
1769667010891433200,4.11243310546875,0.989898681640625,0.05963134765625,-0.145904541015625
1769667010901422000,4.122422119140625,0.9884490966796875,0.05938720703125,-0.14630126953125
1769667010911410200,4.13241015625,0.99041748046875,0.059722900390625,-0.145050048828125
1769667010921399000,4.14239892578125,0.9908447265625,0.0595550537109375,-0.1457366943359375
1769667010931387100,4.15238720703125,0.99139404296875,0.06103515625,-0.14483642578125
1769667010941376300,4.162376220703125,0.989410400390625,0.0609588623046875,-0.1450347900390625
1769667010951364000,4.172364013671875,0.9886474609375,0.0597686767578125,-0.1458740234375
1769667010961353000,4.18235302734375,0.98992919921875,0.059600830078125,-0.14630126953125
1769667010971341000,4.192341064453125,0.98956298828125,0.059906005859375,-0.1456146240234375
1769667010981330200,4.202330078125,0.99072265625,0.0596923828125,-0.1464080810546875
1769667010991318300,4.212318359375,0.9908294677734375,0.0600738525390625,-0.1464080810546875
1769667011001307100,4.22230712890625,0.98895263671875,0.0599517822265625,-0.144561767578125
1769667011011295000,4.232294921875,0.9887237548828125,0.0592041015625,-0.1459503173828125
1769667011021284000,4.2422841796875,0.98919677734375,0.06005859375,-0.145599365234375
1769667011031272200,4.252272216796875,0.9893798828125,0.0603485107421875,-0.1444091796875
1769667011041261300,4.26226123046875,0.988861083984375,0.059173583984375,-0.1454925537109375
1769667011051249200,4.272249267578125,0.9897613525390625,0.0603179931640625,-0.1463165283203125
1769667011061238000,4.282238037109375,0.992340087890625,0.0604400634765625,-0.146514892578125
1769667011071226000,4.29222607421875,0.9912872314453125,0.059967041015625,-0.1457061767578125
1769667011081215200,4.30221533203125,0.9913787841796875,0.059295654296875,-0.146575927734375
1769667011091203300,4.312203369140625,0.9906768798828125,0.060089111328125,-0.1464080810546875
1769667011101192200,4.322192138671875,0.9896697998046875,0.060089111328125,-0.1458282470703125
1769667011111180000,4.332179931640625,0.9897003173828125,0.060302734375,-0.1454010009765625
1769667011121169200,4.342169189453125,0.9908294677734375,0.060089111328125,-0.146881103515625
1769667011131157200,4.3521572265625,0.9951171875,0.0593719482421875,-0.146759033203125
1769667011141146000,4.36214599609375,0.988250732421875,0.05975341796875,-0.1433868408203125
1769667011151134000,4.372134033203125,0.9891357421875,0.059814453125,-0.1448211669921875
1769667011161123000,4.382123046875,0.991241455078125,0.05908203125,-0.1462249755859375
1769667011171111200,4.392111083984375,0.989410400390625,0.059356689453125,-0.145843505859375
1769667011181100000,4.40210009765625,0.989898681640625,0.0596466064453125,-0.1455841064453125
1769667011191088000,4.412088134765625,0.988800048828125,0.0600738525390625,-0.1462249755859375
1769667011201077200,4.4220771484375,0.9875335693359375,0.0606842041015625,-0.1451568603515625
1769667011211065000,4.432065185546875,0.9894866943359375,0.0610809326171875,-0.1450042724609375
1769667011221054000,4.442053955078125,0.9921875,0.060516357421875,-0.1453094482421875
1769667011231042000,4.4520419921875,0.9910736083984375,0.060546875,-0.145904541015625
1769667011241031200,4.46203125,0.9897308349609375,0.06048583984375,-0.1470794677734375
1769667011251019300,4.472019287109375,0.989776611328125,0.0602264404296875,-0.14593505859375
1769667011261008100,4.482008056640625,0.9901580810546875,0.060150146484375,-0.14556884765625
1769667011270997000,4.4919970703125,0.9910125732421875,0.0600738525390625,-0.146087646484375
1769667011280985000,4.501985107421875,0.9905548095703125,0.060150146484375,-0.1463775634765625
1769667011290974200,4.51197412109375,0.9901885986328125,0.05877685546875,-0.14544677734375
1769667011300962300,4.52196240234375,0.987640380859375,0.0595703125,-0.1449432373046875
1769667011310951200,4.531951171875,0.9875335693359375,0.059814453125,-0.1459503173828125
1769667011320939000,4.54193896484375,0.987701416015625,0.058746337890625,-0.145660400390625
1769667011330928000,4.55192822265625,0.988677978515625,0.060333251953125,-0.145751953125
1769667011340916200,4.561916259765625,0.990325927734375,0.0593414306640625,-0.14678955078125
1769667011350905000,4.571905029296875,0.9904937744140625,0.060577392578125,-0.1463775634765625
1769667011360893000,4.581892822265625,0.9912109375,0.05950927734375,-0.1447906494140625
1769667011370882000,4.591882080078125,0.9909515380859375,0.060577392578125,-0.144775390625
1769667011380870100,4.6018701171875,0.9906463623046875,0.0610809326171875,-0.144134521484375
1769667011390859000,4.61185888671875,0.9908599853515625,0.06158447265625,-0.14471435546875
1769667011400847000,4.62184716796875,0.992156982421875,0.0603790283203125,-0.14581298828125
1769667011410836200,4.631836181640625,0.9904632568359375,0.0597991943359375,-0.1451416015625
1769667011420824000,4.641823974609375,0.98553466796875,0.0594635009765625,-0.14398193359375
1769667011430813200,4.651813232421875,0.9886016845703125,0.0604095458984375,-0.1450958251953125
1769667011440801000,4.661801025390625,0.9893798828125,0.0595855712890625,-0.1454925537109375
1769667011450790100,4.6717900390625,0.990875244140625,0.05975341796875,-0.144134521484375
1769667011460778200,4.6817783203125,0.9916229248046875,0.0589447021484375,-0.1452789306640625
1769667011470767000,4.69176708984375,0.990386962890625,0.0596771240234375,-0.1463470458984375
1769667011480755200,4.701755126953125,0.988189697265625,0.059173583984375,-0.145904541015625
1769667011490744000,4.711744140625,0.9885101318359375,0.059783935546875,-0.1451568603515625
1769667011500732200,4.721732177734375,0.9904937744140625,0.060150146484375,-0.1447601318359375
1769667011510721300,4.73172119140625,0.9889373779296875,0.05987548828125,-0.1468658447265625
1769667011520709000,4.741709228515625,0.9910125732421875,0.060272216796875,-0.1463165283203125
1769667011530698000,4.751697998046875,0.9911651611328125,0.0608062744140625,-0.1447906494140625
1769667011540686300,4.761686279296875,0.990966796875,0.0603790283203125,-0.145050048828125
1769667011550675200,4.77167529296875,0.9910736083984375,0.060028076171875,-0.145660400390625
1769667011560663300,4.781663330078125,0.9893798828125,0.0599212646484375,-0.1455230712890625
1769667011570652200,4.791652099609375,0.988922119140625,0.0588836669921875,-0.1453094482421875
1769667011580640300,4.80164013671875,0.9898681640625,0.0584259033203125,-0.1460418701171875
1769667011590629400,4.81162939453125,0.99053955078125,0.059783935546875,-0.144317626953125
1769667011600617200,4.8216171875,0.9916839599609375,0.059234619140625,-0.1458892822265625
1769667011610606000,4.831606201171875,0.9923553466796875,0.05908203125,-0.145843505859375
1769667011620594200,4.84159423828125,0.9906768798828125,0.058746337890625,-0.14361572265625
1769667011630583300,4.851583251953125,0.9896240234375,0.0595703125,-0.1448211669921875
1769667011640571400,4.8615712890625,0.990020751953125,0.0599822998046875,-0.1451568603515625
1769667011650560300,4.871560302734375,0.9903717041015625,0.0593109130859375,-0.1440887451171875
1769667011660549000,4.881549072265625,0.9892578125,0.059844970703125,-0.14471435546875
1769667011670537200,4.891537109375,0.989044189453125,0.0593719482421875,-0.144500732421875
1769667011680526300,4.9015263671875,0.989166259765625,0.059539794921875,-0.144683837890625
1769667011690514400,4.911514404296875,0.990753173828125,0.059906005859375,-0.144439697265625
1769667011700503300,4.92150341796875,0.991363525390625,0.0594482421875,-0.1446990966796875
1769667011710491100,4.9314912109375,0.989776611328125,0.0589447021484375,-0.145233154296875
1769667011720480300,4.941480224609375,0.988983154296875,0.0608062744140625,-0.1456146240234375
1769667011730468400,4.95146826171875,0.98931884765625,0.05877685546875,-0.14581298828125
1769667011740457200,4.961457275390625,0.98944091796875,0.0599517822265625,-0.144378662109375
1769667011750445300,4.9714453125,0.9896697998046875,0.059906005859375,-0.1450958251953125
1769667011760434200,4.98143408203125,0.9892425537109375,0.0597991943359375,-0.1452789306640625
1769667011770422300,4.99142236328125,0.9909515380859375,0.05902099609375,-0.145111083984375
1769667011780411100,5.0014111328125,0.990692138671875,0.0595550537109375,-0.14508056640625
1769667011790399200,5.011399169921875,0.989776611328125,0.05987548828125,-0.1450347900390625
1769667011800388400,5.021388427734375,0.99005126953125,0.060394287109375,-0.145172119140625
1769667011810376200,5.031376220703125,0.988861083984375,0.0585479736328125,-0.145599365234375
1769667011820365300,5.041365234375,0.990936279296875,0.0595703125,-0.1454620361328125
1769667011830353200,5.051353271484375,0.993896484375,0.0599517822265625,-0.1461029052734375
1769667011840342300,5.06134228515625,0.99273681640625,0.0579833984375,-0.145355224609375
1769667011850330400,5.071330322265625,0.9901580810546875,0.0594329833984375,-0.1435699462890625
1769667011860319200,5.0813193359375,0.9906768798828125,0.058319091796875,-0.14556884765625
1769667011870307300,5.091307373046875,0.9906158447265625,0.058563232421875,-0.146087646484375
1769667011880296200,5.101296142578125,0.9868621826171875,0.059356689453125,-0.1453399658203125
1769667011890284300,5.1112841796875,0.9876251220703125,0.059906005859375,-0.1437225341796875
1769667011900273400,5.1212734375,0.989471435546875,0.0606842041015625,-0.1447906494140625
1769667011910261200,5.13126123046875,0.987274169921875,0.0599822998046875,-0.14453125
1769667011920250000,5.14125,0.988006591796875,0.05975341796875,-0.144500732421875
1769667011930238200,5.15123828125,0.991119384765625,0.059478759765625,-0.146484375
1769667011940227300,5.161227294921875,0.99200439453125,0.058929443359375,-0.1468048095703125
1769667011950215400,5.17121533203125,0.9928131103515625,0.0589599609375,-0.1452178955078125
1769667011960204300,5.181204345703125,0.99249267578125,0.05914306640625,-0.1448822021484375
1769667011970192100,5.191192138671875,0.990997314453125,0.0595245361328125,-0.1446380615234375
1769667011980181200,5.20118115234375,0.991058349609375,0.0584564208984375,-0.145721435546875
1769667011990169300,5.21116943359375,0.991485595703125,0.05902099609375,-0.1468048095703125
1769667012000158200,5.221158203125,0.9888763427734375,0.0590667724609375,-0.14599609375
1769667012010146000,5.23114599609375,0.986907958984375,0.0586700439453125,-0.144775390625
1769667012020135200,5.24113525390625,0.98748779296875,0.05804443359375,-0.1453094482421875
1769667012030123300,5.251123291015625,0.988311767578125,0.0595855712890625,-0.1455535888671875
1769667012040112400,5.2611123046875,0.9884033203125,0.0585174560546875,-0.1453094482421875
1769667012050101200,5.271101318359375,0.989593505859375,0.0582275390625,-0.1465301513671875
1769667012060089300,5.28108935546875,0.9918060302734375,0.0572509765625,-0.14593505859375
1769667012070078200,5.291078125,0.9895172119140625,0.05859375,-0.1459197998046875
1769667012080066300,5.30106640625,0.990081787109375,0.0572052001953125,-0.14532470703125
1769667012090055200,5.31105517578125,0.991912841796875,0.0587310791015625,-0.14569091796875
1769667012100043300,5.321043212890625,0.9920806884765625,0.0577850341796875,-0.146820068359375
1769667012110032400,5.331032470703125,0.9918060302734375,0.057586669921875,-0.145843505859375
1769667012120020200,5.341020263671875,0.9892425537109375,0.0591278076171875,-0.1435699462890625
1769667012130009000,5.351009033203125,0.986358642578125,0.058013916015625,-0.14404296875
1769667012139997200,5.3609970703125,0.9886627197265625,0.05706787109375,-0.144561767578125
1769667012149986300,5.370986328125,0.9918212890625,0.0589141845703125,-0.1457366943359375
1769667012159974400,5.380974365234375,0.98980712890625,0.0582275390625,-0.14501953125
1769667012169963300,5.39096337890625,0.988739013671875,0.0568695068359375,-0.14617919921875
1769667012179951000,5.400951171875,0.9905548095703125,0.058319091796875,-0.1449737548828125
1769667012189940200,5.410940185546875,0.989715576171875,0.0587158203125,-0.145172119140625
1769667012199928300,5.42092822265625,0.9894866943359375,0.057342529296875,-0.1460418701171875
1769667012209917200,5.430917236328125,0.988983154296875,0.056915283203125,-0.146240234375
1769667012219905000,5.440905029296875,0.9894256591796875,0.056854248046875,-0.1470947265625
1769667012229894100,5.45089404296875,0.9918212890625,0.0582122802734375,-0.1455230712890625
1769667012239882200,5.46088232421875,0.9927520751953125,0.0580596923828125,-0.14569091796875
1769667012249871400,5.470871337890625,0.9921722412109375,0.0579376220703125,-0.1454315185546875
1769667012259859200,5.480859130859375,0.98846435546875,0.058349609375,-0.1441802978515625
1769667012269848300,5.490848388671875,0.989593505859375,0.05780029296875,-0.146209716796875
1769667012279836200,5.500836181640625,0.9885406494140625,0.058441162109375,-0.145416259765625
1769667012289825300,5.5108251953125,0.9884033203125,0.056182861328125,-0.1457366943359375
1769667012299813400,5.5208134765625,0.9904937744140625,0.0576019287109375,-0.1453094482421875
1769667012309802200,5.53080224609375,0.9886627197265625,0.057281494140625,-0.14422607421875
1769667012319790300,5.540790283203125,0.9892730712890625,0.0571136474609375,-0.146636962890625
1769667012329779200,5.550779296875,0.9902496337890625,0.0584716796875,-0.1471710205078125
1769667012339767300,5.560767333984375,0.98980712890625,0.05731201171875,-0.145721435546875
1769667012349756200,5.570756103515625,0.989532470703125,0.057891845703125,-0.1448516845703125
1769667012359744300,5.580744140625,0.990570068359375,0.05914306640625,-0.1450958251953125
1769667012369733400,5.5907333984375,0.99066162109375,0.058685302734375,-0.1445159912109375
1769667012379721200,5.60072119140625,0.9888916015625,0.0572357177734375,-0.1456756591796875
1769667012389710000,5.6107099609375,0.9904327392578125,0.058319091796875,-0.14617919921875
1769667012399698200,5.6206982421875,0.9912261962890625,0.056854248046875,-0.146209716796875
1769667012409687300,5.630687255859375,0.9921417236328125,0.0581817626953125,-0.1469573974609375
1769667012419675400,5.64067529296875,0.991302490234375,0.0581512451171875,-0.1463165283203125
1769667012429664300,5.650664306640625,0.9918365478515625,0.058135986328125,-0.14501953125
1769667012439652000,5.660652099609375,0.989776611328125,0.0565643310546875,-0.1461029052734375
1769667012449641200,5.67064111328125,0.987640380859375,0.0576629638671875,-0.1447906494140625
1769667012459630300,5.68063037109375,0.9893341064453125,0.058441162109375,-0.1453399658203125
1769667012469618400,5.690618408203125,0.9896240234375,0.05810546875,-0.1449127197265625
1769667012479607300,5.700607177734375,0.989349365234375,0.0567169189453125,-0.14605712890625
1769667012489595100,5.71059521484375,0.989471435546875,0.058135986328125,-0.1457977294921875
1769667012499584300,5.720584228515625,0.9909210205078125,0.05828857421875,-0.147064208984375
1769667012509572400,5.730572265625,0.9896087646484375,0.05755615234375,-0.145660400390625
1769667012519561200,5.740561279296875,0.9887847900390625,0.059295654296875,-0.1462554931640625
1769667012529549300,5.75054931640625,0.98956298828125,0.0595550537109375,-0.146331787109375
1769667012539538200,5.7605380859375,0.991546630859375,0.05865478515625,-0.14739990234375
1769667012549526300,5.7705263671875,0.9950714111328125,0.0573577880859375,-0.146331787109375
1769667012559515100,5.78051513671875,0.9890594482421875,0.058258056640625,-0.144866943359375
1769667012569503200,5.790503173828125,0.990997314453125,0.0582733154296875,-0.1463623046875
1769667012579492400,5.800492431640625,0.992950439453125,0.0583648681640625,-0.145843505859375
1769667012589480200,5.810480224609375,0.9887542724609375,0.0569305419921875,-0.1469268798828125
1769667012599469300,5.82046923828125,0.9863128662109375,0.0584716796875,-0.1466522216796875
1769667012609457200,5.83045703125,0.9891204833984375,0.0576171875,-0.1461181640625
1769667012619446300,5.8404462890625,0.987548828125,0.0578155517578125,-0.1443328857421875
1769667012629434400,5.850434326171875,0.988037109375,0.0591278076171875,-0.1449127197265625
1769667012639423200,5.86042333984375,0.990234375,0.0592803955078125,-0.1460418701171875
1769667012649411300,5.870411376953125,0.9903564453125,0.0588836669921875,-0.146697998046875
1769667012659400200,5.880400146484375,0.9908447265625,0.0579376220703125,-0.1463623046875
1769667012669388300,5.89038818359375,0.991973876953125,0.05908203125,-0.1455535888671875
1769667012679377400,5.90037744140625,0.990631103515625,0.0582122802734375,-0.1456146240234375
1769667012689365200,5.910365234375,0.9898681640625,0.0583343505859375,-0.1450347900390625
1769667012699354000,5.92035400390625,0.9926300048828125,0.057403564453125,-0.146331787109375
1769667012709342200,5.93034228515625,0.990753173828125,0.057647705078125,-0.1461029052734375
1769667012719331300,5.940331298828125,0.9878692626953125,0.0591278076171875,-0.1449127197265625
1769667012729319400,5.9503193359375,0.9879608154296875,0.0580291748046875,-0.144744873046875
1769667012739308300,5.960308349609375,0.9884796142578125,0.0591583251953125,-0.145843505859375
1769667012749296000,5.970296142578125,0.98907470703125,0.0578155517578125,-0.1451568603515625
1769667012759285200,5.98028515625,0.99090576171875,0.057830810546875,-0.146453857421875
1769667012769273300,5.9902734375,0.9914398193359375,0.05810546875,-0.1461944580078125
1769667012779262200,6.00026220703125,0.9919586181640625,0.058197021484375,-0.1457672119140625
1769667012789250000,6.01025,0.9923858642578125,0.058135986328125,-0.14617919921875
1769667012799239200,6.0202392578125,0.989593505859375,0.05902099609375,-0.1456451416015625
1769667012809227300,6.030227294921875,0.98870849609375,0.0588531494140625,-0.1460113525390625
1769667012819216100,6.040216064453125,0.9882965087890625,0.0566253662109375,-0.1455841064453125
1769667012829204200,6.050204345703125,0.98980712890625,0.056915283203125,-0.14703369140625
1769667012839193300,6.060193359375,0.9885711669921875,0.0569305419921875,-0.14703369140625
1769667012849181200,6.07018115234375,0.9861602783203125,0.0584716796875,-0.1461639404296875
1769667012859170300,6.08017041015625,0.9901885986328125,0.0576629638671875,-0.146270751953125
1769667012869158100,6.090158203125,0.989959716796875,0.058319091796875,-0.1476898193359375
1769667012879147300,6.100147216796875,0.990570068359375,0.0583038330078125,-0.1461029052734375
1769667012889135400,6.11013525390625,0.989532470703125,0.058746337890625,-0.1463470458984375
1769667012899124200,6.120124267578125,0.988922119140625,0.05987548828125,-0.146728515625
1769667012909113000,6.130113037109375,0.9896087646484375,0.059112548828125,-0.1465606689453125
1769667012919101200,6.14010107421875,0.9901275634765625,0.059112548828125,-0.1472625732421875
1769667012929090300,6.15009033203125,0.99273681640625,0.0580291748046875,-0.145782470703125
1769667012939078400,6.160078369140625,0.9914093017578125,0.0581817626953125,-0.1468658447265625
1769667012949067300,6.1700673828125,0.990966796875,0.05859375,-0.1459808349609375
1769667012959055000,6.18005517578125,0.9907379150390625,0.05908203125,-0.14703369140625
1769667012969044200,6.190044189453125,0.988800048828125,0.0578155517578125,-0.147613525390625
1769667012979032300,6.2000322265625,0.990142822265625,0.0590362548828125,-0.1468353271484375
1769667012989021200,6.210021240234375,0.987823486328125,0.0575714111328125,-0.14544677734375
1769667012999009000,6.220009033203125,0.9896240234375,0.057708740234375,-0.146209716796875
1769667013008998100,6.229998046875,0.989715576171875,0.058837890625,-0.1466522216796875
1769667013018986200,6.239986328125,0.989410400390625,0.058135986328125,-0.146728515625
1769667013028975400,6.249975341796875,0.98870849609375,0.0588226318359375,-0.146026611328125
1769667013038963200,6.259963134765625,0.990020751953125,0.05828857421875,-0.1463623046875
1769667013048952300,6.269952392578125,0.9885101318359375,0.0584259033203125,-0.1464996337890625
1769667013058940200,6.279940185546875,0.990142822265625,0.058807373046875,-0.1475067138671875
1769667013068929300,6.28992919921875,0.99200439453125,0.05853271484375,-0.1469573974609375
1769667013078917400,6.29991748046875,0.9903411865234375,0.0580291748046875,-0.145477294921875
1769667013088906200,6.30990625,0.988800048828125,0.058074951171875,-0.145751953125
1769667013098894300,6.319894287109375,0.989013671875,0.0587005615234375,-0.146087646484375
1769667013108883200,6.32988330078125,0.9892120361328125,0.0570220947265625,-0.1463623046875
1769667013118871300,6.339871337890625,0.98944091796875,0.0587615966796875,-0.146636962890625
1769667013128860200,6.349860107421875,0.99041748046875,0.0583343505859375,-0.148284912109375
1769667013138848300,6.35984814453125,0.9892578125,0.06005859375,-0.147308349609375
1769667013148837400,6.36983740234375,0.9901885986328125,0.0579986572265625,-0.1472320556640625
1769667013158825200,6.3798251953125,0.9898529052734375,0.0576629638671875,-0.14678955078125
1769667013168814000,6.38981396484375,0.990997314453125,0.058868408203125,-0.1459197998046875
1769667013178802200,6.39980224609375,0.9897308349609375,0.0577239990234375,-0.147125244140625
1769667013188791300,6.409791259765625,0.9874420166015625,0.059112548828125,-0.1469879150390625
1769667013198779400,6.419779296875,0.988983154296875,0.0583648681640625,-0.146820068359375
1769667013208768300,6.429768310546875,0.989227294921875,0.0579986572265625,-0.1464080810546875
1769667013218756000,6.439756103515625,0.9902496337890625,0.058868408203125,-0.1466217041015625
1769667013228745200,6.4497451171875,0.9893035888671875,0.058837890625,-0.1468963623046875
1769667013238733300,6.4597333984375,0.991363525390625,0.0584716796875,-0.14697265625
1769667013248722400,6.469722412109375,0.989501953125,0.0584716796875,-0.1466064453125
1769667013258710300,6.479710205078125,0.9895782470703125,0.0576324462890625,-0.1465301513671875
1769667013268699100,6.48969921875,0.9878387451171875,0.0579071044921875,-0.145904541015625
1769667013278687200,6.499687255859375,0.9876861572265625,0.0587158203125,-0.1471099853515625
1769667013288676400,6.50967626953125,0.989349365234375,0.057769775390625,-0.14849853515625
1769667013298664400,6.51966455078125,0.9960784912109375,0.057769775390625,-0.1495819091796875
1769667013308653300,6.5296533203125,0.9903717041015625,0.05877685546875,-0.1468505859375
1769667013318641200,6.53964111328125,0.98736572265625,0.0586700439453125,-0.1455535888671875
1769667013328630300,6.54963037109375,0.9940643310546875,0.0583648681640625,-0.14813232421875
1769667013338618400,6.559618408203125,0.9896697998046875,0.0574798583984375,-0.146270751953125
1769667013348607200,6.569607177734375,0.98736572265625,0.057830810546875,-0.1475067138671875
1769667013358596400,6.579596435546875,0.9889678955078125,0.057830810546875,-0.1479644775390625
1769667013368584200,6.589584228515625,0.9895477294921875,0.058258056640625,-0.1474151611328125
1769667013378572300,6.599572265625,0.98895263671875,0.059417724609375,-0.1468353271484375
1769667013388561200,6.60956103515625,0.990264892578125,0.058349609375,-0.1482696533203125
1769667013398550300,6.61955029296875,0.9898529052734375,0.058074951171875,-0.14788818359375
1769667013408538400,6.629538330078125,0.9898223876953125,0.0584716796875,-0.147674560546875
1769667013418527500,6.639527587890625,0.98974609375,0.058258056640625,-0.14788818359375
1769667013428515000,6.64951513671875,0.990264892578125,0.0578765869140625,-0.1475372314453125
1769667013438504200,6.659504150390625,0.99127197265625,0.059326171875,-0.147552490234375
1769667013448492300,6.6694921875,0.9915618896484375,0.0580902099609375,-0.14825439453125
1769667013458481400,6.6794814453125,0.989532470703125,0.0572662353515625,-0.1476898193359375
1769667013468469200,6.68946923828125,0.9870758056640625,0.0579071044921875,-0.1483001708984375
1769667013478458000,6.6994580078125,0.9882965087890625,0.0576019287109375,-0.1471099853515625
1769667013488446200,6.7094462890625,0.989227294921875,0.0570220947265625,-0.1454925537109375
1769667013498435300,6.719435302734375,0.989776611328125,0.0585479736328125,-0.1464385986328125
1769667013508423400,6.72942333984375,0.9912567138671875,0.0570831298828125,-0.1467742919921875
1769667013518412300,6.739412353515625,0.9918212890625,0.0574798583984375,-0.14544677734375
1769667013528400100,6.749400146484375,0.991546630859375,0.056884765625,-0.1468048095703125
1769667013538389200,6.75938916015625,0.990692138671875,0.05816650390625,-0.148284912109375
1769667013548376800,6.769376953125,0.9898529052734375,0.058380126953125,-0.1478424072265625
1769667013558365700,6.77936572265625,0.990478515625,0.0588836669921875,-0.1474456787109375
1769667013568353500,6.789353515625,0.990570068359375,0.0577392578125,-0.1477203369140625
1769667013578342700,6.7993427734375,0.990234375,0.056884765625,-0.1469268798828125
1769667013588330800,6.809330810546875,0.9906463623046875,0.057891845703125,-0.146820068359375
1769667013598319900,6.81931982421875,0.9879608154296875,0.0577392578125,-0.14617919921875
1769667013608307700,6.8293076171875,0.98797607421875,0.0582427978515625,-0.1461944580078125
1769667013618296600,6.839296630859375,0.990142822265625,0.0573577880859375,-0.1467742919921875
1769667013628284700,6.84928466796875,0.9899139404296875,0.0586090087890625,-0.147918701171875
1769667013638273800,6.859273681640625,0.98895263671875,0.05828857421875,-0.1449127197265625
1769667013648262000,6.869261962890625,0.99072265625,0.05767822265625,-0.1474761962890625
1769667013658250800,6.879250732421875,0.991119384765625,0.0578460693359375,-0.1470794677734375
1769667013668238600,6.889238525390625,0.989959716796875,0.05908203125,-0.147491455078125
1769667013678227700,6.899227783203125,0.9920501708984375,0.0577850341796875,-0.1477508544921875
1769667013688215800,6.9092158203125,0.990692138671875,0.0585174560546875,-0.1474761962890625
1769667013698204700,6.91920458984375,0.98919677734375,0.057891845703125,-0.147064208984375
1769667013708192800,6.92919287109375,0.990509033203125,0.0575408935546875,-0.14752197265625
1769667013718181600,6.939181640625,0.989837646484375,0.058013916015625,-0.147613525390625
1769667013728169700,6.949169677734375,0.9915313720703125,0.057861328125,-0.14849853515625
1769667013738158600,6.95915869140625,0.9906463623046875,0.05816650390625,-0.1473846435546875
1769667013748146700,6.969146728515625,0.9898223876953125,0.05718994140625,-0.1470947265625
1769667013758135800,6.9791357421875,0.9899444580078125,0.057830810546875,-0.147979736328125
1769667013768123600,6.98912353515625,0.9915008544921875,0.057220458984375,-0.1466064453125
1769667013778112800,6.99911279296875,0.9897918701171875,0.05780029296875,-0.1474761962890625
1769667013788100600,7.0091005859375,0.9896240234375,0.0586395263671875,-0.147613525390625
1769667013798089700,7.01908984375,0.9897003173828125,0.0572052001953125,-0.147308349609375
1769667013808078800,7.029078857421875,0.98980712890625,0.0578155517578125,-0.146331787109375
1769667013818066700,7.039066650390625,0.9906158447265625,0.0582427978515625,-0.1474609375
1769667013828055600,7.0490556640625,0.989532470703125,0.05767822265625,-0.1482696533203125
1769667013838043600,7.059043701171875,0.9896697998046875,0.05706787109375,-0.1478424072265625
1769667013848032800,7.06903271484375,0.989532470703125,0.0584869384765625,-0.14691162109375
1769667013858020900,7.079020751953125,0.98956298828125,0.0575714111328125,-0.147552490234375
1769667013868009700,7.089009765625,0.99005126953125,0.05706787109375,-0.1464080810546875
1769667013877997600,7.09899755859375,0.9884796142578125,0.057373046875,-0.1478271484375
1769667013887986700,7.108986572265625,0.990692138671875,0.0571746826171875,-0.1482391357421875
1769667013897974800,7.118974853515625,0.9895477294921875,0.058013916015625,-0.1474609375
1769667013907963600,7.128963623046875,0.9902191162109375,0.05694580078125,-0.1483154296875
1769667013917951700,7.13895166015625,0.9895172119140625,0.0582122802734375,-0.1474456787109375
1769667013927940600,7.148940673828125,0.9889984130859375,0.0571136474609375,-0.148345947265625
1769667013937928700,7.1589287109375,0.990447998046875,0.0575103759765625,-0.148193359375
1769667013947917800,7.168917724609375,0.9899749755859375,0.056243896484375,-0.14788818359375
1769667013957905700,7.17890576171875,0.989959716796875,0.05609130859375,-0.1483306884765625
1769667013967894800,7.188894775390625,0.9904327392578125,0.057403564453125,-0.146820068359375
1769667013977882600,7.198882568359375,0.99029541015625,0.058258056640625,-0.1471405029296875
1769667013987871700,7.208871826171875,0.9895782470703125,0.0568389892578125,-0.1480560302734375
1769667013997859800,7.21885986328125,0.9895172119140625,0.05743408203125,-0.1485443115234375
1769667014007848700,7.2288486328125,0.9893646240234375,0.0563812255859375,-0.14764404296875
1769667014017836800,7.2388369140625,0.99066162109375,0.0568695068359375,-0.1471405029296875
1769667014027825700,7.24882568359375,0.989959716796875,0.0578460693359375,-0.1470489501953125
1769667014037813800,7.258813720703125,0.989471435546875,0.0571136474609375,-0.147979736328125
1769667014047802600,7.268802734375,0.9880218505859375,0.057769775390625,-0.1468353271484375
1769667014057790700,7.278790771484375,0.989410400390625,0.056182861328125,-0.1458740234375
1769667014067779800,7.28877978515625,0.9887542724609375,0.0577545166015625,-0.1472930908203125
1769667014077767700,7.298767578125,0.989288330078125,0.0572357177734375,-0.1474151611328125
1769667014087756500,7.308756591796875,0.990081787109375,0.0592498779296875,-0.1475982666015625
1769667014097744600,7.31874462890625,0.99072265625,0.0577392578125,-0.1482391357421875
1769667014107733800,7.328733642578125,0.9898529052734375,0.056640625,-0.1476287841796875
1769667014117721900,7.338721923828125,0.98828125,0.057525634765625,-0.1473236083984375
1769667014127710700,7.348710693359375,0.9866943359375,0.057098388671875,-0.147308349609375
1769667014137698600,7.358698486328125,0.986663818359375,0.0572509765625,-0.148223876953125
1769667014147687700,7.368687744140625,0.9927215576171875,0.057403564453125,-0.14935302734375
1769667014157675800,7.37867578125,0.9945831298828125,0.0559844970703125,-0.1468048095703125
1769667014167664600,7.38866455078125,0.98876953125,0.057769775390625,-0.14617919921875
1769667014177652500,7.398652587890625,0.991485595703125,0.05706787109375,-0.1486053466796875
1769667014187641600,7.4086416015625,0.9936981201171875,0.05706787109375,-0.149169921875
1769667014197629700,7.418629638671875,0.9896392822265625,0.057281494140625,-0.1459503173828125
1769667014207618800,7.428618896484375,0.9885101318359375,0.057952880859375,-0.147430419921875
1769667014217606700,7.438606689453125,0.98883056640625,0.057830810546875,-0.147674560546875
1769667014227595800,7.448595703125,0.9886474609375,0.057861328125,-0.1456146240234375
1769667014237583600,7.45858349609375,0.9906768798828125,0.058135986328125,-0.1461181640625
1769667014247572700,7.46857275390625,0.99066162109375,0.0567474365234375,-0.1465606689453125
1769667014257561600,7.4785615234375,0.9883270263671875,0.05792236328125,-0.146392822265625
1769667014267549700,7.4885498046875,0.9910736083984375,0.0579071044921875,-0.1468658447265625
1769667014277537800,7.498537841796875,0.9904327392578125,0.057647705078125,-0.1472930908203125
1769667014287526700,7.508526611328125,0.991302490234375,0.0583038330078125,-0.1470947265625
1769667014297515500,7.518515625,0.9907989501953125,0.0585479736328125,-0.1475067138671875
1769667014307503600,7.528503662109375,0.9916534423828125,0.057647705078125,-0.1479644775390625
1769667014317492700,7.53849267578125,0.988189697265625,0.057403564453125,-0.146453857421875
1769667014327480800,7.548480712890625,0.98712158203125,0.05682373046875,-0.1468963623046875
1769667014337469700,7.5584697265625,0.9887542724609375,0.0566558837890625,-0.14801025390625
1769667014347457500,7.56845751953125,0.9896087646484375,0.0574951171875,-0.1475067138671875
1769667014357446700,7.57844677734375,0.9884490966796875,0.0573272705078125,-0.1473236083984375
1769667014367434800,7.588434814453125,0.9888916015625,0.0576324462890625,-0.14703369140625
1769667014377424000,7.598423828125,0.990631103515625,0.05792236328125,-0.1479034423828125
1769667014387411700,7.60841162109375,0.9926910400390625,0.0575714111328125,-0.1475067138671875
1769667014397400600,7.618400634765625,0.991180419921875,0.0578155517578125,-0.1477813720703125
1769667014407388700,7.628388671875,0.990570068359375,0.0570220947265625,-0.14801025390625
1769667014417377800,7.638377685546875,0.990509033203125,0.0582427978515625,-0.148956298828125
1769667014427366000,7.648365966796875,0.991729736328125,0.0570526123046875,-0.1463623046875
1769667014437354800,7.658354736328125,0.9900665283203125,0.0581817626953125,-0.1472930908203125
1769667014447342600,7.668342529296875,0.9893798828125,0.05767822265625,-0.1462554931640625
1769667014457331700,7.678331787109375,0.988189697265625,0.0580291748046875,-0.1458892822265625
1769667014467319800,7.68831982421875,0.9904937744140625,0.0576629638671875,-0.1466217041015625
1769667014477308700,7.69830859375,0.9891510009765625,0.0579833984375,-0.1462860107421875
1769667014487296800,7.708296875,0.9883575439453125,0.056915283203125,-0.1468048095703125
1769667014497285600,7.71828564453125,0.9891204833984375,0.0580596923828125,-0.146697998046875
1769667014507273700,7.728273681640625,0.98828125,0.0569305419921875,-0.1479034423828125
1769667014517262600,7.7382626953125,0.9893646240234375,0.0573272705078125,-0.147064208984375
1769667014527250700,7.748250732421875,0.9913482666015625,0.056396484375,-0.148162841796875
1769667014537239800,7.75823974609375,0.9924774169921875,0.05682373046875,-0.1471099853515625
1769667014547228200,7.768228271484375,0.9909820556640625,0.058013916015625,-0.1468353271484375
1769667014557217000,7.778217041015625,0.990203857421875,0.056915283203125,-0.147125244140625
1769667014567205000,7.788205078125,0.991180419921875,0.0572662353515625,-0.1482696533203125
1769667014577194200,7.7981943359375,0.9911041259765625,0.0570831298828125,-0.14666748046875
1769667014587182300,7.808182373046875,0.9912261962890625,0.0578460693359375,-0.149444580078125
1769667014597171200,7.818171142578125,0.98858642578125,0.057708740234375,-0.147064208984375
1769667014607159000,7.828158935546875,0.9893646240234375,0.056549072265625,-0.1472320556640625
1769667014617148200,7.838148193359375,0.98828125,0.0565338134765625,-0.1470794677734375
1769667014627136300,7.84813623046875,0.988525390625,0.057281494140625,-0.146728515625
1769667014637125400,7.85812548828125,0.9888916015625,0.057037353515625,-0.1481170654296875
1769667014647113200,7.86811328125,0.9897308349609375,0.05712890625,-0.1467742919921875
1769667014657102000,7.87810205078125,0.9891357421875,0.05810546875,-0.1466217041015625
1769667014667091200,7.88809130859375,0.9908905029296875,0.0578765869140625,-0.14886474609375
1769667014677079300,7.898079345703125,0.990966796875,0.0568695068359375,-0.1466827392578125
1769667014687067400,7.9080673828125,0.9906005859375,0.05816650390625,-0.146209716796875
1769667014697056300,7.91805615234375,0.9909515380859375,0.0576324462890625,-0.146209716796875
1769667014707045400,7.92804541015625,0.99078369140625,0.056884765625,-0.145782470703125
1769667014717033200,7.938033203125,0.9898681640625,0.0580291748046875,-0.1466827392578125
1769667014727022000,7.94802197265625,0.9903717041015625,0.0572662353515625,-0.146697998046875
1769667014737010200,7.95801025390625,0.9893798828125,0.0585174560546875,-0.1473236083984375
1769667014746999300,7.967999267578125,0.9895782470703125,0.057098388671875,-0.148223876953125
1769667014756987100,7.977987060546875,0.988677978515625,0.0570526123046875,-0.147308349609375
1769667014766976000,7.98797607421875,0.990081787109375,0.0575408935546875,-0.1466827392578125
1769667014776964000,7.997964111328125,0.9894866943359375,0.0571136474609375,-0.146942138671875
1769667014786953200,8.007953125,0.98956298828125,0.0574493408203125,-0.147308349609375
1769667014796941300,8.01794140625,0.989410400390625,0.058135986328125,-0.14654541015625
1769667014806930200,8.02793017578125,0.98974609375,0.0576019287109375,-0.146697998046875
1769667014816918000,8.03791796875,0.9901275634765625,0.05731201171875,-0.1468658447265625
1769667014826907100,8.0479072265625,0.9904937744140625,0.057037353515625,-0.146026611328125
1769667014836895200,8.057895263671876,0.9898834228515625,0.0573272705078125,-0.1465606689453125
1769667014846884400,8.06788427734375,0.9898834228515625,0.056793212890625,-0.1466064453125
1769667014856872400,8.07787255859375,0.9893035888671875,0.056915283203125,-0.14739990234375
1769667014866861000,8.087861083984375,0.9898681640625,0.05865478515625,-0.1467437744140625
1769667014876849200,8.09784912109375,0.991058349609375,0.0571136474609375,-0.1472625732421875
1769667014886838300,8.10783837890625,0.990753173828125,0.0570220947265625,-0.1470947265625
1769667014896826400,8.117826416015625,0.9905242919921875,0.0575103759765625,-0.1480560302734375
1769667014906815200,8.127815185546876,0.990875244140625,0.056121826171875,-0.146728515625
1769667014916803000,8.137802978515625,0.990509033203125,0.057952880859375,-0.147003173828125
1769667014926792200,8.147792236328126,0.990020751953125,0.0576629638671875,-0.146392822265625
1769667014936780300,8.1577802734375,0.9904937744140625,0.0583038330078125,-0.1468048095703125
1769667014946769200,8.16776904296875,0.98992919921875,0.0581207275390625,-0.1468963623046875
1769667014956757200,8.17775732421875,0.989990234375,0.05792236328125,-0.145721435546875
1769667014966746000,8.18774609375,0.9893798828125,0.0573883056640625,-0.14642333984375
1769667014976734200,8.197734130859375,0.9903564453125,0.05706787109375,-0.146942138671875
1769667014986723000,8.20772314453125,0.9903411865234375,0.0572967529296875,-0.147125244140625
1769667014996711200,8.217711181640626,0.9894256591796875,0.0576171875,-0.147613525390625
1769667015006700300,8.2277001953125,0.9903717041015625,0.0567474365234375,-0.14764404296875
1769667015016688000,8.237688232421876,0.9922637939453125,0.057525634765625,-0.1450347900390625
1769667015026677200,8.24767724609375,0.9912261962890625,0.0573272705078125,-0.14581298828125
1769667015036665000,8.2576650390625,0.9900360107421875,0.0572357177734375,-0.145111083984375
1769667015046654200,8.267654296875,0.98980712890625,0.0564422607421875,-0.1451263427734375
1769667015056643300,8.277643310546875,0.9924774169921875,0.056976318359375,-0.14569091796875
1769667015066631400,8.28763134765625,0.9909820556640625,0.0578155517578125,-0.14569091796875
1769667015076620000,8.2976201171875,0.990142822265625,0.0572052001953125,-0.1473388671875
1769667015086608100,8.307608154296876,0.989501953125,0.05743408203125,-0.1459197998046875
1769667015096597200,8.31759716796875,0.9900360107421875,0.0582275390625,-0.1469573974609375
1769667015106585300,8.32758544921875,0.9904632568359375,0.0570526123046875,-0.146636962890625
1769667015116574200,8.33757421875,0.9893951416015625,0.0565338134765625,-0.146942138671875
1769667015126562000,8.34756201171875,0.990386962890625,0.0565948486328125,-0.146331787109375
1769667015136551200,8.35755126953125,0.989959716796875,0.0584564208984375,-0.1463165283203125
1769667015146539300,8.367539306640625,0.9903564453125,0.057861328125,-0.1468658447265625
1769667015156528000,8.377528076171876,0.99090576171875,0.0579681396484375,-0.146759033203125
1769667015166516200,8.38751611328125,0.9918670654296875,0.0575408935546875,-0.1466827392578125
1769667015176505300,8.39750537109375,0.989959716796875,0.058319091796875,-0.1475830078125
1769667015186493200,8.4074931640625,0.989654541015625,0.0562744140625,-0.1467132568359375
1769667015196482300,8.417482421875,0.9892578125,0.05615234375,-0.1474761962890625
1769667015206470100,8.42747021484375,0.9876556396484375,0.057098388671875,-0.1476287841796875
1769667015216459300,8.437459228515625,0.9886016845703125,0.0577850341796875,-0.1468963623046875
1769667015226447000,8.447447021484376,0.9906158447265625,0.056671142578125,-0.146270751953125
1769667015236436200,8.457436279296875,0.9904327392578125,0.0561676025390625,-0.145965576171875
1769667015246424300,8.46742431640625,0.9896697998046875,0.0567474365234375,-0.1463623046875
1769667015256413200,8.4774130859375,0.9919586181640625,0.0570526123046875,-0.14794921875
1769667015266401300,8.4874013671875,0.989715576171875,0.0572052001953125,-0.1476287841796875
1769667015276390400,8.497390380859375,0.9907989501953125,0.05731201171875,-0.146240234375
1769667015286378200,8.507378173828124,0.988983154296875,0.0572052001953125,-0.144866943359375
1769667015296367000,8.5173671875,0.990875244140625,0.057342529296875,-0.14678955078125
1769667015306355200,8.527355224609375,0.991607666015625,0.0570220947265625,-0.1482086181640625
1769667015316344300,8.53734423828125,0.9886016845703125,0.056549072265625,-0.147369384765625
1769667015326332200,8.547332275390625,0.988067626953125,0.056976318359375,-0.147064208984375
1769667015336321000,8.557321044921874,0.989288330078125,0.056854248046875,-0.146881103515625
1769667015346309000,8.56730908203125,0.98834228515625,0.0565948486328125,-0.144561767578125
1769667015356298200,8.57729833984375,0.9887542724609375,0.0576934814453125,-0.1462554931640625
1769667015366286300,8.587286376953125,0.98956298828125,0.0570526123046875,-0.1465911865234375
1769667015376275200,8.597275146484375,0.9934234619140625,0.056121826171875,-0.1462249755859375
1769667015386264300,8.607264404296876,0.9929046630859375,0.0577239990234375,-0.1469268798828125
1769667015396252200,8.617252197265625,0.992156982421875,0.0566253662109375,-0.146331787109375
1769667015406241300,8.6272412109375,0.9925079345703125,0.0570220947265625,-0.146270751953125
1769667015416229400,8.6372294921875,0.9914093017578125,0.0585174560546875,-0.1466522216796875
1769667015426218200,8.64721826171875,0.989013671875,0.0574951171875,-0.14764404296875
1769667015436206000,8.6572060546875,0.99041748046875,0.0558013916015625,-0.147308349609375
1769667015446195200,8.6671953125,0.98883056640625,0.0566253662109375,-0.1459197998046875
1769667015456183300,8.677183349609376,0.9870758056640625,0.05694580078125,-0.1461334228515625
1769667015466172200,8.687172119140625,0.9881591796875,0.0563507080078125,-0.1445159912109375
1769667015476160300,8.69716015625,0.9906158447265625,0.0567626953125,-0.14593505859375
1769667015486149400,8.7071494140625,0.991363525390625,0.057525634765625,-0.1460418701171875
1769667015496137200,8.71713720703125,0.9915924072265625,0.0570068359375,-0.14501953125
1769667015506126000,8.7271259765625,0.99273681640625,0.0575103759765625,-0.146453857421875
1769667015516114200,8.7371142578125,0.99114990234375,0.057373046875,-0.146881103515625
1769667015526103300,8.747103271484375,0.988983154296875,0.0582122802734375,-0.1442108154296875
1769667015536091400,8.75709130859375,0.9901275634765625,0.05755615234375,-0.1450347900390625
1769667015546080000,8.767080078125,0.9906768798828125,0.0582733154296875,-0.145721435546875
1769667015556067800,8.77706787109375,0.992218017578125,0.0570526123046875,-0.1457061767578125
1769667015566057000,8.787056884765626,0.9870147705078125,0.0565948486328125,-0.144866943359375
1769667015576044800,8.797044921875,0.9874267578125,0.057708740234375,-0.1443328857421875
1769667015586034000,8.807033935546874,0.990936279296875,0.05743408203125,-0.1458282470703125
1769667015596022000,8.81702197265625,0.9902801513671875,0.0571136474609375,-0.1458587646484375
1769667015606011000,8.827010986328125,0.98992919921875,0.0571441650390625,-0.145416259765625
1769667015615999000,8.8369990234375,0.9892425537109375,0.05718994140625,-0.14569091796875
1769667015625987800,8.84698779296875,0.990142822265625,0.0576629638671875,-0.146636962890625
1769667015635976000,8.856975830078126,0.9903106689453125,0.0565032958984375,-0.146026611328125
1769667015645964800,8.86696484375,0.9893341064453125,0.0555877685546875,-0.14544677734375
1769667015655953000,8.876952880859376,0.9906463623046875,0.0568084716796875,-0.14569091796875
1769667015665942000,8.88694189453125,0.99114990234375,0.0572509765625,-0.145355224609375
1769667015675929900,8.896929931640624,0.9900970458984375,0.057403564453125,-0.1454010009765625
1769667015685918700,8.906918701171875,0.9906463623046875,0.0567474365234375,-0.14642333984375
1769667015695906800,8.91690673828125,0.9915618896484375,0.0576019287109375,-0.14617919921875
1769667015705896000,8.92689599609375,0.9907989501953125,0.0569000244140625,-0.145050048828125
1769667015715884000,8.936884033203125,0.989227294921875,0.0572662353515625,-0.1457977294921875
1769667015725873000,8.946872802734376,0.9887542724609375,0.0579986572265625,-0.1464080810546875
1769667015735860700,8.95686083984375,0.9891357421875,0.0569000244140625,-0.1471710205078125
1769667015745849900,8.966849853515624,0.989349365234375,0.05731201171875,-0.1453399658203125
1769667015755838000,8.976837890625,0.99066162109375,0.057464599609375,-0.147216796875
1769667015765826800,8.986826904296874,0.9904937744140625,0.055999755859375,-0.1467742919921875
1769667015775816000,8.99681591796875,0.9905548095703125,0.055694580078125,-0.146270751953125
1769667015785803800,9.0068037109375,0.9902801513671875,0.0577392578125,-0.1447601318359375
1769667015795793000,9.01679296875,0.9894866943359375,0.056793212890625,-0.1462554931640625
1769667015805781000,9.026781005859375,0.9885101318359375,0.0560150146484375,-0.1458892822265625
1769667015815769900,9.036769775390624,0.989593505859375,0.0576934814453125,-0.1468048095703125
1769667015825758000,9.046758056640625,0.99090576171875,0.0565032958984375,-0.1468505859375
1769667015835746800,9.056746826171874,0.99072265625,0.055816650390625,-0.1447906494140625
1769667015845735000,9.06673486328125,0.9894256591796875,0.05706787109375,-0.1454010009765625
1769667015855723800,9.076723876953125,0.9892120361328125,0.0568389892578125,-0.14630126953125
1769667015865711900,9.0867119140625,0.990814208984375,0.056884765625,-0.1452484130859375
1769667015875701000,9.096700927734375,0.990692138671875,0.0574951171875,-0.145843505859375
1769667015885688800,9.106688720703126,0.989044189453125,0.0562896728515625,-0.14617919921875
1769667015895677700,9.116677734375,0.9908905029296875,0.056884765625,-0.14569091796875
1769667015905665800,9.126665771484374,0.991058349609375,0.057373046875,-0.14617919921875
1769667015915655000,9.136655029296875,0.99053955078125,0.0571136474609375,-0.1465606689453125
1769667015925643000,9.14664306640625,0.9902496337890625,0.056884765625,-0.1456756591796875
1769667015935632000,9.1566318359375,0.991485595703125,0.0572662353515625,-0.14520263671875
1769667015945619700,9.16661962890625,0.9904632568359375,0.057220458984375,-0.1463165283203125
1769667015955608800,9.17660888671875,0.990386962890625,0.0567474365234375,-0.1461944580078125
1769667015965597000,9.186596923828125,0.9893341064453125,0.0557403564453125,-0.147247314453125
1769667015975586000,9.1965859375,0.9908599853515625,0.057037353515625,-0.145782470703125
1769667015985574000,9.206573974609375,0.9918060302734375,0.056549072265625,-0.146148681640625
1769667015995562800,9.216562744140624,0.9902191162109375,0.05657958984375,-0.1458282470703125
1769667016005550800,9.22655078125,0.9898529052734375,0.057220458984375,-0.146148681640625
1769667016015540000,9.2365400390625,0.990997314453125,0.0559844970703125,-0.1468658447265625
1769667016025528000,9.246528076171876,0.989837646484375,0.0565643310546875,-0.146636962890625
1769667016035517000,9.256516845703125,0.9883575439453125,0.056640625,-0.1468963623046875
1769667016045504800,9.2665048828125,0.9893341064453125,0.0572357177734375,-0.145294189453125
1769667016055494000,9.276493896484375,0.9908599853515625,0.0563507080078125,-0.145050048828125
1769667016065482000,9.28648193359375,0.991058349609375,0.0565185546875,-0.14471435546875
1769667016075470800,9.296470947265625,0.9897003173828125,0.0557098388671875,-0.145904541015625
1769667016085459000,9.306458984375,0.9907379150390625,0.0561370849609375,-0.1474151611328125
1769667016095447800,9.31644775390625,0.990447998046875,0.0562286376953125,-0.146514892578125
1769667016105436000,9.326435791015625,0.989471435546875,0.0568389892578125,-0.1457977294921875
1769667016115424800,9.3364248046875,0.9886627197265625,0.0554962158203125,-0.14642333984375
1769667016125414000,9.346413818359375,0.98919677734375,0.0557708740234375,-0.1473236083984375
1769667016135402000,9.356402099609374,0.98931884765625,0.056243896484375,-0.1442718505859375
1769667016145391000,9.36639111328125,0.9900360107421875,0.055938720703125,-0.1456146240234375
1769667016155379000,9.37637890625,0.9891357421875,0.0557861328125,-0.147430419921875
1769667016165367800,9.386367919921875,0.9901123046875,0.055877685546875,-0.1464080810546875
1769667016175356000,9.39635595703125,0.98870849609375,0.0574951171875,-0.1450347900390625
1769667016185345000,9.406344970703126,0.98931884765625,0.05657958984375,-0.145538330078125
1769667016195332900,9.416332763671875,0.99090576171875,0.05657958984375,-0.147491455078125
1769667016205321700,9.42632177734375,0.9899749755859375,0.0570220947265625,-0.14666748046875
1769667016215309800,9.436309814453125,0.9909515380859375,0.057373046875,-0.1461029052734375
1769667016225299000,9.446298828125,0.9901580810546875,0.05584716796875,-0.1453094482421875
1769667016235287000,9.456287109375,0.985870361328125,0.0567779541015625,-0.1445465087890625
1769667016245276000,9.46627587890625,0.990936279296875,0.05682373046875,-0.1469879150390625
1769667016255263700,9.476263671875,0.991943359375,0.0548553466796875,-0.1466522216796875
1769667016265252900,9.4862529296875,0.985443115234375,0.0574951171875,-0.146087646484375
1769667016275241000,9.496240966796876,0.9864959716796875,0.056488037109375,-0.146942138671875
1769667016285229800,9.506229736328125,0.991302490234375,0.054779052734375,-0.1463470458984375
1769667016295218000,9.516218017578124,0.9902801513671875,0.056396484375,-0.1456756591796875
1769667016305206800,9.526206787109375,0.9887847900390625,0.0585784912109375,-0.1454925537109375
1769667016315195000,9.53619482421875,0.9901580810546875,0.05645751953125,-0.146881103515625
1769667016325183700,9.546183837890625,0.9918670654296875,0.055267333984375,-0.146575927734375
1769667016335171800,9.556171875,0.991851806640625,0.0574951171875,-0.1471405029296875
1769667016345161000,9.566160888671876,0.9932098388671875,0.0570831298828125,-0.1458587646484375
1769667016355148800,9.576148681640625,0.9909210205078125,0.055938720703125,-0.1464080810546875
1769667016365138000,9.586137939453126,0.9891510009765625,0.05712890625,-0.14544677734375
1769667016375125800,9.596125732421875,0.988555908203125,0.0560760498046875,-0.146881103515625
1769667016385115000,9.606114990234374,0.989227294921875,0.0562744140625,-0.146697998046875
1769667016395103000,9.61610302734375,0.98779296875,0.0561065673828125,-0.146087646484375
1769667016405091800,9.626091796875,0.9878082275390625,0.05633544921875,-0.146453857421875
1769667016415080000,9.636079833984375,0.989410400390625,0.057159423828125,-0.1464385986328125
1769667016425068800,9.64606884765625,0.9892425537109375,0.0567779541015625,-0.1468963623046875
1769667016435057000,9.656056884765626,0.989959716796875,0.0563507080078125,-0.1463165283203125
1769667016445046000,9.6660458984375,0.9904022216796875,0.0573577880859375,-0.1461334228515625
1769667016455033900,9.676033935546876,0.9913330078125,0.0572967529296875,-0.1465911865234375
1769667016465022700,9.686022705078125,0.9918212890625,0.0563507080078125,-0.146087646484375
1769667016475010800,9.6960107421875,0.990966796875,0.058074951171875,-0.144683837890625
1769667016485000000,9.706,0.98974609375,0.057708740234375,-0.14556884765625
1769667016494988800,9.71598876953125,0.989837646484375,0.056671142578125,-0.14520263671875
1769667016504977000,9.725976806640626,0.9897003173828125,0.0563812255859375,-0.14654541015625
1769667016514965800,9.7359658203125,0.9900360107421875,0.056549072265625,-0.14727783203125
1769667016524953900,9.745953857421876,0.987640380859375,0.0570220947265625,-0.14501953125
1769667016534943000,9.75594287109375,0.9862213134765625,0.0566864013671875,-0.1458740234375
1769667016544931600,9.765931640625,0.9912567138671875,0.0554046630859375,-0.147918701171875
1769667016554920700,9.775920654296876,0.9902496337890625,0.056396484375,-0.1474151611328125
1769667016564908800,9.78590869140625,0.9901885986328125,0.056365966796875,-0.1465606689453125
1769667016574897700,9.795897705078126,0.989410400390625,0.05694580078125,-0.146728515625
1769667016584885800,9.8058857421875,0.9879302978515625,0.057159423828125,-0.1472015380859375
1769667016594875000,9.815875,0.9900360107421875,0.05743408203125,-0.1458587646484375
1769667016604862700,9.82586279296875,0.98956298828125,0.057220458984375,-0.146881103515625
1769667016614851800,9.835851806640624,0.9911651611328125,0.0562744140625,-0.1468505859375
1769667016624839700,9.845839599609375,0.9925384521484375,0.056671142578125,-0.146148681640625
1769667016634828800,9.855828857421875,0.9916534423828125,0.0565032958984375,-0.14642333984375
1769667016644816600,9.865816650390625,0.9914093017578125,0.0570831298828125,-0.1466217041015625
1769667016654805800,9.8758056640625,0.9903106689453125,0.05572509765625,-0.1467742919921875
1769667016664793900,9.8857939453125,0.989501953125,0.056427001953125,-0.147705078125
1769667016674782700,9.89578271484375,0.9891510009765625,0.05596923828125,-0.146270751953125
1769667016684770800,9.905770751953124,0.9900054931640625,0.056884765625,-0.14642333984375
1769667016694760000,9.915760009765625,0.989898681640625,0.0568084716796875,-0.1469268798828125
1769667016704747800,9.925747802734374,0.9887847900390625,0.056488037109375,-0.1456756591796875
1769667016714736600,9.935736572265625,0.989166259765625,0.055908203125,-0.1465911865234375
1769667016724724700,9.945724853515625,0.989837646484375,0.0567474365234375,-0.1460418701171875
1769667016734713900,9.9557138671875,0.9893341064453125,0.056671142578125,-0.1468048095703125
1769667016744702000,9.965701904296875,0.9904632568359375,0.0556640625,-0.1470489501953125
1769667016754690600,9.975690673828124,0.9908294677734375,0.0558929443359375,-0.14654541015625
1769667016764678700,9.9856787109375,0.990478515625,0.057342529296875,-0.1465911865234375
1769667016774667800,9.995667724609374,0.988525390625,0.0570068359375,-0.1479644775390625
1769667016784656000,10.00565576171875,0.9895782470703125,0.0550689697265625,-0.147125244140625
1769667016794644700,10.015644775390625,0.9897003173828125,0.0574188232421875,-0.1474609375
1769667016804632600,10.025632568359375,0.989501953125,0.0567169189453125,-0.14715576171875
1769667016814621700,10.03562158203125,0.9906158447265625,0.0564422607421875,-0.147552490234375
1769667016824609800,10.04560986328125,0.9891204833984375,0.0582427978515625,-0.146820068359375
1769667016834598700,10.0555986328125,0.98919677734375,0.0565185546875,-0.1472625732421875
1769667016844586800,10.065586669921874,0.9905853271484375,0.05755615234375,-0.1478729248046875
1769667016854575600,10.07557568359375,0.990081787109375,0.0560150146484375,-0.147125244140625
1769667016864564700,10.085564697265625,0.989715576171875,0.055877685546875,-0.1476287841796875
1769667016874552800,10.095552734375,0.9903564453125,0.0569305419921875,-0.1481475830078125
1769667016884541700,10.105541748046875,0.990325927734375,0.0579681396484375,-0.1468505859375
1769667016894529800,10.11552978515625,0.9890594482421875,0.057769775390625,-0.1461334228515625
1769667016904519000,10.125518798828125,0.9893646240234375,0.0563507080078125,-0.1456146240234375
1769667016914506800,10.1355068359375,0.989959716796875,0.057281494140625,-0.1458892822265625
1769667016924495600,10.14549560546875,0.9888763427734375,0.0566864013671875,-0.1468963623046875
1769667016934483700,10.155483642578124,0.990264892578125,0.056793212890625,-0.1467437744140625
1769667016944472800,10.165472900390625,0.98931884765625,0.0574798583984375,-0.147308349609375
1769667016954461000,10.1754609375,0.98931884765625,0.05712890625,-0.148529052734375
1769667016964449500,10.185449462890626,0.990325927734375,0.057037353515625,-0.1468658447265625
1769667016974437600,10.195437744140625,0.9891357421875,0.05755615234375,-0.1476593017578125
1769667016984426800,10.2054267578125,0.9910125732421875,0.0569305419921875,-0.1484527587890625
1769667016994414800,10.215414794921875,0.990631103515625,0.056610107421875,-0.1462860107421875
1769667017004403700,10.22540380859375,0.9890289306640625,0.0573272705078125,-0.1478729248046875
1769667017014391600,10.2353916015625,0.9895477294921875,0.057159423828125,-0.148101806640625
1769667017024380700,10.245380615234374,0.9912109375,0.0567169189453125,-0.1469879150390625
1769667017034368800,10.25536865234375,0.990264892578125,0.0567626953125,-0.147552490234375
1769667017044358000,10.26535791015625,0.9886474609375,0.056610107421875,-0.14739990234375
1769667017054345700,10.275345703125,0.9898681640625,0.0565643310546875,-0.1475830078125
1769667017064334800,10.2853349609375,0.988555908203125,0.05633544921875,-0.1492767333984375
1769667017074322700,10.29532275390625,0.9879913330078125,0.0567474365234375,-0.1471710205078125
1769667017084311800,10.305311767578125,0.989349365234375,0.0572052001953125,-0.1470184326171875
1769667017094300000,10.3152998046875,0.99072265625,0.0572509765625,-0.147125244140625
1769667017104288800,10.325288818359375,0.991790771484375,0.0576629638671875,-0.1472930908203125
1769667017114276600,10.335276611328124,0.9896392822265625,0.057037353515625,-0.147064208984375
1769667017124265700,10.345265625,0.987518310546875,0.0578765869140625,-0.1468658447265625
1769667017134253800,10.35525390625,0.98876953125,0.0575714111328125,-0.148193359375
1769667017144242700,10.36524267578125,0.9899444580078125,0.0561676025390625,-0.148651123046875
1769667017154230800,10.375230712890625,0.9930877685546875,0.05609130859375,-0.1488037109375
1769667017164220000,10.385219970703124,0.9924163818359375,0.0562286376953125,-0.146820068359375
1769667017174207700,10.395207763671875,0.9874114990234375,0.057342529296875,-0.1468048095703125
1769667017184196600,10.405196533203124,0.9934234619140625,0.0555572509765625,-0.148834228515625
1769667017194184700,10.415184814453125,0.99066162109375,0.055419921875,-0.1484222412109375
1769667017204173800,10.425173828125,0.9884796142578125,0.056793212890625,-0.1478729248046875
1769667017214161700,10.43516162109375,0.988616943359375,0.056304931640625,-0.1489105224609375
1769667017224150800,10.44515087890625,0.98931884765625,0.05548095703125,-0.1486053466796875
1769667017234138600,10.455138671875,0.98944091796875,0.057342529296875,-0.1464080810546875
1769667017244127700,10.465127685546875,0.9889984130859375,0.05706787109375,-0.1471405029296875
1769667017254116900,10.475116943359374,0.98980712890625,0.0554962158203125,-0.147796630859375
1769667017264105000,10.48510498046875,0.98974609375,0.0558624267578125,-0.147857666015625
1769667017274093800,10.49509375,0.990325927734375,0.0572357177734375,-0.1486663818359375
1769667017284081700,10.50508154296875,0.9908294677734375,0.0558013916015625,-0.1468658447265625
1769667017294070800,10.51507080078125,0.9893798828125,0.056396484375,-0.1487274169921875
1769667017304059000,10.525058837890626,0.9900054931640625,0.0572662353515625,-0.147705078125
1769667017314047700,10.5350478515625,0.9907073974609375,0.05804443359375,-0.1484832763671875
1769667017324035600,10.54503564453125,0.9920196533203125,0.0569610595703125,-0.14935302734375
1769667017334024700,10.555024658203125,0.9901123046875,0.05560302734375,-0.1488189697265625
1769667017344012800,10.5650126953125,0.989166259765625,0.055145263671875,-0.1468048095703125
1769667017354001700,10.575001708984376,0.988677978515625,0.05633544921875,-0.147857666015625
1769667017363989800,10.58498974609375,0.9903106689453125,0.0559234619140625,-0.147918701171875
1769667017373979000,10.594978759765626,0.989471435546875,0.05682373046875,-0.147064208984375
1769667017383966700,10.604966796875,0.98944091796875,0.0563812255859375,-0.146759033203125
1769667017393955600,10.61495556640625,0.990509033203125,0.055999755859375,-0.14801025390625
1769667017403943700,10.624943603515625,0.990631103515625,0.0568084716796875,-0.1476593017578125
1769667017413932800,10.634932861328124,0.9897918701171875,0.056396484375,-0.146484375
1769667017423920600,10.644920654296875,0.9896087646484375,0.0563812255859375,-0.146942138671875
1769667017433909800,10.65490966796875,0.9898223876953125,0.0561370849609375,-0.14764404296875
1769667017443897600,10.664897705078126,0.9897308349609375,0.056610107421875,-0.147308349609375
1769667017453886700,10.67488671875,0.9911346435546875,0.0558929443359375,-0.1477508544921875
1769667017463874800,10.684874755859376,0.9925689697265625,0.0554962158203125,-0.148223876953125
1769667017473864000,10.694864013671875,0.9873199462890625,0.057464599609375,-0.146942138671875
1769667017483851800,10.704851806640624,0.9894561767578125,0.0571441650390625,-0.1473541259765625
1769667017493840600,10.714840576171875,0.989227294921875,0.055816650390625,-0.14752197265625
1769667017503828700,10.724828857421874,0.990447998046875,0.0562591552734375,-0.1481170654296875
1769667017513817900,10.73481787109375,0.9894256591796875,0.0562286376953125,-0.148040771484375
1769667017523806000,10.744805908203125,0.98858642578125,0.0561676025390625,-0.148529052734375
1769667017533794600,10.754794677734376,0.990234375,0.0562286376953125,-0.14801025390625
1769667017543782700,10.76478271484375,0.99029541015625,0.056243896484375,-0.14788818359375
1769667017553771000,10.77477099609375,0.989898681640625,0.0566558837890625,-0.149658203125
1769667017563759000,10.784759033203125,0.9900665283203125,0.05645751953125,-0.14788818359375
1769667017573748200,10.794748291015624,0.989532470703125,0.05645751953125,-0.14715576171875
1769667017583736000,10.804736083984375,0.9901885986328125,0.0556793212890625,-0.1482696533203125
1769667017593725000,10.814724853515624,0.98895263671875,0.056121826171875,-0.1480712890625
1769667017603713000,10.824713134765625,0.9902496337890625,0.0552978515625,-0.14837646484375
1769667017613702100,10.8347021484375,0.9902496337890625,0.056243896484375,-0.1476593017578125
1769667017623690200,10.844690185546876,0.9906005859375,0.0565338134765625,-0.147003173828125
1769667017633679000,10.85467919921875,0.9882354736328125,0.0569000244140625,-0.14715576171875
1769667017643667000,10.8646669921875,0.9901123046875,0.056732177734375,-0.147918701171875
1769667017653656000,10.874656005859375,0.9898681640625,0.0560150146484375,-0.14776611328125
1769667017663644200,10.88464404296875,0.9899139404296875,0.0572509765625,-0.148773193359375
1769667017673633000,10.894633056640625,0.9895782470703125,0.057586669921875,-0.148162841796875
1769667017683621000,10.90462109375,0.99114990234375,0.056549072265625,-0.148162841796875
1769667017693610200,10.9146103515625,0.9906463623046875,0.056488037109375,-0.1483612060546875
1769667017703599000,10.92459912109375,0.989715576171875,0.056488037109375,-0.1487884521484375
1769667017713587000,10.9345869140625,0.9901123046875,0.056365966796875,-0.14898681640625
1769667017723576000,10.944576171875,0.9885101318359375,0.055267333984375,-0.148223876953125
1769667017733564200,10.954564208984374,0.98907470703125,0.0560150146484375,-0.1485748291015625
1769667017743553300,10.96455322265625,0.990234375,0.056121826171875,-0.1481475830078125
1769667017753541000,10.974541015625,0.99005126953125,0.05596923828125,-0.1490478515625
1769667017763530000,10.984530029296875,0.9898223876953125,0.0555877685546875,-0.1475982666015625
1769667017773518000,10.99451806640625,0.9896087646484375,0.0559844970703125,-0.147705078125
1769667017783507200,11.004507080078126,0.9902191162109375,0.056640625,-0.1476898193359375
1769667017793495300,11.014495361328125,0.9893035888671875,0.054779052734375,-0.14801025390625
1769667017803484200,11.024484130859374,0.98931884765625,0.0558013916015625,-0.15008544921875
1769667017813472000,11.034471923828125,0.9894866943359375,0.0558624267578125,-0.1481475830078125
1769667017823461000,11.044461181640624,0.9903411865234375,0.0560760498046875,-0.1492919921875
1769667017833449200,11.05444921875,0.9898834228515625,0.0556793212890625,-0.1502532958984375
1769667017843438000,11.06443798828125,0.98974609375,0.0552215576171875,-0.148773193359375
1769667017853426000,11.074426025390625,0.9886474609375,0.056365966796875,-0.1486663818359375
1769667017863415000,11.0844150390625,0.989959716796875,0.0568695068359375,-0.14813232421875
1769667017873403100,11.094403076171876,0.98931884765625,0.056793212890625,-0.14862060546875
1769667017883392000,11.10439208984375,0.989288330078125,0.0548248291015625,-0.148590087890625
1769667017893380000,11.114380126953124,0.9894561767578125,0.0558319091796875,-0.1479949951171875
1769667017903369200,11.124369140625,0.988861083984375,0.05584716796875,-0.1490478515625
1769667017913357000,11.134357177734374,0.988494873046875,0.056243896484375,-0.1489410400390625
1769667017923346000,11.144345947265625,0.9897308349609375,0.0569915771484375,-0.14849853515625
1769667017933334000,11.154333984375,0.9899444580078125,0.0559844970703125,-0.1489105224609375
1769667017943323100,11.1643232421875,0.98931884765625,0.057159423828125,-0.1487274169921875
1769667017953311000,11.17431103515625,0.990753173828125,0.0562286376953125,-0.1490325927734375
1769667017963300000,11.184300048828124,0.990692138671875,0.055328369140625,-0.1485137939453125
1769667017973288000,11.194287841796875,0.99066162109375,0.0550537109375,-0.14923095703125
1769667017983277000,11.204277099609374,0.98822021484375,0.056182861328125,-0.1482696533203125
1769667017993265200,11.21426513671875,0.9883270263671875,0.0562744140625,-0.148834228515625
1769667018003254300,11.224254150390625,0.988555908203125,0.0556793212890625,-0.149566650390625
1769667018013242000,11.2342421875,0.98944091796875,0.055694580078125,-0.1488037109375
1769667018023231000,11.24423095703125,0.9906158447265625,0.055908203125,-0.1485595703125
1769667018033219000,11.254218994140626,0.9907073974609375,0.05548095703125,-0.14837646484375
1769667018043208200,11.264208251953125,0.988739013671875,0.056732177734375,-0.1480255126953125
1769667018053196300,11.2741962890625,0.9884796142578125,0.0574188232421875,-0.1487274169921875
1769667018063185000,11.284184814453125,0.9898529052734375,0.055999755859375,-0.1502227783203125
1769667018073173000,11.294173095703124,0.9888763427734375,0.055633544921875,-0.1502227783203125
1769667018083162000,11.304162109375,0.99407958984375,0.0554962158203125,-0.1492462158203125
1769667018093150200,11.314150146484375,0.9888153076171875,0.0555877685546875,-0.1472625732421875
1769667018103139000,11.32413916015625,0.98675537109375,0.0559234619140625,-0.147705078125
1769667018113127000,11.334126953125,0.9939422607421875,0.054656982421875,-0.15032958984375
1769667018123116000,11.344115966796876,0.9885101318359375,0.055145263671875,-0.149810791015625
1769667018133105200,11.354105224609375,0.9881744384765625,0.055755615234375,-0.1481475830078125
1769667018143093000,11.364093017578124,0.98876953125,0.0553741455078125,-0.1490020751953125
1769667018153082000,11.37408203125,0.9876251220703125,0.05584716796875,-0.1478729248046875
1769667018163070200,11.3840703125,0.9884033203125,0.0572509765625,-0.147247314453125
1769667018173059000,11.39405908203125,0.9896240234375,0.056121826171875,-0.1484527587890625
1769667018183047200,11.404047119140625,0.9903717041015625,0.056121826171875,-0.148345947265625
1769667018193036000,11.4140361328125,0.990264892578125,0.055999755859375,-0.14898681640625
1769667018203024100,11.424024169921875,0.9892578125,0.0548248291015625,-0.1493988037109375
1769667018213013200,11.43401318359375,0.9894256591796875,0.0569610595703125,-0.150177001953125
1769667018223001000,11.4440009765625,0.988861083984375,0.0561370849609375,-0.1492462158203125
1769667018232990000,11.453989990234374,0.9908447265625,0.05474853515625,-0.14984130859375
1769667018242978000,11.46397802734375,0.9906158447265625,0.055633544921875,-0.1490478515625
1769667018252967200,11.47396728515625,0.9900970458984375,0.0558929443359375,-0.1487274169921875
1769667018262955300,11.483955322265626,0.9873809814453125,0.054931640625,-0.148529052734375
1769667018272943900,11.49394384765625,0.9875946044921875,0.055419921875,-0.148834228515625
1769667018282932000,11.503931884765626,0.98809814453125,0.0550537109375,-0.1492767333984375
1769667018292921000,11.513921142578125,0.989776611328125,0.055419921875,-0.1474456787109375
1769667018302909200,11.5239091796875,0.991363525390625,0.0555572509765625,-0.147918701171875
1769667018312898000,11.53389794921875,0.99169921875,0.0555572509765625,-0.1494598388671875
1769667018322886000,11.543885986328124,0.9920196533203125,0.0563201904296875,-0.149169921875
1769667018332875000,11.553875,0.989410400390625,0.05657958984375,-0.1483001708984375
1769667018342863000,11.563863037109375,0.9892578125,0.0554962158203125,-0.1475982666015625
1769667018352852200,11.573852294921876,0.9892425537109375,0.0555572509765625,-0.1489715576171875
1769667018362840000,11.583840087890625,0.9895782470703125,0.0557708740234375,-0.1492156982421875
1769667018372829200,11.5938291015625,0.990509033203125,0.05731201171875,-0.149444580078125
1769667018382817000,11.603817138671875,0.9904937744140625,0.055419921875,-0.1483154296875
1769667018392806100,11.61380615234375,0.988739013671875,0.0559844970703125,-0.148040771484375
1769667018402794200,11.623794189453125,0.9881591796875,0.0563812255859375,-0.14788818359375
1769667018412783000,11.633783203125,0.9892120361328125,0.054351806640625,-0.1501312255859375
1769667018422771000,11.64377099609375,0.9915008544921875,0.0548095703125,-0.1491241455078125
1769667018432760000,11.653760009765625,0.98974609375,0.0550994873046875,-0.14898681640625
1769667018442748200,11.663748046875,0.9894866943359375,0.0558013916015625,-0.1480560302734375
1769667018452737000,11.673737060546875,0.989654541015625,0.0550689697265625,-0.148284912109375
1769667018462725000,11.68372509765625,0.9912872314453125,0.0557861328125,-0.1495819091796875
1769667018472714200,11.69371435546875,0.9901123046875,0.055633544921875,-0.149444580078125
1769667018482702000,11.7037021484375,0.989471435546875,0.054779052734375,-0.1492919921875
1769667018492691000,11.71369091796875,0.9899444580078125,0.0552215576171875,-0.1498870849609375
1769667018502679000,11.723678955078125,0.9899749755859375,0.0557708740234375,-0.1486358642578125
1769667018512668200,11.733668212890626,0.98858642578125,0.0563507080078125,-0.148651123046875
1769667018522656300,11.74365625,0.98883056640625,0.0558013916015625,-0.1486663818359375
1769667018532644900,11.753644775390624,0.9892425537109375,0.0555572509765625,-0.1486663818359375
1769667018542633000,11.763633056640625,0.989593505859375,0.0547027587890625,-0.1476898193359375
1769667018552622600,11.77362255859375,0.98895263671875,0.0548095703125,-0.1483612060546875
1769667018562610400,11.7836103515625,0.98870849609375,0.05517578125,-0.14892578125
1769667018572599300,11.793599365234375,0.9883880615234375,0.0550537109375,-0.1481170654296875
1769667018582587400,11.80358740234375,0.9902801513671875,0.0552520751953125,-0.14947509765625
1769667018592576500,11.813576416015625,0.990509033203125,0.0561676025390625,-0.14801025390625
1769667018602564600,11.823564697265626,0.9912567138671875,0.0565643310546875,-0.147918701171875
1769667018612553500,11.833553466796875,0.9898223876953125,0.0562896728515625,-0.149169921875
1769667018622541300,11.843541259765624,0.9903564453125,0.0567626953125,-0.148468017578125
1769667018632530400,11.853530517578125,0.9894561767578125,0.056121826171875,-0.1488494873046875
1769667018642519600,11.86351953125,0.9904327392578125,0.056182861328125,-0.1492156982421875
1769667018652507600,11.873507568359376,0.9909210205078125,0.055450439453125,-0.1493377685546875
1769667018662496500,11.88349658203125,0.989044189453125,0.0552825927734375,-0.1492919921875
1769667018672484400,11.893484375,0.989044189453125,0.0551300048828125,-0.148895263671875
1769667018682473500,11.903473388671875,0.9892120361328125,0.055389404296875,-0.149688720703125
1769667018692461600,11.913461669921874,0.98883056640625,0.055938720703125,-0.14849853515625
1769667018702450400,11.923450439453125,0.9904327392578125,0.05609130859375,-0.1483154296875
1769667018712438500,11.9334384765625,0.989227294921875,0.055755615234375,-0.14813232421875
1769667018722427600,11.943427734375,0.9889678955078125,0.0557403564453125,-0.14886474609375
1769667018732415500,11.95341552734375,0.9906005859375,0.0551910400390625,-0.14898681640625
1769667018742404400,11.963404296875,0.992156982421875,0.0550994873046875,-0.14996337890625
1769667018752392400,11.973392333984375,0.99053955078125,0.056243896484375,-0.1492767333984375
1769667018762381600,11.983381591796874,0.988800048828125,0.056488037109375,-0.1485137939453125
1769667018772369400,11.993369384765625,0.9896087646484375,0.055816650390625,-0.149566650390625
1769667018782358500,12.003358642578124,0.9882659912109375,0.056304931640625,-0.1491851806640625
1769667018792346400,12.013346435546875,0.98944091796875,0.056304931640625,-0.1483001708984375
1769667018802335500,12.02333544921875,0.9895477294921875,0.0564727783203125,-0.1494598388671875
1769667018812323600,12.033323486328126,0.9874267578125,0.0554656982421875,-0.1487579345703125
1769667018822312700,12.043312744140625,0.9884185791015625,0.0564422607421875,-0.1481781005859375
1769667018832300500,12.053300537109376,0.98980712890625,0.0558319091796875,-0.148590087890625
1769667018842289400,12.063289306640625,0.9901275634765625,0.0558929443359375,-0.14959716796875
1769667018852277500,12.073277587890624,0.990142822265625,0.056243896484375,-0.149627685546875
1769667018862266600,12.0832666015625,0.99029541015625,0.0558624267578125,-0.1494293212890625
1769667018872254700,12.093254638671874,0.9910430908203125,0.055999755859375,-0.150054931640625
1769667018882243300,12.103243408203125,0.9898529052734375,0.0556488037109375,-0.149078369140625
1769667018892231400,12.1132314453125,0.9900054931640625,0.0550537109375,-0.148040771484375
1769667018902220500,12.123220458984376,0.9894256591796875,0.0557708740234375,-0.1488494873046875
1769667018912208600,12.133208740234375,0.990234375,0.0547332763671875,-0.147796630859375
1769667018922197500,12.143197509765624,0.99029541015625,0.055450439453125,-0.149383544921875
1769667018932185300,12.153185302734375,0.9893646240234375,0.0562286376953125,-0.149200439453125
1769667018942174500,12.163174560546874,0.9895477294921875,0.055908203125,-0.1492919921875
1769667018952162600,12.17316259765625,0.9893341064453125,0.05615234375,-0.148193359375
1769667018962151400,12.1831513671875,0.989837646484375,0.0561676025390625,-0.149078369140625
1769667018972139500,12.193139404296875,0.9894866943359375,0.0568389892578125,-0.149810791015625
1769667018982128400,12.20312841796875,0.99005126953125,0.0557861328125,-0.1509246826171875
1769667018992116500,12.213116455078126,0.989532470703125,0.0560760498046875,-0.1473846435546875
1769667019002105600,12.223105712890625,0.9884490966796875,0.055908203125,-0.148468017578125
1769667019012093400,12.233093505859374,0.9903411865234375,0.0561676025390625,-0.1486968994140625
1769667019022082600,12.24308251953125,0.99029541015625,0.05712890625,-0.149017333984375
1769667019032070400,12.2530703125,0.991485595703125,0.0561065673828125,-0.149322509765625
1769667019042059500,12.2630595703125,0.9896392822265625,0.0555877685546875,-0.1483917236328125
1769667019052047600,12.273047607421875,0.9888763427734375,0.0564727783203125,-0.147735595703125
1769667019062036500,12.283036376953126,0.989959716796875,0.0576171875,-0.14935302734375
1769667019072024600,12.293024658203125,0.9888458251953125,0.0552978515625,-0.1485137939453125
1769667019082013700,12.303013671875,0.9902191162109375,0.055206298828125,-0.1485595703125
1769667019092001500,12.31300146484375,0.98919677734375,0.055877685546875,-0.147979736328125
1769667019101990400,12.322990478515624,0.9901580810546875,0.0570526123046875,-0.1493988037109375
1769667019111978500,12.332978515625,0.99127197265625,0.055328369140625,-0.1489410400390625
1769667019121967600,12.342967529296875,0.9912109375,0.055084228515625,-0.14849853515625
1769667019131955500,12.35295556640625,0.9900360107421875,0.0553131103515625,-0.1487579345703125
1769667019141944300,12.3629443359375,0.989654541015625,0.0558319091796875,-0.1473236083984375
1769667019151933400,12.372933349609376,0.98858642578125,0.0556182861328125,-0.1491851806640625
1769667019161921500,12.382921630859375,0.98834228515625,0.055206298828125,-0.1475830078125
1769667019171910400,12.392910400390624,0.9905548095703125,0.0556182861328125,-0.1495208740234375
1769667019181898500,12.4028984375,0.989410400390625,0.056427001953125,-0.1495208740234375
1769667019191887600,12.4128876953125,0.9890594482421875,0.0560455322265625,-0.148529052734375
1769667019201875500,12.42287548828125,0.98974609375,0.0555877685546875,-0.1475677490234375
1769667019211864600,12.432864501953125,0.99005126953125,0.0560760498046875,-0.1474609375
1769667019221852400,12.442852294921876,0.9909210205078125,0.0564727783203125,-0.148193359375
1769667019231841500,12.452841552734375,0.9907989501953125,0.055419921875,-0.1487884521484375
1769667019241829400,12.462829345703126,0.9888153076171875,0.05584716796875,-0.1485595703125
1769667019251818500,12.472818603515625,0.992218017578125,0.0565032958984375,-0.147216796875
1769667019261806600,12.482806640625,0.9891204833984375,0.0567169189453125,-0.1473388671875
1769667019271795500,12.49279541015625,0.9925384521484375,0.05657958984375,-0.1486663818359375
1769667019281783600,12.502783447265625,0.9913177490234375,0.0554656982421875,-0.1485443115234375
1769667019291772700,12.512772705078126,0.9879150390625,0.056243896484375,-0.146453857421875
1769667019301760500,12.522760498046875,0.9868011474609375,0.0561981201171875,-0.14813232421875
1769667019311749400,12.532749267578126,0.99005126953125,0.0564422607421875,-0.14691162109375
1769667019321737500,12.542737548828125,0.989227294921875,0.0562286376953125,-0.148223876953125
1769667019331726600,12.5527265625,0.98919677734375,0.056640625,-0.1461639404296875
1769667019341714400,12.56271435546875,0.98968505859375,0.0556488037109375,-0.1478118896484375
1769667019351703300,12.572703369140624,0.9912261962890625,0.0565032958984375,-0.1489105224609375
1769667019361691400,12.58269140625,0.9910430908203125,0.055328369140625,-0.1490631103515625
1769667019371680500,12.592680419921875,0.9914703369140625,0.0549774169921875,-0.1483917236328125
1769667019381668600,12.602668701171876,0.989349365234375,0.0565948486328125,-0.1485443115234375
1769667019391657500,12.612657470703125,0.9884033203125,0.0568084716796875,-0.1489105224609375
1769667019401645300,12.622645263671876,0.9897003173828125,0.0548858642578125,-0.1491851806640625
1769667019411634400,12.632634521484375,0.9901885986328125,0.0552825927734375,-0.14794921875
1769667019421622500,12.64262255859375,0.9891815185546875,0.05560302734375,-0.1485595703125
1769667019431611600,12.652611572265625,0.988067626953125,0.0559844970703125,-0.1484222412109375
1769667019441599500,12.662599609375,0.988525390625,0.0549774169921875,-0.1482696533203125
1769667019451588400,12.67258837890625,0.989776611328125,0.05767822265625,-0.1484832763671875
1769667019461576400,12.682576416015625,0.9908905029296875,0.0557708740234375,-0.1475982666015625
1769667019471565600,12.692565673828126,0.9903564453125,0.0561065673828125,-0.1465301513671875
1769667019481553700,12.7025537109375,0.9891204833984375,0.05609130859375,-0.1462249755859375
1769667019491542500,12.71254248046875,0.9886322021484375,0.05633544921875,-0.1482391357421875
1769667019501530400,12.7225302734375,0.991607666015625,0.0558624267578125,-0.147216796875
1769667019511519500,12.73251953125,0.990081787109375,0.05535888671875,-0.148406982421875
1769667019521507600,12.742507568359375,0.9891357421875,0.055633544921875,-0.147491455078125
1769667019531496400,12.752496337890625,0.9905548095703125,0.0564727783203125,-0.148101806640625
1769667019541484500,12.762484619140626,0.99041748046875,0.0571746826171875,-0.1470947265625
1769667019551473200,12.77247314453125,0.9854736328125,0.057281494140625,-0.146728515625
1769667019561461200,12.782461181640626,0.990753173828125,0.0553436279296875,-0.1483154296875
1769667019571450000,12.7924501953125,0.9911346435546875,0.05645751953125,-0.147857666015625
1769667019581438000,12.80243798828125,0.9903564453125,0.0556488037109375,-0.1473541259765625
1769667019591427000,12.812427001953125,0.98974609375,0.055389404296875,-0.148895263671875
1769667019601415200,12.822415283203124,0.990264892578125,0.0558013916015625,-0.1486053466796875
1769667019611404300,12.832404296875,0.9907989501953125,0.0558929443359375,-0.1480865478515625
1769667019621392100,12.84239208984375,0.988616943359375,0.056427001953125,-0.1480865478515625
1769667019631381000,12.852381103515626,0.9892730712890625,0.0554962158203125,-0.1471405029296875
1769667019641369000,12.862369140625,0.9912261962890625,0.0551605224609375,-0.1477508544921875
1769667019651358200,12.872358154296874,0.990753173828125,0.0554046630859375,-0.1491851806640625
1769667019661346300,12.88234619140625,0.9905853271484375,0.0555572509765625,-0.14813232421875
1769667019671335200,12.892335205078124,0.9888458251953125,0.055633544921875,-0.148284912109375
1769667019681323000,12.902322998046875,0.9903717041015625,0.055908203125,-0.1493072509765625
1769667019691312000,12.91231201171875,0.9904937744140625,0.05633544921875,-0.148284912109375
1769667019701300200,12.92230029296875,0.98968505859375,0.055938720703125,-0.146240234375
1769667019711289000,12.9322890625,0.9894866943359375,0.055419921875,-0.1477203369140625
1769667019721278200,12.9422783203125,0.9899139404296875,0.055694580078125,-0.1474151611328125
1769667019731266000,12.95226611328125,0.9910125732421875,0.056121826171875,-0.14764404296875
1769667019741255200,12.962255126953124,0.988861083984375,0.05670166015625,-0.1476287841796875
1769667019751243000,12.972242919921875,0.9892730712890625,0.055206298828125,-0.1479034423828125
1769667019761232100,12.982232177734375,0.990020751953125,0.0551605224609375,-0.1469573974609375
1769667019771220200,12.99222021484375,0.9911041259765625,0.056640625,-0.148040771484375
1769667019781209300,13.002209228515625,0.989593505859375,0.0548248291015625,-0.1481781005859375
1769667019791197200,13.012197265625,0.98944091796875,0.0541839599609375,-0.1464385986328125
1769667019801186000,13.02218603515625,0.9904022216796875,0.05633544921875,-0.14788818359375
1769667019811174100,13.032174072265626,0.9905242919921875,0.0547332763671875,-0.1474609375
1769667019821163300,13.042163330078125,0.990570068359375,0.0551605224609375,-0.147552490234375
1769667019831151000,13.052151123046874,0.9892425537109375,0.0562591552734375,-0.148193359375
