time,seconds_elapsed,z,y,x
1769667006851080700,0.072080810546875,-0.19452128610312938,0.13159165945947168,0.013449775616452097
1769667006861069600,0.082069580078125,0.02675824306607246,0.04041735058426857,0.09425495842956005
1769667006871057400,0.092057373046875,-0.052878772750496864,-0.061765259039402005,0.011409355830028653
1769667006881046500,0.102046630859375,-0.22276655285656452,-0.04390928435325622,-0.15379625780917702
1769667006891034600,0.11203466796875,-0.127090840908885,0.019337737676501272,-0.10519823111779987
1769667006901023700,0.122023681640625,-0.06334405266344546,-0.036408114942908285,-0.007885054161399603
1769667006911011600,0.132011474609375,-0.0482236404210329,-0.09594576106071472,0.03014123656786978
1769667006921000700,0.142000732421875,-0.07725742720365524,-0.10398702869713305,0.14712503641694782
1769667006930988500,0.151988525390625,-0.2661059283673763,-0.04593231461346149,0.20462460083588957
1769667006940977700,0.161977783203125,-0.5933692130088806,-0.008670213189721106,0.12425386391729115
1769667006950965800,0.1719658203125,-0.6136398476213216,-0.10419979466497897,0.07190159925892949
1769667006960954600,0.18195458984375,-0.21520108603835106,-0.12298340559005737,0.18598273646906016
1769667006970942700,0.191942626953125,-0.21050737526416777,-0.017770049968361852,0.10965725635327399
1769667006980931600,0.201931640625,-0.3743254800677299,-0.03896306012272834,-0.036773002732545135
1769667006990919700,0.211919677734375,-0.3238029150545597,-0.298505392190814,-0.06848941619526594
1769667007000908500,0.221908447265625,-0.1712368566274643,-0.3174064920157194,-0.13285313076265157
1769667007010896600,0.231896728515625,-0.5242237805902957,0.2259171258419752,-0.42031270320620384
1769667007020885800,0.2418857421875,-0.7663315782546997,0.1826777035742998,-0.39529936757870016
1769667007030873600,0.25187353515625,-0.41059740141034123,-0.18713994368016718,-0.2927558522207662
1769667007040862500,0.261862548828125,-0.14459785602688788,-0.24981238069236278,-0.21535485182795672
1769667007050850600,0.2718505859375,-0.06202537128031253,-0.3025491146236658,-0.15445340654365716
1769667007060839700,0.281839599609375,-0.3516507069230079,-0.06934066272974014,-0.17673419366842136
1769667007070827800,0.291827880859375,-0.49262218914628025,0.22728666062951086,-0.3834566983653232
1769667007080816400,0.30181640625,-0.4800514613866806,0.3549287056803703,-0.3246712953869253
1769667007090804500,0.311804443359375,-0.07503565950095653,-0.1064338373273611,0.0009238368466496467
1769667007100793600,0.321793701171875,-0.32643326355814933,0.13281184890419245,-0.21408662199042736
1769667007110781700,0.33178173828125,-0.14876841970980167,0.15130115305781364,-0.3598177198309451
1769667007120770800,0.341770751953125,-0.21418518699407577,0.2540188924714923,-0.4252221025576815
1769667007130759700,0.351759765625,-0.547933157479763,0.6229620949789881,-0.5621534790772944
1769667007140747500,0.36174755859375,-0.4578162487030029,0.5779366660773754,-0.3386279245469719
1769667007150736600,0.371736572265625,0.10374679020047187,0.5397080577090382,-0.0027269042132422325
1769667007160724700,0.381724853515625,0.38196810377538204,0.46696723114699124,0.17887414657287298
1769667007170713600,0.391713623046875,-0.11833528752326965,0.4139630784511566,0.25747575492709873
1769667007180701700,0.40170166015625,0.09566519055366515,0.4876362174272537,-0.0868049712171778
1769667007190690600,0.411690673828125,0.4630523957908153,0.7139344515413045,0.2955321850663051
1769667007200678700,0.4216787109375,0.34796997258365153,0.42398733659833665,0.21113661307841539
1769667007210667500,0.43166748046875,-0.14431962360739706,0.1440478209286928,0.2535154729939997
1769667007220655600,0.441655517578125,0.24521160889863966,-0.33986791467070576,0.48874034274425354
1769667007230644700,0.451644775390625,0.03815583539307117,-0.33834728097468614,0.3684979794906452
1769667007240632600,0.461632568359375,-0.010407412245869637,-0.5116030762091279,-0.35756025976035744
1769667007250621400,0.471621337890625,-0.09782266084849833,-0.32835283344388005,0.048585614734375844
1769667007260609500,0.481609619140625,-0.22369185100793837,-0.13270371235460043,0.39340449374280867
1769667007270598700,0.4915986328125,-0.2356464926958084,0.4510337489560246,0.16524410075237975
1769667007280586800,0.501586669921875,0.357618675416708,0.29680574866607784,0.007276859135180711
1769667007290575600,0.51157568359375,-0.1543523573219776,0.011489654524624348,-0.17634882934633642
1769667007300563500,0.5215634765625,0.12007365562319755,0.17093363589718938,-0.1411105619003996
1769667007310552600,0.531552490234375,-0.5468927085161209,0.08832432627156377,0.2922689089540392
1769667007320540700,0.541540771484375,-0.4903706108272075,0.20008637288436293,-0.08847411000579596
1769667007330529800,0.55152978515625,-0.0613426497131586,0.41666473862528797,-0.44455249717794354
1769667007340517600,0.561517578125,-0.4744856439530849,0.4821874505020678,0.11445135876201093
1769667007350506500,0.571506591796875,0.08937222788929938,0.41826311373263597,0.1009736722253263
1769667007360494600,0.58149462890625,0.35471827780008314,-0.026969547729194163,0.14889445724226533
1769667007370483700,0.591483642578125,1.8029098379433155,-0.8902362634081393,0.4459223242264241
1769667007380471800,0.601471923828125,2.6684651760160922,-0.018128873343393206,-0.28445648163743315
1769667007390460700,0.611460693359375,1.3432745571196079,-0.17124759721718727,-0.003962766151130199
1769667007400448500,0.621448486328125,-0.3217372146964073,0.07489698168262839,-0.08847264870107173
1769667007410437600,0.631437744140625,-0.6676783118009567,0.06209222597144544,0.002146364378929138
1769667007420425700,0.64142578125,-0.021070845079421995,-0.03700695761889219,0.08728789589591324
1769667007430414600,0.65141455078125,0.6306476810455321,0.0164755531784147,0.11935725098215043
1769667007440402400,0.66140234375,0.5636275702178478,0.030234979265928268,-0.08693959391489625
1769667007450391600,0.6713916015625,-0.0706757107257843,0.041233270077034825,-0.05792085857093334
1769667007460379600,0.681379638671875,-0.04916413614153862,-0.02200958723425865,0.02627075181007385
1769667007470368500,0.691368408203125,0.12563655044734479,-0.004574833634868264,0.061970280092209576
1769667007480356600,0.701356689453125,0.20116203929185866,0.051552200321853155,0.015386004376038908
1769667007490345700,0.711345703125,0.1776712735891342,-0.012793868990987538,0.004099617338553071
1769667007500333600,0.72133349609375,0.15168459941744802,0.03330035818591714,-0.010199760844558477
1769667007510322700,0.73132275390625,0.11961655950546264,0.028929522690549492,0.038184330835193396
1769667007520311600,0.7413115234375,-0.15562369243204593,-0.11190108975730836,0.0946075712595135
1769667007530299600,0.751299560546875,-0.2286485966324806,0.004333572224900126,0.12058547760285436
1769667007540287700,0.761287841796875,-0.07748422169685364,-0.02878492658808827,0.1137996899202466
1769667007550275800,0.77127587890625,-0.08962357230186462,0.010285466366633772,0.17793993446268142
1769667007560264700,0.7812646484375,0.1205728373169899,-0.023534093387797474,0.05262275216281414
1769667007570252800,0.791252685546875,0.28889176067113875,0.003149769267812371,-0.009760419579222798
1769667007580242000,0.801241943359375,0.2973030306637287,0.023874065931886432,-0.11763166929855942
1769667007590229800,0.811229736328125,0.2215864031612873,0.03321735607758164,-0.04348769794031977
1769667007600219000,0.821218994140625,0.12724457016587257,-0.04745579785369336,-0.10208068361915647
1769667007610206700,0.831206787109375,0.5486673169732094,0.07404891348592936,-0.1121626633029431
1769667007620195800,0.84119580078125,0.5194926604151725,0.03712707686722278,0.024050591542571782
1769667007630184000,0.851183837890625,0.28351883546113965,0.09988799588046968,0.007278612700849771
1769667007640172800,0.8611728515625,0.15396657287478446,-0.006098609136044979,0.05624766466170549
1769667007650161000,0.871160888671875,0.198746210321784,0.018347922921553253,-0.04181194674782455
1769667007660149800,0.881149658203125,0.025265958681702613,0.013805603316798806,0.026502660869807005
1769667007670137900,0.891137939453125,-0.05925006134808063,0.007177709609642625,0.08516155139170586
1769667007680127000,0.901126953125,-0.043942017579078674,0.044615313730761406,0.07973083157986402
1769667007690114800,0.91111474609375,-0.052174423873424525,0.007685001544654369,0.07912599755451083
1769667007700103700,0.921103759765625,-0.2543161218523979,-0.01572531933300197,0.11934051904305815
1769667007710091800,0.931091796875,-0.30332594421505926,0.006976122622936964,0.14772548652812836
1769667007720081000,0.941080810546875,-0.03180968123674392,-0.0223467832993716,0.07542042103484273
1769667007730069000,0.951069091796875,0.02627425894141197,0.0032234190259128807,0.1151363453514874
1769667007740057900,0.961057861328125,0.05116553909182548,0.027776041806489227,0.07047551197856665
1769667007750045700,0.971045654296875,0.06123743577301502,0.012423355178162454,0.08103665348142385
1769667007760034800,0.981034912109375,0.04545885188281536,0.042890462699532506,0.05982062777765095
1769667007770023000,0.99102294921875,0.02258651033937931,0.004303615478053689,0.06698891197182237
1769667007780011800,1.00101171875,0.017580080354213712,-0.04535071533322334,0.042960459195822476
1769667007789999600,1.01099951171875,0.014588497322797775,0.05352481556907296,-0.00210837045609951
1769667007799988700,1.02098876953125,0.130876789188385,0.07263809683993458,-0.06675400723740459
1769667007809976800,1.030976806640625,0.1510059695035219,0.017190788775682447,-0.09223916162773967
1769667007819966000,1.040966064453125,0.1428805307149887,0.034003903345391155,-0.07253609777018427
1769667007829953800,1.050953857421875,0.04021159887909889,0.025356632639840244,-0.09610489714518189
1769667007839943000,1.06094287109375,0.03862871360182762,0.023938947861641646,-0.06864420489817857
1769667007849930800,1.0709306640625,0.0912146408855915,0.02282711416222155,-0.04907967272847891
1769667007859920000,1.080919921875,0.12645663465857504,0.024092238727211952,-0.029246845011413097
1769667007869908000,1.090907958984375,0.07083586972355842,0.010181567600741981,-0.007793722616136074
1769667007879896800,1.100896728515625,-0.0392003760099411,-0.009028598173335194,-0.07226590252667665
1769667007889885000,1.110885009765625,-0.008682488149404526,-0.016043299240991474,-0.021579379123449323
1769667007899873800,1.120873779296875,0.0038449849903583523,-0.021530571545660494,-0.004029109385609626
1769667007909862000,1.13086181640625,-0.15799860486984252,-0.006606631723418832,0.009825082313269376
1769667007919850800,1.140850830078125,-0.17303952213525772,-0.007003668216988444,-0.01186184883788228
1769667007929838800,1.1508388671875,-0.2077881794333458,-0.005978270692005753,0.0002044365309178829
1769667007939828000,1.160827880859375,-0.25734277619719503,-0.027328736430406567,0.0027452070549130437
1769667007949815800,1.17081591796875,-0.10146130961179732,-0.027000015932694077,0.03693769177496433
1769667007959804700,1.1808046875,0.06026771395802497,0.005722250104323029,-0.004505933117121458
1769667007969793800,1.190793701171875,0.1383230135411024,0.007535363940894603,-0.04239522652849555
1769667007979782000,1.200781982421875,0.17760814522504806,0.025823738694936035,-0.07157163665220141
1769667007989771000,1.21077099609375,0.13741992722153662,0.016052432395517825,-0.08334887594655156
1769667007999758800,1.2207587890625,0.07832827130556107,0.021052067313715814,-0.048726329246163366
1769667008009747700,1.230747802734375,0.21313480115830896,0.010313158091157675,-0.045415158871561286
1769667008019735800,1.24073583984375,0.11002923147082329,0.02386749006062746,-0.0445585420422256
1769667008029725000,1.250724853515625,-0.0001087210714817047,-0.01101597259826958,-0.06654986296743154
1769667008039713000,1.260713134765625,0.11869535300731658,-0.00020838205367326734,-0.04501797624751925
1769667008049702000,1.270701904296875,0.04989946467876434,0.003923895445466041,-0.05136106166392564
1769667008059689700,1.280689697265625,0.03642974225282669,0.00047872342765331263,-0.06861454041227698
1769667008069678800,1.290678955078125,0.08900456362068652,0.00019661855064332485,-0.06551087530851364
1769667008079667000,1.3006669921875,-0.09814005623459815,0.007750687192007899,-0.02130465383529663
1769667008089655800,1.31065576171875,-0.11012743114829063,0.007148337384685874,-0.0008354279108345508
1769667008099644000,1.320643798828125,-0.04215104250907898,-0.014938479804247617,-0.00064005146920681
1769667008109632800,1.3306328125,-0.026444939333200454,-0.039035029380396005,0.009435936865210532
1769667008119620900,1.340620849609375,0.06428396386206149,-0.00562383123114705,-0.018013503335416316
1769667008129609700,1.350609619140625,0.022023615759611127,-0.014519377609342335,-0.043198359604924914
1769667008139597800,1.360597900390625,0.05509527975618839,-0.0270109757181257,-0.038178193355351685
1769667008149587000,1.3705869140625,0.1381669461965561,-0.015447379174455999,-0.024498043049126863
1769667008159574800,1.38057470703125,0.048050037419795986,0.01477729789316654,0.006297638839483261
1769667008169563600,1.390563720703125,0.02789455361962318,-0.006305968276411294,-0.013876695791631937
1769667008179551700,1.4005517578125,0.03933832317590713,0.010748334638029336,-0.013362024267762899
1769667008189540900,1.410540771484375,0.06453706184029578,0.00609071809053421,-0.02797419472709298
1769667008199529000,1.420529052734375,0.04451251094341278,-0.0154527860019356,-0.028729250878095625
1769667008209517800,1.430517822265625,0.005052607214450836,-0.01656213548332453,-0.021593553779274223
1769667008219505700,1.440505615234375,-0.050554713717103,-0.005704860578104853,-0.019573153867572544
1769667008229494800,1.450494873046875,-0.060201078462600706,-0.021636370007693768,-0.00735664637312293
1769667008239483000,1.46048291015625,-0.005679214680194855,-0.0064307636998593804,-0.011055208630114792
1769667008249472000,1.470471923828125,-0.01057633907198906,-0.027326763669028878,-0.03217310772165656
1769667008259459800,1.4804599609375,-0.03644610886573791,-0.005856361345387995,-0.04054930640086531
1769667008269448700,1.49044873046875,-0.031021161207556724,0.012116225457750261,-0.013041852402687073
1769667008279436800,1.500436767578125,-0.059764440611004825,0.021198563112318516,0.02092646817266941
1769667008289426000,1.510426025390625,-0.08078326324224472,0.0033426980240270493,0.0072251289479434485
1769667008299414000,1.5204140625,-0.027394202882051466,0.01660374613534659,-0.0013509762175381182
1769667008309403000,1.53040283203125,-0.007718027031421661,-0.01660272322203964,-0.009882511588931083
1769667008319390700,1.540390625,0.08797112891972064,0.0006463350795209408,-0.0383059113882482
1769667008329379800,1.5503798828125,0.14105097720026968,0.0012947159856557845,-0.05673968596234917
1769667008339368000,1.560367919921875,0.0668149436444044,0.016701653551869092,-0.06242270003482699
1769667008349356800,1.570356689453125,0.061086044603586194,0.0046573242865502835,-0.038093145420402284
1769667008359344600,1.5803447265625,0.032658407020568846,0.005374569177813828,-0.03201499455049634
1769667008369333800,1.590333740234375,0.00788403124809265,0.02249357135891914,-0.031565789478272196
1769667008379321900,1.60032177734375,0.03922726401686668,-0.010339680771902202,-0.05112184608057141
1769667008389310700,1.610310791015625,0.11905308040380477,-0.009825703367777168,-0.03590688742250204
1769667008399298800,1.620298828125,0.08086743439435959,-0.00878952872045338,-0.024081863463670014
1769667008409288000,1.630287841796875,0.03183540019989013,-0.022610767997801304,-0.0032965573273599147
1769667008419275800,1.64027587890625,0.057444473230838775,-0.018718692462705074,-0.0014190730176866053
1769667008429265000,1.650264892578125,0.053259296500682826,-0.019024507008865474,0.011912117720395327
1769667008439252700,1.660252685546875,0.024947394251823424,-0.010611812244169414,0.01835208764001727
1769667008449241900,1.670241943359375,0.004243628919124603,-0.00953994522895664,0.015109744717925786
1769667008459230000,1.68022998046875,-0.005157821154594421,-0.00669876698628068,0.008369330547004937
1769667008469218800,1.69021875,0.002389525485038757,-0.010068937539122998,-0.011685469357669353
1769667008479207000,1.70020703125,-0.0070960957407951355,-0.018591997343115507,-0.006029343292117118
1769667008489195800,1.71019580078125,-0.006548983252048492,-0.01752016686052084,-0.014560294141620397
1769667008499183900,1.720183837890625,0.010002338576316832,-0.0202263570792973,-0.016742460486292837
1769667008509173000,1.730173095703125,0.010072481203079223,-0.004046170118264854,-0.022885347155481576
1769667008519160800,1.740160888671875,0.0005780921489000321,-0.013533106518350541,-0.02489654084742069
1769667008529149700,1.750149658203125,-0.009327800315618515,-0.017071875103749332,-0.011661211699247359
1769667008539139600,1.7601396484375,-0.0362374345511198,-0.012513481147028506,-0.017875994560867546
1769667008549127400,1.77012744140625,-0.03467150040864944,-0.0077802055474370715,-0.014409341363608837
1769667008559116300,1.7801162109375,-0.022927286601066587,0.0031840733962133524,-0.02298062422350049
1769667008569104400,1.7901044921875,0.020052607947587966,0.012504822916537522,-0.041455169199407095
1769667008579093500,1.800093505859375,0.017028291690349577,0.009942461615242064,-0.04721826277077198
1769667008589081600,1.81008154296875,0.04624854095578193,0.000727145230770111,-0.02921805730834603
1769667008599070500,1.820070556640625,0.05165127678215503,-0.0009171879101544619,-0.04268967943042516
1769667008609058300,1.830058349609375,0.010981997263431548,-0.006110957160964608,-0.026163638173788785
1769667008619047400,1.84004736328125,0.011909633502364158,-0.01679236404262483,-0.015261428148299455
1769667008629035500,1.850035400390625,0.02241524542570114,-0.0010878683019429445,-0.023477613960206506
1769667008639024400,1.8600244140625,0.02784194664955139,0.001754880843311548,-0.021768325824290512
1769667008649012500,1.870012451171875,0.025811317604780195,0.0023563538677990434,-0.015024989043921232
1769667008659001300,1.88000146484375,-0.019340660285949707,0.014393997664004564,-0.011129735171049832
1769667008668989400,1.889989501953125,0.015986673682928085,0.012707578947022556,-0.02646437468603253
1769667008678978600,1.899978515625,0.015220365485548972,-0.0029317060703411696,-0.019730097994953393
1769667008688966400,1.90996630859375,0.023897592937946317,-0.013732063156552612,-0.019297844057530163
1769667008698955500,1.91995556640625,0.016271920365095137,-0.005025390413962304,-0.0055599722146987916
1769667008708943400,1.929943359375,0.013161094868183135,-0.00486698498185724,-0.007087912434339523
1769667008718932500,1.939932373046875,0.0053261634588241576,-0.0027668343648314473,-0.01789849865362048
1769667008728920600,1.949920654296875,0.01966682350039482,-0.01393416159991175,-0.009537205282598733
1769667008738909400,1.959909423828125,0.02399170096218586,-0.0034083471387624737,-0.006926730523258447
1769667008748897500,1.9698974609375,0.04420329886376857,-0.009888210677355527,-0.008368015372753142
1769667008758886700,1.97988671875,0.036598084557056425,-0.005489500794373452,-0.0037321722656488416
1769667008768874500,1.98987451171875,0.01405190622806549,-0.0084716949429363,-0.01730287084802985
1769667008778863400,1.99986328125,0.02639116331934929,-0.012267470496706664,-0.017889146303385495
1769667008788851500,2.0098515625,0.02559504450559616,-0.014200995842553674,-0.012086305243521929
1769667008798840600,2.019840576171875,0.023187983363866804,-0.0130474418932572,0.001477086815237999
1769667008808828400,2.029828369140625,0.010457096606492996,-0.004130706596560776,-0.006141717625409365
1769667008818817300,2.0398173828125,-0.003308393895626068,0.003797163793258369,-0.0006247077696025371
1769667008828805400,2.049805419921875,0.02362228312790394,-0.001756744006834924,-0.015659195294231175
1769667008838794500,2.05979443359375,0.03722819915413856,-0.007171645195037126,-0.024224194543808697
1769667008848782600,2.069782470703125,0.024054244804382324,0.0001914309188723564,-0.026806466121971604
1769667008858771500,2.079771484375,0.023615853387117386,-0.013641425731033085,-0.014203443527966738
1769667008868759300,2.08975927734375,0.029022096344828604,-0.002052767811343074,-0.0028882687874138353
1769667008878748400,2.09974853515625,0.01675531996786594,-0.019565262822061776,-0.016622487368434666
1769667008888736500,2.109736572265625,0.025582185024023055,0.002659209271892905,-0.02644289350658655
1769667008898725600,2.1197255859375,0.051152679610252376,-0.007680106173828243,-0.02826440984532237
1769667008908713200,2.129713134765625,0.05767185224592685,-0.0030535058191046116,-0.018895108475536108
1769667008918702300,2.139702392578125,0.03228431301116943,0.0012372136447578667,-0.019204612816125153
1769667008928690400,2.1496904296875,0.023372107759118077,-0.0023627470759674907,-0.017803806107491254
1769667008938679600,2.159679443359375,0.012969371688365936,0.004195040537044406,-0.015861732129007575
1769667008948667600,2.169667724609375,0.0034422494083642956,-0.006696282768249511,-0.015267857889086007
1769667008958656500,2.179656494140625,-0.014307342293858527,-0.008705832492373883,-0.01759323209673166
1769667008968644400,2.189644287109375,0.017935469663143157,0.000039601358026266094,-0.017500293116271496
1769667008978633500,2.199633544921875,0.017857143729925154,0.002335457210242748,-0.014652648600190877
1769667008988621600,2.20962158203125,0.004472176977992058,0.00023596418034285306,-0.00436053329706192
1769667008998610400,2.2196103515625,-0.0090495678961277,-0.01715644811466336,-0.014581483060121535
1769667009008598500,2.2295986328125,-0.0007294833183288574,-0.0183124497493729,-0.01912175683826208
1769667009018587400,2.23958740234375,0.03196867119073868,-0.0027764424433931708,-0.024697511143982408
1769667009028575500,2.249575439453125,0.01992167504429817,-0.0007268529698252678,-0.02746025385558605
1769667009038564400,2.259564453125,0.010210428369045257,-0.0019813830755650995,-0.0191110893137753
1769667009048552400,2.269552490234375,0.07140694760978221,-0.02103624869007617,-0.030418519139289855
1769667009058541600,2.27954150390625,0.061115855219960206,-0.00766246091928333,-0.002329319730401039
1769667009068530400,2.289530517578125,0.022089082211256026,-0.013705978867225348,-0.021908903338760135
1769667009078518300,2.299518310546875,0.030154315245151518,-0.01379840639103204,-0.03836421744674444
1769667009088507400,2.30950732421875,0.004376899909973145,0.006176825471408665,-0.012239449978619813
1769667009098495500,2.31949560546875,0.0008908113598823546,0.0023088614642620083,-0.009820552268624305
1769667009108484600,2.329484619140625,0.005965630406141281,-0.002971490091457963,-0.012146949389576911
1769667009118472700,2.33947265625,-0.006146832191944122,-0.016885485686175525,-0.007338380064070224
1769667009128461300,2.34946142578125,-0.004324292939901352,-0.002741224999539554,0.0016040741957724094
1769667009138449400,2.359449462890625,0.016490531551837922,-0.012632139090634882,-0.003723404437303543
1769667009148438500,2.3694384765625,0.041190088522434234,-0.0055791518392041325,-0.016260229927301407
1769667009158426600,2.379426513671875,0.04868482819199562,-0.006376951153390109,-0.01721490030363202
1769667009168415500,2.38941552734375,0.028182138389348983,-0.005087422799505293,-0.024136223999410865
1769667009178403300,2.3994033203125,0.0286345583319664,-0.0041340310648083686,-0.016669102989137173
1769667009188392400,2.409392333984375,0.028946108499169346,0.0012259250657632947,-0.017110417015850542
1769667009198380500,2.419380615234375,0.04631751453876495,-0.010978124805912376,-0.017350217121094465
1769667009208369400,2.429369384765625,0.03882862008810043,-0.0074291270874440665,-0.010385200414061546
1769667009218357500,2.439357421875,0.020440730482339856,-0.009089899906516074,-0.006380494817346334
1769667009228346400,2.449346435546875,0.010148469048738479,-0.007406075005419552,-0.020564941383898257
1769667009238334500,2.45933447265625,0.003167524120211601,-0.00575337589494884,-0.017125906845927238
1769667009248323300,2.4693232421875,0.01130699143409729,0.005840761917456984,-0.02638940975368023
1769667009258311400,2.4793115234375,0.006110591834783553,-0.0075032517695799465,-0.01624094070494175
1769667009268300500,2.489300537109375,0.022915596163272857,0.0012923048328608274,-0.018940116661041975
1769667009278288400,2.499288330078125,0.019069442129135132,-0.00013148089256137608,-0.016867548170685767
1769667009288277500,2.509277587890625,0.018449848926067353,-0.015010814388096332,-0.020119389573484657
1769667009298265300,2.519265380859375,0.04644961648583412,-0.0028337621212005614,-0.02027647983133793
1769667009308254500,2.52925439453125,-0.017542670953273772,0.0010363207777962088,-0.005254267266392707
1769667009318242600,2.53924267578125,0.023368016105890274,0.008874795851111412,-0.02156023603156209
1769667009328231700,2.549231689453125,0.04598550610542297,0.00819072257708758,-0.02135433819591999
1769667009338219500,2.559219482421875,0.04271335256695747,0.0008906286967918277,-0.010043985760957002
1769667009348208400,2.56920849609375,0.031241525959968566,0.0003266381384804845,-0.017376228345185516
1769667009358196500,2.579196533203125,0.021091887867450712,-0.0009838234055787325,-0.017995675417780875
1769667009368185600,2.589185546875,0.014942133066058159,-0.004773790273070335,-0.021138065096735954
1769667009378173400,2.59917333984375,0.010751111117005347,0.0008366700198501349,-0.02500467739701271
1769667009388162300,2.609162353515625,0.009703647890686989,-0.001444170926325023,-0.018435820400714873
1769667009398150400,2.619150390625,0.02869067243337631,0.00036024814713746305,-0.025047932016849517
1769667009408139500,2.629139404296875,0.03418926984965801,-0.007520750893652439,-0.01487564370110631
1769667009418127600,2.639127685546875,0.02369184123277664,0.010216273587942123,-0.0223069627456367
1769667009428116500,2.649116455078125,0.02531272043287754,-0.0057289721060544245,-0.010393237590044737
1769667009438104300,2.659104248046875,0.02784545378088951,-0.016218728873133657,-0.022661036880314348
1769667009448093400,2.669093505859375,0.01826514000892639,-0.0062718833437189455,-0.01754427838847041
1769667009458081500,2.67908154296875,0.025596213549375534,-0.011630524300038815,-0.015872399653494358
1769667009468070400,2.6890703125,0.0281464825540781,-0.003584580488502979,-0.015516279692202806
1769667009478058500,2.69905859375,0.009887772285938262,-0.007231193362548947,-0.00500058476626873
1769667009488047400,2.70904736328125,0.004036708170175552,-0.009716361241787671,-0.014567892926186323
1769667009498035500,2.719035400390625,0.010018705189228058,-0.014058810892887413,-0.017355331687629223
1769667009508024600,2.729024658203125,0.020762802043557165,0.0008422229778021574,-0.027909751188755032
1769667009518013400,2.739013427734375,0.03808978441953659,-0.0035001170754432676,-0.03462196217849851
1769667009528001500,2.74900146484375,0.05183540117740631,-0.0034640593813732266,-0.025837036567926405
1769667009537990700,2.75899072265625,0.0280506209641695,-0.0017407061874866485,-0.010102145688980817
1769667009547978800,2.768978759765625,0.010862754797935486,-0.006279737856611609,-0.005704495251923799
1769667009557967600,2.778967529296875,0.005800210711359977,0.0008841624233871698,-0.017337211509048937
1769667009567955700,2.788955810546875,0.01840191813111305,-0.009557115559466183,-0.029564678788930175
1769667009577944600,2.798944580078125,0.020971476358175277,-0.007025258994288742,-0.017459668844938277
1769667009587932700,2.8089326171875,0.03941314197778702,-0.0013537526965141295,-0.02120893837586045
1769667009597921500,2.818921630859375,0.014455226331949234,-0.003251147283054888,-0.010387100110203027
1769667009607909600,2.82890966796875,0.027658406776189803,0.004711721354909241,-0.009966682741045951
1769667009617898800,2.838898681640625,0.02681669525504112,-0.013834171824157237,-0.010237024115025996
1769667009627886600,2.848886474609375,0.018045944300293923,-0.015422902320325374,-0.009576660510152577
1769667009637875500,2.85887548828125,0.006149754801392555,-0.004465053117461502,-0.014137830945849418
1769667009647863600,2.868863525390625,-0.004103343665599822,0.0008991407968103885,-0.0008652385272085666
1769667009657852700,2.878852783203125,-0.004945639708638191,0.004828187341429293,-0.016867694301158188
1769667009667840800,2.8888408203125,0.011846505138278007,0.0037240620244294404,-0.022977409353107214
1769667009677829600,2.89882958984375,0.02474631872177124,-0.009566431377083063,-0.01280994334295392
1769667009687817500,2.9088173828125,0.02494622520804405,-0.01473773306775838,-0.006385317122936249
1769667009697806600,2.918806640625,0.019181670331954954,-0.001539776787906885,-0.00920490458831191
1769667009707794700,2.928794677734375,0.015340192472934722,0.0000023380875587463378,-0.030121435888856646
1769667009717783800,2.93878369140625,0.052609308159351345,-0.006671367522701621,-0.025625878035277126
1769667009727771600,2.948771728515625,0.06049100131988525,-0.008318988599255681,-0.036076837161928416
1769667009737760500,2.958760498046875,0.06120294898152351,-0.006908062355406582,-0.013998130214214324
1769667009747748600,2.96874853515625,0.04624620286822319,0.0040661169277504084,-0.0022622458435595035
1769667009757737700,2.97873779296875,-0.0007236380994319916,-0.011735153718292712,-0.007958411658555268
1769667009767725800,2.988725830078125,0.008963058656454085,-0.01943754478916526,-0.023848639229685067
1769667009777714700,2.998714599609375,-0.012190788531303405,0.0034693200783804056,-0.0139196581505239
1769667009787702500,3.00870263671875,-0.0013128361642360687,0.004503558496944606,-0.014403934536129235
1769667009797691600,3.018691650390625,0.01737549769282341,-0.008063041076809167,-0.01618891825675964
1769667009807679700,3.0286796875,0.007201309680938721,-0.006016885669343173,-0.013618921638280152
1769667009817668600,3.038668701171875,0.004815291327238082,0.005944587618112564,-0.00933437618687749
1769667009827656400,3.048656494140625,0.02056348007917404,0.004170600215531886,-0.01245923020914197
1769667009837645600,3.0586455078125,0.03286649681329727,-0.0018463219864293932,-0.008739917425066232
1769667009847633700,3.068633544921875,0.0336450799703598,0.0004319982090964913,-0.02566255678385496
1769667009857622500,3.07862255859375,0.03563011630773544,0.011799597256630658,-0.013212971185892819
1769667009867610600,3.088610595703125,0.029540567260980605,0.0053583121627569195,-0.01972454503700137
1769667009877599700,3.098599853515625,0.034361703807115555,-0.0005549670016393065,-0.017758359530568122
1769667009887587600,3.108587646484375,0.031547230908274645,-0.007826163581013679,-0.0008661153100430965
1769667009897576400,3.118576416015625,0.03153554047048092,-0.014235299970954655,-0.020774200220406054
1769667009907565600,3.128565673828125,0.02045417448580265,-0.01181176261845976,-0.028450433936715123
1769667009917553700,3.1385537109375,0.023410686203837395,-0.009868081204779446,-0.011125351256877183
1769667009927542800,3.148542724609375,0.008426467561721801,-0.012570508563891053,-0.02264335509315133
1769667009937530600,3.158530517578125,0.012748422414064407,-0.0023494492029771208,-0.013764467588812113
1769667009947519500,3.16851953125,0.01035889692902565,-0.003217573807016015,-0.01476838393434882
1769667009957507600,3.178507568359375,0.009469254612922667,-0.013778276918455958,-0.012354746921360491
1769667009967496700,3.18849658203125,0.032680618852376934,-0.0017236454548314212,-0.02049421423524618
1769667009977484800,3.19848486328125,0.026718495577573775,-0.0030000951314345,-0.02251929032206535
1769667009987473700,3.2084736328125,0.03839198223650455,-0.0013865224549546838,-0.011215806019306182
1769667009997461500,3.21846142578125,0.052156303694844246,-0.0031928412245586513,-0.01444075941517949
1769667010007450600,3.22845068359375,0.02198912896811962,-0.009850655145943164,-0.013227291972190141
1769667010017438700,3.238438720703125,0.0055921209186315535,0.002032565273530781,-0.0012223814018070696
1769667010027427600,3.248427490234375,0.02105857011973858,-0.011969546996057033,-0.016067629964649676
1769667010037415700,3.258415771484375,0.027678280520439146,0.0014544000593945383,-0.030930852575600146
1769667010047404500,3.268404541015625,0.03296703457832336,-0.0018723332105204462,-0.011118629255145788
1769667010057392600,3.278392578125,0.02420855858325958,0.0006076470369473099,-0.006744798085093498
1769667010067381500,3.288381591796875,0.014085808497667312,0.0034511998998001214,-0.008006050192564725
1769667010077369600,3.29836962890625,0.024760347247123716,-0.01130801434740424,-0.025063421846926212
1769667010087358700,3.308358642578125,0.0004366378515958786,0.0044682314552366735,-0.008928571864962577
1769667010097346600,3.3183466796875,0.004660977548360824,0.0017445421123877167,-0.003168254772573709
1769667010107335700,3.328335693359375,0.005111643925309181,0.0036552711045369506,-0.015978636506944893
1769667010117323500,3.338323486328125,0.018140052324533463,0.0004177504880353808,-0.009002952275425195
1769667010127312600,3.348312744140625,0.03893266498446464,-0.006256539644114672,-0.007229512862116098
1769667010137300700,3.35830078125,0.029489129334688186,-0.0026311887538060545,-0.014594488672167063
1769667010147289600,3.36828955078125,0.026813188123703,0.00001574555840343237,-0.016078005228191614
1769667010157277700,3.378277587890625,0.03521159863471985,0.009355601637996733,-0.013529489789158106
1769667010167266600,3.3882666015625,0.027444471764564514,-0.010185111264698206,-0.013708499617874622
1769667010177254700,3.398254638671875,0.02835515686869621,0.0027179171891883016,-0.012861381269246339
1769667010187243800,3.408243896484375,0.033009120154380796,-0.005091222191788256,-0.01666004289984703
1769667010197231600,3.418231689453125,0.03375146295428276,0.00928739523999393,-0.010343699359893798
1769667010207220500,3.428220458984375,0.006211714121699333,-0.0038728593779727813,-0.01091989181265235
1769667010217208600,3.43820849609375,-0.0051508068919181825,-0.006343779536150396,-0.00663403118699789
1769667010227197700,3.44819775390625,0.011762918508052824,-0.01619341176878661,-0.03142711165994406
1769667010237185800,3.458185791015625,0.020146715971827506,-0.007829013125225902,-0.021081658734381198
1769667010247174700,3.468174560546875,0.025346038180589673,-0.006925123088061809,-0.01574234353303909
1769667010257162500,3.47816259765625,0.03711597095131874,-0.00672375529706478,-0.01990107064768672
1769667010267151600,3.488151611328125,0.015241992795467375,0.006690729810297489,-0.013457009074836969
1769667010277139700,3.4981396484375,0.014478607207536697,0.006173245274834334,-0.016130612198263405
1769667010287128600,3.508128662109375,0.008918050470948218,0.011966989712789654,-0.027089520847052333
1769667010297116400,3.518116455078125,0.018781272837519646,-0.0074464070158079265,-0.019528730203956363
1769667010307105500,3.52810546875,0.02069675107002258,0.0006029708618298172,-0.03082037793844938
1769667010317094700,3.5380947265625,0.025722470277547836,-0.000535129790008068,-0.020592998434603212
1769667010327082800,3.548082763671875,0.010554127240180969,0.003644493982195854,-0.0225553845487535
1769667010337071600,3.558071533203125,0.023970073652267453,-0.005395721563696861,-0.005514087246358395
1769667010347059700,3.568059814453125,0.02319382858276367,-0.0013251841891556977,-0.011528671360760927
1769667010357048600,3.578048583984375,0.002817395508289337,-0.007115859887190163,-0.011832915004342793
1769667010367036700,3.58803662109375,0.015071312403678892,-0.0053116234768182035,-0.018528028728812932
1769667010377025500,3.598025634765625,0.016418050837516785,-0.017729937153682113,-0.00455050291121006
1769667010387013600,3.608013671875,0.008639818051457405,-0.011796236255764961,-0.00568330633342266
1769667010397002800,3.618002685546875,0.02392798807621002,0.004022460449114441,-0.02004310946688056
1769667010406990600,3.627990478515625,0.023346388795971867,-0.010594970707222819,-0.02963628272041678
1769667010416979500,3.6379794921875,0.039463410860300065,0.004167494942992926,-0.02032031897306442
1769667010426967600,3.647967529296875,0.05762801310420036,-0.00023450287561863658,-0.036829993616789576
1769667010436956700,3.657956787109375,0.05610358001589775,-0.010317761201038956,-0.020290508356690405
1769667010446944800,3.66794482421875,0.00116027595102787,-0.0011786518579348921,-0.0032537410989403725
1769667010456933600,3.67793359375,0.011606266641616821,-0.007275799689255655,-0.01540828927308321
1769667010466921500,3.68792138671875,0.01934007576406002,-0.0034199645113199948,-0.02526157476752996
1769667010476910600,3.69791064453125,0.020133271968364716,-0.0020397621992975473,-0.03981792338639498
1769667010486898700,3.707898681640625,0.02315641918182373,-0.00963493003603071,-0.030676001031696796
1769667010496887800,3.7178876953125,0.004527122035622597,0.0029445655519142744,-0.0034397651903331277
1769667010506875400,3.72787548828125,-0.02331540913581848,0.007016381568089127,-0.0004383914172649383
1769667010516864500,3.737864501953125,-0.008920973080396652,0.002950374238193035,0.007655921580642462
1769667010526852600,3.7478525390625,0.005198737686872482,-0.0003742036072537303,0.0059824354104697705
1769667010536841700,3.757841796875,0.041465398332476616,-0.0017690189665183424,-0.0198550395488739
1769667010546829300,3.767829345703125,0.031004210072755813,-0.003950856517627835,-0.021381372333317994
1769667010556818000,3.77781787109375,0.028323592686653135,-0.0028723770985379813,-0.014459025724232195
1769667010566806000,3.787805908203125,0.01832008506655693,0.004777954991534352,-0.019387714298069476
1769667010576795100,3.797795166015625,0.022067454901337623,0.006398468865454196,-0.016447423062473536
1769667010586783200,3.807783203125,0.032955344140529634,-0.007340791216865181,-0.02523731710910797
1769667010596772000,3.817772216796875,0.010472878697514534,-0.005771678736619651,-0.02054477537870407
1769667010606760000,3.827760009765625,-0.023968904608488082,0.00397478538248688,-0.0032888124123215674
1769667010616749000,3.8377490234375,0.000692073917388916,0.0018105565533041953,-0.027695523916184902
1769667010626737200,3.847737060546875,0.03610357903838157,-0.002298778461664915,-0.019190438160300253
1769667010636726000,3.85772607421875,0.042938393494486804,-0.0029448212802410125,-0.01978124366030097
1769667010646714000,3.867714111328125,0.034519524717330934,-0.004985277599282563,-0.019425854351371525
1769667010656703200,3.877703125,0.0026151509344577786,-0.006513875406049191,-0.01576879314854741
1769667010666691000,3.887691162109375,0.026261399459838866,-0.002085720232874155,-0.011430325552821159
1769667010676680200,3.89768017578125,0.019101006311178205,-0.012334946242347359,-0.016244155575335026
1769667010686669000,3.9076689453125,0.01402618726491928,-0.0027959873940795656,-0.008995938012748957
1769667010696657200,3.9176572265625,0.04409048613905906,-0.003319755539856851,-0.02676964124292135
1769667010706646300,3.927646240234375,0.05964169101417064,-0.0004367474494501948,-0.008786533045768737
1769667010716634000,3.937634033203125,0.012071546065807341,0.005938742399215698,-0.012899375192075967
1769667010726623000,3.947623046875,0.008634557354450225,-0.0030693609753623605,-0.011831453699618577
1769667010736611000,3.957611083984375,0.0078688336789608,-0.0016885010762140154,-0.026536417008936403
1769667010746600200,3.96760009765625,0.005769815573096275,0.0003751899879425764,-0.02203063002228737
1769667010756588300,3.97758837890625,0.015337269863486288,-0.011183365054428577,-0.015016513476520776
1769667010766577200,3.9875771484375,0.020724808120727536,0.008535553959384561,-0.01451440917328
1769667010776565000,3.99756494140625,0.02147767231464386,0.009437507767789064,-0.014477730424702167
1769667010786554000,4.00755419921875,0.031366613644361496,-0.003562843580730259,-0.006746259389817715
1769667010796542200,4.017542236328125,0.03215688723921776,0.010425349761359393,-0.008142682184278964
1769667010806531000,4.027531005859375,0.02040098299384117,0.0022270649323239923,-0.007888853553682565
1769667010816519000,4.037518798828125,0.020903671818971632,-0.0007964841399341822,-0.019956015705317257
1769667010826508000,4.047508056640625,0.034842180800437925,0.0030178134512156246,-0.025902356889098883
1769667010836496100,4.05749609375,0.045028643772006036,0.01644468311611563,-0.03123480395823717
1769667010846485200,4.0674853515625,0.019871406161785125,-0.0010114420648664236,-0.02280497539564967
1769667010856473000,4.07747314453125,0.014165303474664687,0.0007820537557825445,-0.012558160538971424
1769667010866462200,4.087462158203125,0.021187749457359312,0.0012659648152068257,-0.01904810708016157
1769667010876450000,4.097449951171875,0.01369768596291542,0.007581906496360898,-0.018943916053324936
1769667010886439200,4.107439208984375,0.016533786171674728,-0.002487067575380206,-0.02388371054306626
1769667010896427300,4.11742724609375,0.015777414846420288,0.003112031073309481,-0.01517301921248436
1769667010906416000,4.127416015625,0.004689619120955467,-0.0012181801507249474,-0.025234248369187116
1769667010916404000,4.137404052734375,0.03086217125356197,-0.0012415975589305161,-0.014950608633458614
1769667010926393000,4.14739306640625,0.03369242624342442,-0.006006364275328815,-0.0195195239841938
1769667010936381200,4.157381103515625,0.03488075924515724,0.01234561376683414,-0.002332680731266737
1769667010946370000,4.1673701171875,0.01512508841753006,0.002870039010979235,-0.01921849521100521
1769667010956358100,4.177358154296875,0.006751812347769737,-0.0038142975911498065,-0.015567863748967646
1769667010966347300,4.18734716796875,0.017694646644592284,-0.007858458415418863,-0.018423691571503878
1769667010976335000,4.197335205078125,0.01860591627061367,0.0035852746082469817,-0.014176701651513576
1769667010986324000,4.207323974609375,0.03388122681379318,-0.004202310528047383,-0.02905482957065105
1769667010996312000,4.21731201171875,0.026088965502381323,0.003562368656694889,-0.021001286974549293
1769667011006301200,4.22730126953125,0.014096914413571356,-0.0011854469249024987,-0.008344342236220836
1769667011016289300,4.237289306640625,0.009891279417276381,-0.012468326831050217,-0.014552403096109627
1769667011026278100,4.247278076171875,0.013628712379932403,0.0036100071907043457,-0.018589549657702445
1769667011036266000,4.257265869140625,0.008709376156330108,-0.002482208737172186,-0.00527224131450057
1769667011046255000,4.267255126953125,0.011276011773943901,-0.0027072496647015214,-0.011731208195537328
1769667011056243200,4.2772431640625,0.022368483674526214,0.010683452708274125,-0.02839168948680162
1769667011066232300,4.287232421875,0.042566637572646136,0.007266776132583618,-0.026905104190856215
1769667011076221200,4.29722119140625,0.039247137761116026,-0.00493705454338342,-0.017190642645210027
1769667011086209000,4.307208984375,0.03849368904531002,-0.011797661027871071,-0.02933525394722819
1769667011096198100,4.3171982421875,0.028348142606019974,0.00745649001840502,-0.023618629866093397
1769667011106186200,4.327186279296875,0.011773439902067183,0.0003245923118665814,-0.014224632446467876
1769667011116175000,4.337175048828125,0.023729250633716583,-0.00025766455549746753,-0.011419365767389535
1769667011126163200,4.3471630859375,0.03366612275838852,0.002852612952142954,-0.02484948683530092
1769667011136152000,4.357152099609375,0.06175473764538764,-0.010091587762348354,-0.016282295628637075
1769667011146140200,4.36714013671875,0.006380640947818756,-0.005078143514506518,0.006283025792241096
1769667011156129000,4.37712890625,0.015756956580281256,-0.00017630641497671604,-0.013169278174638747
1769667011166117000,4.3871171875,0.030676877814531326,-0.006288103826157749,-0.026420243283361195
1769667011176106200,4.397106201171875,0.01730535506606102,-0.005523987585864961,-0.013698708876222371
1769667011186094000,4.407093994140625,0.02517418874502182,0.0006207622468471527,-0.02423252398073673
1769667011196083000,4.4170830078125,0.009733458507061005,-0.002266227898932993,-0.023480244308710096
1769667011206071000,4.427071044921875,-0.0017810381978750228,0.006821406985260546,-0.013059095798432827
1769667011216060200,4.43706005859375,0.01949380502104759,0.004283412940241396,-0.01841536213457584
1769667011226048300,4.44704833984375,0.042700493085384365,0.0066131710620597,-0.015062544575333594
1769667011236037000,4.457037109375,0.03360883961319923,0.002328187219239771,-0.01859364131093025
1769667011246025000,4.46702490234375,0.015227964270114898,0.00773125183917582,-0.03428162430822849
1769667011256014000,4.47701416015625,0.023023148190975187,0.001733217000775039,-0.01398614751547575
1769667011266002200,4.487002197265625,0.028572599011659622,-0.0039061771256849167,-0.016482202114909885
1769667011275991300,4.4969912109375,0.033656770408153534,0.004234349634125828,-0.023364508974552153
1769667011285979100,4.506979248046875,0.02477320672869682,-0.0022004691863432525,-0.026013562178611754
1769667011295968000,4.516968017578125,0.031436756271123883,-0.0073063409579917785,-0.016655366724729538
1769667011305956000,4.5269560546875,0.0030979660153388974,-0.003140088124014437,-0.015198738175630569
1769667011315945200,4.5369453125,0.00530862780213356,-0.0025110329728573557,-0.022003888145834205
1769667011325933300,4.546933349609375,-0.003557400220632553,-0.002235211706161499,-0.012237988673895597
1769667011335922200,4.556922119140625,0.01582125398814678,0.006297346578538417,-0.016343524296581743
1769667011345910000,4.566909912109375,0.027444471764564514,-0.005701901436038315,-0.029254736056923865
1769667011355899100,4.576899169921875,0.030536592561006545,0.007943469817750156,-0.024954846905916928
1769667011365887200,4.58688720703125,0.030778000101447104,-0.0009242752380669117,-0.00935585736632347
1769667011375876000,4.5968759765625,0.03717559218406677,0.012297719504497944,-0.00440846409201622
1769667011385864000,4.606864013671875,0.022636779221892354,0.00647248394973576,-0.00897241100668907
1769667011395853000,4.61685302734375,0.03561959491372108,0.013979717774689197,-0.01998217305988073
1769667011405841200,4.626841064453125,0.04381751441657543,0.003336925870366394,-0.016405922008305786
1769667011415830000,4.636830078125,0.0202080907702446,-0.003966309815086424,-0.006140548581629992
1769667011425818000,4.646818115234375,-0.01865910776257515,-0.00010152414571493864,-0.009713438632339238
1769667011435807200,4.65680712890625,0.012477204257249831,-0.002304294886998832,-0.019126725274324415
1769667011445795000,4.666795166015625,0.023701778104901313,0.00335343861375004,-0.013832418258488178
1769667011455784200,4.6767841796875,0.03386018402576446,-0.002786598511226475,-0.013287789987772702
1769667011465773000,4.68677294921875,0.038162265133857724,-0.014242021972686052,-0.018245850786566733
1769667011475761200,4.69676123046875,0.024981296521425247,0.0017651465089991688,-0.023506986185163257
1769667011485750300,4.706750244140625,0.005826514196395874,-0.008094532193616033,-0.02075081934481859
1769667011495738000,4.716738037109375,0.009131400960683822,0.007504676541686057,-0.012869564575701951
1769667011505727000,4.72672705078125,0.024552257454395293,-0.0012111658880487083,-0.0118653559692204
1769667011515715000,4.736715087890625,0.014071779972314834,-0.00860657336898148,-0.02497530517205596
1769667011525704200,4.7467041015625,0.03127309014201164,0.0017369067952036858,-0.025250761112570762
1769667011535692300,4.7566923828125,0.032443302965164185,0.005285831448435783,-0.012380465884506702
1769667011545681200,4.76668115234375,0.0300070157289505,0.008147796750813723,-0.01923997639045119
1769667011555669200,4.776669189453125,0.02787292630970478,0.003194485192373395,-0.014367840309441089
1769667011565658400,4.786658447265625,0.017824410504102706,0.004839110594242811,-0.023742840767651794
1769667011575646200,4.796646240234375,0.005975567278265953,-0.008351173835806549,-0.017893237956613302
1769667011585635000,4.806635009765625,0.015969138026237485,-0.005305668660067021,-0.019971213274449107
1769667011595623200,4.816623046875,0.029248306316137312,0.005849274017475545,-0.015117051241546869
1769667011605612300,4.8266123046875,0.035648236486315724,-0.0007785466244444251,-0.025190555357933044
1769667011615600400,4.836600341796875,0.049236032333970066,-0.00781651896983385,-0.014019173002243042
1769667011625589200,4.84658935546875,0.02437280923426151,-0.0011375161299481988,0.0009723521634936332
1769667011635577000,4.8565771484375,0.02181786405444145,-0.002003631439991295,-0.010165274053066968
1769667011645566200,4.866566162109375,0.0264472774207592,0.0023243878269568084,-0.01502133578211069
1769667011655554300,4.87655419921875,0.024948563295602796,0.0010039528781548143,0.0036776655994355677
1769667011665543400,4.88654345703125,0.016130466067790984,0.001395436413772404,-0.012282412337511777
1769667011675531300,4.89653125,0.014050737184286117,0.00033233722690492864,-0.010624562127888202
1769667011685520100,4.90652001953125,0.010631284129619598,0.0031457872124388813,-0.006382248383015394
1769667011695508200,4.91650830078125,0.03459317447543144,0.003274674289114773,-0.009123656045645474
1769667011705497300,4.926497314453125,0.030574001961946484,-0.004108239036425948,-0.018003712593764067
1769667011715485400,4.9364853515625,0.016679332122206687,0.0052727527711540455,-0.015508096385747194
1769667011725474300,4.946474365234375,0.01864507923722267,0.007271927231736481,-0.017766688967496155
1769667011735462100,4.956462158203125,0.01852232964038849,-0.00594597585760057,-0.021517419803142545
1769667011745451300,4.966451171875,0.019772621962428093,0.003872457519173622,-0.012369798360019921
1769667011755439400,4.976439453125,0.02100362506210804,0.0033679785957559942,-0.010928513510525225
1769667011765428200,4.98642822265625,0.020867431461811064,-0.003059241440147161,-0.008764321213960646
1769667011775416000,4.996416015625,0.03297287979722023,0.001610613534413278,-0.015163812992721796
1769667011785405200,5.0064052734375,0.02891863597035408,-0.002663921979628503,-0.016460136413574217
1769667011795393300,5.016393310546875,0.016355506995320318,0.006507774458825588,-0.019562632473558186
1769667011805382100,5.026382080078125,0.015628361764550208,0.012513627277500926,-0.015994856989383698
1769667011815370200,5.036370361328125,0.011890344280004501,-0.0018070494219660758,-0.01888473321199417
1769667011825359400,5.046359375,0.03742635207474231,0.00753730016965419,-0.015804741244763134
1769667011835347200,5.05634716796875,0.05618950473368167,0.0044717385865747925,-0.026898089928179977
1769667011845336300,5.06633642578125,0.03442892382442951,-0.010746434941887855,-0.011779723512381315
1769667011855325200,5.0763251953125,0.024337737920880315,0.005369345013424754,-0.000991787516325712
1769667011865313300,5.086313232421875,0.024262334597110746,-0.0065006140656769275,-0.020795389138907192
1769667011875302400,5.096302490234375,0.023006197056174276,0.0012361907314509153,-0.02618541161417961
1769667011885290200,5.106290283203125,-0.01403144796192646,0.004418912420794368,-0.019606763876229522
1769667011895279000,5.116279052734375,0.008640987095236778,0.006181026722490787,-0.004431260445713996
1769667011905267200,5.12626708984375,0.019982465320825576,0.01686426023505628,-0.015420418102294206
1769667011915256300,5.13625634765625,-0.010983166307210922,0.003532448442466557,-0.008060264597833156
1769667011925244400,5.146244384765625,0.007438625568151474,0.008580014155618846,-0.010984189220517873
1769667011935233300,5.1562333984375,0.029741058269143104,0.01332841425910592,-0.028162703036516905
1769667011945221000,5.16622119140625,0.044857378858327863,0.003257467425987124,-0.025163375090062615
1769667011955210200,5.176210205078125,0.04858136781752109,-0.0014758812388405203,-0.010000146619230509
1769667011965198300,5.1861982421875,0.043477322676777834,0.005886829548887908,-0.01219298048838973
1769667011975187200,5.196187255859375,0.023252865293622017,0.002722118440270424,-0.0036871640801429744
1769667011985175000,5.206175048828125,0.03893091141879558,0.0018643690997734665,-0.022847499363124368
1769667011995164200,5.2161640625,0.03318506124317646,-0.0012025441901758313,-0.02169336089193821
1769667012005152300,5.22615234375,0.008736848685145378,0.008255385311134159,-0.017192250080406663
1769667012015141400,5.236141357421875,-0.012403554499149321,-0.007453896202519536,-0.008493249187618493
1769667012025129200,5.246129150390625,-0.007207739421725273,-0.00501921640150249,-0.012792992208153008
1769667012035118300,5.256118408203125,0.0035129765570163724,0.007517170697078108,-0.019543197120726108
1769667012045106200,5.266106201171875,0.00481061515212059,-0.0037568683154880996,-0.023487989223748444
1769667012055095300,5.27609521484375,0.027521628654003143,-0.008893244823254645,-0.02792451036646962
1769667012065083400,5.28608349609375,0.031550153517723084,-0.0073206617442891,-0.017704875777661798
1769667012075072300,5.296072265625,0.01852700581550598,0.007727050588093698,-0.021800620658695695
1769667012085060400,5.306060302734375,0.028855507606267927,-0.008471256551519035,-0.015261282017827033
1769667012095049200,5.31604931640625,0.044261166530847544,0.00031900282129645346,-0.020919746170938013
1769667012105037300,5.326037353515625,0.04077157084941864,0.0013970438489690421,-0.029883973871171473
1769667012115026200,5.336026123046875,0.04209551292955875,0.0010614917516708372,-0.01925049778446555
1769667012125014300,5.34601416015625,0.003229483440518379,0.0046110009267926215,0.00012903320714831353
1769667012135003400,5.35600341796875,-0.007056348252296447,0.0000798603031784296,-0.004047814086079597
1769667012144991200,5.3659912109375,0.013752046498656273,-0.010704385898448526,-0.01604994817748666
1769667012154980000,5.37597998046875,0.03590367255210876,0.01008508495632559,-0.014906038839370011
1769667012164968200,5.38596826171875,0.01825461861491203,-0.008664185307733715,-0.018942016357183455
1769667012174957300,5.395957275390625,0.01735679299235344,-0.01278645286951214,-0.027172084563970564
1769667012184945400,5.4059453125,0.020051438903808592,0.0038079774482175704,-0.01807312456816435
1769667012194934300,5.415934326171875,0.02095043357014656,0.0011901231000199914,-0.011539923407137394
1769667012204922000,5.425922119140625,0.015707272219657897,-0.0035442484781146046,-0.02810571215227246
1769667012214911200,5.4359111328125,0.005970306581258774,-0.007549903922900557,-0.02705985636115074
1769667012224899300,5.4458994140625,0.01852700581550598,-0.009668905370868742,-0.031885230690985915
1769667012234888200,5.45588818359375,0.041705052307248115,0.0038182796465232966,-0.016273235539346932
1769667012244876000,5.4658759765625,0.0500578701108694,0.006587561696767806,-0.02785977456718683
1769667012254865200,5.475865234375,0.03852116157412529,-0.003230542886443436,-0.0071953183315694325
1769667012264853200,5.485853271484375,0.007556698989868164,0.0038418066525831816,-0.006629355011880398
1769667012274842400,5.49584228515625,0.013121931901574135,0.0008026216197758913,-0.018543956950306893
1769667012284831200,5.505831298828125,0.008383212941884995,-0.00375288626011461,-0.01670285912826657
1769667012294819300,5.5158193359375,0.006340308937430382,-0.018355777434445917,-0.019644027146697045
1769667012304808200,5.52580810546875,0.021323358535766602,0.003427892089448869,-0.015706103175878523
1769667012314796300,5.53579638671875,0.0059223757863044735,-0.004115289831720293,-0.011672317615151405
1769667012324785200,5.54578515625,0.012362053444981574,-0.0040080665975809095,-0.0339488852225244
1769667012334773200,5.555773193359375,0.021790976047515866,0.00919829218443483,-0.030033319213986394
1769667012344762400,5.565762451171875,0.02104746420383453,-0.005622041132859886,-0.014585720843821762
1769667012354750200,5.575750244140625,0.021958149307966232,-0.004618818907067179,-0.01625263114273548
1769667012364739000,5.585739013671875,0.022736147943139075,0.012933935048803686,-0.011839198614656925
1769667012374727200,5.59572705078125,0.020984335839748382,0.004535816798731685,-0.008403378947079182
1769667012384716300,5.60571630859375,0.014752163451910019,-0.0023642449133098125,-0.020021482156962155
1769667012394704400,5.615704345703125,0.019743980389833448,0.005173091788962483,-0.02082695332095027
1769667012404693200,5.625693359375,0.03189209882318973,-0.007743563331477343,-0.02365077857002616
1769667012414681000,5.63568115234375,0.04492284530997276,0.0026773659830912947,-0.030469080282747744
1769667012424670200,5.645670166015625,0.03415887471139431,0.002286832295544445,-0.023855507361888885
1769667012434658300,5.655658203125,0.03717208505272865,-0.00038541912101209164,-0.007601414914429188
1769667012444647400,5.6656474609375,0.01341711545586586,-0.01251424833200872,-0.024861031142622232
1769667012454635300,5.67563525390625,0.003014379385113716,0.0032306890169158577,-0.010346037447452544
1769667012464624000,5.6856240234375,0.008783025914430618,0.003989361897110939,-0.017554361391067502
1769667012474612200,5.6956123046875,0.013943185156583784,-0.005432582975365221,-0.01367562026157975
1769667012484601300,5.705601318359375,0.015195231044292448,-0.01411671509258449,-0.019649726235121488
1769667012494589400,5.71558935546875,0.017473697370290756,0.007225421208888292,-0.020245354040712118
1769667012504578300,5.725578369140625,0.02456979311108589,-0.0011306845303624869,-0.02749766325652599
1769667012514566100,5.735566162109375,0.018509470158815385,-0.0037095220424234864,-0.014424392802268265
1769667012524555300,5.74555517578125,0.01365326229929924,0.013369476921856402,-0.014753917017579077
1769667012534543400,5.75554345703125,0.011148001480102539,0.01154766832217574,-0.02072422359883785
1769667012544532200,5.7655322265625,0.04808803134262561,0.0029393413875252006,-0.031166707158088683
1769667012554520300,5.775520263671875,0.06502981379330158,-0.007718794216401875,-0.021437194173783064
1769667012564509200,5.78550927734375,0.00982815105319023,-0.0034117446722462773,-0.004736819263547658
1769667012574497300,5.795497314453125,0.03764437873959541,-0.0007749298952519893,-0.022978432266414165
1769667012584486100,5.805486083984375,0.051395840716361996,-0.002817943497560918,-0.0196828978523612
1769667012594474200,5.81547412109375,-0.007412906605005264,-0.008828655154444276,-0.022606384083628653
1769667012604463400,5.82546337890625,-0.007587094128131866,0.005489719990082085,-0.0240486918464303
1769667012614451200,5.835451171875,0.009926350730657577,-0.0023396584613248703,-0.01624547074958682
1769667012624440300,5.8454404296875,-0.009774375039339065,0.0005090089680626988,0.0054461365766823285
1769667012634428200,5.85542822265625,0.0070411506831645964,0.0074541884634643785,-0.008538988025486468
1769667012644417300,5.865417236328125,0.017845453292131424,0.011543759332038462,-0.013432020764052867
1769667012654406400,5.875406494140625,0.022809213179349898,0.004574760569632053,-0.024635697954148054
1769667012664394200,5.885394287109375,0.03299918328225612,-0.0007863646047189831,-0.014771452674269676
1769667012674383000,5.895383056640625,0.0400455946624279,0.004304784521833062,-0.013985124602168797
1769667012684371200,5.90537109375,0.025713702449202538,-0.002640979495458305,-0.014387129531800746
1769667012694360300,5.9153603515625,0.022726211071014402,0.0055080958969891064,-0.012527911531180142
1769667012704348400,5.925348388671875,0.04381576085090637,-0.009411679206788539,-0.019906039083749053
1769667012714337300,5.935337158203125,0.021674071669578552,-0.0103322281178087,-0.01643997040838003
1769667012724325000,5.9453251953125,-0.0028337621212005614,0.0031990883022546767,-0.0023300503827631473
1769667012734314200,5.955314208984375,0.0009422492861747741,-0.005603628693334758,-0.008726181160658597
1769667012744302300,5.96530224609375,0.005751695394515991,-0.0008926014581695198,-0.009657909052819012
1769667012754291200,5.975291259765625,0.02222352224588394,-0.010883468792401254,-0.00723331225439906
1769667012764279300,5.985279296875,0.034065351209044456,-0.006004099253006279,-0.014212942008674144
1769667012774268200,5.99526806640625,0.03633504970669746,-0.00796389155127108,-0.01401727330610156
1769667012784256300,6.00525634765625,0.040248423758149146,-0.006118592478148639,-0.009685527712106705
1769667012794245000,6.0152451171875,0.03577741582393646,-0.0031055282672867177,-0.017452070060372353
1769667012804233200,6.025233154296875,0.02248538805246353,0.0016426161078736184,-0.0011952011339366436
1769667012814222300,6.035222412109375,0.007840776628255844,0.0014514043847098945,-0.017086305487900973
1769667012824210200,6.045210205078125,0.0031926585614681243,-0.01427961403671652,-0.010662409920245409
1769667012834199300,6.05519921875,0.028453356546163558,-0.020442484048008917,-0.022477789267897605
1769667012844187100,6.065187255859375,0.004867898297309875,-0.005571187728457152,-0.02152326502203941
1769667012854176300,6.07517626953125,-0.013640402817726134,0.007149433363229036,-0.014676760128140448
1769667012864164400,6.085164306640625,0.019155951368808745,-0.006445559410192072,-0.01703632886633277
1769667012874153200,6.0951533203125,0.023062895679473876,0.0051951209576800465,-0.02959711975380778
1769667012884141300,6.105141357421875,0.019050152906775475,-0.007453275148011744,-0.015403320837020873
1769667012894130200,6.115130126953125,0.01671148082613945,0.0031952523773536084,-0.013395634276419877
1769667012904118300,6.1251181640625,0.004187514817714691,0.017118782985396683,-0.01595613241419196
1769667012914107400,6.135107421875,0.022027122890949248,0.004718991345912218,-0.023144582613557577
1769667012924095200,6.14509521484375,0.02759060223698616,0.006980250808782875,-0.02011237531080842
1769667012934084000,6.155083984375,0.05199731374084949,0.0016933233818039297,-0.014278554590791463
1769667012944072200,6.165072265625,0.03180325149595737,-0.0029261896450072525,-0.017962942191958427
1769667012954061300,6.175061279296875,0.036594577425718304,0.0017038447758182882,-0.014802578464895485
1769667012964049400,6.18504931640625,0.025374095231294632,0.0028448680371046067,-0.018339082027971743
1769667012974038300,6.195038330078125,0.017293664628267286,0.00015796704068779944,-0.019834289021790026
1769667012984026000,6.205026123046875,0.02254033311009407,0.006649228756129741,-0.011962824994325638
1769667012994015200,6.21501513671875,0.002810381245613098,-0.00378353712670505,-0.004612023840099573
1769667013004003300,6.22500341796875,0.017940730360150335,0.0009823986334726214,-0.02046308844462037
1769667013013992200,6.2349921875,0.009876666370034218,0.0030014103056862948,-0.021216683290898798
1769667013023980000,6.24497998046875,0.015134440767765045,0.0012910627238452434,-0.017005203075706958
1769667013033969200,6.25496923828125,0.011118775385618208,0.0071568860173225396,-0.01652516447380185
1769667013043957200,6.264957275390625,0.01950900259017944,-0.006346008025854825,-0.01655629026442766
1769667013053946400,6.2749462890625,0.006202946293354034,-0.0010807444414123893,-0.014760054497420787
1769667013063934200,6.284934326171875,0.026254969719052314,0.009033383946307002,-0.02094692643880844
1769667013073923300,6.29492333984375,0.041672319081425664,-0.000010594459250569344,-0.018126023799180983
1769667013083911200,6.3049111328125,0.02806932566463947,0.0038795083144679663,-0.010637275478988885
1769667013093900300,6.314900390625,0.007437456524372101,0.003140015058778226,-0.013292173901945353
1769667013103888400,6.324888427734375,0.015695581781864164,0.007535363940894603,-0.011285071863234042
1769667013113877200,6.334877197265625,0.015136194333434104,-0.0037324279939755793,-0.014329115734249352
1769667013123866400,6.344866455078125,0.023545710760354995,0.006343889134004712,-0.022632979829609393
1769667013133854200,6.354854248046875,0.020884382596611975,0.0045278526879847045,-0.0314895093716681
1769667013143843000,6.364843017578125,0.014638766205310821,0.018186193021200597,-0.0193844994276762
1769667013153831200,6.3748310546875,0.02348959665894508,0.0034548531616106627,-0.02024637695401907
1769667013163820300,6.3848203125,0.027678280520439146,-0.0023339593729004263,-0.016199878042191265
1769667013173808400,6.394808349609375,0.026634908947348594,0.0050374096453189845,-0.006667641195654868
1769667013183797200,6.40479736328125,0.01929214496910572,-0.003381824458017945,-0.016213175915181635
1769667013193785000,6.41478515625,0.0019335984110832214,0.007659246048890054,-0.019851386287063358
1769667013203774200,6.424774169921875,0.010022212320566177,0.009837211142480373,-0.019703356118500232
1769667013213762300,6.43476220703125,0.0221685771882534,-0.0016442966083064674,-0.014269202240556477
1769667013223751400,6.44475146484375,0.01980535518825054,0.006295008490979671,-0.007772679828107356
1769667013233739300,6.4547392578125,0.019677929416298864,0.0077587974332273,-0.019846856242418286
1769667013243728100,6.46472802734375,0.03973579806089401,0.005140102834813296,-0.019169979894161224
1769667013253716200,6.47471630859375,0.02270750637054443,-0.004626929148286581,-0.017485972329974172
1769667013263705300,6.484705322265625,0.014362871873378752,-0.012791494370810686,-0.01721592321693897
1769667013273693400,6.494693359375,0.0030541268736124037,-0.003427271034941077,-0.004928834704309702
1769667013283682300,6.504682373046875,-0.00573299069404602,0.007098908752389252,-0.01773775513395667
1769667013293670100,6.514670166015625,0.02891980501413345,-0.0036173502469435334,-0.03822495510652661
1769667013303659300,6.5246591796875,0.08649228853881359,-0.0006029708618298172,-0.037816812697052955
1769667013313647400,6.5346474609375,0.01558686071038246,0.010572722342796622,-0.009730243636667728
1769667013323636200,6.54463623046875,0.013017302483320236,0.01378255123477429,-0.007121668573468923
1769667013333624300,6.554624267578125,0.05399871669113636,0.002464709613099694,-0.030876638170331715
1769667013343613200,6.56461328125,0.011343231791257858,0.000714979868941009,-0.008559884683042765
1769667013353601300,6.574601318359375,0.0002402384966611862,-0.0004389759391546249,-0.018624182579666373
1769667013363590100,6.584590087890625,0.01485620834827423,0.00623673896510154,-0.032983108930289745
1769667013373578200,6.594578125,0.013031331008672714,0.007966010443121195,-0.012140958040207624
1769667013383567400,6.6045673828125,0.017666589593887328,0.012732421127334236,-0.021684885324537752
1769667013393555200,6.61455517578125,0.02321837850213051,0.007881693160533904,-0.027142273947596548
1769667013403544000,6.6245439453125,0.026997897040843963,0.0037790436146780846,-0.01843976592347026
1769667013413532200,6.6345322265625,0.028088614886999128,0.005490962099097669,-0.021528817979991434
1769667013423521300,6.644521240234375,0.020917700344324112,0.0074130527354776855,-0.022113924391567705
1769667013433509400,6.65450927734375,0.02390928337574005,0.0011400003479793666,-0.019187807811796666
1769667013443498200,6.664498291015625,0.03498480414152145,0.017051270707137883,-0.020858517502993345
1769667013453486000,6.674486083984375,0.03391629812717437,0.005017207107506692,-0.029644466026872394
1769667013463475200,6.68447509765625,0.013389058405160904,0.0020374971769750116,-0.023930033902823923
1769667013473463300,6.69446337890625,-0.008930909952521323,-0.002282923305407166,-0.025967969471216202
1769667013483452400,6.704452392578125,0.005880290210247039,-0.004834544016979634,-0.02203705976307392
1769667013493440300,6.714440185546875,0.019643442624807356,-0.0036660482268780466,-0.008548924897611141
1769667013503429000,6.72442919921875,0.019331892457604406,0.004448759569786489,-0.008112433176487684
1769667013513417200,6.734417236328125,0.034270518392324444,-0.0027941607631742954,-0.013780103549361229
1769667013523406300,6.74440625,0.04083469921350479,-0.005336977113783359,-0.0016489362508058548
1769667013533394400,6.75439453125,0.040083004063367844,-0.0019867168378084896,-0.01900558311268687
1769667013543382500,6.764382568359375,0.027655484166741368,0.006726422178186476,-0.026376550272107124
1769667013553370600,6.77437060546875,0.027656068688631057,0.008804835887439548,-0.025866701053828
1769667013563359700,6.78435986328125,0.025559973192214966,0.008152107599750161,-0.016412936270982025
1769667013573348900,6.794348876953125,0.0263034850358963,-0.002921075078472495,-0.022878917414695023
1769667013583336700,6.804336669921875,0.025704934620857236,-0.009631715165637433,-0.018980302540957925
1769667013593325600,6.81432568359375,0.029752748706936834,0.0025862901661545036,-0.012156155609339475
1769667013603313700,6.824313720703125,-0.00043722237348556514,0.0010511164881289005,-0.007820026101171969
1769667013613302800,6.834302734375,0.00499532406926155,0.005315861260518431,-0.006435001483559608
1769667013623291000,6.844290771484375,0.02567570852637291,-0.0005965045884251594,-0.021163930190354584
1769667013633279700,6.85427978515625,0.021982699227333067,0.004808057868853211,-0.025857787095010278
1769667013643267600,6.864267578125,0.007064531558752059,-0.004521897871233522,-0.0036013854928314683
1769667013653256700,6.874256591796875,0.034928105518221855,-0.003816453015618026,-0.019747341390699148
1769667013663244800,6.884244873046875,0.02759527841210365,0.013184439211152494,-0.022198241674154996
1769667013673233700,6.894233642578125,0.02535188339948654,0.009396664300747214,-0.02134279388859868
1769667013683221800,6.9042216796875,0.043756139618158336,0.004112549885362387,-0.020353198329359293
1769667013693210600,6.914210693359375,0.024895956325531005,0.004800787877850234,-0.016168606121093033
1769667013703198700,6.92419873046875,0.020109891092777252,0.0014446458503603935,-0.015818185248225928
1769667013713187600,6.9341875,0.02265489940047264,0.00841525204796344,-0.02107742095068097
1769667013723175700,6.94417578125,0.025485154390335083,0.0031791780253872274,-0.019217910689115523
1769667013733164800,6.954164794921875,0.03923661636710167,-0.0006568930061534047,-0.03501388410553336
1769667013743152600,6.964152587890625,0.021862872239947317,-0.001714110441505909,-0.026142303124815223
1769667013753141800,6.974141845703125,0.01811316431760788,-0.008006598181836307,-0.013098404895514249
1769667013763129600,6.984129638671875,0.02483165891766548,0.007212269466370344,-0.025486177303642034
1769667013773118700,6.99411865234375,0.034253567257523536,0.000978562708571553,-0.014281623330712317
1769667013783106800,7.00410693359375,0.014509586867690086,0.005103643281944095,-0.02077566152513027
1769667013793096000,7.014095947265625,0.01586567765176296,0.0084440032184124,-0.01889963852018118
1769667013803083800,7.024083740234375,0.014373393267393111,-0.0028057050704956054,-0.0107379593744874
1769667013813072600,7.03407275390625,0.01901098994016647,0.007477277078106999,-0.0120483113206923
1769667013823060700,7.044060791015625,0.026797406032681464,0.00838986187838018,-0.028022271652519703
1769667013833049900,7.0540498046875,0.01945639562010765,-0.00010722323413938284,-0.03300517463162541
1769667013843037700,7.06403759765625,0.011525018098950386,-0.004515029739029705,-0.015470248593389987
1769667013853026600,7.074026611328125,0.012118892338871956,0.010136047958582639,-0.01754676260650158
1769667013863014700,7.0840146484375,0.018251111483573914,0.0029352862669155,-0.020506343064457176
1769667013873003800,7.094003662109375,0.02589081258177757,-0.0006126154730096459,-0.00980681600421667
1769667013882991900,7.103991943359375,0.014075287103652953,0.0027011121848598122,-0.025320026956498622
1769667013892980700,7.113980712890625,0.028448680371046066,0.002176357658393681,-0.022243103729188442
1769667013902968600,7.123968505859375,0.023516484665870665,0.009375146588683127,-0.018157149589806795
1769667013912957700,7.133957763671875,0.02457505380809307,0.0032476401517167685,-0.025262743811309336
1769667013922945800,7.14394580078125,0.017983400458097456,-0.0005569397630169988,-0.01675137444511056
1769667013932934700,7.1539345703125,0.009165303230285644,-0.002473952365480363,-0.03223053699731827
1769667013942922500,7.163922607421875,0.022929624688625333,-0.0012141250301152466,-0.025489976695924996
1769667013952911600,7.17391162109375,0.01844458822906017,-0.006759009273536503,-0.01813026158288121
1769667013962899700,7.183899658203125,0.023103812211751937,-0.009824753519706428,-0.027298341292142866
1769667013972888800,7.193888916015625,0.027141104903817177,0.006422397730313241,-0.016420681186020372
1769667013982876700,7.203876708984375,0.026836568999290464,0.007044840477593243,-0.01958586721867323
1769667013992865800,7.21386572265625,0.01784603781402111,-0.0041767742279917,-0.02445961073487997
1769667014002853600,7.223853515625,0.01424713653922081,-0.0005648308085277676,-0.028394612096250056
1769667014012842800,7.2338427734375,0.019473931276798247,-0.012846622091531753,-0.02428118542805314
1769667014022830800,7.243830810546875,0.022895722419023514,-0.001378302615880966,-0.019045915123075245
1769667014032819700,7.25381982421875,0.0225695592045784,-0.00503879788480699,-0.01282499478161335
1769667014042808800,7.263808837890625,0.018206103298068047,0.003806844937056303,-0.024204320799559354
1769667014052796700,7.273796630859375,0.0038233576804399486,-0.0014515139825642107,-0.01684811281785369
1769667014062785500,7.28378564453125,0.01640519135594368,-0.011192388611100614,-0.010484423004835843
1769667014072773600,7.293773681640625,0.006855272722244263,0.003100596363842487,-0.016612696626782417
1769667014082762800,7.3037626953125,0.024995325046777723,0.0008188421022146939,-0.021187895587831733
1769667014092750800,7.313750732421875,0.024108605340123174,0.009243848359212279,-0.02498787239268422
1769667014102739700,7.32373974609375,0.027386604097485542,0.0023806115262210367,-0.029953239715099333
1769667014112727600,7.3337275390625,0.014233692535758017,-0.008999773937650024,-0.015429770452529192
1769667014122716700,7.343716552734375,0.010696166059374809,0.004104110850580036,-0.020418810911476612
1769667014132704800,7.353704833984375,-0.009447627303004264,-0.0062769613776355974,-0.01535159064978361
1769667014142693600,7.363693603515625,-0.004364040428400039,0.0028957214415073393,-0.033560470426827665
1769667014152681700,7.373681640625,0.05154956997334957,-0.003935658948495984,-0.03672653324231505
1769667014162670600,7.383670654296875,0.06741817023456097,-0.012994286933913825,-0.008219108421355486
1769667014172658700,7.39365869140625,-0.0006663549542427063,-0.0003933466991409659,-0.004550064519792795
1769667014182647800,7.403647705078125,0.043588966357707974,-0.004124313388392329,-0.024401450806856153
1769667014192635600,7.4136357421875,0.04996960730552673,-0.0033000279260799285,-0.031024814469367265
1769667014202624800,7.423624755859375,0.01968202106952667,0.003661445116996765,-0.011055354760587215
1769667014212612600,7.433612548828125,0.008833879318833351,0.00560289804097265,-0.020632453662157057
1769667014222601700,7.443601806640625,0.009673837274312973,0.0031521073553711174,-0.020183979242295026
1769667014232589800,7.45358984375,0.010261866295337676,0.005378880026750266,-0.0009898878201842307
1769667014242578700,7.46357861328125,0.03601590075492859,0.003232406049966812,-0.009903408246487378
1769667014252566800,7.47356689453125,0.026033435922861097,0.002222973279096186,-0.012291326296329497
1769667014262555600,7.4835556640625,0.006334463718533516,0.00577781621646136,-0.00895005304440856
1769667014272543700,7.493543701171875,0.040950434547662735,0.011097111543081701,-0.015669570557773113
1769667014282532600,7.50353271484375,0.025272388422489165,0.001917852852679789,-0.012982961822301149
1769667014292520700,7.513520751953125,0.03575871112346649,0.011124218745715916,-0.017175298945605755
1769667014302509800,7.523509765625,0.031253216397762296,0.013898030840605497,-0.021506752278655766
1769667014312497700,7.53349755859375,0.03585632627904415,0.0040645460251718755,-0.02172901672720909
1769667014322486500,7.543486572265625,0.0038028994143009184,-0.005331826014630496,-0.013249211543053387
1769667014332474600,7.553474609375,-0.003547463348507881,0.002784004695340991,-0.022339111449569463
1769667014342463700,7.563463623046875,0.01094575690627098,-0.007972622846998274,-0.02412599486634135
1769667014352451800,7.573451904296875,0.0125613754093647,-0.0040010158022865654,-0.019662439586222172
1769667014362440700,7.583440673828125,0.008772504520416259,-0.00018240736220031975,-0.01989741738587618
1769667014372428500,7.593428466796875,0.0076771104991436,0.00375200947728008,-0.014962591332197189
1769667014382417700,7.603417724609375,0.03022445787191391,0.004912321960926056,-0.028321839120984075
1769667014392405800,7.61340576171875,0.045591538351774215,0.003174355719797313,-0.019989187322556973
1769667014402395000,7.623394775390625,0.04031213664412498,0.0008691475173458457,-0.02664966812506318
1769667014412382700,7.6333828125,0.02486789927482605,-0.0013112287290394306,-0.034495851580798625
1769667014422371600,7.64337158203125,0.025855741268396376,0.006394815603643656,-0.03005333908870816
1769667014432359700,7.653359619140625,0.04599252036809921,-0.0023356764059513807,-0.01545534328520298
1769667014442348800,7.663348876953125,0.027979893815517423,0.005624525350891053,-0.023814736960083245
1769667014452337000,7.6733369140625,0.008369184416532517,-0.0035905718378722667,-0.013789894291013478
1769667014462325800,7.68332568359375,0.008367430850863456,0.0029121611196547743,-0.017784955276548862
1769667014472313600,7.693313720703125,0.026028759747743605,0.005247910590842366,-0.014099252501130104
1769667014482302700,7.703302734375,0.013763736936450003,0.0075306147005409,-0.016801497197151183
1769667014492291600,7.71329150390625,0.0006067337214946747,0.0010306216893717645,-0.013548486750572918
1769667014502279700,7.72327978515625,0.008394903379678726,0.008658741947636007,-0.022634148873388767
1769667014512268800,7.733268798828125,0.0040308629512786865,-0.0016283318541944025,-0.035053339333087206
1769667014522256600,7.743256591796875,0.01747252832651138,0.002184979356266558,-0.026075667629390953
1769667014532245800,7.753245849609375,0.035235564032197,-0.012147899237647652,-0.02725523280277848
1769667014542234000,7.763234130859375,0.04343932875394821,-0.00888254076614976,-0.02849514986127615
1769667014552223200,7.77322314453125,0.026953473377227782,0.008024499164707958,-0.01759498566240072
1769667014562211300,7.78321142578125,0.027384850531816482,0.002529445412382483,-0.022095658082515
1769667014572200200,7.7932001953125,0.03618658114671707,0.005901698324456811,-0.02610533211529255
1769667014582188000,7.80318798828125,0.03406827381849289,-0.006436755049228668,-0.017527181123197077
1769667014592177200,7.81317724609375,0.02610825472474098,-0.000789908268675208,-0.04802636428326368
1769667014602165200,7.823165283203125,0.00886836611032486,-0.00005224164389073848,-0.022568536291271448
1769667014612154400,7.833154296875,0.005849895071983337,-0.003514620524831116,-0.02131356779411435
1769667014622142200,7.84314208984375,0.01241232232749462,-0.0035672274949029087,-0.01834229689836502
1769667014632131000,7.853131103515625,0.00789104551076889,0.0045669791219756,-0.02512187403589487
1769667014642119200,7.863119140625,0.017454992669820785,-0.0031673049245029687,-0.03213350636363029
1769667014652108300,7.8731083984375,0.02328501399755478,-0.0047584831060841675,-0.012158055305480956
1769667014662096400,7.883096435546875,0.01655015278458595,-0.0012425108743831514,-0.02177884721830487
1769667014672085200,7.893085205078125,0.030168928292393683,-0.005276771359145641,-0.037325814309716224
1769667014682073000,7.903072998046875,0.026725509840250013,0.000742671593464911,-0.01801920242384076
1769667014692062200,7.913062255859375,0.028964228677749632,-0.0020827610908076164,-0.017605068664997815
1769667014702050300,7.92305029296875,0.03240238643288612,-0.002961443621478975,-0.01657397205159068
1769667014712039200,7.9330390625,0.028503625428676602,0.0011178615814074874,-0.007936930479109287
1769667014722027300,7.94302734375,0.02162321826517582,-0.000016403145529329776,-0.02659457693696022
1769667014732016400,7.953016357421875,0.020581015735864638,0.0024265330271795393,-0.015316373205929993
1769667014742004200,7.963004150390625,0.014901801055669784,0.002851334310509264,-0.03203691412135958
1769667014751993000,7.9729931640625,0.012053425887227057,-0.006913396117649972,-0.031880408385396
1769667014761981200,7.982981201171875,0.012339841613173485,-0.001401025904342532,-0.022490356488525865
1769667014771970300,7.99297021484375,0.02324994268417358,0.002590053025819361,-0.021645430096983907
1769667014781958100,8.002958251953125,0.020242577561736107,-0.012142784671112895,-0.017073884397745133
1769667014791947000,8.012947021484376,0.020073650735616684,0.0017431904055178165,-0.02493906481489539
1769667014801935000,8.02293505859375,0.015730068573355675,0.004602306163683533,-0.01448518307879567
1769667014811924200,8.03292431640625,0.017963526713848113,-0.0017426424162462354,-0.025362112532556054
1769667014821912300,8.042912353515625,0.02632686591148376,-0.0017465514063835143,-0.023376783934235573
1769667014831901200,8.052901123046874,0.02764846990406513,-0.007672215128317475,-0.015146715727448462
1769667014841889000,8.062888916015625,0.01834697307348251,-0.004966682496666908,-0.02197553883418441
1769667014851878100,8.072878173828125,0.01892564974427223,-0.0077076517678797245,-0.017285773582756517
1769667014861867300,8.0828671875,0.012024784314632416,-0.005961794481240213,-0.02051014245674014
1769667014871855400,8.09285546875,0.025778584378957747,0.008009886117465793,-0.015032587828487157
1769667014881843200,8.10284326171875,0.025910101804137227,0.0018833660611882804,-0.028474545464664696
1769667014891832000,8.11283203125,0.023197920235991477,-0.0006335851958021521,-0.029641981808841228
1769667014901821200,8.1228212890625,0.022287819653749465,0.0042716859698295594,-0.027936639195680617
1769667014911809300,8.132809326171875,0.024795418560504913,-0.006482566952332854,-0.026142741516232488
1769667014921798100,8.142798095703125,0.028813422030210492,0.0003338350642472505,-0.022943360953032968
1769667014931786200,8.1527861328125,0.02549918291568756,0.0026670272521674633,-0.02347439908981323
1769667014941775400,8.162775390625,0.024886603975296018,0.011496778385154902,-0.023783465038985013
1769667014951763200,8.17276318359375,0.021132219877839087,-0.002075673762895167,-0.020772592785209418
1769667014961752000,8.182751953125,0.020376433074474332,-0.003185534700937569,-0.010076134464889764
1769667014971740200,8.192740234375,0.01857376756668091,-0.0014891425792127847,-0.017884616258740424
1769667014981729300,8.202729248046875,0.019926351219415665,-0.003988046722859144,-0.023511370099335908
1769667014991717000,8.212717041015624,0.02335632566809654,-0.002705715294741094,-0.02365165535286069
1769667015001706200,8.222706298828125,0.01600128673017025,-0.0005540171535685658,-0.03374795582294464
1769667015011694000,8.232694091796875,0.027651392513513562,-0.004196867167949677,-0.024130086519569157
1769667015021683200,8.24268310546875,0.04468552942276001,-0.0022776626083999872,-0.010186024580150842
1769667015031671300,8.25267138671875,0.03105214086771011,0.0010274068189784883,-0.012386311103403568
1769667015041660400,8.262660400390626,0.01563479150533676,-0.006967939316481352,-0.008101911782473326
1769667015051648300,8.272648193359375,0.02357084520161152,-0.005863887064717709,-0.013191051615029573
1769667015061637000,8.28263720703125,0.046480011624097824,-0.007339147249050438,-0.015779752933979034
1769667015071625200,8.292625244140625,0.02926934910416603,-0.0035822058683261273,-0.00860576965138316
1769667015081614300,8.3026142578125,0.017311200284957886,-0.0015240312295034526,-0.03067380907461047
1769667015091602400,8.3126025390625,0.019713585251569746,0.004545059551112353,-0.01846563101708889
1769667015101591000,8.322591064453125,0.01791793400645256,0.001893631726875901,-0.026981968819350003
1769667015111579100,8.3325791015625,0.022859482061862946,-0.006131013568304478,-0.023795739998668432
1769667015121568300,8.342568359375,0.01627308940887451,-0.002984313040412962,-0.020155483800172805
1769667015131556400,8.352556396484376,0.03272971869111061,-0.010469261968322098,-0.022517829017341135
1769667015141545200,8.362545166015625,0.01729483367204666,0.010389657393470406,-0.024226094239950178
1769667015151533000,8.372532958984374,0.02819616691470146,0.005077120601199567,-0.022105010432749986
1769667015161522200,8.382522216796875,0.02785246804356575,-0.0013902853146195411,-0.02670563609600067
1769667015171510300,8.39251025390625,0.04263619567751884,-0.0015229717835783957,-0.029599165580421683
1769667015181499100,8.4024990234375,0.019865560942888258,0.006310607918910682,-0.02496653734371066
1769667015191487200,8.4124873046875,0.020910101559758185,-0.012556589636392891,-0.02304667519703507
1769667015201476000,8.42247607421875,0.014950900894403457,-0.01066335976831615,-0.025281156250834463
1769667015211464200,8.432464111328125,-0.003291442760825157,-0.002898278724774718,-0.03447203231379389
1769667015221453300,8.442453369140624,0.011958148819208144,0.0028087738104164597,-0.030214374869316815
1769667015231441200,8.452441162109375,0.0270703777551651,-0.008409699090011418,-0.02295066747665405
1769667015241430300,8.46243017578125,0.022290742263197896,-0.009715119132772088,-0.01665025215819478
1769667015251419400,8.47241943359375,0.021084873604774474,-0.005009644855558872,-0.025272242292016744
1769667015261407200,8.4824072265625,0.042452655804157254,-0.004168883182480931,-0.030740736830979585
1769667015271396000,8.49239599609375,0.010054945546388626,-0.007695851732231676,-0.03281988119259476
1769667015281384200,8.50238427734375,0.03172200295329094,-0.00732647043056786,-0.024917437504976988
1769667015291373300,8.512373291015624,0.007635024923086166,-0.004412336549535393,-0.0037602293163537977
1769667015301361400,8.522361328125,0.0313970087826252,-0.0051849283572286365,-0.02831234064027667
1769667015311350000,8.53235009765625,0.029872575694322584,-0.0033794498378410935,-0.033228900384902955
1769667015321338000,8.542338134765625,0.010379939717054367,-0.01627254141960293,-0.03419803767800331
1769667015331327200,8.5523271484375,0.006399930170178413,-0.001584419647231698,-0.023726766415685413
1769667015341315300,8.5623154296875,0.014990063861012457,0.0023873335279524324,-0.02484232644215226
1769667015351304200,8.57230419921875,0.005690905117988586,-0.009482406355440617,-0.00609963204935193
1769667015361292000,8.5822919921875,0.003447510105371475,0.0034243849581107495,-0.02034779150187969
1769667015371281200,8.59228125,0.018247019830346108,-0.002352810203842819,-0.025633769080787894
1769667015381269200,8.602269287109374,0.04965513452887535,-0.015457023785635828,-0.025741028847545384
1769667015391258000,8.612258056640625,0.047403556209802626,0.004592844215594232,-0.027411154016852377
1769667015401246200,8.62224609375,0.03870002527236938,-0.0063860477752983565,-0.025115444295108317
1769667015411235000,8.632235107421875,0.04524491687119007,-0.003936499198712408,-0.01629515511021018
1769667015421223200,8.64222314453125,0.033546880292892454,0.005029701262898743,-0.029344167906045913
1769667015431212300,8.65221240234375,0.012253916895389556,-0.00003828618377447128,-0.03676832655742764
1769667015441200400,8.662200439453125,0.019977789145708084,-0.01411185625437647,-0.028965982243418693
1769667015451189200,8.672189208984374,0.005870937860012054,-0.007937186207436026,-0.02357186811491847
1769667015461177000,8.682177001953125,-0.008951368218660355,-0.000029554888047277924,-0.020886866814643145
1769667015471166200,8.692166259765624,0.006295300751924514,-0.0070427581183612345,-0.01350859313160181
1769667015481154300,8.702154296875,0.028261633366346357,-0.008305361932702362,-0.0162257431358099
1769667015491143200,8.71214306640625,0.03197685449719429,0.0005135755453258752,-0.01745455427840352
1769667015501131300,8.72213134765625,0.0472346293836832,-0.008317417696677147,-0.01770136864632368
1769667015511120400,8.732120361328125,0.03585749532282352,0.002357194118015468,-0.028099574672430752
1769667015521108200,8.742108154296876,0.024327801048755645,-0.00029485476072877646,-0.027087621150910852
1769667015531097000,8.75209716796875,0.015348375779390334,0.0062746232900768514,-0.007350801154226064
1769667015541085200,8.762085205078124,0.02804886739850044,0.004014386740513146,-0.010865531276911497
1769667015551073800,8.77207373046875,0.026666473129391667,0.008926124179549515,-0.01375277715101838
1769667015561062000,8.782061767578124,0.03652385027706623,-0.009600808570720255,-0.016803250762820243
1769667015571051000,8.792051025390625,-0.011025836405158041,-0.006334244522824883,-0.009629998132586479
1769667015581038800,8.802038818359375,0.007530980026721954,0.001788856178149581,-0.0037045536063611507
1769667015591028000,8.812028076171876,0.02954290534853935,0.0036624680303037165,-0.020027035114914177
1769667015601016800,8.822016845703125,0.017271452796459197,0.000657988984696567,-0.015435323410481214
1769667015611005000,8.8320048828125,0.015490414598584175,-0.002371843697875738,-0.019418109436333177
1769667015620993800,8.841993896484375,0.01594809523820877,0.003708426063880324,-0.019862638333439826
1769667015630982000,8.85198193359375,0.02973112139701843,-0.005175320278666913,-0.023694763842225075
1769667015640971000,8.861970947265625,0.02153027928471565,-0.005586860221624374,-0.021921178298443554
1769667015650958800,8.871958740234374,0.015101707541942596,-0.010808978784084319,-0.012087766548246144
1769667015660947700,8.88194775390625,0.03259527865648269,-0.004698496547155082,-0.024856354967504737
1769667015670935800,8.891935791015625,0.033190321940183634,0.002302212527766824,-0.0192940446652472
1769667015680925000,8.901925048828126,0.020317980885505675,-0.0016035262065008282,-0.01857479047998786
1769667015690913000,8.9119130859375,0.029436522364616392,-0.0019515724591910838,-0.01875233900398016
1769667015700902000,8.92190185546875,0.032118308794498444,0.0005278232663869858,-0.022391133897751568
1769667015710889700,8.9318896484375,0.025510873353481293,-0.0011684592574834824,-0.011139525912702083
1769667015720878800,8.94187890625,0.015632453417778015,0.002863353541865945,-0.021928192561119792
1769667015730867000,8.951866943359375,0.001858195087313652,0.006834777923487126,-0.02529956869035959
1769667015740855800,8.961855712890625,0.009180500799417495,-0.005096227160468697,-0.02370879236757755
1769667015750843600,8.97184375,0.020379940205812453,-0.0025293723471462724,-0.014431407064944505
1769667015760832800,8.981832763671875,0.02845803272128105,0.00016012246515601872,-0.03764174839109182
1769667015770820900,8.99182080078125,0.02678746916055679,-0.01091152584310621,-0.033320816452056166
1769667015780810000,9.00181005859375,0.031101240706443784,-0.008228643434680999,-0.029314065028727052
1769667015790797800,9.0117978515625,0.017174422162771225,0.008804653224349021,-0.003747662095725536
1769667015800787000,9.021786865234375,0.008180968368053435,-0.0032603169701993463,-0.02373261163458228
1769667015810774800,9.03177490234375,0.00414659828543663,-0.0033973873533308502,-0.02144318552315235
1769667015820764000,9.041763916015626,0.018828034588694573,0.003965798358432949,-0.032089667221903796
1769667015830752000,9.051751953125,0.02393149520754814,-0.002423537352494895,-0.026424773328006267
1769667015840740900,9.061740966796876,0.0285690918803215,-0.012497772121243178,-0.007987783883512019
1769667015850729000,9.07172900390625,0.01257481941282749,-0.001852422933652997,-0.025758710634708405
1769667015860717800,9.0817177734375,0.01602466760575771,0.0016210618631914257,-0.02204144367724657
1769667015870706000,9.091705810546875,0.025136779344081876,0.0015842369841411708,-0.011777385424822567
1769667015880694800,9.10169482421875,0.02543897716104984,-0.0008324322361499071,-0.022780863867700098
1769667015890683000,9.111682861328125,0.0033095629394054413,-0.009890146906115114,-0.020093086088448762
1769667015900672000,9.121672119140625,0.02711070976555347,0.0023976357262581586,-0.015387538745999336
1769667015910659800,9.131659912109376,0.02637888835966587,-0.0020400544602423906,-0.02378419569134712
1769667015920648700,9.141648681640625,0.025199323186278343,-0.006229870832897722,-0.018127923495322464
1769667015930636800,9.15163671875,0.027612229546904562,-0.005867211532965302,-0.008846008148044347
1769667015940626000,9.1616259765625,0.033011458241939545,-0.0018855580182746052,-0.016359306387603283
1769667015950615000,9.171614990234374,0.019547581034898755,0.0054050008486956356,-0.02257511216253042
1769667015960603000,9.181602783203125,0.015965630894899368,-0.00018642595019191502,-0.02142652664929628
1769667015970591700,9.191591796875,0.018362170642614365,-0.012744440358690916,-0.032024639161676166
1769667015980579800,9.201579833984376,0.03780336869359016,0.002276420499384403,-0.019667992544174194
1769667015990569000,9.21156884765625,0.03614566461443901,0.002359057281538844,-0.01567190864533186
1769667016000557000,9.22155712890625,0.017293664628267286,-0.007295783031359315,-0.02400529109612107
1769667016010546000,9.2315458984375,0.021779285609722136,-0.004337736943364143,-0.023835779748111963
1769667016020533800,9.24153369140625,0.027769465935230254,-0.007864340166933834,-0.027823095818609
1769667016030523000,9.25152294921875,0.02030044522881508,-0.0006804930774495005,-0.03087152360379696
1769667016040511000,9.261510986328124,0.0023778350472450256,0.0003339446621015668,-0.024969898344576358
1769667016050499800,9.271499755859375,0.02022445738315582,-0.0024195552971214055,-0.018733049781620503
1769667016060488000,9.281488037109375,0.03596446282863617,-0.002748494990542531,-0.01555836526826024
1769667016070476800,9.291476806640626,0.023273323559761045,-0.008386281681805849,-0.005827683240175247
1769667016080465000,9.30146484375,0.019558102428913114,-0.012386384168639778,-0.02096373144313693
1769667016090453800,9.311453857421874,0.03587327741384506,-0.009319288215599953,-0.02724368849545717
1769667016100441900,9.32144189453125,0.02507832715511322,-0.01058795644454658,-0.024212357975542543
1769667016110431000,9.331430908203124,0.009516016364097594,-0.008188603685237467,-0.01682268611565232
1769667016120418800,9.341418701171875,0.00833762023448944,-0.015590952363610267,-0.02414206921830773
1769667016130408000,9.351407958984375,0.01450549521446228,-0.011326974776200949,-0.02403890110477805
1769667016140395800,9.361395751953125,0.018137714236974717,-0.008469028061814605,-0.008043897984921932
1769667016150385000,9.371385009765625,0.013382044142484664,-0.006013122809678316,-0.014139146120101212
1769667016160373000,9.381373046875,0.021346739411354065,-0.013910451930761337,-0.03229366536140442
1769667016170361900,9.39136181640625,0.02152209597826004,-0.01137983747459948,-0.02105009455233812
1769667016180350000,9.401349853515624,0.01229249534010887,0.007339439509995281,-0.004618161319941282
1769667016190338800,9.4113388671875,0.008597147953510284,-0.011377389789186418,-0.021726240248233077
1769667016200327000,9.421326904296874,0.031526188120245935,-0.009076200174726545,-0.026167437566071747
1769667016210316000,9.43131591796875,0.020446575701236723,0.0026138722928240894,-0.022848814537376163
1769667016220304000,9.441303955078125,0.034653964751958845,-0.0006392842842265963,-0.016610066278278827
1769667016230292700,9.451292724609376,0.00942950712442398,-0.012027706924080847,0.0010329963095486163
1769667016240280800,9.46128076171875,-0.019575638085603714,-0.007909932874329388,-0.0018476736932992934
1769667016250270000,9.47127001953125,0.03577040156126022,-0.002795110611245036,-0.02735547830685973
1769667016260258000,9.481258056640625,0.033192660027742384,-0.012199556359648703,-0.01770063799396157
1769667016270247000,9.491246826171874,-0.023685411491990088,0.005541377112083136,-0.015441314759850501
1769667016280234800,9.50123486328125,-0.010245499682426452,-0.0047388650901615615,-0.021149609404057263
1769667016290223900,9.511223876953125,0.038969489863514895,-0.02068991947043687,-0.021234803469479084
1769667016300212700,9.521212646484376,0.018344634985923765,0.0018920973569154739,-0.011335633006691931
1769667016310200800,9.531200927734375,0.012385434320569037,0.015545176993124186,-0.012309738735854624
1769667016320190000,9.54118994140625,0.02092471460700035,-0.00796867732424289,-0.023356764059513806
1769667016330177800,9.551177734375,0.03722761463224888,-0.007238353755697607,-0.020595774913579223
1769667016340167000,9.5611669921875,0.04214753537774086,0.008959113133698701,-0.02262114326134324
1769667016350154800,9.57115478515625,0.046325697845220566,0.0023326441986486314,-0.020683014805614946
1769667016360144000,9.581143798828125,0.023875381106138228,-0.013230835636146366,-0.022269261083751917
1769667016370132000,9.591132080078125,0.01160802020728588,0.0011745236720889806,-0.01510842954367399
1769667016380121000,9.60112109375,0.009798924958705902,-0.013064100767113267,-0.01924845195785165
1769667016390109000,9.61110888671875,0.017571897047758103,-0.011432663640379905,-0.015814385855942963
1769667016400097800,9.621097900390625,-0.005468786799907684,-0.007728511892817914,-0.018733488173037768
1769667016410086000,9.6310859375,-0.0020206921726465222,-0.003567446690611541,-0.02304258354380727
1769667016420075000,9.641074951171875,0.01803951455950737,0.0033623160399496553,-0.02317673131749034
1769667016430062800,9.651062744140624,0.019672668719291686,-0.006606595190800726,-0.025545214014500377
1769667016440051700,9.6610517578125,0.02191723277568817,-0.0014840280126780271,-0.014211772964894771
1769667016450039800,9.671039794921874,0.025972645646333694,0.0034671646539121866,-0.019850071112811563
1769667016460029000,9.68102880859375,0.03525251516699791,0.0019136516015976666,-0.01880947601869702
1769667016470017000,9.69101708984375,0.036463060000538824,-0.0012643573800101876,-0.020590660347044466
1769667016480006000,9.701005859375,0.03245908505618572,0.01063190518412739,-0.011989859131723641
1769667016489993700,9.71099365234375,0.01992401313185692,0.004769735152460634,-0.0165545366987586
1769667016499982800,9.72098291015625,0.025340777483582495,-0.006008885025978088,-0.011471388215571641
1769667016509971000,9.730970947265625,0.018904022434353827,-0.007869016342051326,-0.031565204956382514
1769667016519959800,9.740959716796874,0.01831657793521881,-0.01464355197828263,-0.02506780576109886
1769667016529947600,9.75094775390625,-0.012870002967119216,-0.00665131111536175,-0.009991232660412788
1769667016539936800,9.760936767578125,-0.0013157587736845017,-0.009997297075018285,-0.008984247574955225
1769667016549926000,9.77092578125,0.028489596903324126,-0.01955233027525246,-0.035123774220794435
1769667016559914800,9.780914794921875,0.023262802165746686,-0.009070099227502942,-0.02302081010341644
1769667016569902600,9.790902587890624,0.02328793660700321,-0.008019311532936989,-0.022486849357187748
1769667016579891700,9.8008916015625,0.017947160100936888,-0.000026559213362634182,-0.0174510471470654
1769667016589879800,9.8108798828125,0.0007797522008419036,-0.004494973331689835,-0.024883535235375166
1769667016599868700,9.82086865234375,0.020721885511279105,0.007065517939440906,-0.012679594961553811
1769667016609856800,9.830856689453125,0.018515315377712248,-0.009976765743643045,-0.03057604778856039
1769667016619846000,9.840845947265626,0.03395838370323181,-0.0041274917261675,-0.02324175937771797
1769667016629833700,9.850833740234375,0.05002104523181915,-0.008659253404289484,-0.010843611706048249
1769667016639822800,9.86082275390625,0.038678982484340665,-0.009908595878258347,-0.019546265860646964
1769667016649810700,9.870810791015625,0.027197803527116773,-0.007049735848419367,-0.01788417786732316
1769667016659799800,9.8807998046875,0.02290975094437599,-0.014114596200734375,-0.016708119825273753
1769667016669789000,9.890788818359376,0.015192892956733702,-0.01671816629525274,-0.03002572042942047
1769667016679776800,9.90077685546875,0.012409399718046188,-0.013229885788075626,-0.00996931308954954
1769667016689765600,9.910765625,0.02667641000151634,-0.009048983374238014,-0.012823387346416712
1769667016699753700,9.920753662109375,0.018638064974546432,-0.014732618501223623,-0.016037527087330816
1769667016709742800,9.930742919921874,0.013150573474168776,-0.007368409876152873,-0.0061715282417833806
1769667016719731000,9.94073095703125,0.019496143108606336,-0.01822685382515192,-0.01850742433220148
1769667016729719600,9.950719482421874,0.021211130332946776,-0.00501165414955467,-0.011194178709387778
1769667016739707600,9.960707763671875,0.012437456768751144,-0.004129975944198668,-0.018605770140141246
1769667016749696800,9.97069677734375,0.02625906137228012,-0.013940883601643144,-0.022849252928793428
1769667016759684900,9.980684814453125,0.03783376383185386,-0.008435819911956787,-0.016512451122701166
1769667016769673700,9.990673828125,0.023531682235002516,-0.003314531375467777,-0.02136748993843794
1769667016779661600,10.00066162109375,0.013870119920372962,-0.0040516500109806656,-0.02127981165498495
1769667016789650700,10.010650634765625,0.021089549779891966,-0.01867518211454153,-0.017184066773951054
1769667016799638800,10.020638671875,0.02443301498889923,0.0011531155578792095,-0.021257015301287173
1769667016809627600,10.030627685546875,0.01909165396094322,-0.010029007387533784,-0.023089637555927037
1769667016819615700,10.04061572265625,0.03006312983036041,-0.005035802210122346,-0.023995646484941242
1769667016829604900,10.05060498046875,0.012300678646564483,-0.0007869491266086697,-0.017743600352853536
1769667016839592700,10.0605927734375,0.014892448705434798,-0.011298771595023571,-0.02258285707756877
1769667016849581800,10.070581787109376,0.02316460248827934,-0.003888093479722738,-0.025074381632357836
1769667016859569700,10.080569580078125,0.018110241708159447,-0.015631905428506433,-0.020448329266905783
1769667016869558800,10.090558837890624,0.023968904608488082,-0.013106076745316386,-0.02155585211738944
1769667016879546600,10.100546630859375,0.02443827568590641,-0.005296243244595825,-0.030590660835802554
1769667016889535700,10.11053564453125,0.02086976954936981,0.009677052144706249,-0.018611761489510534
1769667016899523800,10.12052392578125,0.015494506251811981,-0.003974127795360982,-0.012414660415053368
1769667016909512700,10.1305126953125,0.022847791624069212,-0.016017836006172,-0.004009820163249969
1769667016919500800,10.140500732421875,0.029614217019081113,0.0013854264764115213,-0.009150105661153794
1769667016929490000,10.150489990234375,0.012897475495934486,-0.007711779953725635,-0.018429682920873165
1769667016939477800,10.160477783203126,0.020254852521419522,-0.005677936038561165,-0.01678703028038144
1769667016949466600,10.170466552734375,0.02103109759092331,0.0013644932862371206,-0.01988426564335823
1769667016959454700,10.180454833984374,0.021497546058893202,-0.00240574596747756,-0.026805443208664653
1769667016969443800,10.19044384765625,0.021066168904304503,-0.0035333617579191923,-0.018283260187506676
1769667016979432000,10.200431884765624,0.01705868682861328,-0.005925006134808063,-0.028682781387865543
1769667016989420500,10.210420654296875,0.03458557569086552,-0.0107858901694417,-0.02867094481959939
1769667016999408600,10.22040869140625,0.028458617243170736,-0.00858801479898393,-0.009872136325389146
1769667017009397800,10.230397705078126,0.01068038396835327,0.0009095525929704308,-0.031402707871049644
1769667017019385900,10.2403857421875,0.018034838384389875,-0.00522734272684902,-0.02512260468825698
1769667017029374700,10.250374755859376,0.03390928386449814,-0.006291026435606181,-0.01801043459549546
1769667017039362600,10.260362548828125,0.01700783342421055,-0.0079606401482597,-0.021797259657829998
1769667017049351700,10.2703515625,0.014333645778894424,-0.007502046193182468,-0.020405805299431083
1769667017059340800,10.2803408203125,0.01855097121298313,-0.01567658482044935,-0.021393793423473834
1769667017069329000,10.290328857421875,0.004085808008909226,-0.007510375630110502,-0.0337396263860166
1769667017079317800,10.30031787109375,0.011181903749704361,-0.00837886556033045,-0.019089169742912054
1769667017089305600,10.3103056640625,0.015872107392549514,-0.0002027925631031394,-0.011366904927790165
1769667017099294700,10.320294677734376,0.026981530427932738,-0.0030056480893865226,-0.010356558841466903
1769667017109282800,10.33028271484375,0.035832360881567,-0.0028166283233091232,-0.01363455759882927
1769667017119271700,10.340271728515624,0.015702011522650716,-0.007737389319017529,-0.013207125966995954
1769667017129259800,10.350259765625,-0.0018716390907764435,0.007231193362548947,-0.010095277556777
1769667017139249000,10.360248779296874,0.01033317796587944,-0.006856039907224476,-0.022040420763939618
1769667017149236700,10.37023681640625,0.02216565457880497,-0.011386559476330875,-0.028748978491872548
1769667017159225600,10.3802255859375,0.057332245028018945,-0.016790573944337667,-0.029882950957864522
1769667017169213700,10.390213623046876,0.0379541753411293,-0.008869279425777494,-0.007533610375225544
1769667017179202800,10.400202880859375,0.004908814829587936,-0.0024985388174653053,-0.009816752876341343
1769667017189191000,10.41019091796875,0.056519759601354594,-0.020659560864791274,-0.027625819680839776
1769667017199179800,10.4201796875,0.029891280394792556,-0.01188588730059564,-0.02089797273054719
1769667017209167600,10.430167724609374,0.01058452237844467,-0.012024893912486732,-0.01223740415200591
1769667017219156700,10.44015673828125,0.011446107643842697,-0.0037497444549575445,-0.025633622950315474
1769667017229144800,10.450144775390624,0.021301731225848195,-0.01839030075855553,-0.02531359721571207
1769667017239134000,10.460134033203126,0.017577742266654966,0.0011862141098827122,-0.005454027622193098
1769667017249121800,10.470121826171875,0.013716975185275078,-0.0057839536963030696,-0.015166151080280542
1769667017259110700,10.480110595703126,0.02391279050707817,-0.013254472240060567,-0.019715923339128492
1769667017269098800,10.4900986328125,0.01944938135743141,-0.014135602456144987,-0.023939093992114066
1769667017279087900,10.500087890625,0.027977555727958677,0.0001939151369035244,-0.019471885450184342
1769667017289076000,10.510075927734375,0.03037760260701179,-0.014948745469935238,-0.013999153127521275
1769667017299064600,10.520064697265624,0.01856441521644592,-0.009226422300375998,-0.023291735999286172
1769667017309052700,10.530052734375,0.023047698110342026,0.004049165792949497,-0.01230930034443736
1769667017319041800,10.540041748046875,0.025561142235994337,0.0010983531633391975,-0.03288067146912217
1769667017329030000,10.55002978515625,0.03612695991396904,-0.007691869676858186,-0.03269230929017067
1769667017339018800,10.560018798828125,0.0203822782933712,-0.011162030005455017,-0.026585516847670077
1769667017349006600,10.570006591796876,0.006436170527338981,-0.022272110627964137,-0.013034399748593568
1769667017358995700,10.57999560546875,0.011198270362615585,-0.00918444632217288,-0.020125234792381524
1769667017368983800,10.58998388671875,0.026595161458849905,-0.013886742261610924,-0.01966068602055311
1769667017378972700,10.59997265625,0.019393267256021498,-0.00776628661993891,-0.003034983781725168
1769667017388960800,10.609960693359374,0.011451952862739562,-0.010535349474474787,-0.008970072919130325
1769667017398950000,10.619949951171876,0.03329378231465816,-0.012119440328143537,-0.015629823069274424
1769667017408937700,10.629937744140625,0.0342073900282383,-0.011582191646285354,-0.019889234079420566
1769667017418926600,10.639926513671876,0.017906243568658827,-0.008141111281700432,0.000526069700717926
1769667017428914700,10.649914794921875,0.025994272956252097,-0.01735544128548354,-0.008524228847771882
1769667017438903800,10.65990380859375,0.026913725888729093,-0.01067808241341263,-0.020011983676254747
1769667017448891600,10.6698916015625,0.024082886376976965,-0.012594547026604412,-0.014770283630490303
1769667017458880800,10.679880859375,0.038140053302049635,-0.01703201801739633,-0.01519713074043393
1769667017468869600,10.68986962890625,0.038353988313674925,-0.013601568644680082,-0.019108020573854446
1769667017478857700,10.699857666015625,-0.005734159737825394,0.0023931787468492983,-0.009767214646190405
1769667017488846800,10.709846923828126,0.02692307823896408,-0.0034340661019086837,-0.014302666118741035
1769667017498835000,10.7198349609375,0.013919804280996323,-0.011626286516338586,-0.018674013070762156
1769667017508823600,10.729823486328126,0.03457797690629959,-0.014750446418859064,-0.020054215382784603
1769667017518811600,10.739811767578125,0.01441138719022274,-0.017933716097474097,-0.011546791539341211
1769667017528800800,10.74980078125,0.01744330223202705,-0.009324512379989028,-0.02546469612419605
1769667017538788900,10.759788818359375,0.027804537248611448,-0.012261698343046008,-0.018615414751321075
1769667017548777200,10.769777099609374,0.03126782944500446,-0.006486549007706344,-0.01694032114595175
1769667017558765000,10.77976513671875,0.021546645897626875,-0.007122581888921558,-0.034669016190618275
1769667017568754200,10.789754150390625,0.021859949630498886,-0.009077661479450761,-0.012669073567539452
1769667017578742000,10.799741943359376,0.025618425381183623,-0.005321743012033402,-0.003960428063571453
1769667017588731100,10.809731201171875,0.028171616995334624,-0.013906250679679214,-0.026155600997805593
1769667017598719200,10.81971923828125,0.015154314512014388,-0.00102755294945091,-0.020397768123447894
1769667017608708000,10.8297080078125,0.021008885759115217,-0.012972111634723841,-0.023253888206928967
1769667017618696000,10.839696044921874,0.025672785916924474,-0.011264029075205325,-0.015131225897371769
1769667017628685000,10.84968505859375,0.0298936184823513,-0.010847155370004474,-0.009786503868550062
1769667017638673200,10.859673095703124,0.004647533544898033,-0.005800174178741872,-0.004368424342572689
1769667017648662000,10.869662109375,0.03204933521151542,-0.007446333950571715,-0.013611468984186649
1769667017658650000,10.879650146484375,0.02265022322535515,-0.007911394179053604,-0.01621624465510249
1769667017668639200,10.88963916015625,0.01609013405740261,-0.004008833782561123,-0.02542027246057987
1769667017678627000,10.899626953125,0.018518237987160683,0.004254661769792437,-0.020181348893791435
1769667017688616000,10.909615966796874,0.04114975651204586,-0.00953150619417429,-0.019678075546771288
1769667017698604000,10.91960400390625,0.023812837263941764,-0.0031869960056617854,-0.016611527583003043
1769667017708593200,10.92959326171875,0.023852000230550764,-0.005460420830361545,-0.025423633461445567
1769667017718581200,10.939581298828125,0.028525837260484695,-0.008989983195997774,-0.025465280646085737
1769667017728570000,10.949570068359375,0.006121113228797912,-0.011426233899593352,-0.019462971491366624
1769667017738558000,10.959557861328125,0.020673954716324806,-0.011458784462325275,-0.019761223785579204
1769667017748547000,10.969547119140625,0.02833995929956436,-0.003752374803461134,-0.01001446740552783
1769667017758535200,10.97953515625,0.0247872352540493,-0.01626165469940752,-0.022244418903440234
1769667017768524300,10.989524169921875,0.02225976260304451,-0.012140336985699832,-0.008428513388335704
1769667017778512100,10.99951220703125,0.022592940080165862,-0.006040230012312531,-0.016683423775434494
1769667017788501000,11.0095009765625,0.02051554928421974,-0.006126666186749935,-0.011897650803625584
1769667017798489000,11.019489013671874,0.013207272097468376,-0.013429171219840646,-0.013376198923587799
1769667017808478200,11.029478271484376,0.015319734206795691,-0.009474442244693636,-0.03328399157300591
1769667017818466300,11.03946630859375,0.02281388935446739,-0.016579999933578074,-0.01640796783491969
1769667017828455000,11.049454833984376,0.0307563727915287,-0.012246281578205525,-0.028305618638545273
1769667017838443000,11.059443115234375,0.0210357737660408,-0.009464432307332753,-0.03481412374973297
1769667017848432000,11.06943212890625,0.020593875217437742,-0.008358443826809525,-0.02591711606681347
1769667017858420200,11.079420166015625,0.01476736102104187,-0.011171090094745158,-0.012822802824527024
1769667017868409000,11.0894091796875,0.022700492107868193,-0.004644099478796124,-0.020402298168092966
1769667017878397000,11.09939697265625,0.017775310665369033,-0.006337861252017319,-0.014145429730415344
1769667017888386000,11.109385986328125,0.014057166925072669,-0.016203056379966437,-0.013179361177235841
1769667017898374100,11.1193740234375,0.02426525720655918,-0.007897109925374388,-0.013828764996677637
1769667017908363000,11.129363037109375,0.013219547057151794,-0.010374788617901504,-0.01645765219554305
1769667017918352100,11.13935205078125,0.009952069693803786,0.00020812632534652947,-0.015659049163758754
1769667017928340200,11.14934033203125,0.028223054921627043,0.0003742766724899411,-0.014953677373379468
1769667017938329000,11.1593291015625,0.02299041496515274,-0.004213526041805744,-0.019685089809447526
1769667017948317000,11.16931689453125,0.02208849768936634,0.008217829779721795,-0.021506460017710925
1769667017958306000,11.17930615234375,0.028813422030210492,-0.012370930871181188,-0.01929316788241267
1769667017968294100,11.189294189453125,0.029863807865977286,-0.0176711196385324,-0.01870104720816016
1769667017978283300,11.199283203125,0.03195931884050369,-0.018199637024663387,-0.023068010246008634
1769667017988271000,11.20927099609375,0.006976853275299072,0.00408051077928394,-0.018243074307590722
1769667017998260000,11.219260009765625,0.015077157622575759,-0.005508424690552055,-0.02230257883146405
1769667018008248000,11.229248046875,0.0068611179411411285,-0.01476695916224271,-0.01761880492940545
1769667018018237200,11.2392373046875,0.023024317234754562,-0.012016893269121646,-0.0117978436909616
1769667018028225300,11.249225341796874,0.034684359890222546,-0.012952384020946919,-0.01713219045624137
1769667018038214000,11.2592138671875,0.02167816332280636,-0.009828187585808336,-0.008134498877823353
1769667018048202000,11.269201904296875,0.01946516344845295,-0.0019853651309385896,-0.01244695524945855
1769667018058191000,11.279191162109376,0.01664133819937706,0.0030739275526255366,-0.017266776621341705
1769667018068179200,11.28917919921875,0.026972178077697754,-0.015042049776576458,-0.031149463762342927
1769667018078168000,11.29916796875,0.02047112562060356,-0.002961114827916026,-0.029758301664888857
1769667018088156000,11.309156005859375,0.05980243453383446,-0.017513664054498074,-0.017807459369301795
1769667018098145000,11.31914501953125,0.0055085342884063715,-0.010331387867592275,0.0010647066220641137
1769667018108133000,11.329133056640625,0.0017184943556785583,-0.007424597042798996,-0.014361118307709694
1769667018118122000,11.3391220703125,0.06527239037752151,-0.018471768496930597,-0.03244052648618817
1769667018128110000,11.349110107421875,0.013468553382158278,-0.014668905615247784,-0.027974779248982666
1769667018138099200,11.35909912109375,0.010275894820690154,-0.008800378908030688,-0.013179507307708263
1769667018148087000,11.369087158203126,0.011408113721013068,-0.013834098758921026,-0.024074118548631666
1769667018158076200,11.379076171875,0.0024140754044055935,-0.014484342828579246,-0.01208119067698717
1769667018168064000,11.38906396484375,0.012432780593633652,0.00228281370755285,-0.010118073910474777
1769667018178053000,11.39905322265625,0.023369185149669645,-0.0012433876572176814,-0.013299772686511278
1769667018188041000,11.409041015625,0.031042788517475127,-0.0048303062332794066,-0.01187529284134507
1769667018198030000,11.419030029296875,0.021214637464284897,-0.012745719000324606,-0.020578969909250736
1769667018208018200,11.42901806640625,0.022435119169950484,-0.013578808823600411,-0.021953911524266
1769667018218007000,11.439007080078126,0.02394727729856968,-0.0028293416744098066,-0.030145255155861375
1769667018227995100,11.4489951171875,0.011684008052945137,-0.0006370557945221662,-0.021498861233144997
1769667018237984300,11.458984375,0.03607669103145599,-0.023231895570829508,-0.029628245544433593
1769667018247972000,11.46897216796875,0.032609307181835176,-0.01517985081207007,-0.01828282179608941
1769667018257961000,11.4789609375,0.025697920358180998,-0.015044497461989522,-0.017886223693937064
1769667018267949000,11.488948974609375,-0.0020230302602052687,-0.01925009592566639,-0.013417261586338282
1769667018277938200,11.498938232421875,0.00961421604156494,-0.012907777694240211,-0.02101604615226388
1769667018287926300,11.50892626953125,0.007184943068027496,-0.01632204311713576,-0.02976473140567541
1769667018297915000,11.518914794921875,0.02494505616426468,-0.02233761361222714,-0.0065441609464585776
1769667018307903000,11.528903076171876,0.03776595929265022,-0.01055171608738601,-0.0223832428522408
1769667018317892000,11.53889208984375,0.038629882645606996,-0.01745130287539214,-0.031150925067067143
1769667018327880200,11.548880126953126,0.03800795135498047,-0.011393646804243325,-0.020110037223249673
1769667018337869000,11.558869140625,0.01570844126343727,-0.0034146672816947102,-0.014037293180823326
1769667018347858200,11.568858154296874,0.013784195202589035,-0.014029402135312556,-0.014404080666601657
1769667018357846000,11.578845947265625,0.014989479339122772,-0.014769406847655773,-0.028021394869685173
1769667018367835100,11.588835205078125,0.016767010405659675,-0.008173917572759091,-0.028883856917917727
1769667018377823200,11.5988232421875,0.025416180807352064,-0.0008307152030989527,-0.02669043852686882
1769667018387811000,11.60881103515625,0.0285778597086668,-0.016998444541357457,-0.014498773212730885
1769667018397800000,11.618800048828126,0.009324293184280396,-0.009446312128752469,-0.015541121872514486
1769667018407789000,11.6287890625,0.006828969237208366,-0.007845964260026811,-0.018580489568412302
1769667018417777200,11.638777099609374,0.02706687062382698,-0.025296244222111998,-0.03707330085337162
1769667018427766000,11.64876611328125,0.03920855931639671,-0.020660949104279278,-0.02271963519975543
1769667018437754000,11.658754150390624,0.024864976665377615,-0.01021159741282463,-0.020490122582018374
1769667018447743200,11.6687431640625,0.026220482927560806,-0.011842851876467466,-0.014137246423959731
1769667018457731000,11.67873095703125,0.022325813576579093,-0.016231478756852446,-0.0190652043454349
1769667018467720000,11.688719970703126,0.038483752173185344,-0.005802548798918724,-0.03131123019531369
1769667018477708000,11.6987080078125,0.02097790609896183,-0.013606244819797575,-0.028022417782992123
1769667018487697200,11.708697265625,0.015908347749710082,-0.018928353158012032,-0.02314151387363672
1769667018497685200,11.718685302734375,0.02684241421818733,-0.01975662067569792,-0.033577859953045845
1769667018507673900,11.728673828125,0.02248889518380165,-0.005233187945745885,-0.016367489694058893
1769667018517662000,11.738661865234375,0.012453823381662368,-0.007547237041778862,-0.02309957442805171
1769667018527651000,11.748651123046875,0.013044190490245819,-0.0078337258329615,-0.015575316403061151
1769667018537639200,11.75863916015625,0.01918283937573433,-0.013270400461554527,-0.020811171229928732
1769667018547628300,11.768628173828125,0.01605389370024204,-0.01880114658176899,-0.016436463277041912
1769667018557616400,11.778616455078126,0.020083587607741354,-0.01910630354080349,-0.010375117411464452
1769667018567605500,11.78860546875,0.01485620834827423,-0.01968348237425089,-0.018526567424088716
1769667018577593600,11.798593505859374,0.010374679020047187,-0.022495069196261465,-0.008293781092762947
1769667018587582500,11.80858251953125,0.027743746972084045,-0.013647307482548058,-0.027659575819969175
1769667018597570300,11.8185703125,0.02716448577940464,-0.008691511706076563,-0.011515811879187822
1769667018607559400,11.828559326171876,0.031820202630758285,-0.009806121884472668,-0.006879384250193834
1769667018617547500,11.838547607421875,0.020457681617140767,-0.005636982973664999,-0.0197787594422698
1769667018627536600,11.84853662109375,0.025562311279773712,-0.004963759887218475,-0.01874196374043822
1769667018637524500,11.8585244140625,0.01857376756668091,-0.008538440036214888,-0.02343158286139369
1769667018647513300,11.868513427734374,0.021287118178606033,-0.009121975545212626,-0.014218494966626166
1769667018657501400,11.87850146484375,0.026540800923109054,-0.016342062991857528,-0.02594941090121865
1769667018667490600,11.888490478515624,0.012179098093509673,-0.008901208934001623,-0.02558262341544032
1769667018677478700,11.898478759765625,0.019212649992108345,-0.02079334331229329,-0.019858254419267175
1769667018687467500,11.908467529296875,0.017122984236478806,-0.01120188709180802,-0.023802315869927405
