time,seconds_elapsed,z,y,x
1769667006846086700,0.067086669921875,0.04719121381640434,-0.10458606481552124,-0.21591924130916595
1769667006856074500,0.077074462890625,0.047635696828365326,-0.16112177073955536,-0.2607215940952301
1769667006866063600,0.087063720703125,0.05175001174211502,-0.1363099068403244,-0.27687206864356995
1769667006876051700,0.0970517578125,0.053275205194950104,-0.10890171676874161,-0.28020796179771423
1769667006886040600,0.10704052734375,0.05513595789670944,-0.07017376273870468,-0.3046286106109619
1769667006896028400,0.1170283203125,0.05702999606728554,-0.0829595997929573,-0.3523053228855133
1769667006906017500,0.127017578125,0.0532565638422966,-0.15052346885204315,-0.41509413719177246
1769667006916005600,0.137005615234375,0.04380740225315094,-0.3062054514884949,-0.48231685161590576
1769667006925994800,0.146994873046875,0.029263347387313843,-0.47701317071914673,-0.551272451877594
1769667006935982600,0.156982666015625,0.012572516687214375,-0.6363836526870728,-0.6198952198028564
1769667006945971700,0.1669716796875,0.009704292751848698,-0.7374759316444397,-0.7087814211845398
1769667006955959600,0.17695947265625,0.0178716741502285,-0.8600228428840637,-0.8089940547943115
1769667006965948700,0.18694873046875,0.02510002627968788,-0.9908573031425476,-0.9271225333213806
1769667006975936800,0.196936767578125,0.03928801789879799,-1.0545028448104858,-1.0280190706253052
1769667006985925600,0.206925537109375,0.07160814106464386,-1.0831207036972046,-1.108572006225586
1769667006995914800,0.216914794921875,0.10242490470409393,-1.056355595588684,-1.2107901573181152
1769667007005902600,0.226902587890625,0.10571897029876709,-0.9876340627670288,-1.2404268980026245
1769667007015891500,0.236891357421875,0.09387056529521942,-0.8989729285240173,-1.226635456085205
1769667007025879600,0.246879638671875,0.10645294189453125,-0.8288036584854126,-1.23036527633667
1769667007035868700,0.25686865234375,0.14158350229263306,-0.8078294396400452,-1.2796275615692139
1769667007045856800,0.266856689453125,0.17996416985988617,-0.7620739340782166,-1.3160364627838135
1769667007055845600,0.276845703125,0.19917061924934387,-0.7135130763053894,-1.3405953645706177
1769667007065833500,0.28683349609375,0.1959167718887329,-0.728496789932251,-1.3911583423614502
1769667007075822600,0.296822509765625,0.20734572410583496,-0.7489301562309265,-1.4863530397415161
1769667007085810700,0.306810791015625,0.2194599211215973,-0.7138313055038452,-1.551713466644287
1769667007095799800,0.3167998046875,0.22206635773181915,-0.5933376550674438,-1.6152527332305908
1769667007105787400,0.326787353515625,0.2762904465198517,-0.5313112735748291,-1.6490479707717896
1769667007115776500,0.336776611328125,0.312991738319397,-0.42260345816612244,-1.6551634073257446
1769667007125764600,0.3467646484375,0.35329681634902954,-0.31507405638694763,-1.6583408117294312
1769667007135753700,0.356753662109375,0.3919509947299957,-0.255716472864151,-1.7054708003997803
1769667007145741800,0.366741943359375,0.4451753497123718,-0.26134586334228516,-1.8207001686096191
1769667007155730700,0.376730712890625,0.4797421097755432,-0.26386359333992004,-1.8821216821670532
1769667007165718500,0.386718505859375,0.5153080821037292,-0.34298479557037354,-1.8545113801956177
1769667007175707600,0.396707763671875,0.4461713433265686,-0.15198419988155365,-1.9070239067077637
1769667007185695700,0.40669580078125,0.4432253837585449,-0.06923819333314896,-1.9635957479476929
1769667007195684600,0.4166845703125,0.4032995104789734,0.10280520468950272,-1.931229591369629
1769667007205672700,0.426672607421875,0.37479063868522644,0.5720848441123962,-1.8839590549468994
1769667007215661600,0.43666162109375,0.3431600332260132,1.2629303932189941,-1.719782829284668
1769667007225649700,0.446649658203125,0.3027356266975403,1.6391223669052124,-1.3292359113693237
1769667007235638500,0.456638427734375,0.19893068075180054,1.3926249742507935,-0.9528800845146179
1769667007245626600,0.466626708984375,0.09735611081123352,1.3784087896347046,-0.7667490839958191
1769667007255615700,0.47661572265625,0.057261426001787186,1.305480718612671,-0.7522069215774536
1769667007265603600,0.486603515625,0.07789906114339828,1.4258452653884888,-0.8374419212341309
1769667007275592400,0.496592529296875,0.1474784016609192,1.478366732597351,-0.8798807263374329
1769667007285580500,0.50658056640625,0.21770302951335907,1.371370792388916,-0.9298804998397827
1769667007295569700,0.516569580078125,0.19881536066532135,0.7714802026748657,-1.0872067213058472
1769667007305557800,0.526557861328125,0.246940016746521,1.2215181589126587,-1.2513920068740845
1769667007315546600,0.536546630859375,0.2803192734718323,0.5768353343009949,-1.4275767803192139
1769667007325535500,0.546535400390625,0.27606168389320374,-0.26122814416885376,-1.7135039567947388
1769667007335523600,0.556523681640625,0.30276361107826233,-0.13119930028915405,-2.018195867538452
1769667007345512700,0.5665126953125,0.24552161991596222,-0.4980108439922333,-2.0979809761047363
1769667007355500800,0.576500732421875,0.1738082766532898,0.14215794205665588,-1.6650570631027222
1769667007365489700,0.58648974609375,0.17176510393619537,0.29398101568222046,-0.7457218766212463
1769667007375477500,0.5964775390625,0.10038306564092636,0.14862222969532013,0.03888454660773277
1769667007385466600,0.606466552734375,0.05377694591879845,0.027909662574529648,0.2807094156742096
1769667007395454700,0.616454833984375,0.06636064499616623,0.07381696254014969,0.12361834198236465
1769667007405443600,0.626443603515625,0.07104142010211945,0.08092600852251053,-0.1314419060945511
1769667007415431700,0.636431640625,0.054850466549396515,0.16429786384105682,-0.15994945168495178
1769667007425420500,0.646420654296875,0.034749723970890045,0.11734633147716522,-0.04143931716680527
1769667007435408600,0.65640869140625,0.03519101068377495,0.06927121430635452,-0.00691915862262249
1769667007445397500,0.6663974609375,0.04169897735118866,0.09315710514783859,-0.0495758093893528
1769667007455385600,0.676385498046875,0.030589867383241653,0.0850491151213646,-0.06557794660329819
1769667007465374700,0.686374755859375,0.023331688717007637,0.08047833293676376,-0.07154768705368042
1769667007475362600,0.696362548828125,0.019213907420635223,0.05504301190376282,-0.059359196573495865
1769667007485351700,0.7063515625,0.020003002136945724,0.04715899005532265,-0.06903020292520523
1769667007495339500,0.716339599609375,0.015858592465519905,0.04730280116200447,-0.0639297142624855
1769667007505328600,0.72632861328125,0.011393802240490913,0.06296378374099731,-0.053888000547885895
1769667007515316700,0.736316650390625,0.008431834168732166,0.11271935701370239,-0.0783294290304184
1769667007525305600,0.7463056640625,0.004165982827544212,0.1429843157529831,-0.08367785066366196
1769667007535293000,0.75629296875,-0.002624811604619026,0.18833662569522858,-0.08022613078355789
1769667007545281800,0.76628173828125,-0.008616391569375992,0.19547255337238312,-0.12241219729185104
1769667007555269600,0.77626953125,-0.011383947916328907,0.20556195080280304,-0.1318243443965912
1769667007565258800,0.7862587890625,-0.012269982136785984,0.18002435564994812,-0.11376145482063293
1769667007575246800,0.796246826171875,-0.007994276471436024,0.16957545280456543,-0.10239668190479279
1769667007585235700,0.806235595703125,-0.006827812176197767,0.1540452241897583,-0.11126793175935745
1769667007595223800,0.816223876953125,0.00336197461001575,0.11793329566717148,-0.1009037122130394
1769667007605213000,0.826212890625,0.003965713083744049,0.06305380165576935,-0.07730171084403992
1769667007615200800,0.83620068359375,0.005684783682227135,0.07565721124410629,-0.028775988146662712
1769667007625190000,0.84618994140625,-0.00043755737715400755,0.07791104167699814,-0.04626789689064026
1769667007635177700,0.856177734375,-0.0030328077264130116,0.09462743997573853,-0.014369618147611618
1769667007645166800,0.866166748046875,-0.003346261801198125,0.1017007976770401,-0.0073047843761742115
1769667007655155000,0.876155029296875,-0.006429403554648161,0.11494895815849304,-0.002415487077087164
1769667007665143800,0.886143798828125,-0.0015670040156692266,0.13853470981121063,0.0009741843095980585
1769667007675132000,0.8961318359375,-0.001580319833010435,0.15586896240711212,-0.016824252903461456
1769667007685120800,0.906120849609375,-0.00729359919205308,0.1761939376592636,-0.048180580139160156
1769667007695108900,0.91610888671875,-0.01329982653260231,0.20510227978229523,-0.0816786140203476
1769667007705098000,0.926097900390625,-0.009604690596461296,0.23130805790424347,-0.08914612233638763
1769667007715085800,0.9360859375,-0.010728011839091778,0.24566595256328583,-0.100224070250988
1769667007725074700,0.94607470703125,-0.011686483398079872,0.2630329728126526,-0.09893803298473358
1769667007735063800,0.956063720703125,-0.022937806323170662,0.26656273007392883,-0.10778798162937164
1769667007745052000,0.966052001953125,-0.028188761323690414,0.2660670876502991,-0.11873091012239456
1769667007755040800,0.976040771484375,-0.034268759191036224,0.2760302424430847,-0.11915488541126251
1769667007765028600,0.986028564453125,-0.03310415893793106,0.26724740862846375,-0.09028435498476028
1769667007775017700,0.996017822265625,-0.0378887914121151,0.2741468548774719,-0.09876333177089691
1769667007785005800,1.006005859375,-0.03345729410648346,0.26447001099586487,-0.10198362171649933
1769667007794995000,1.015994873046875,-0.033004023134708405,0.24177400767803192,-0.09326576441526413
1769667007804982800,1.025982666015625,-0.03413639962673187,0.21466755867004395,-0.08789097517728806
1769667007814972000,1.035971923828125,-0.03363332897424698,0.20256802439689636,-0.08949153125286102
1769667007824959700,1.045959716796875,-0.03219042718410492,0.17871195077896118,-0.0940878838300705
1769667007834948900,1.055948974609375,-0.025922676548361778,0.16629843413829803,-0.10125072300434113
1769667007844937000,1.06593701171875,-0.025290176272392273,0.1533847600221634,-0.10013218969106674
1769667007854925800,1.07592578125,-0.02497192844748497,0.1399134248495102,-0.10318364202976227
1769667007864914000,1.085913818359375,-0.02478337660431862,0.14495505392551422,-0.12096370756626129
1769667007874902800,1.09590283203125,-0.024580443277955055,0.143326535820961,-0.11954610794782639
1769667007884891000,1.105890869140625,-0.021806761622428894,0.14453747868537903,-0.11826033145189285
1769667007894879700,1.115879638671875,-0.028365595266222954,0.14058028161525726,-0.11844515055418015
1769667007904867800,1.125867919921875,-0.019720973446965218,0.13956588506698608,-0.1331721693277359
1769667007914857000,1.13585693359375,-0.016036756336688995,0.14053155481815338,-0.13886334002017975
1769667007924844800,1.1458447265625,-0.014029799029231071,0.14085112512111664,-0.13716398179531097
1769667007934833700,1.155833740234375,-0.011601528152823448,0.13428989052772522,-0.12262897938489914
1769667007944821800,1.16582177734375,-0.010975153185427189,0.1234486997127533,-0.10421242564916611
1769667007954811000,1.175810791015625,-0.005646700505167246,0.10100917518138885,-0.08372952044010162
1769667007964799000,1.185799072265625,-0.0059995693154633045,0.07357515394687653,-0.07111731916666031
1769667007974787800,1.195787841796875,-0.004125769250094891,0.04862266406416893,-0.06321358680725098
1769667007984775700,1.205775634765625,-0.006048304960131645,0.037160418927669525,-0.05746542289853096
1769667007994764800,1.215764892578125,-0.005787848029285669,0.02058250643312931,-0.052986517548561096
1769667008004753000,1.2257529296875,-0.0041369544342160225,0.015784289687871933,-0.04591502621769905
1769667008014742000,1.235741943359375,-0.004430434666574001,0.01721973344683647,-0.04779548570513725
1769667008024729900,1.245729736328125,-0.004285558592528105,0.005688778590410948,-0.046185337007045746
1769667008034718700,1.25571875,-0.0043952809646725655,0.0037819549906998873,-0.038715437054634094
1769667008044706800,1.265706787109375,-0.002892459277063608,-0.0067777447402477264,-0.03194248676300049
1769667008054696000,1.275696044921875,-0.001933454885147512,-0.02375885844230652,-0.024264859035611153
1769667008064684000,1.28568408203125,-0.00015925703337416053,-0.02941701002418995,-0.02550802379846573
1769667008074673000,1.2956728515625,0.001181644620373845,-0.030345123261213303,-0.024160197004675865
1769667008084660700,1.30566064453125,0.0014556838432326913,-0.02514769695699215,-0.02051512897014618
1769667008094649900,1.31564990234375,0.0027265443932265043,-0.024510135874152184,-0.0128774493932724
1769667008104638000,1.325637939453125,0.0049257827922701836,-0.029680930078029633,-0.009356217458844185
1769667008114626800,1.335626708984375,0.005287440028041601,-0.03663071617484093,-0.006006493698805571
1769667008124614700,1.34561474609375,0.00455613574013114,-0.043234024196863174,-0.01182230468839407
1769667008134603800,1.355603759765625,0.004562261048704386,-0.050814446061849594,-0.008728244341909885
1769667008144592000,1.365591796875,0.004348143003880978,-0.05139235034584999,-0.004804875236004591
1769667008154580700,1.375580810546875,0.001916144392453134,-0.045887064188718796,-0.0031912659760564566
1769667008164568800,1.38556884765625,0.0017837852938100696,-0.03976765275001526,-0.0036557212006300688
1769667008174558000,1.395557861328125,0.0002671150432433933,-0.03978842496871948,0.0014093448407948017
1769667008184545800,1.4055458984375,0.0010096043115481734,-0.0399325005710125,0.002764627570286393
1769667008194534700,1.41553466796875,0.0015491608064621687,-0.04370007663965225,0.0023813985753804445
1769667008204522800,1.425522705078125,0.0017598168924450874,-0.041122935712337494,-0.0016431703697890043
1769667008214511900,1.435511962890625,0.002808836055919528,-0.038244590163230896,-0.006473345682024956
1769667008224501000,1.4455009765625,0.0015315839555114508,-0.03328604996204376,-0.011775965802371502
1769667008234488800,1.45548876953125,0.0015478292480111122,-0.034144919365644455,-0.014695056714117527
1769667008244477700,1.465477783203125,0.000586161739192903,-0.03374171629548073,-0.019223762676119804
1769667008254465800,1.4754658203125,0.0005134574603289366,-0.03405677154660225,-0.02358495444059372
1769667008264455000,1.485454833984375,-0.00017017599020618945,-0.030000776052474976,-0.02990490198135376
1769667008274443000,1.495443115234375,-0.00045806370326317847,-0.019454658031463623,-0.038782283663749695
1769667008284432000,1.505431884765625,-0.0022085595410317183,-0.01215493306517601,-0.03918575122952461
1769667008294419700,1.515419677734375,-0.000580036488827318,-0.010872621089220047,-0.03747760131955147
1769667008304408800,1.525408935546875,-0.0015662050573155284,-0.014596253633499146,-0.0352163091301918
1769667008314397000,1.53539697265625,-0.0012860405258834362,-0.027729365974664688,-0.031183751299977303
1769667008324385800,1.5453857421875,-0.00007882956560933962,-0.03726028650999069,-0.02557779848575592
1769667008334374000,1.555373779296875,0.00101120222825557,-0.04701651260256767,-0.02640763856470585
1769667008344362800,1.56536279296875,0.0010578075889497995,-0.0491156131029129,-0.025600701570510864
1769667008354350800,1.575350830078125,0.0009025452891364694,-0.04309607297182083,-0.026153307408094406
1769667008364339700,1.585339599609375,-0.000027430558475316502,-0.052084241062402725,-0.02484116703271866
1769667008374327800,1.595327880859375,0.0014735270524397492,-0.05589442327618599,-0.012996225617825985
1769667008384317000,1.60531689453125,-0.00012410330236889422,-0.06197681650519371,-0.0018634138396009803
1769667008394304800,1.6153046875,0.001686846255324781,-0.060692109167575836,0.0030453247018158436
1769667008404294000,1.6252939453125,0.0008159925346262753,-0.05652186647057533,0.00529569573700428
1769667008414281700,1.63528173828125,0.0013627394801005721,-0.04734141752123833,0.003953196108341217
1769667008424270800,1.645270751953125,-0.00003382214708835818,-0.03812900930643082,0.00672181835398078
1769667008434259000,1.655259033203125,0.001130511867813766,-0.030878553166985512,0.007829426787793636
1769667008444247800,1.665247802734375,-0.000222373942960985,-0.022669093683362007,0.009574596770107746
1769667008454236000,1.67523583984375,0.0014367754338309169,-0.017640246078372,0.009917345829308033
1769667008464224800,1.685224853515625,0.0006524744676426053,-0.013305152766406536,0.009935189038515091
1769667008474212900,1.695212890625,0.00011052118497900665,-0.010425209999084473,0.006485862657427788
1769667008484202000,1.705201904296875,0.0006077333819121122,-0.008225172758102417,0.0031302794814109802
1769667008494189800,1.71518994140625,0.0007089334540069103,-0.007321029901504517,0.0010527475969865918
1769667008504178700,1.7251787109375,0.002426672261208296,-0.008525577373802662,-0.0012687299167737365
1769667008514166800,1.735166748046875,0.0023411849979311228,-0.004991562571376562,-0.004839229863137007
1769667008524156000,1.745156005859375,0.0016370450612157583,-0.0009068063227459788,-0.008860336616635323
1769667008534144000,1.75514404296875,0.0012234562309458852,0.0035183019936084747,-0.011265969835221767
1769667008544133400,1.76513330078125,0.002126800362020731,0.005907690152525902,-0.010076070204377174
1769667008554121500,1.77512158203125,0.00017417073831893504,0.005061870440840721,-0.007161772809922695
1769667008564110600,1.785110595703125,0.002332130214199424,0.0018708707066252828,-0.006470948923379183
1769667008574098400,1.795098388671875,0.002960369922220707,-0.004489024169743061,-0.0026351979468017817
1769667008584087300,1.80508740234375,0.003197923768311739,-0.010779410600662231,-0.00037284253630787134
1769667008594075400,1.815075439453125,0.005391037091612816,-0.012282232753932476,0.0007174555794335902
1769667008604064500,1.825064453125,0.004805940669029951,-0.011796205304563046,0.0026911243330687284
1769667008614052600,1.835052490234375,0.00293293921276927,-0.011577294208109379,-0.0010761833982542157
1769667008624041500,1.84504150390625,0.004202201962471008,-0.010934140533208847,-0.0013459615875035524
1769667008634029300,1.855029296875,0.0035417377948760986,-0.011305917985737324,-0.000892425247002393
1769667008644018400,1.865018310546875,0.0039020637050271034,-0.007415305823087692,-0.002922286745160818
1769667008654006500,1.875006591796875,0.0025094966404139996,-0.010626012459397316,-0.0037145770620554686
1769667008663995400,1.884995361328125,0.0019861855544149876,-0.012839632108807564,-0.0025806031189858913
1769667008673983500,1.8949833984375,0.0036016590893268585,-0.01569587178528309,-0.0024770060554146767
1769667008683972400,1.904972412109375,0.0024564997293055058,-0.013066267594695091,-0.0024351945612579584
1769667008693960400,1.91496044921875,0.0026282735634595156,-0.011801797896623611,-0.0035473306197673082
1769667008703949600,1.924949462890625,0.0017787253018468618,-0.008713063783943653,-0.008111456409096718
1769667008713937400,1.9349375,0.001187237212434411,-0.003495398908853531,-0.008220645599067211
1769667008723926500,1.944926513671875,0.0021608888637274504,-0.002552906284108758,-0.007487210910767317
1769667008733914400,1.954914306640625,0.000609863898716867,-0.003923102747648954,-0.0031670311000198126
1769667008743903500,1.964903564453125,0.0015997608425095677,-0.0016966998809948564,-0.004028031136840582
1769667008753891600,1.9748916015625,0.002085787709802389,-0.0008082693675532937,-0.002978213131427765
1769667008763880400,1.98488037109375,0.0012655340833589435,0.002029062481597066,-0.002918824553489685
1769667008773868500,1.99486865234375,0.000853809411637485,0.0024554345291107893,-0.0017632789677008986
1769667008783857400,2.004857421875,0.0015728629659861326,0.0051537491381168365,-0.0024658208712935448
1769667008793845500,2.014845458984375,-0.00034647725988179445,0.008322644978761673,-0.0033318807836622
1769667008803834400,2.02483447265625,0.0003323625132907182,0.008952748961746693,-0.005795304663479328
1769667008813823500,2.034823486328125,-0.0010490191634744406,0.010930146090686321,-0.0062696137465536594
1769667008823811600,2.0448115234375,0.0014631407102569938,0.010066748596727848,-0.005697034299373627
1769667008833800400,2.054800537109375,0.000937166390940547,0.008844091556966305,-0.004403270315378904
1769667008843788300,2.064788330078125,0.0019632822368294,0.008778844028711319,-0.0027233485598117113
1769667008853777400,2.07477734375,0.0007315703551284969,0.009151420556008816,-0.0011121360585093498
1769667008863765500,2.084765625,0.0019355855183675885,0.0099610211327672,-0.002243713242933154
1769667008873754600,2.094754638671875,-0.0004956142511218786,0.007510913070291281,0.0014559502014890313
1769667008883742500,2.104742431640625,0.004021373111754656,0.006813164800405502,0.003555319970473647
1769667008893731300,2.1147314453125,0.0015166702214628458,0.006118080113083124,0.0020743361674249172
1769667008903719400,2.124719482421875,0.0024045680183917284,0.0018426411552354693,0.002144377212971449
1769667008913708500,2.13470849609375,0.0033955303952097893,-0.0008756473544053733,0.0030450583435595036
1769667008923696600,2.144696533203125,0.002043976215645671,-0.0001715075777610764,0.004177700728178024
1769667008933685500,2.154685546875,0.0028788771014660597,0.0011507519520819187,0.0023494407068938017
1769667008943673300,2.16467333984375,0.0009454221581108868,0.0011052117915824056,-0.0020722055342048407
1769667008953662500,2.174662353515625,0.0013036173768341541,0.0017936390358954668,-0.001639441936276853
1769667008963650600,2.184650634765625,0.003519367426633835,0.0011717908782884479,0.00036245622322894633
1769667008973639400,2.194639404296875,0.0021766014397144318,0.0017219999572262168,-0.0009022789890877903
1769667008983627500,2.20462744140625,0.001285241567529738,0.003983822651207447,-0.002299106912687421
1769667008993616400,2.214616455078125,0.0027840686962008476,0.005824333056807518,-0.004993160720914602
1769667009003604500,2.2246044921875,0.0028397287242114544,0.004995557479560375,-0.0043532028794288635
1769667009013593300,2.23459326171875,0.001639441936276853,0.005122856702655554,-0.0076001291163265705
1769667009023581400,2.24458154296875,0.0022029669489711523,0.006161755882203579,-0.006551908794790506
1769667009033570600,2.254570556640625,0.002083390951156616,0.0007629956235177815,-0.006162820849567652
1769667009043558400,2.264558349609375,0.0021555626299232244,-0.001764077926054597,-0.005506884306669235
1769667009053547300,2.27454736328125,-0.000041012681322172284,0.0006940197781659663,-0.0032168321777135134
1769667009063535400,2.284535400390625,0.0011803129455074668,-0.0004239752306602895,-0.0024839304387569427
1769667009073524500,2.2945244140625,0.0003384877636563033,-0.004434429574757814,-0.002092445734888315
1769667009083512600,2.3045126953125,0.002046372974291444,-0.006097307428717613,0.0005906891310587525
1769667009093501400,2.31450146484375,0.0019185412675142288,-0.006717291194945574,0.0009092031978070736
1769667009103489300,2.3244892578125,0.0016285229939967394,-0.0043532028794288635,0.000666589243337512
1769667009113478400,2.334478515625,0.0025798040442168713,-0.0035340148024260998,0.000663393409922719
1769667009123466500,2.344466552734375,0.002201901515945792,-0.002793922321870923,0.0029917950741946697
1769667009133455600,2.35445556640625,0.0011193265672773123,-0.002773682354018092,0.00250576832331717
1769667009143443500,2.364443359375,0.0014410364674404263,-0.0029356025625020266,0.00192226970102638
1769667009153432300,2.374432373046875,0.0011672634864225984,-0.002665025182068348,0.0017121462151408195
1769667009163420400,2.38442041015625,0.002377936616539955,-0.002389654517173767,-0.003093527862802148
1769667009173409500,2.394409423828125,0.0012769857421517372,-0.002487658755853772,-0.0018133464036509395
1769667009183397600,2.404397705078125,0.0016306535108014941,-0.002900448627769947,-0.0006452839006669819
1769667009193386500,2.414386474609375,0.0021438447292894125,-0.001014398061670363,-0.0018753979820758104
1769667009203374300,2.424374267578125,0.001612277701497078,-0.0025015072897076607,-0.0022157500497996807
1769667009213363500,2.434363525390625,0.0019510318525135517,0.0002990729990415275,-0.0029414615128189325
1769667009223351600,2.4443515625,0.0019624833948910236,-0.00034434671397320926,-0.0011696603614836931
1769667009233340400,2.45434033203125,0.0012322446564212441,0.0013406352372840047,-0.0009510148083791137
1769667009243328500,2.46432861328125,0.0016391756944358349,0.0010982876410707831,0.00047351003740914166
1769667009253317400,2.4743173828125,0.0008886968716979027,0.0003856257244478911,-0.001996305538341403
1769667009263305500,2.484305419921875,0.0011659319279715419,0.0011060107499361038,-0.0020277309231460094
1769667009273294300,2.49429443359375,0.0005440838285721838,0.0016863135388121009,-0.0011203918838873506
1769667009283283500,2.504283447265625,0.0014154701493680477,-0.003733485471457243,-0.004288222175091505
1769667009293271600,2.514271484375,0.0013305152533575892,-0.0002585929469205439,-0.0032767534721642733
1769667009303260700,2.5242607421875,0.0017976337112486362,0.0007890945998951793,-0.002688727341592312
1769667009313248500,2.53424853515625,0.0010953581659123302,0.0013036173768341541,0.00032890037982724607
1769667009323237400,2.5442373046875,0.002319879597052932,-0.0022924491204321384,-0.0006000102148391306
1769667009333225500,2.5542255859375,0.0011073424248024821,-0.0017515610670670867,-0.0008950884221121669
1769667009343214600,2.564214599609375,0.00046578687033616006,0.0020791299175471067,-0.0014527543680742383
1769667009353202400,2.574202392578125,0.0008575378451496363,-0.001258343574590981,-0.0006503439508378506
1769667009363191300,2.58419140625,0.0008410262526012957,-0.002948119305074215,-0.005754824727773666
1769667009373179400,2.594179443359375,0.0018615495646372437,-0.00170788518153131,-0.003632551757618785
1769667009383168500,2.60416845703125,0.0018644790397956967,-0.002695119008421898,-0.0027031085919588804
1769667009393156600,2.614156494140625,0.0024564997293055058,-0.004148405976593494,-0.0011241203173995018
1769667009403145500,2.6241455078125,0.0015198660548776388,-0.004972654394805431,-0.002463690238073468
1769667009413133300,2.63413330078125,0.0017126789316534996,-0.004403803031891584,-0.000606668065302074
1769667009423122400,2.644122314453125,0.0025300029665231705,-0.004333761986345053,-0.0030309436842799187
1769667009433110500,2.654110595703125,0.002828809665516019,-0.0031158984638750553,-0.0009350358741357923
1769667009443099400,2.664099365234375,0.0017028251895681024,-0.0032109732273966074,0.00008202536264434457
1769667009453087500,2.67408740234375,0.003519633784890175,-0.003706587478518486,-0.0001680454588495195
1769667009463076400,2.684076416015625,0.002953978255391121,-0.003133208956569433,0.0006119944155216217
1769667009473064400,2.694064453125,0.002223206916823983,-0.0028732845094054937,-0.0014064153656363487
1769667009483053600,2.704053466796875,0.002234924817457795,-0.0031289479229599237,-0.0023073628544807434
1769667009493041400,2.71404150390625,0.003064233111217618,-0.0024583640042692423,-0.0019230686593800783
1769667009503030500,2.724030517578125,-0.000264718197286129,-0.004351338837295771,-0.0024535702541470528
1769667009513018400,2.734018310546875,0.0006114617572166026,-0.005375324282795191,0.0004423510399647057
1769667009523007500,2.744007568359375,0.0012562130577862263,-0.0036852823104709387,-0.0006463492172770202
1769667009532995600,2.75399560546875,0.00035979304811917245,-0.001606685109436512,-0.0020248014479875565
1769667009542984700,2.763984619140625,0.002773682354018092,-0.0021584921050816774,-0.000990695902146399
1769667009552972500,2.77397265625,-0.000003728425554072601,-0.0022498385515064,0.0008852347382344306
1769667009562961700,2.783961669921875,0.000720118754543364,-0.001725462032482028,0.001746501075103879
1769667009572949800,2.79394970703125,0.0024732777383178473,-0.0019046928500756621,0.0012373046483844519
1769667009582938600,2.803938720703125,0.0016431703697890043,-0.0020096213556826115,0.0032021848019212484
1769667009592926700,2.8139267578125,0.0010514160385355353,-0.00115421402733773,0.0009443568997085094
1769667009602915600,2.82391552734375,0.0026101642288267612,-0.001020523370243609,0.00017310546536464244
1769667009612903700,2.833903564453125,0.0003683151735458523,0.0016460998449474573,-0.0005917543894611299
1769667009622892500,2.843892578125,0.0009507485083304346,0.001306014135479927,-0.0009856359101831913
1769667009632880600,2.853880615234375,-0.00041545313433744013,0.003772634081542492,-0.002945456188172102
1769667009642869800,2.863869873046875,0.0015225291717797518,0.004650411661714315,-0.004344680812209845
1769667009652857600,2.873857666015625,0.0017161410069093108,0.0035744947381317616,-0.005139900837093592
1769667009662846500,2.883846435546875,0.0005864280392415822,0.0017273263074457645,-0.005375324282795191
1769667009672834600,2.89383447265625,0.0015012238873168826,0.0016578177455812693,-0.004751611966639757
1769667009682823700,2.90382373046875,0.0020628846250474453,0.0030535804107785225,-0.005045092198997736
1769667009692811800,2.913811767578125,0.0011912320042029023,0.004834169987589121,-0.005401156842708588
1769667009702800600,2.923800537109375,0.0006476807757280767,0.0025955168530344963,-0.006051500793546438
1769667009712789500,2.93378955078125,0.001838912721723318,0.00031878036679700017,-0.004415787290781736
1769667009722777600,2.943777587890625,0.00162426196038723,-0.005145227070897818,-0.004460528492927551
1769667009732766700,2.9537666015625,0.0012423646403476596,-0.005230181850492954,-0.0036453348584473133
1769667009742754800,2.9637548828125,0.000526773277670145,-0.002020007697865367,-0.0032708945218473673
1769667009752743700,2.97374365234375,-0.00020959076937288046,-0.0008423578692600131,-0.00264798104763031
1769667009762731500,2.9837314453125,0.0017204020405188203,-0.004773183725774288,-0.004775047767907381
1769667009772720600,2.993720703125,0.0018530274974182248,-0.00461765518411994,-0.005855225957930088
1769667009782708700,3.003708740234375,0.0012157330056652427,-0.004251470323652029,-0.005387042183429003
1769667009792697600,3.013697509765625,0.0024623586796224117,-0.0018383801216259599,-0.005366535857319832
1769667009802685700,3.023685791015625,0.002118011936545372,-0.0007430219557136297,-0.006470948923379183
1769667009812674600,3.033674560546875,0.002079928759485483,0.00010918960470007733,-0.007771104108542204
1769667009822662700,3.04366259765625,0.0015371765475720167,0.0013243899447843432,-0.004487160127609968
1769667009832651500,3.053651611328125,0.0019744676537811756,0.0008037420338951051,-0.004111388232558966
1769667009842639600,3.0636396484375,0.0019030949333682656,0.0009864348685368896,-0.004620051942765713
1769667009852628700,3.073628662109375,0.0015968313673511147,0.0013291836949065328,-0.004479170776903629
1769667009862616600,3.083616455078125,0.002234658459201455,0.0022301310673356056,-0.004883971065282822
1769667009872605400,3.09360546875,0.002228266792371869,0.0008886968716979027,-0.005616873037070036
1769667009882593500,3.103593505859375,0.0008410262526012957,0.0011672634864225984,-0.004732437431812286
1769667009892582700,3.113582763671875,0.0017757958266884089,-0.002061819192022085,-0.0046538738533854485
1769667009902570800,3.12357080078125,0.0023880566004663706,-0.0013936321483924985,-0.0023997745011001825
1769667009912559600,3.1335595703125,0.0006681871018372476,-0.004054662771522999,-0.004605138208717108
1769667009922547500,3.14354736328125,0.0009731190511956811,-0.004068511072546244,-0.0017116136150434613
1769667009932536600,3.15353662109375,0.0006178533658385277,-0.0036695697344839573,-0.003900199430063367
1769667009942524700,3.163524658203125,0.0013568805297836661,-0.001511343871243298,-0.0029403960797935724
1769667009952513800,3.173513671875,0.0022655511274933815,-0.0017419736832380295,-0.00034354778472334146
1769667009962501600,3.183501708984375,0.0017457021167501807,-0.000600809114985168,-0.0019824570044875145
1769667009972490500,3.193490478515625,0.0029696908313781023,-0.001330249011516571,0.00019254654762335122
1769667009982478600,3.203478515625,0.002369148191064596,-0.003175020683556795,-0.000627973407972604
1769667009992467700,3.2134677734375,0.0021752698812633753,-0.003448527306318283,-0.00038482676609419286
1769667010002455800,3.223455810546875,0.0023339942563325167,0.001805623178370297,0.00023995080846361816
1769667010012444700,3.233444580078125,0.0028724854346364737,0.001663410454057157,-0.00038775624125264585
1769667010022432500,3.2434326171875,0.000895621080417186,0.0014775217277929187,0.00006817692337790504
1769667010032421600,3.253421630859375,0.003260774305090308,-0.00031851406674832106,0.0017686053179204464
1769667010042409700,3.26340966796875,0.0016857809387147427,0.00029294771957211196,0.0006285060080699623
1769667010052398600,3.273398681640625,0.002585130510851741,0.0013544837711378932,0.0013369068037718534
1769667010062386400,3.283386474609375,0.0009339706157334149,0.0005435511702671647,0.0007898935582488775
1769667010072375600,3.29337548828125,0.001543834456242621,0.0016200009267777205,-0.0019558256026357412
1769667010082363600,3.30336376953125,0.0028850024100393057,0.002380866091698408,-0.0006439523422159255
1769667010092352500,3.3133525390625,0.0025276062078773975,-0.00031611722079105675,-0.0018471685471013188
1769667010102341600,3.323341552734375,0.0028032432310283184,-0.0013518205378204584,-0.003528155852109194
1769667010112329700,3.333329833984375,0.0013555489713326097,-0.0006593986763618886,-0.0024051007349044085
1769667010122318600,3.343318603515625,0.00233825552277267,-0.0019185412675142288,-0.0033601103350520134
1769667010132306700,3.353306640625,0.0016652746126055717,-0.002633600030094385,-0.005258944351226091
1769667010142295600,3.363295654296875,0.0025478461757302284,-0.00005805691034765914,-0.00347489258274436
1769667010152283600,3.37328369140625,0.00041278995922766626,-0.0011358382180333138,-0.0029984530992805958
1769667010162272800,3.383272705078125,0.0020391824655234814,-0.0006016080733388662,-0.0038812910206615925
1769667010172260600,3.393260498046875,0.000523843802511692,-0.0007629956235177815,-0.003576625371351838
1769667010182249500,3.40324951171875,0.002685531508177519,-0.0010396981379017234,-0.0020727382507175207
1769667010192237600,3.413237548828125,0.0012277172645553946,-0.0012663330417126417,-0.004101534374058247
1769667010202226700,3.423226806640625,-0.0008207862265408039,-0.001288171042688191,-0.004246144089847803
1769667010212214800,3.43321484375,-0.00021731393644586205,-0.0006913566030561924,-0.0035321505274623632
1769667010222203600,3.44320361328125,0.0013132047606632113,-0.001597630325704813,-0.0030921963043510914
1769667010232191500,3.45319140625,0.001210673013702035,-0.0009036105475388467,-0.001969407545402646
1769667010242180600,3.4631806640625,0.0017899106023833156,-0.003959854133427143,-0.004505536053329706
1769667010252168700,3.473168701171875,0.0020245350897312164,-0.004608334042131901,-0.005222192499786615
1769667010262157600,3.483157470703125,0.0018500980222597718,-0.003367567202076316,-0.003381948219612241
1769667010272145400,3.4931455078125,0.0006186523241922259,-0.00407490273937583,-0.001714010490104556
1769667010282134500,3.503134521484375,0.002508431440219283,-0.004513259045779705,-0.0019036275334656239
1769667010292122600,3.51312255859375,0.0006490123341791332,-0.0020069582387804985,-0.0035273567773401737
1769667010302111700,3.52311181640625,0.001588575541973114,-0.004730839282274246,-0.001912948559038341
1769667010312099600,3.533099609375,0.002138518262654543,-0.006317284423857927,-0.0028762139845639467
1769667010322088700,3.543088623046875,0.00009081379539566115,-0.004691690672188997,-0.0035515916533768177
1769667010332076500,3.55307666015625,0.0022367890924215317,-0.005555354058742523,-0.0032139027025550604
1769667010342065700,3.563065673828125,0.0012538161827251315,-0.0038045919500291348,-0.0033981935121119022
1769667010352053800,3.5730537109375,-0.000264718197286129,-0.004068511072546244,-0.0031414648983627558
1769667010362042600,3.583042724609375,0.0010775149567052722,-0.003932956140488386,-0.002594451420009136
1769667010372030700,3.59303076171875,-0.000713993504177779,-0.0014346449170261621,-0.005017129238694906
1769667010382019600,3.60301953125,0.0002711098059080541,-0.0022003035992383957,-0.0037406759802252054
1769667010392007700,3.613007568359375,0.0020061591640114784,-0.0007099987124092877,-0.0012452941155061126
1769667010401996500,3.62299658203125,0.0013899037148803473,-0.0005083974683657289,-0.00307621737010777
1769667010411984600,3.632984619140625,0.0008431567694060504,-0.0034091125708073378,-0.003495665267109871
1769667010421973800,3.642973876953125,0.0017222663154825568,-0.010152769275009632,-0.0015989618841558695
1769667010431961600,3.652961669921875,0.0016924388473853469,-0.003756921272724867,-0.0019020296167582273
1769667010441950500,3.662950439453125,0.0014154701493680477,-0.0036493295338004827,-0.0026724820490926504
1769667010451938600,3.6729384765625,0.0028479844331741333,-0.0033747577108442783,-0.0029356025625020266
1769667010461927700,3.682927734375,0.001127848750911653,-0.004824582487344742,-0.004021106753498316
1769667010471916800,3.692916748046875,0.0013598100049421191,-0.00962546281516552,-0.004464789759367704
1769667010481904400,3.702904296875,-0.0007145261042751372,-0.010470484383404255,-0.0034996599424630404
1769667010491893500,3.7128935546875,0.001321194227784872,-0.0065740132704377174,-0.004308994393795729
1769667010501881600,3.722881591796875,0.001660214620642364,-0.001469532260671258,-0.004062652122229338
1769667010511869700,3.73286962890625,0.0036368127912282944,0.0017539578257128596,-0.005844573490321636
1769667010521858800,3.74285888671875,0.0004857605672441423,0.0027265443932265043,-0.004250671248883009
1769667010531847700,3.75284765625,0.00037151097785681486,0.0017979000695049763,-0.0010801780736073852
1769667010541835000,3.7628349609375,0.0017843178939074278,-0.000922252656891942,-0.003969441633671522
1769667010551824100,3.77282421875,0.001817341079004109,-0.0019856528379023075,-0.0012708604335784912
1769667010561812200,3.782812255859375,0.001746501075103879,-0.0004519384237937629,-0.0028277444653213024
1769667010571801000,3.792801025390625,0.0018287927377969027,-0.0007566040731035173,-0.0029555761720985174
1769667010581789000,3.802788818359375,0.00021971078240312636,-0.003433613572269678,-0.006077067460864782
1769667010591778000,3.812778076171875,0.001377653214149177,-0.0026429209392517805,-0.007254716940224171
1769667010601766100,3.82276611328125,0.002117745578289032,-0.002561694709584117,-0.004251736681908369
1769667010611755000,3.832755126953125,0.0019462381023913622,-0.003198456484824419,-0.004067978356033564
1769667010621743000,3.8427431640625,0.002020007697865367,-0.005863748025149107,-0.003600327530875802
1769667010631732200,3.852732177734375,0.00040772996726445854,-0.00504056503996253,-0.0035747610963881016
1769667010641720000,3.862719970703125,-0.00005965480886516161,-0.004328169394284487,-0.0032828785479068756
1769667010651709200,3.872709228515625,0.0008412926108576357,-0.004998486954718828,-0.002138518262654543
1769667010661697000,3.882697021484375,0.0025419872254133224,-0.0023345269728451967,-0.002389121800661087
1769667010671686100,3.89268603515625,0.0020335898734629154,-0.0011643340112641454,-0.0023470439482480288
1769667010681674200,3.90267431640625,0.0021611552219837904,-0.001383778522722423,-0.0029462550301104784
1769667010691663000,3.9126630859375,0.0017952368361875415,-0.0037148434203118086,-0.0014676681021228433
1769667010701651200,3.922651123046875,0.002284725895151496,-0.004020041786134243,-0.00004500742215896025
1769667010711640000,3.93264013671875,0.0018530274974182248,-0.00126713200006634,-0.0015795208746567369
1769667010721628200,3.942628173828125,0.0016713999211788177,-0.001487641828134656,-0.0016018913593143225
1769667010731617300,3.9526171875,-0.00033635724685154855,-0.0028756812680512667,-0.004670917987823486
1769667010741605000,3.962605224609375,0.001722798915579915,-0.0008796420879662037,-0.003571032779291272
1769667010751594000,3.972593994140625,0.001187503570690751,-0.0016871124971657991,-0.0030836742371320724
1769667010761582000,3.98258203125,-0.00039015308720991015,-0.0016905746888369322,-0.004066647030413151
1769667010771571200,3.9925712890625,0.00034647725988179445,-0.002100967802107334,-0.002435993403196335
1769667010781559300,4.002559326171875,0.0022359900176525116,-0.0009158611064776778,-0.00321949552744627
1769667010791548000,4.0125478515625,0.0022280006669461727,0.00004340952364145778,-0.00202267081476748
1769667010801536000,4.022535888671875,0.002020007697865367,0.0022240057587623596,-0.001300155185163021
1769667010811525000,4.032525146484375,0.001070857048034668,0.0015134743880480528,-0.0015443670563399792
1769667010821513200,4.04251318359375,0.001600559800863266,0.0006825681775808334,-0.003911917097866535
1769667010831502000,4.052502197265625,0.0014855111949145794,-0.0009169263648800552,-0.0017984326696023345
1769667010841490000,4.062489990234375,0.0016903083305805922,-0.0029033781029284,-0.0033222935162484646
1769667010851479000,4.07247900390625,0.002394714392721653,-0.002016545506194234,-0.005563876125961542
1769667010861467100,4.082467041015625,0.0021646174136549234,-0.0029947245493531227,-0.003278883872553706
1769667010871456300,4.092456298828125,0.0025750105269253254,-0.002891660202294588,-0.00392869533970952
1769667010881445000,4.102445068359375,0.002950782421976328,-0.0006655239267274737,-0.003329750383272767
1769667010891433200,4.11243310546875,0.0016349145444110036,-0.0004111920716241002,-0.004223241005092859
1769667010901422000,4.122422119140625,0.0026786073576658964,-0.0028538433834910393,-0.004209924954921007
1769667010911410200,4.13241015625,0.0009278453071601689,-0.0027867318131029606,-0.004070641472935677
1769667010921399000,4.14239892578125,0.0021587584633380175,-0.002526274649426341,-0.0024810009635984898
1769667010931387100,4.15238720703125,0.0019651465117931366,-0.001883121207356453,-0.003858920419588685
1769667010941376300,4.162376220703125,0.0034224283881485462,-0.0019944412633776665,-0.0037529265973716974
1769667010951364000,4.172364013671875,0.0015182681381702423,-0.0020823257509618998,-0.0031886028591543436
1769667010961353000,4.18235302734375,0.002386725042015314,-0.0005693838465958834,-0.0030128341168165207
1769667010971341000,4.192341064453125,0.0035958001390099525,-0.0018551580142229795,-0.0019390475936233997
1769667010981330200,4.202330078125,0.00017017599020618945,-0.0009331716573797166,-0.002028263406828046
1769667010991318300,4.212318359375,0.0011789813870564103,-0.0022058964241296053,-0.004293282050639391
1769667011001307100,4.22230712890625,0.0019718045368790627,-0.002841326640918851,-0.004854143597185612
1769667011011295000,4.232294921875,0.0018783274572342634,-0.002254632068797946,-0.0037491980474442244
1769667011021284000,4.2422841796875,0.001976331928744912,-0.002320145955309272,-0.0033891387283802032
1769667011031272200,4.252272216796875,0.0013459615875035524,0.00045300371129997075,-0.0026849990244954824
1769667011041261300,4.26226123046875,0.00023196132679004222,-0.00046605319948866963,-0.0011198592837899923
1769667011051249200,4.272249267578125,0.001788312685675919,-0.0012415656819939613,-0.0020058928057551384
1769667011061238000,4.282238037109375,0.001514273346401751,-0.0017510283505544066,-0.002886067610234022
1769667011071226000,4.29222607421875,0.00021172130072955042,-0.003949468024075031,-0.0031340080313384533
1769667011081215200,4.30221533203125,0.0010721886064857244,-0.0022096247412264347,-0.0032562471460551023
1769667011091203300,4.312203369140625,0.0018301242962479591,0.00026844663079828024,-0.0016173376934602857
1769667011101192200,4.322192138671875,0.00024101608141791075,0.0014479606179520488,-0.0030836742371320724
1769667011111180000,4.332179931640625,0.0008138620178215206,-0.0012905678013339639,-0.005228584166616201
1769667011121169200,4.342169189453125,0.0008759136544540524,-0.009130913764238358,-0.0041524008847773075
1769667011131157200,4.3521572265625,0.00044022052315995097,-0.005216599907726049,-0.003784351982176304
1769667011141146000,4.36214599609375,0.001674595638178289,-0.0016729978378862143,-0.003364105010405183
1769667011151134000,4.372134033203125,0.0022117553744465113,-0.004977447912096977,-0.0035955337807536125
1769667011161123000,4.382123046875,-0.0003818972909357399,-0.0041369544342160225,-0.004218979738652706
1769667011171111200,4.392111083984375,0.0011914982460439205,-0.005727394018322229,-0.004709533881396055
1769667011181100000,4.40210009765625,0.0008186557097360492,-0.006222209427505732,-0.0049404301680624485
1769667011191088000,4.412088134765625,-0.0002079928817693144,-0.003850131994113326,-0.0041430797427892685
1769667011201077200,4.4220771484375,0.0009779128013178706,-0.001812014845199883,-0.0046416232362389565
1769667011211065000,4.432065185546875,0.0010980212828144431,0.000019707391402334906,-0.0026016421616077423
1769667011221054000,4.442053955078125,0.0022173479665070772,-0.0017686053179204464,-0.0020391824655234814
1769667011231042000,4.4520419921875,0.0017486315919086337,0.0004974784678779542,-0.0011555455857887864
1769667011241031200,4.46203125,0.0011643340112641454,-0.00044368262751959264,-0.002912432886660099
1769667011251019300,4.472019287109375,0.0010277138790115714,-0.0011558119440451264,-0.002576342085376382
1769667011261008100,4.482008056640625,0.003087136195972562,-0.0025276062078773975,-0.002112419344484806
1769667011270997000,4.4919970703125,0.002211222657933831,-0.0023166837636381388,-0.0035513252951204777
1769667011280985000,4.501985107421875,0.0005515406373888254,-0.0043899547308683395,-0.006219279952347279
1769667011290974200,4.51197412109375,0.0023105584550648928,-0.005513275973498821,-0.006052566226571798
1769667011300962300,4.52196240234375,0.0013813816476613283,-0.005825664848089218,-0.003740143496543169
1769667011310951200,4.531951171875,0.0024341291282325983,-0.004145210143178701,-0.003311108099296689
1769667011320939000,4.54193896484375,0.0009592706337571144,-0.004791559185832739,-0.001981125446036458
1769667011330928000,4.55192822265625,0.000660463934764266,-0.008137022145092487,-0.0030538467690348625
1769667011340916200,4.561916259765625,0.0025888588279485703,-0.004627508576959372,-0.0029915287159383297
1769667011350905000,4.571905029296875,0.00065460498444736,-0.005294098053127527,-0.003120692213997245
1769667011360893000,4.581892822265625,0.001157143502496183,-0.0065564364194869995,-0.0016873788554221392
1769667011370882000,4.591882080078125,0.0006362291751429439,-0.004548412747681141,-0.0015773903578519821
1769667011380870100,4.6018701171875,0.00026072346372529864,-0.004652808886021376,-0.0010247844038531184
1769667011390859000,4.61185888671875,0.0006330333999358118,-0.004938832018524408,-0.0029976540245115757
1769667011400847000,4.62184716796875,0.00250496924854815,-0.004314321093261242,-0.004357996862381697
1769667011410836200,4.631836181640625,0.002350505907088518,0.0005893575726076961,-0.0028242822736501694
1769667011420824000,4.641823974609375,0.0021233384031802416,0.001297225710004568,-0.004083691164851189
1769667011430813200,4.651813232421875,0.00006125270738266408,-0.00020186760229989886,-0.0046160570345819
1769667011440801000,4.661801025390625,0.0016106797847896814,-0.0006199838826432824,-0.0038219024427235126
1769667011450790100,4.6717900390625,0.002409361768513918,-0.0020306603983044624,-0.0046304380521178246
1769667011460778200,4.6817783203125,0.00026045716367661953,-0.005001150071620941,-0.004782504867762327
1769667011470767000,4.69176708984375,0.000669518718495965,-0.002986468840390444,-0.00387330143712461
1769667011480755200,4.701755126953125,0.0016077503096312284,-0.0015795208746567369,-0.004941229242831469
1769667011490744000,4.711744140625,0.00041678472189232707,-0.0008982842555269599,-0.002852778183296323
1769667011500732200,4.721732177734375,0.0013273194199427962,-0.0010881676571443677,-0.003674363251775503
1769667011510721300,4.73172119140625,0.0012460930738598108,-0.001731320982798934,-0.0049217878840863705
1769667011520709000,4.741709228515625,-0.000316916179144755,-0.0014375743921846151,-0.004069043789058924
1769667011530698000,4.751697998046875,0.0008660599705763161,-0.0038626487366855145,-0.004168379586189985
1769667011540686300,4.761686279296875,0.0008998821140266955,-0.005655222572386265,-0.0030541131272912025
1769667011550675200,4.77167529296875,0.0006468818173743784,-0.0046661244705319405,-0.004659200087189674
1769667011560663300,4.781663330078125,0.001401089015416801,-0.0032554480712860823,-0.004337224178016186
1769667011570652200,4.791652099609375,0.0019291938515380025,-0.003427754621952772,-0.0049039446748793125
1769667011580640300,4.80164013671875,0.001919073867611587,-0.002311623888090253,-0.005800098646432161
1769667011590629400,4.81162939453125,0.001776062068529427,-0.005248824134469032,-0.0032599754631519318
1769667011600617200,4.8216171875,0.000630902883131057,-0.004751878324896097,-0.00449781259521842
1769667011610606000,4.831606201171875,0.001689775730483234,-0.003984888084232807,-0.0023177489638328552
1769667011620594200,4.84159423828125,0.0014737932942807674,-0.0031105722300708294,-0.00430100504308939
1769667011630583300,4.851583251953125,0.0012269183062016964,-0.0029057750944048166,-0.0033105756156146526
1769667011640571400,4.8615712890625,-0.00024474450037814677,-0.002965429797768593,-0.0020535634830594063
1769667011650560300,4.871560302734375,0.0014024205738678575,-0.0019030949333682656,-0.003285275539383292
1769667011660549000,4.881549072265625,0.002004827605560422,-0.0018226674292236567,-0.0017576862592250109
1769667011670537200,4.891537109375,0.0012889700010418892,0.000185888638952747,-0.00452737370505929
1769667011680526300,4.9015263671875,0.002034388715401292,0.0000900148443179205,-0.003996339626610279
1769667011690514400,4.911514404296875,0.0019089538836851716,0.0010311759542673826,-0.0068086376413702965
1769667011700503300,4.92150341796875,0.0005448827287182212,0.0007523429812863469,-0.005617139395326376
1769667011710491100,4.9314912109375,0.0004013383586425334,0.0000015978966985130683,-0.00506932707503438
1769667011720480300,4.941480224609375,0.001829591696150601,0.0009323726990260184,-0.006864297669380903
1769667011730468400,4.95146826171875,0.003049585735425353,0.001139033935032785,-0.0056951697915792465
1769667011740457200,4.961457275390625,0.0024623586796224117,0.0034527883399277925,-0.0052235242910683155
1769667011750445300,4.9714453125,0.0020783308427780867,0.0024117587599903345,-0.007541805971413851
1769667011760434200,4.98143408203125,0.001350488979369402,0.00019734023953787982,-0.005917810369282961
1769667011770422300,4.99142236328125,0.0020881847012788057,-0.0022631543688476086,-0.006674414500594139
1769667011780411100,5.0014111328125,0.001401089015416801,-0.0017965685110539198,-0.006888266187161207
1769667011790399200,5.011399169921875,0.0018287927377969027,0.00024101608141791075,-0.006405701395124197
1769667011800388400,5.021388427734375,0.0024985778145492077,0.0014026869321241975,-0.006404103245586157
1769667011810376200,5.031376220703125,0.00041518680518493056,-0.0020876519847661257,-0.00313001312315464
1769667011820365300,5.041365234375,0.001796834752894938,-0.004323908127844334,-0.006887733470648527
1769667011830353200,5.051353271484375,0.0024549018125981092,-0.0065476479940116405,-0.006750847212970257
1769667011840342300,5.06134228515625,0.00119629199616611,-0.004199805203825235,-0.006047239992767572
1769667011850330400,5.071330322265625,0.002019474981352687,-0.004799282643944025,-0.007749798707664013
1769667011860319200,5.0813193359375,0.002269545802846551,-0.0059657469391822815,-0.006955377757549286
1769667011870307300,5.091307373046875,0.0018785938154906034,-0.004698615055531263,-0.005197691265493631
1769667011880296200,5.101296142578125,0.0023132218047976494,-0.006849650293588638,-0.004484230652451515
1769667011890284300,5.1112841796875,0.002990197157487273,-0.006328203249722719,-0.004458930809050798
1769667011900273400,5.1212734375,0.0020234698895365,-0.002356098499149084,-0.0060211410745978355
1769667011910261200,5.13126123046875,0.00006657902849838138,0.0002133192028850317,-0.004400607198476791
1769667011920250000,5.14125,0.0028522454667836428,0.0010807107901200652,-0.0057433731853961945
1769667011930238200,5.15123828125,0.002413090318441391,-0.001415736391209066,-0.002338788006454706
1769667011940227300,5.161227294921875,0.0009411611245013773,-0.002160090021789074,-0.0021872541401535273
1769667011950215400,5.17121533203125,0.0010876349406316876,-0.0032258869614452124,-0.004253334365785122
1769667011960204300,5.181204345703125,0.0019712718203663826,-0.002397910226136446,-0.004067446105182171
1769667011970192100,5.191192138671875,0.001811748486943543,-0.004223773255944252,-0.0028450549580156803
1769667011980181200,5.20118115234375,0.00039468047907575965,-0.003576625371351838,-0.005020325072109699
1769667011990169300,5.21116943359375,0.0014852449530735612,-0.003914846573024988,-0.009320797398686409
1769667012000158200,5.221158203125,0.0015568839153274894,-0.003278883872553706,-0.009861951693892479
1769667012010146000,5.23114599609375,0.0008665926288813353,-0.001689509372226894,-0.011247328482568264
1769667012020135200,5.24113525390625,0.00012490226072259247,-0.001856489572674036,-0.011186341755092144
1769667012030123300,5.251123291015625,-0.0006644586683250964,-0.002283926820382476,-0.012230301275849342
1769667012040112400,5.2611123046875,0.0018767296569421887,-0.0026351979468017817,-0.010396714322268963
1769667012050101200,5.271101318359375,0.002531334524974227,-0.0012977584265172482,-0.010912834666669369
1769667012060089300,5.28108935546875,-0.0005496764206327498,-0.00015206649550236762,-0.00935275573283434
1769667012070078200,5.291078125,0.0020069582387804985,0.0005933523061685264,-0.010454504750669003
1769667012080066300,5.30106640625,0.0027300063520669937,0.00017417073831893504,-0.009463543072342873
1769667012090055200,5.31105517578125,0.0013558153295889497,0.00014807176194153726,-0.009119728580117226
1769667012100043300,5.321043212890625,0.00224957219325006,-0.0036549223586916924,-0.007523962762206793
1769667012110032400,5.331032470703125,0.001734250457957387,-0.0023094932548701763,-0.007319165393710136
1769667012120020200,5.341020263671875,0.0018378474051132798,0.002124403603374958,-0.005271460860967636
1769667012130009000,5.351009033203125,0.002406965009868145,0.001241033081896603,-0.0038631814531981945
1769667012139997200,5.3609970703125,0.001904160133562982,-0.0007142598042264581,-0.005109807010740042
1769667012149986300,5.370986328125,0.00026844663079828024,-0.001549693406559527,-0.0048858351074159145
1769667012159974400,5.380974365234375,0.00006072007090551779,-0.0003323625132907182,-0.005372394807636738
1769667012169963300,5.39096337890625,0.0015433018561452627,-0.000294545607175678,-0.0065415226854383945
1769667012179951000,5.400951171875,0.0017603494925424457,-0.0011041465913876891,-0.005760150961577892
1769667012189940200,5.410940185546875,0.0015310513554140925,-0.0008631304954178631,-0.005239502992480993
1769667012199928300,5.42092822265625,0.002418150193989277,-0.0012000204296782613,-0.00458782771602273
1769667012209917200,5.430917236328125,0.0013840447645634413,-0.00170761882327497,-0.004259726032614708
1769667012219905000,5.440905029296875,0.0012474246323108673,-0.002419215627014637,-0.0037675739731639624
1769667012229894100,5.45089404296875,0.0027928571216762066,-0.003091397462412715,-0.0035566515289247036
1769667012239882200,5.46088232421875,0.0014258564915508032,-0.005281314719468355,-0.0017947042360901833
1769667012249871400,5.470871337890625,0.0029952572658658028,-0.0038216360844671726,-0.0017608820926398039
1769667012259859200,5.480859130859375,0.001973136095330119,-0.002579271560534835,0.0002689792599994689
1769667012269848300,5.490848388671875,0.001085504423826933,-0.001398159540258348,0.0012934972764924169
1769667012279836200,5.500836181640625,0.002252768026664853,0.0005371595616452396,0.000041012681322172284
1769667012289825300,5.5108251953125,0.001425057533197105,0.0004293015517760068,0.0009499495499767363
1769667012299813400,5.5208134765625,0.0010388991795480251,-0.002383795566856861,-0.0009219863568432629
1769667012309802200,5.53080224609375,0.0015749934827908874,-0.0023217438720166683,-0.0007448861724697053
1769667012319790300,5.540790283203125,0.0023667511995881796,-0.0013920343481004238,-0.0026615632232278585
1769667012329779200,5.550779296875,0.001669003046117723,-0.0013275857781991363,-0.0025068335235118866
1769667012339767300,5.560767333984375,0.00047643951256759465,-0.001597896683961153,-0.001898301183246076
1769667012349756200,5.570756103515625,0.0027744811959564686,-0.0003009371866937727,-0.005375590641051531
1769667012359744300,5.580744140625,0.0015339808305725455,-0.0003145193331874907,-0.003323625074699521
1769667012369733400,5.5907333984375,0.001187237212434411,0.00019520970818120986,-0.0014780544443055987
1769667012379721200,5.60072119140625,0.0010388991795480251,0.0013978932984173298,-0.002490588231012225
1769667012389710000,5.6107099609375,0.0008881642133928835,0.0027318706270307302,-0.0032919333316385746
1769667012399698200,5.6206982421875,0.0006689860601909459,-0.0008484831196255982,-0.0012887036427855492
1769667012409687300,5.630687255859375,0.0020964404102414846,-0.0016359798610210419,-0.002254632068797946
1769667012419675400,5.64067529296875,0.002266616327688098,-0.0017478326335549355,-0.002002430846914649
1769667012429664300,5.650664306640625,0.002406698651611805,-0.0009739180095493793,-0.0020178770646452904
1769667012439652000,5.660652099609375,0.0020514330826699734,0.0005099953268654644,-0.0038093857001513243
1769667012449641200,5.67064111328125,0.0020306603983044624,0.0020823257509618998,-0.0012034825049340725
1769667012459630300,5.68063037109375,0.00032330775866284966,0.0034671693574637175,-0.0038458709605038166
1769667012469618400,5.690618408203125,0.0025742114521563053,0.0020809939596801996,-0.002040514023974538
1769667012479607300,5.700607177734375,0.0019259981345385313,0.0022034994326531887,-0.0014109427575021982
1769667012489595100,5.71059521484375,0.0030418625101447105,-0.00035686357296071947,-0.0005283711361698806
1769667012499584300,5.720584228515625,0.0023089605383574963,0.002551840851083398,-0.0013912353897467256
1769667012509572400,5.730572265625,0.0020516992080956697,0.0032256206031888723,-0.001967277145013213
1769667012519561200,5.740561279296875,0.00138058268930763,0.0036645096261054277,-0.002558232517912984
1769667012529549300,5.75054931640625,0.0015238607302308083,0.0023606258910149336,-0.0031587753910571337
1769667012539538200,5.7605380859375,0.002038117265328765,-0.003612311789765954,-0.004305799026042223
1769667012549526300,5.7705263671875,0.0021824603900313377,-0.0005198490689508617,-0.0017920411191880703
1769667012559515100,5.78051513671875,0.0026112294290214777,-0.002144377212971449,-0.0033044503070414066
1769667012569503200,5.790503173828125,0.000978978001512587,-0.003686081152409315,-0.0023869911674410105
1769667012579492400,5.800492431640625,0.0014229270163923502,-0.004534031730145216,-0.0015417039394378662
1769667012589480200,5.810480224609375,0.002641589380800724,-0.0019566244445741177,-0.0006862966110929847
1769667012599469300,5.82046923828125,0.0012008192716166377,-0.00464694993570447,-0.0009118663729168475
1769667012609457200,5.83045703125,0.0011036139912903309,-0.0013342436868697405,-0.003171025775372982
1769667012619446300,5.8404462890625,0.0014436995843425393,0.0012237224727869034,-0.0010849718237295747
1769667012629434400,5.850434326171875,0.0014018879737704992,0.00028309403569437563,0.0024564997293055058
1769667012639423200,5.86042333984375,0.000987500068731606,-0.0011912320042029023,0.001112668658606708
1769667012649411300,5.870411376953125,0.000821318884845823,-0.001207477180287242,0.0014026869321241975
1769667012659400200,5.880400146484375,0.0010687265312299132,-0.0020157466642558575,0.000556600687559694
1769667012669388300,5.89038818359375,0.001469532260671258,-0.002283926820382476,-0.0007611314067617059
1769667012679377400,5.90037744140625,0.0004958806093782187,0.0004527373821474612,-0.002234125742688775
1769667012689365200,5.910365234375,0.001204547705128789,-0.0012247877893969417,-0.004013916477560997
1769667012699354000,5.92035400390625,0.00205276464112103,-0.002482066163793206,-0.0031222901307046413
1769667012709342200,5.93034228515625,0.0019566244445741177,-0.002095375210046768,-0.002954244613647461
1769667012719331300,5.940331298828125,0.0013225257862359285,0.0006151901907287538,-0.002237854292616248
1769667012729319400,5.9503193359375,0.003263703780248761,-0.00029108350281603634,-0.0016767261549830437
1769667012739308300,5.960308349609375,0.0025244103744626045,-0.0011398328933864832,-0.0019539613276720047
1769667012749296000,5.970296142578125,0.0018932411912828684,-0.001660214620642364,-0.001976065570488572
1769667012759285200,5.98028515625,-0.000011185276889591478,-0.0011225224006921053,-0.0008293083519674838
1769667012769273300,5.9902734375,0.0006191849242895842,-0.0011606055777519941,0.00003728425508597866
1769667012779262200,6.00026220703125,0.0002884203568100929,-0.0022181468084454536,0.0015121428295969963
1769667012789250000,6.01025,0.0017622136510908604,-0.0017526262672618032,-0.000028229507734067738
1769667012799239200,6.0202392578125,0.003674629610031843,-0.00028043086058460176,-0.0007307713967747986
1769667012809227300,6.030227294921875,0.002412823960185051,-0.000529436394572258,-0.0022144184913486242
1769667012819216100,6.040216064453125,0.0019526296528056264,-0.001901230658404529,-0.004914064891636372
1769667012829204200,6.050204345703125,0.002834934974089265,-0.004627774935215712,-0.004593153949826956
1769667012839193300,6.060193359375,0.002302835462614894,0.0031491878908127546,-0.0015504923649132252
1769667012849181200,6.07018115234375,0.003014432033523917,0.00045673211570829153,-0.0007352987886406481
1769667012859170300,6.08017041015625,0.00020586235041264445,-0.0005784385721199214,-0.002817890839651227
1769667012869158100,6.090158203125,-0.0005464806454256177,-0.0006130596739239991,-0.00321896281093359
1769667012879147300,6.100147216796875,0.0017174725653603673,0.0007246461464092135,-0.005033640656620264
1769667012889135400,6.11013525390625,0.0006476807757280767,0.0035177695099264383,-0.006708236411213875
1769667012899124200,6.120124267578125,0.00213612150400877,0.0027502465527504683,-0.005541505757719278
1769667012909113000,6.130113037109375,0.0017006946727633476,0.00044900894863530993,-0.0038919434882700443
1769667012919101200,6.14010107421875,0.0011084076249971986,-0.0009068063227459788,-0.002537992550060153
1769667012929090300,6.15009033203125,0.0021286646369844675,-0.0002665824140422046,-0.004568652715533972
1769667012939078400,6.160078369140625,0.0021403825376182795,-0.0019025622168555856,-0.0028602350503206253
1769667012949067300,6.1700673828125,0.0010343717876821756,-0.002793655963614583,-0.0027438548859208822
1769667012959055000,6.18005517578125,0.00037444045301526785,-0.0011044129496440291,-0.003320162883028388
1769667012969044200,6.190044189453125,0.00202293717302382,-0.0022567627020180225,-0.00155262288171798
1769667012979032300,6.2000322265625,0.0015992282424122095,-0.001651692553423345,-0.0041398839093744755
1769667012989021200,6.210021240234375,0.0012120045721530914,-0.0007267766632139683,-0.003367034485563636
1769667012999009000,6.220009033203125,0.0007177218794822693,-0.00002103897168126423,-0.004248008131980896
1769667013008998100,6.229998046875,0.0004540689697023481,-0.000005592638444795739,-0.0027446537278592587
1769667013018986200,6.239986328125,0.0009052084642462432,-0.000007989483492565341,-0.004033357370644808
1769667013028975400,6.249975341796875,0.0014045510906726122,0.0010727213229984045,-0.003050118451938033
1769667013038963200,6.259963134765625,0.0019196064677089453,-0.0005576659459620714,-0.0036517265252768993
1769667013048952300,6.269952392578125,0.002110288944095373,-0.0002479403046891093,-0.004189152270555496
1769667013058940200,6.279940185546875,0.0016255935188382864,-0.0007893609581515193,-0.00506799528375268
1769667013068929300,6.28992919921875,0.0009595369338057935,-0.0003462109307292849,-0.0052051483653485775
1769667013078917400,6.29991748046875,0.0013084110105410218,0.0003832288784906268,-0.004246410448104143
1769667013088906200,6.30990625,0.0019566244445741177,0.00019760655413847417,-0.005076517816632986
1769667013098894300,6.319894287109375,0.0019238675013184547,0.00012223910016473383,-0.0037979339249432087
1769667013108883200,6.32988330078125,0.00030067088664509356,0.0001430117554264143,-0.002755839144811034
1769667013118871300,6.339871337890625,0.0012157330056652427,-0.0005866943974979222,-0.0041002025827765465
1769667013128860200,6.349860107421875,0.0009957558941096067,0.0006921555614098907,-0.004523645620793104
1769667013138848300,6.35984814453125,0.00016777914424892515,0.0008428904693573713,-0.0025486452504992485
1769667013148837400,6.36983740234375,0.001020257011987269,-0.000013315805517777335,-0.0034874093253165483
1769667013158825200,6.3798251953125,0.0007286408799700439,-0.002344646956771612,-0.0028277444653213024
1769667013168814000,6.38981396484375,0.0021614215802401304,-0.000300404557492584,-0.004957740660756826
1769667013178802200,6.39980224609375,0.0012839100090786815,-0.001686579897068441,-0.004977447912096977
1769667013188791300,6.409791259765625,0.0007352987886406481,-0.000595216522924602,-0.004345213528722525
1769667013198779400,6.419779296875,0.0018232000293210149,-0.0004988100845366716,-0.005576126743108034
1769667013208768300,6.429768310546875,0.0010178601369261742,0.00023515711654908955,-0.0030948594212532043
1769667013218756000,6.439756103515625,0.0022442457266151905,0.00002157160452043172,-0.003120425855740905
1769667013228745200,6.4497451171875,0.0010865697404369712,0.0002801645314320922,-0.004144943784922361
1769667013238733300,6.4597333984375,0.0028032432310283184,-0.0007147924043238163,-0.003596865339204669
1769667013248722400,6.469722412109375,0.0006522081675939262,0.000046871635277057067,-0.002094842493534088
1769667013258710300,6.479710205078125,0.0015883093001320958,-0.000014381069377122913,-0.0037681066896766424
1769667013268699100,6.48969921875,0.0010298443958163261,0.0030716899782419205,-0.0032570459879934788
1769667013278687200,6.499687255859375,0.001353152096271515,0.0023238742724061012,-0.004693288821727037
1769667013288676400,6.50967626953125,0.0013662016717717052,-0.006125270389020443,-0.00749093946069479
1769667013298664400,6.51966455078125,0.0022330605424940586,-0.004375573713332415,-0.004107393324375153
1769667013308653300,6.5296533203125,0.0005198490689508617,0.0016990967560559511,-0.00520701240748167
1769667013318641200,6.53964111328125,0.0005693838465958834,-0.003908987622708082,-0.0062483083456754684
1769667013328630300,6.54963037109375,0.0020807278342545033,-0.0028421254828572273,-0.003425091505050659
1769667013338618400,6.559618408203125,0.00045353634050115943,-0.0002468750171829015,-0.004795820452272892
1769667013348607200,6.569607177734375,0.002793389605358243,-0.00387356779538095,-0.0029318740125745535
1769667013358596400,6.579596435546875,0.001973402453586459,-0.005072256550192833,-0.0037894118577241898
1769667013368584200,6.589584228515625,0.0006860303110443056,-0.0027806065045297146,-0.005027515348047018
1769667013378572300,6.599572265625,0.0025680861435830593,-0.001719869440421462,-0.004334028344601393
1769667013388561200,6.60956103515625,0.0026383937802165747,-0.0009544769418425858,-0.0032647692132741213
1769667013398550300,6.61955029296875,0.0024802018888294697,0.00006364954606397077,-0.0011446266435086727
1769667013408538400,6.629538330078125,0.003060770919546485,0.0005526058957912028,0.000040480048483004794
1769667013418527500,6.639527587890625,0.00148151651956141,-0.0018064221367239952,-0.00017789915727917105
1769667013428515000,6.64951513671875,0.0008729841792955995,-0.0032357405871152878,-0.0007115966291166842
1769667013438504200,6.659504150390625,0.0004852279380429536,-0.0019925772212445736,-0.001853560097515583
1769667013448492300,6.6694921875,0.0016817862633615732,-0.0029920614324510098,-0.004866127856075764
1769667013458481400,6.6794814453125,-0.00008921589324017987,-0.003856523660942912,-0.004595284350216389
1769667013468469200,6.68946923828125,0.002097505610436201,-0.0039278962649405,-0.004520183429121971
1769667013478458000,6.6994580078125,0.0019156117923557758,-0.0016439693281427026,-0.004473045468330383
1769667013488446200,6.7094462890625,0.0017148094484582543,-0.001490304945036769,-0.0035356127191334963
1769667013498435300,6.719435302734375,0.0020277309231460094,-0.0015464976895600557,-0.004870389122515917
1769667013508423400,6.72942333984375,0.00006764429417671636,-0.0031731564085930586,-0.004067978356033564
1769667013518412300,6.739412353515625,0.001237571006640792,-0.0031009847298264503,-0.0034077810123562813
1769667013528400100,6.749400146484375,0.001404284848831594,-0.0017808558186516166,-0.004205397795885801
1769667013538389200,6.75938916015625,0.0015981629258021712,-0.00239231763407588,-0.003001648932695389
1769667013548376800,6.769376953125,0.002645051572471857,-0.0009443568997085094,-0.004926049150526524
1769667013558365700,6.77936572265625,0.0016285229939967394,-0.0018884475575760007,-0.004021905828267336
1769667013568353500,6.789353515625,0.0010327738709747791,-0.0018463695887476206,-0.0025627599097788334
1769667013578342700,6.7993427734375,0.0017603494925424457,-0.000523577444255352,-0.0027739484794437885
1769667013588330800,6.809330810546875,0.0017632789677008986,-0.0014823154779151082,-0.003784085623919964
1769667013598319900,6.81931982421875,0.0017688715597614646,0.0005531385540962219,-0.004169711377471685
1769667013608307700,6.8293076171875,0.0008077367674559355,0.0016229304019361734,-0.0024863271974027157
1769667013618296600,6.839296630859375,0.002176867797970772,-0.000040480048483004794,-0.002959837205708027
1769667013628284700,6.84928466796875,0.0015371765475720167,0.0020455741323530674,-0.004205664154142141
1769667013638273800,6.859273681640625,0.0030929953791201115,0.002126800362020731,-0.005936718545854092
1769667013648262000,6.869261962890625,0.0000351537273672875,0.002061819192022085,-0.005234709475189447
1769667013658250800,6.879250732421875,0.0020932445768266916,-0.00036378781078383327,-0.004661863669753075
1769667013668238600,6.889238525390625,0.0008325041271746159,0.00023542344570159912,-0.005976399872452021
1769667013678227700,6.899227783203125,0.001282045734114945,0.0000804274677648209,-0.005697034299373627
1769667013688215800,6.9092158203125,0.0026194851379841566,-0.0017710020765662193,-0.0036272252909839153
1769667013698204700,6.91920458984375,0.0005611280212178826,-0.001335841603577137,-0.004765992984175682
1769667013708192800,6.92919287109375,0.001532382913865149,-0.0019214707426726818,-0.0018636800814419985
1769667013718181600,6.939181640625,0.00185036426410079,-0.00227860058657825,-0.0022804648615419865
1769667013728169700,6.949169677734375,0.001148355077020824,-0.0025571673177182674,-0.003313771216198802
1769667013738158600,6.95915869140625,0.0011965582380071282,-0.0030037793330848217,-0.003644269658252597
1769667013748146700,6.969146728515625,0.0017454357584938407,-0.003254649229347706,-0.00119602563790977
1769667013758135800,6.9791357421875,0.000871652620844543,-0.003349723992869258,-0.00276063266210258
1769667013768123600,6.98912353515625,0.001472728094086051,-0.00213558878749609,-0.0032631712965667248
1769667013778112800,6.99911279296875,0.002284992253407836,-0.00044528054422698915,-0.0036304211243987083
1769667013788100600,7.0091005859375,0.0005821670056320727,-0.0002671150432433933,-0.003385144053027034
1769667013798089700,7.01908984375,0.0019347865600138903,0.0000900148443179205,-0.003984621725976467
1769667013808078800,7.029078857421875,0.0013057478936389089,-0.001814944320358336,-0.003737214021384716
1769667013818066700,7.039066650390625,0.0016623451374471188,-0.0014426343841478229,-0.0023971113841980696
1769667013828055600,7.0490556640625,0.0016101471846923232,-0.002415487077087164,-0.002372077666223049
1769667013838043600,7.059043701171875,0.0016021577175706625,-0.0011885687708854675,-0.003912982530891895
1769667013848032800,7.06903271484375,0.001976065570488572,-0.0012833772925660014,-0.004444549325853586
1769667013858020900,7.079020751953125,0.00213665422052145,-0.0018269284628331661,-0.004759601317346096
1769667013868009700,7.089009765625,0.0016359798610210419,-0.0015443670563399792,-0.004057858604937792
1769667013877997600,7.09899755859375,0.002055694116279483,-0.0016106797847896814,-0.003430950455367565
1769667013887986700,7.108986572265625,0.00224903947673738,-0.0007384945638477802,-0.004573446698486805
1769667013897974800,7.118974853515625,0.0009992180857807398,-0.0014365090755745769,-0.0031763522420078516
1769667013907963600,7.128963623046875,0.00227913330309093,-0.0007427555974572897,-0.0027241474017500877
1769667013917951700,7.13895166015625,0.0021587584633380175,-0.0029430591966956854,-0.004187554586678743
1769667013927940600,7.148940673828125,0.0019244002178311348,-0.0011385013349354267,-0.0030479878187179565
1769667013937928700,7.1589287109375,0.001121989800594747,-0.002103364560753107,-0.0030301446095108986
1769667013947917800,7.168917724609375,0.0012737899087369442,-0.001802960061468184,-0.002254898427054286
1769667013957905700,7.17890576171875,0.0013523531379178166,-0.001056476030498743,-0.001716939965263009
1769667013967894800,7.188894775390625,0.0008394283941015601,-0.0028360001742839813,-0.0018194715958088636
1769667013977882600,7.198882568359375,0.0018495653057470918,-0.0014500912511721253,-0.003233343828469515
1769667013987871700,7.208871826171875,0.0012058793799951673,-0.003397927153855562,-0.001662877737544477
1769667013997859800,7.21885986328125,0.001618403010070324,-0.002383529208600521,-0.0025808694772422314
1769667014007848700,7.2288486328125,0.0014530207263305783,-0.0025856629945337772,-0.002945722546428442
1769667014017836800,7.2388369140625,0.0002205097407568246,-0.003144660498946905,-0.0027957865968346596
1769667014027825700,7.24882568359375,0.001445830101147294,-0.00444002216681838,-0.0022327941842377186
1769667014037813800,7.258813720703125,0.002590989461168647,-0.004061320796608925,-0.003114833263680339
1769667014047802600,7.268802734375,0.001186970854178071,-0.0037766287568956614,-0.0023007048293948174
1769667014057790700,7.278790771484375,0.00045140579459257424,-0.0008711199625395238,-0.002472745021805167
1769667014067779800,7.28877978515625,0.0016144082183018327,-0.00030546457855962217,-0.0014303837670013309
1769667014077767700,7.298767578125,0.002026399364694953,0.0006122607155703008,-0.002151301596313715
1769667014087756500,7.308756591796875,0.0028993834275752306,-0.00036618465674109757,-0.002930808812379837
1769667014097744600,7.31874462890625,0.0007712514488957822,-0.0017576862592250109,-0.0047177900560200214
1769667014107733800,7.328733642578125,0.0006631271098740399,0.0002711098059080541,-0.004533765371888876
1769667014117721900,7.338721923828125,0.002514290390536189,0.0020628846250474453,-0.003795803524553776
1769667014127710700,7.348710693359375,0.0019438412273302674,0.002749713836237788,-0.003634415799751878
1769667014137698600,7.358698486328125,0.0005065332516096532,-0.0006900250446051359,-0.005106877535581589
1769667014147687700,7.368687744140625,0.001041562296450138,-0.005566272884607315,-0.00287434970960021
1769667014157675800,7.37867578125,0.002543585142120719,0.000020240024241502397,-0.003591006388887763
1769667014167664600,7.38866455078125,-0.00018109494703821838,-0.0003432814555708319,-0.00555215822532773
1769667014177652500,7.398652587890625,0.0009006810723803937,-0.004479703027755022,-0.0034589136485010386
1769667014187641600,7.4086416015625,-0.0002580603177193552,-0.0052110073156654835,-0.004346545320004225
1769667014197629700,7.418629638671875,0.0011880361707881093,-0.005461877211928368,-0.003925765864551067
1769667014207618800,7.428618896484375,0.0022801985032856464,-0.006204898934811354,-0.005019525997340679
1769667014217606700,7.438606689453125,0.0025214808993041515,-0.005032309330999851,-0.006500243674963713
1769667014227595800,7.448595703125,0.0023616913240402937,-0.000957939017098397,-0.006109025329351425
1769667014237583600,7.45858349609375,0.0017153420485556126,0.0011163970921188593,-0.005333246197551489
1769667014247572700,7.46857275390625,0.0009488842915743589,0.0013409015955403447,-0.003698331769555807
1769667014257561600,7.4785615234375,0.001532116555608809,0.001757952617481351,-0.002913498319685459
1769667014267549700,7.4885498046875,0.001636246219277382,0.002028796123340726,-0.0021377194207161665
1769667014277537800,7.498537841796875,0.0018434401135891676,0.00005858954318682663,-0.0011345066595822573
1769667014287526700,7.508526611328125,0.0014721954939886928,-0.0020682108588516712,-0.00032144354190677404
1769667014297515500,7.518515625,0.00245143985375762,-0.0033161682076752186,-0.0021632856223732233
1769667014307503600,7.528503662109375,0.0006407565670087934,-0.0038783615455031395,-0.0041374871507287025
1769667014317492700,7.53849267578125,-0.0001573928166180849,-0.003242931328713894,-0.003608316881582141
1769667014327480800,7.548480712890625,-0.0002716424351092428,-0.0024176177103072405,-0.003555319970473647
1769667014337469700,7.5584697265625,0.000952080066781491,-0.003043993143364787,-0.002781938062980771
1769667014347457500,7.56845751953125,0.000371777277905494,-0.003210440743714571,-0.0028943235520273447
1769667014357446700,7.57844677734375,0.0018852517241612077,-0.0043649207800626755,-0.006625145673751831
1769667014367434800,7.588434814453125,0.0005004079430364072,-0.005001416429877281,-0.003718305379152298
1769667014377424000,7.598423828125,0.0009446232579648495,-0.005274123977869749,-0.0026786073576658964
1769667014387411700,7.60841162109375,0.0006346312584355474,-0.005234176758676767,-0.0023015039041638374
1769667014397400600,7.618400634765625,0.0020157466642558575,-0.005805424880236387,-0.0014948323369026184
1769667014407388700,7.628388671875,0.003195260651409626,-0.0054640076123178005,0.0013006879016757011
1769667014417377800,7.638377685546875,0.0021145499777048826,-0.0070464578457176685,-0.001142496126703918
1769667014427366000,7.648365966796875,0.0027446537278592587,-0.006485862657427788,-0.0013962953817099333
1769667014437354800,7.658354736328125,0.001662877737544477,-0.007133010774850845,-0.0026900589000433683
1769667014447342600,7.668342529296875,0.000651675509288907,-0.003564374754205346,-0.00032144354190677404
1769667014457331700,7.678331787109375,0.0013395700370892882,-0.002913231961429119,-0.0009182579233311117
1769667014467319800,7.68831982421875,0.001199221471324563,-0.002168079372495413,-0.0012282498646527529
1769667014477308700,7.69830859375,0.0012306467397138476,-0.002239984693005681,-0.0016330503858625889
1769667014487296800,7.708296875,0.0004926847759634256,-0.0006687197601422668,-0.004630704410374165
1769667014497285600,7.71828564453125,0.0012141350889578462,-0.0006964165950194001,-0.0033904702868312597
1769667014507273700,7.728273681640625,0.0015909724170342088,-0.0034677020739763975,-0.004156661685556173
1769667014517262600,7.7382626953125,0.0009614011505618691,-0.003349990351125598,-0.0046421559527516365
1769667014527250700,7.748250732421875,0.0016729978378862143,-0.004930309951305389,-0.0033800839446485043
1769667014537239800,7.75823974609375,0.003233876544982195,-0.0035441347863525152,-0.0029257487040013075
1769667014547228200,7.768228271484375,0.0008801747462712228,-0.0037433390971273184,-0.003945739474147558
1769667014557217000,7.778217041015625,0.0010157296201214194,-0.00316010694950819,-0.002925216220319271
1769667014567205000,7.788205078125,0.0012026835465803742,-0.004400340840220451,-0.0012042814632877707
1769667014577194200,7.7981943359375,-0.0001901497016660869,-0.004307663068175316,-0.0004652542411349714
1769667014587182300,7.808182373046875,0.0022956449538469315,-0.004932706709951162,-0.0012399677652865648
1769667014597171200,7.818171142578125,0.0016468988033011556,-0.004504204262048006,-0.0019331886433064938
1769667014607159000,7.828158935546875,0.0015925703337416053,-0.003783819265663624,-0.0014743260107934475
1769667014617148200,7.838148193359375,0.0019345202017575502,-0.003194994293153286,-0.003087136195972562
1769667014627136300,7.84813623046875,0.0015430354978889227,-0.0038695731200277805,-0.0046416232362389565
1769667014637125400,7.85812548828125,0.0018042916199192405,-0.0026695525739341974,-0.0017555557424202561
1769667014647113200,7.86811328125,0.0021555626299232244,-0.0025443839840590954,-0.002098304685205221
1769667014657102000,7.87810205078125,0.002192580606788397,-0.002341451123356819,-0.0017622136510908604
1769667014667091200,7.88809130859375,0.0015006912872195244,-0.0023345269728451967,-0.003097256412729621
1769667014677079300,7.898079345703125,0.002368881832808256,-0.0015089471125975251,-0.00384453940205276
1769667014687067400,7.9080673828125,0.0014413028256967664,-0.002261822810396552,-0.0037436054553836584
1769667014697056300,7.91805615234375,0.0013259878614917397,-0.002029062481597066,-0.0034000577870756388
1769667014707045400,7.92804541015625,0.002284725895151496,-0.002728408435359597,-0.0034969968255609274
1769667014717033200,7.938033203125,0.0017097494564950466,-0.0016551546286791563,-0.004196343012154102
1769667014727022000,7.94802197265625,0.0006468818173743784,-0.000999484327621758,-0.0036634444259107113
1769667014737010200,7.95801025390625,0.001184041379019618,-0.0010407633380964398,-0.002034388715401292
1769667014746999300,7.967999267578125,0.0022921827621757984,-0.0015326491557061672,-0.0043779704719781876
1769667014756987100,7.977987060546875,0.0005917543894611299,-0.0027361316606402397,-0.003805124433711171
1769667014766976000,7.98797607421875,0.0019768644124269485,-0.002666356973350048,-0.004320978652685881
1769667014776964000,7.997964111328125,0.0015132081462070346,-0.0014383733505383134,-0.0037585191894322634
1769667014786953200,8.007953125,0.0009867012267932296,-0.001984054921194911,-0.004519384354352951
1769667014796941300,8.01794140625,0.0015329155139625072,-0.0016021577175706625,-0.0032794165890663862
1769667014806930200,8.02793017578125,0.001936650718562305,-0.002645051572471857,-0.0018410432385280728
1769667014816918000,8.03791796875,0.0007001450285315514,-0.0029670277144759893,-0.002621882129460573
1769667014826907100,8.0479072265625,0.0015627428656443954,-0.003168629016727209,-0.0027928571216762066
1769667014836895200,8.057895263671876,0.0006130596739239991,-0.0021252024453133345,-0.004773982334882021
1769667014846884400,8.06788427734375,0.0011105381418019533,-0.002796585438773036,-0.004278634674847126
1769667014856872400,8.07787255859375,0.0004791026876773685,-0.0027060380671173334,-0.0037803570739924908
1769667014866861000,8.087861083984375,0.001996838254854083,-0.002368349116295576,-0.0035782232880592346
1769667014876849200,8.09784912109375,0.0023369237314909697,-0.0029079054947942495,-0.003081809962168336
1769667014886838300,8.10783837890625,0.000830107310321182,-0.0034732946660369635,-0.00307675008662045
1769667014896826400,8.117826416015625,0.0012535499408841133,-0.001817341079004109,-0.00264824740588665
1769667014906815200,8.127815185546876,0.0018080200534313917,-0.0044171190820634365,-0.0014692660188302398
1769667014916803000,8.137802978515625,0.0009773800848051906,-0.00387303507886827,-0.0010831075487658381
1769667014926792200,8.147792236328126,0.0015992282424122095,-0.0039009982720017433,-0.0008735168376006186
1769667014936780300,8.1577802734375,0.0019054916920140386,-0.0034293525386601686,-0.0011584750609472394
1769667014946769200,8.16776904296875,0.0003880225704051554,-0.0034408040810376406,-0.0022503710351884365
1769667014956757200,8.17775732421875,0.0003534014686010778,-0.0024927188642323017,-0.0022679478861391544
1769667014966746000,8.18774609375,0.002263686852529645,-0.002620816696435213,-0.004138552118092775
1769667014976734200,8.197734130859375,0.002109223511070013,-0.0010066748363897204,-0.002980609890073538
1769667014986723000,8.20772314453125,0.0020008329302072525,-0.001213336130604148,-0.0059995693154633045
1769667014996711200,8.217711181640626,0.0015185344964265823,-0.002683401107788086,-0.005662679206579924
1769667015006700300,8.2277001953125,0.0011656655697152019,-0.0032053806353360415,-0.004000334069132805
1769667015016688000,8.237688232421876,-0.00010892329009948298,-0.0032895365729928017,-0.00472391489893198
1769667015026677200,8.24767724609375,0.00367116741836071,-0.002543851500377059,-0.0030123014003038406
1769667015036665000,8.2576650390625,0.0017427726415917277,-0.001900964416563511,-0.002033855998888612
1769667015046654200,8.267654296875,-0.0005840312223881483,-0.002419215627014637,-0.001029311795718968
1769667015056643300,8.277643310546875,0.0019153454340994358,-0.00011371697473805398,-0.0034016557037830353
1769667015066631400,8.28763134765625,0.0021824603900313377,-0.002353435382246971,-0.0028756812680512667
1769667015076620000,8.2976201171875,0.0011326423846185207,-0.0013587448047474027,-0.0018735338235273957
1769667015086608100,8.307608154296876,0.0001203748834086582,-0.0010247844038531184,-0.004473045468330383
1769667015096597200,8.31759716796875,0.0009896307019516826,-0.002141447737812996,-0.0025334651581943035
1769667015106585300,8.32758544921875,0.002341451123356819,-0.0012455604737624526,-0.002430134452879429
1769667015116574200,8.33757421875,0.0017986990278586745,-0.001076715998351574,-0.0046938215382397175
1769667015126562000,8.34756201171875,0.0006522081675939262,-0.0012128035305067897,-0.004297809209674597
1769667015136551200,8.35755126953125,0.0015472965314984322,-0.002305764937773347,-0.005074653308838606
1769667015146539300,8.367539306640625,0.002671683207154274,-0.0023182816803455353,-0.003632551757618785
1769667015156528000,8.377528076171876,0.0008309062686748803,-0.005232844967395067,-0.004864530172199011
1769667015166516200,8.38751611328125,0.0011416971683502197,-0.004034422803670168,-0.0027212179265916348
1769667015176505300,8.39750537109375,0.0005685848882421851,-0.003564907470718026,-0.0034226945135742426
1769667015186493200,8.4074931640625,0.0020426444243639708,-0.001811748486943543,-0.0024985778145492077
1769667015196482300,8.417482421875,0.001891909632831812,0.0006199838826432824,-0.0028634308837354183
1769667015206470100,8.42747021484375,0.0004791026876773685,-0.0007193197961896658,-0.0028016455471515656
1769667015216459300,8.437459228515625,0.0026903252582997084,-0.0030575753189623356,-0.004263720940798521
1769667015226447000,8.447447021484376,0.001925199176184833,-0.002810700098052621,-0.001520398654974997
1769667015236436200,8.457436279296875,0.0024948492646217346,-0.0016138756182044744,-0.0016828514635562897
1769667015246424300,8.46742431640625,0.0012152004055678844,-0.0028578380588442087,-0.0015907060587778687
1769667015256413200,8.4774130859375,0.001115598133765161,-0.0040914141573011875,-0.0018530274974182248
1769667015266401300,8.4874013671875,0.002112152986228466,-0.0073500582948327065,-0.006450974848121405
1769667015276390400,8.497390380859375,0.001915878034196794,-0.004275705199688673,-0.003978230059146881
1769667015286378200,8.507378173828124,0.0020117517560720444,-0.0011094729416072369,-0.0036136433482170105
1769667015296367000,8.5173671875,0.00017949705943465233,-0.004043211229145527,-0.004230431281030178
1769667015306355200,8.527355224609375,0.0005336974863894284,-0.004176635295152664,-0.0051934304647147655
1769667015316344300,8.53734423828125,0.001107076066546142,-0.0044019389897584915,-0.004483697935938835
1769667015326332200,8.547332275390625,0.0016636766958981752,-0.00845740083605051,-0.00253453035838902
1769667015336321000,8.557321044921874,0.0014152037911117077,-0.008027300238609314,-0.005645102355629206
1769667015346309000,8.56730908203125,0.002269812161102891,-0.0033481260761618614,-0.0038748993538320065
1769667015356298200,8.57729833984375,-0.00006578007742064074,-0.0027268105186522007,-0.0013691311469301581
1769667015366286300,8.587286376953125,0.0012029499048367143,-0.004659732803702354,-0.000529436394572258
1769667015376275200,8.597275146484375,0.0029582392890006304,-0.005674663465470076,0.0011683288030326366
1769667015386264300,8.607264404296876,0.00042983421008102596,-0.004715659189969301,0.0004090615548193455
1769667015396252200,8.617252197265625,0.0022426480427384377,-0.00555056007578969,-0.0009888317435979843
1769667015406241300,8.6272412109375,0.002406698651611805,-0.005620601586997509,-0.0025814019609242678
1769667015416229400,8.6372294921875,0.001395230065099895,-0.0037505298387259245,-0.0023015039041638374
1769667015426218200,8.64721826171875,0.001243962557055056,-0.004459463059902191,-0.004082892090082169
1769667015436206000,8.6572060546875,0.0014476943761110306,-0.0051710596308112144,-0.00592553336173296
1769667015446195200,8.6671953125,0.0022540995851159096,-0.0035502600949257612,-0.007358580362051725
1769667015456183300,8.677183349609376,0.0017089504981413484,-0.0018141453620046377,-0.0038978024385869503
1769667015466172200,8.687172119140625,0.0020820593927055597,-0.0034048515371978283,-0.0035265579354017973
1769667015476160300,8.69716015625,0.0023286680225282907,-0.0037641117814928293,-0.004781173076480627
1769667015486149400,8.7071494140625,0.0015899071004241705,-0.0040794298984110355,-0.0035806200467050076
1769667015496137200,8.71713720703125,0.0009121326729655266,-0.003501790575683117,-0.0016532903537154198
1769667015506126000,8.7271259765625,0.0012247877893969417,-0.0026525084394961596,-0.0019534286111593246
1769667015516114200,8.7371142578125,0.0015140071045607328,-0.0015784555580466986,-0.0032650355715304613
1769667015526103300,8.747103271484375,0.0010359697043895721,-0.002091913018375635,-0.001683916780166328
1769667015536091400,8.75709130859375,0.002969158347696066,-0.0027241474017500877,-0.0049247173592448235
1769667015546080000,8.767080078125,0.001782453735359013,-0.00392869533970952,-0.004159058444201946
1769667015556067800,8.77706787109375,0.0012229235144332051,-0.0028666264843195677,-0.0059865196235477924
1769667015566057000,8.787056884765626,0.0010511496802791953,0.0018381137633696198,-0.0046389601193368435
1769667015576044800,8.797044921875,0.002162486780434847,-0.0015459649730473757,-0.0057433731853961945
1769667015586034000,8.807033935546874,0.0017486315919086337,-0.00032916670897975564,-0.0038687740452587605
1769667015596022000,8.81702197265625,0.0013009541435167193,-0.001835716888308525,-0.006623814348131418
1769667015606011000,8.827010986328125,0.0015960324089974165,0.00020346550445538014,-0.0054269894026219845
1769667015615999000,8.8369990234375,0.0007728493656031787,-0.0007217166712507606,-0.005396096967160702
1769667015625987800,8.84698779296875,0.0010522148804739118,-0.0004319647268857807,-0.005863748025149107
1769667015635976000,8.856975830078126,0.0013544837711378932,0.0009097357979044318,-0.004954012110829353
1769667015645964800,8.86696484375,-0.000024767397917457856,-0.0014335796004161239,-0.0043737092055380344
1769667015655953000,8.876952880859376,0.0017089504981413484,-0.0031902005430310965,-0.004436293616890907
1769667015665942000,8.88694189453125,0.0010980212828144431,-0.0011440940434113145,-0.005017928313463926
1769667015675929900,8.896929931640624,0.0014908375451341271,-0.002418949268758297,-0.0021941782906651497
1769667015685918700,8.906918701171875,0.0010394317796453834,-0.0027177559677511454,-0.004028830211609602
1769667015695906800,8.91690673828125,0.0012122709304094315,-0.002326803747564554,-0.0038541266694664955
1769667015705896000,8.92689599609375,0.0005576659459620714,-0.0036373452749103308,-0.004329234827309847
1769667015715884000,8.936884033203125,0.001984054921194911,-0.0023616913240402937,-0.0029984530992805958
1769667015725873000,8.946872802734376,0.0014618091518059373,-0.0035577169619500637,-0.0022128205746412277
1769667015735860700,8.95686083984375,0.0014767227694392204,-0.002323075430467725,-0.004391552414745092
1769667015745849900,8.966849853515624,0.0022804648615419865,-0.004335892386734486,-0.0034386736806482077
1769667015755838000,8.976837890625,0.0016873788554221392,-0.0020793962758034468,-0.002681004349142313
1769667015765826800,8.986826904296874,0.0034735610242933035,-0.004620318301022053,-0.003944141324609518
1769667015775816000,8.99681591796875,0.0008463526028208435,-0.005213404074311256,-0.002930009737610817
1769667015785803800,9.0068037109375,-0.00012516857532318681,-0.0023366576060652733,-0.0038165762089192867
1769667015795793000,9.01679296875,0.0025800704024732113,-0.003653324441984296,-0.0026815368328243494
1769667015805781000,9.026781005859375,0.0007661914569325745,-0.0012799152173101902,-0.003198190126568079
1769667015815769900,9.036769775390624,0.0017417073249816895,-0.0005914880894124508,-0.003694869577884674
1769667015825758000,9.046758056640625,0.0006772418855689466,-0.00044474788592197,-0.004014182835817337
1769667015835746800,9.056746826171874,0.000606934423558414,-0.0026320021133869886,-0.00481339730322361
1769667015845735000,9.06673486328125,0.0007590008899569511,0.0002657834847923368,-0.0046789078041911125
1769667015855723800,9.076723876953125,0.0019225359428673983,0.0002468750171829015,-0.005299690645188093
1769667015865711900,9.0867119140625,0.0010812433902174234,-0.0027260116767138243,-0.005008607171475887
1769667015875701000,9.096700927734375,0.0014056164072826505,-0.0014466290595009923,-0.004625378176569939
1769667015885688800,9.106688720703126,0.001862082164734602,-0.0005813680472783744,-0.003853061469271779
1769667015895677700,9.116677734375,0.000821318884845823,-0.0024104269687086344,-0.0032535837963223457
1769667015905665800,9.126665771484374,0.0009797769598662853,-0.0005462143453769386,-0.0033012544736266136
1769667015915655000,9.136655029296875,0.0016583503456786275,-0.00033422670094296336,-0.0025417208671569824
1769667015925643000,9.14664306640625,0.0016495619202032685,-0.00044341632747091353,-0.003918575122952461
1769667015935632000,9.1566318359375,0.000014647385796706658,-0.0009190568816848099,-0.004162786994129419
1769667015945619700,9.16661962890625,0.00011664645717246458,-0.0013187973527237773,-0.004332696553319693
1769667015955608800,9.17660888671875,-0.0001257012045243755,-0.001466602785512805,-0.003965713083744049
1769667015965597000,9.186596923828125,0.0023483755066990852,-0.002371544949710369,-0.002841326640918851
1769667015975586000,9.1965859375,0.001740375766530633,-0.0028192223981022835,-0.004211523104459047
1769667015985574000,9.206573974609375,0.0007161240209825337,-0.0027654264122247696,-0.004428304266184568
1769667015995562800,9.216562744140624,0.0011486213188618422,-0.0010823087068274617,-0.0030804784037172794
1769667016005550800,9.22655078125,0.0010705908061936498,-0.0014149374328553677,-0.004209392238408327
1769667016015540000,9.2365400390625,-0.000728907180018723,-0.0019057580502703786,-0.0033545177429914474
1769667016025528000,9.246528076171876,0.0019736685790121555,-0.002043443499132991,-0.0028855351265519857
1769667016035517000,9.256516845703125,0.0031286815647035837,0.000278300343779847,-0.0026913906913250685
1769667016045504800,9.2665048828125,0.001954760169610381,0.00021917815320193768,-0.0022445120848715305
1769667016055494000,9.276493896484375,0.001698830397799611,-0.0005656554130837321,-0.003263970138505101
1769667016065482000,9.28648193359375,0.002151035238057375,-0.00027324032271280885,-0.0020530307665467262
1769667016075470800,9.296470947265625,0.0009643306257203221,-0.0009361011325381696,-0.001960619119927287
1769667016085459000,9.306458984375,0.0010697918478399515,-0.002088983543217182,-0.0018815232906490564
1769667016095447800,9.31644775390625,5.326322138898831e-7,-0.0037145770620554686,-0.0036453348584473133
1769667016105436000,9.326435791015625,0.0007198524544946849,-0.0016106797847896814,-0.004656004719436169
1769667016115424800,9.3364248046875,0.0015656723408028483,-0.0005723133217543364,-0.0032751555554568768
1769667016125414000,9.346413818359375,0.0011523497523739934,0.0005787048721686006,-0.004220843780785799
1769667016135402000,9.356402099609374,-0.00042770366417244077,0.0004918858758173883,-0.003706587478518486
1769667016145391000,9.36639111328125,0.0013587448047474027,-0.0009078715811483562,-0.002508697798475623
1769667016155379000,9.37637890625,0.0001757686259225011,0.0001424791116733104,-0.004024568945169449
1769667016165367800,9.386367919921875,0.0009361011325381696,-0.0012444951571524143,-0.002386192325502634
1769667016175356000,9.39635595703125,0.0008311725687235594,0.0007582019316032529,-0.0012844426091760397
1769667016185345000,9.406344970703126,0.0015683355741202831,0.0004575310740619898,-0.0013576794881373644
1769667016195332900,9.416332763671875,0.0011619371362030506,-0.00040746363811194897,-0.0019800602458417416
1769667016205321700,9.42632177734375,0.002654106356203556,-0.0021110877860337496,-0.005350556690245867
1769667016215309800,9.436309814453125,0.0003374225052539259,-0.00307541829533875,-0.003120692213997245
1769667016225299000,9.446298828125,0.0009733853512443602,0.004046939779073,-0.0030799456872045994
1769667016235287000,9.456287109375,0.0013528858544304967,0.0008862999966368079,-0.0057708038948476315
1769667016245276000,9.46627587890625,0.0006591323763132095,-0.0031611721497029066,-0.005678658373653889
1769667016255263700,9.476263671875,0.00019441076437942684,-0.004269579891115427,-0.003921238239854574
1769667016265252900,9.4862529296875,0.0026812704745680094,-0.0033808830194175243,-0.0021286646369844675
1769667016275241000,9.496240966796876,0.0007145261042751372,-0.004160123877227306,-0.003948402591049671
1769667016285229800,9.506229736328125,0.000025566347176209092,-0.0026413232553750277,-0.0036583843175321817
1769667016295218000,9.516218017578124,0.000627707049716264,0.00008894957863958552,-0.003043726785108447
1769667016305206800,9.526206787109375,0.0010370349045842886,-0.0010490191634744406,-0.00039015308720991015
1769667016315195000,9.53619482421875,0.0007464840309694409,-0.002999251941218972,0.001740109408274293
1769667016325183700,9.546183837890625,0.0013440974289551377,-0.004479703027755022,0.0013480921043083072
1769667016335171800,9.556171875,0.000723048229701817,-0.0045572011731565,-0.0007760451408103108
1769667016345161000,9.566160888671876,0.0015566176734864712,-0.0038064562249928713,-0.0012058793799951673
1769667016355148800,9.576148681640625,0.0013230583863332868,-0.003325489116832614,-0.0020727382507175207
1769667016365138000,9.586137939453126,0.0017363809747621417,-0.002757969545200467,-0.001907355966977775
1769667016375125800,9.596125732421875,0.0019323896849527955,-0.0036160401068627834,-0.0022743395529687405
1769667016385115000,9.606114990234374,0.0015984292840585113,-0.002132925670593977,-0.0046908920630812645
1769667016395103000,9.61610302734375,0.0005073322099633515,-0.0017603494925424457,-0.003493002150207758
1769667016405091800,9.626091796875,0.0013888385146856308,-0.0017190704820677638,-0.0032357405871152878
1769667016415080000,9.636079833984375,0.0024490428622812033,-0.0021228056866675615,-0.003442934714257717
1769667016425068800,9.64606884765625,0.0023526365403085947,-0.004539357963949442,-0.00287408335134387
1769667016435057000,9.656056884765626,0.0022945795208215714,-0.002368881832808256,-0.002260491019114852
1769667016445046000,9.6660458984375,0.0008852347382344306,-0.0013938985066488385,-0.001677525113336742
1769667016455033900,9.676033935546876,0.001350222621113062,-0.002407231368124485,-0.002948385663330555
1769667016465022700,9.686022705078125,0.0008154599345289171,-0.002260757377371192,-0.000030360035452758893
1769667016475010800,9.6960107421875,0.0006615291931666434,0.00030546457855962217,-0.0025867284275591373
1769667016485000000,9.706,0.0006530070677399635,0.00007376955909421667,-0.003403253620490432
1769667016494988800,9.71598876953125,0.0010404969798400998,-0.0006271744496189058,-0.0008663262706249952
1769667016504977000,9.725976806640626,0.0012839100090786815,-0.0025273398496210575,-0.002621083054691553
1769667016514965800,9.7359658203125,0.001279116258956492,-0.002650910522788763,-0.003355849301442504
1769667016524953900,9.745953857421876,0.002728408435359597,0.004053330980241299,-0.002555036684498191
1769667016534943000,9.75594287109375,0.00018961707246489823,-0.0004767058417201042,-0.004171575419604778
1769667016544931600,9.765931640625,0.0019329222850501537,-0.00030067088664509356,-0.0022027005907148123
1769667016554920700,9.775920654296876,0.0007297061383724213,-0.001770203118212521,-0.004972388036549091
1769667016564908800,9.78590869140625,0.0007323693134821951,-0.000505734293255955,-0.004095941781997681
1769667016574897700,9.795897705078126,0.0004114583716727793,0.002141714096069336,-0.005191300064325333
1769667016584885800,9.8058857421875,0.0005480785621330142,0.0014327806420624256,-0.004963599611073732
1769667016594875000,9.815875,0.001999235013499856,0.0003275688213761896,-0.001181111903861165
1769667016604862700,9.82586279296875,0.001710548298433423,-0.00011185276525793597,-0.0016205335268750787
1769667016614851800,9.835851806640624,0.0028969866689294577,-0.0009384979493916035,-0.0016644756542518735
1769667016624839700,9.845839599609375,0.0021401161793619394,0.0016887104138731956,-0.0012753878254443407
1769667016634828800,9.855828857421875,0.001198955113068223,-0.0014405038673430681,-0.0012101404136046767
1769667016644816600,9.865816650390625,0.001113201375119388,-0.000931041082367301,0.0003371562052052468
1769667016654805800,9.8758056640625,0.001127316034398973,0.0007118629291653633,-0.0027981833554804325
1769667016664793900,9.8857939453125,0.0014037522487342358,0.000592287047766149,0.00045859633246436715
1769667016674782700,9.89578271484375,0.002013349672779441,0.0018098842119798064,-0.0009451558580622077
1769667016684770800,9.905770751953124,0.003955326974391937,0.0015006912872195244,-0.0022471752017736435
1769667016694760000,9.915760009765625,0.0006612628931179643,0.00015419702685903758,-0.0018008295446634293
1769667016704747800,9.925747802734374,0.0021521004382520914,0.0014245248166844249,-0.0017949705943465233
1769667016714736600,9.935736572265625,0.0030575753189623356,0.0019531622529029846,-0.0023545008152723312
1769667016724724700,9.945724853515625,0.0025244103744626045,0.0026013758033514023,-0.0015278555219992995
1769667016734713900,9.9557138671875,0.0003105245705228299,0.0012655340833589435,-0.0027361316606402397
1769667016744702000,9.965701904296875,-0.0005358280031941831,0.0012998889433220029,-0.00520701240748167
1769667016754690600,9.975690673828124,0.0004825647920370102,0.0009329052991233766,-0.003620301140472293
1769667016764678700,9.9856787109375,0.002046639332547784,0.0015760586829856038,-0.002014148747548461
1769667016774667800,9.995667724609374,0.002558498876169324,0.002528138691559434,-0.0021499700378626585
1769667016784656000,10.00565576171875,0.002816559048369527,-0.00011291803093627095,-0.002663161139935255
1769667016794644700,10.015644775390625,0.0024628913961350918,0.0007456850726157427,-0.000035686356568476185
1769667016804632600,10.025632568359375,0.0018820558907464147,0.0005880259559489787,-0.002825613832101226
1769667016814621700,10.03562158203125,0.00202267081476748,0.0012231898726895452,-0.0022602248936891556
1769667016824609800,10.04560986328125,0.0019204054260626435,0.00020985709852539003,-0.001999767730012536
1769667016834598700,10.0555986328125,0.002222141483798623,0.0006388923502527177,-0.0012205267557874322
1769667016844586800,10.065586669921874,0.00192226970102638,0.00016058860637713224,-0.00022264027211349458
1769667016854575600,10.07557568359375,0.001478587044402957,-0.0008761800127103925,-0.00025992453447543085
1769667016864564700,10.085564697265625,0.0031515848822891712,-0.0013600763631984591,-0.002035187790170312
1769667016874552800,10.095552734375,0.00042557314736768603,-0.0024205471854656935,-0.0015717976493760943
1769667016884541700,10.105541748046875,0.0021760689560323954,-0.0006644586683250964,-0.0037084517534822226
1769667016894529800,10.11552978515625,0.0014077469240874052,-0.0014817827614024282,-0.002377403900027275
1769667016904519000,10.125518798828125,0.002632800955325365,0.00010386328358436003,-0.004598746541887522
1769667016914506800,10.1355068359375,0.0020125508308410645,0.000050600061513250694,-0.003481017891317606
1769667016924495600,10.14549560546875,0.0018034926615655422,0.0009563411585986614,-0.0038573225028812885
1769667016934483700,10.155483642578124,0.000800279900431633,-0.0009837717516347766,-0.002111886627972126
1769667016944472800,10.165472900390625,0.0022218753583729267,0.0005576659459620714,-0.0036943370942026377
1769667016954461000,10.1754609375,0.0010673949727788568,-0.0015909724170342088,-0.0032503881957381964
1769667016964449500,10.185449462890626,0.00032437301706522703,-0.0006332996999844909,-0.004520982038229704
1769667016974437600,10.195437744140625,0.0025209481827914715,0.0007603325066156685,-0.0034621094819158316
1769667016984426800,10.2054267578125,0.0009084042394533753,-0.000040480048483004794,-0.004458664450794458
1769667016994414800,10.215414794921875,0.0003275688213761896,-0.0007930893916636705,-0.004680505488067865
1769667017004403700,10.22540380859375,0.00213638786226511,-0.0002681803307496011,-0.0018271948210895061
1769667017014391600,10.2353916015625,0.0011297129094600677,-0.00070493872044608,-0.003299123840406537
1769667017024380700,10.245380615234374,0.001249821507371962,-0.0018748653819784522,-0.002415487077087164
1769667017034368800,10.25536865234375,0.000985103310085833,-0.0015305186389014125,-0.00430207047611475
1769667017044358000,10.26535791015625,0.0010064085945487022,0.0004527373821474612,-0.005048820748925209
1769667017054345700,10.275345703125,0.0015662050573155284,-0.0006775081856176257,-0.004028563853353262
1769667017064334800,10.2853349609375,0.0007941546500660479,0.0016556872287765145,-0.005284244194626808
1769667017074322700,10.29532275390625,0.001663410454057157,0.0025454494170844555,-0.0035843485966324806
1769667017084311800,10.305311767578125,0.0007994809420779347,0.0014178669080138206,-0.004338023252785206
1769667017094300000,10.3152998046875,0.0005552690709009767,0.0006311691831797361,-0.0031073763966560364
1769667017104288800,10.325288818359375,0.0016767261549830437,-0.00021917815320193768,-0.0035065840929746628
1769667017114276600,10.335276611328124,0.0013968279818072915,0.002454369328916073,-0.001344630029052496
1769667017124265700,10.345265625,0.0007853662245906889,0.0038922098465263844,-0.003200586885213852
1769667017134253800,10.35525390625,0.0015150723047554493,0.0054610781371593475,-0.004071706905961037
1769667017144242700,10.36524267578125,0.0016911072889342904,-0.0008998821140266955,-0.006485063582658768
1769667017154230800,10.375230712890625,0.001487375469878316,-0.0018586200894787908,-0.004102866165339947
1769667017164220000,10.385219970703124,0.0016202671686187387,0.0037923413328826427,-0.0017699368763715029
1769667017174207700,10.395207763671875,0.0005198490689508617,-0.00001944107498275116,-0.006678675301373005
1769667017184196600,10.405196533203124,0.002376604825258255,-0.002858903491869569,-0.006056561134755611
1769667017194184700,10.415184814453125,0.0016098808264359832,0.00010412959818495438,-0.00589570589363575
1769667017204173800,10.425173828125,-0.0005036037764512002,-0.0023060310631990433,-0.003207511268556118
1769667017214161700,10.43516162109375,0.0023441144730895758,-0.005045358557254076,-0.004379302263259888
1769667017224150800,10.44515087890625,0.002812031889334321,-0.0033598439767956734,-0.003329484025016427
1769667017234138600,10.455138671875,0.001838646363466978,-0.0011113371001556516,-0.0027076357509940863
1769667017244127700,10.465127685546875,0.00005832322858623229,-0.0004700479330495,-0.002348109148442745
1769667017254116900,10.475116943359374,0.0017363809747621417,-0.0007486145477741957,-0.0010908307740464807
1769667017264105000,10.48510498046875,0.002965429797768593,-0.00006258428766159341,-0.0005374259199015796
1769667017274093800,10.49509375,0.001422128058038652,-0.002407231368124485,-0.00230842805467546
1769667017284081700,10.50508154296875,0.0006311691831797361,-0.00004740426811622456,-0.004431500099599361
1769667017294070800,10.51507080078125,0.001933454885147512,-0.00026285400963388383,-0.004727377090603113
1769667017304059000,10.525058837890626,0.0012213257141411304,-0.001856489572674036,-0.005559082608669996
1769667017314047700,10.5350478515625,0.0009592706337571144,-0.0023371900897473097,-0.0073290192522108555
1769667017324035600,10.54503564453125,0.0014183996245265007,-0.005182245280593634,-0.007385211996734142
1769667017334024700,10.555024658203125,0.0015097459545359015,-0.0036756948102265596,-0.004622981417924166
1769667017344012800,10.5650126953125,0.0014314490836113691,-0.0040765004232525826,-0.0021883193403482437
1769667017354001700,10.575001708984376,0.002895655110478401,-0.003934554290026426,-0.0027332021854817867
1769667017363989800,10.58498974609375,0.002493517706170678,-0.002906840294599533,-0.002740392694249749
1769667017373979000,10.594978759765626,0.0030506509356200695,-0.0028839372098445892,-0.003240001853555441
1769667017383966700,10.604966796875,0.001835716888308525,-0.002573678968474269,-0.0027060380671173334
1769667017393955600,10.61495556640625,-0.00031904669594950974,-0.0035633095540106297,-0.0019558256026357412
1769667017403943700,10.624943603515625,0.0015164038632065058,-0.0011323761427775025,-0.002814428647980094
1769667017413932800,10.634932861328124,0.00213585514575243,-0.0014974954538047314,-0.003379285102710128
1769667017423920600,10.644920654296875,0.0013962953817099333,-0.0014476943761110306,-0.0032466596458107233
1769667017433909800,10.65490966796875,0.0005731122801080346,-0.00024234765442088246,-0.003980094101279974
1769667017443897600,10.664897705078126,0.0008916263468563557,-0.00002210423735959921,-0.005001416429877281
1769667017453886700,10.67488671875,0.0012570120161399245,-0.0019619506783783436,-0.005759618245065212
1769667017463874800,10.684874755859376,-0.00031638352083973587,0.0036972665693610907,-0.002749713836237788
1769667017473864000,10.694864013671875,0.0017627463676035404,0.0018674085149541497,-0.0034056503791362047
1769667017483851800,10.704851806640624,0.0005440838285721838,0.0010657970560714602,-0.0037385455798357725
1769667017493840600,10.714840576171875,0.0009062737226486206,-0.000708134553860873,-0.004026965703815222
1769667017503828700,10.724828857421874,-0.0001054611784638837,-0.0010567422723397613,-0.0049678608775138855
1769667017513817900,10.73481787109375,0.002752110594883561,0.000586161739192903,-0.0044408212415874004
1769667017523806000,10.744805908203125,0.0001757686259225011,0.000969923275988549,-0.0038831550627946854
1769667017533794600,10.754794677734376,0.0017710020765662193,0.0009361011325381696,-0.003231213428080082
1769667017543782700,10.76478271484375,0.0007382282637991011,-0.0004945489927195013,-0.0036570527590811253
1769667017553771000,10.77477099609375,0.0013555489713326097,-0.0017496967921033502,-0.004394748248159885
1769667017563759000,10.784759033203125,0.0007776430575177073,-0.0008796420879662037,-0.004287955816835165
1769667017573748200,10.794748291015624,0.0029843382071703672,0.000030892668291926384,-0.004532434046268463
1769667017583736000,10.804736083984375,0.0013369068037718534,-0.001520665013231337,-0.0031047132797539234
1769667017593725000,10.814724853515624,0.00015100123709999025,-0.0026756778825074434,-0.004733502399176359
1769667017603713000,10.824713134765625,0.0011653993278741837,-0.0013528858544304967,-0.0029577065724879503
1769667017613702100,10.8347021484375,0.001891909632831812,0.000036218989407643676,-0.0036133769899606705
1769667017623690200,10.844690185546876,0.0012658004416152835,0.0008511462947353721,-0.004169445019215345
1769667017633679000,10.85467919921875,0.002177134156227112,0.0020458402577787638,-0.004472246393561363
1769667017643667000,10.8646669921875,0.0010402307379990816,0.0001382180635118857,-0.005219529382884502
1769667017653656000,10.874656005859375,0.0012889700010418892,0.0009560748003423214,-0.004367584362626076
1769667017663644200,10.88464404296875,0.002697782125324011,-0.00046046054922044277,-0.004548412747681141
1769667017673633000,10.894633056640625,0.0006114617572166026,0.0006064017652533948,-0.004597681108862162
1769667017683621000,10.90462109375,-0.0002306297537870705,0.001758218975737691,-0.00606455048546195
1769667017693610200,10.9146103515625,0.00013129384024068713,-0.00023276027059182525,-0.00544323492795229
1769667017703599000,10.92459912109375,0.0010319749126210809,0.0008753810543566942,-0.00478410255163908
1769667017713587000,10.9345869140625,0.001752360025420785,-0.00020506340661086142,-0.003712446428835392
1769667017723576000,10.944576171875,0.0012924320762977004,0.0008580705034546554,-0.0044043357484042645
1769667017733564200,10.954564208984374,0.003064233111217618,0.00017710021347738802,-0.004461593925952911
1769667017743553300,10.96455322265625,0.0007752461824566126,0.0007680556736886501,-0.0057047572918236256
1769667017753541000,10.974541015625,-0.00033635724685154855,0.0014945659786462784,-0.006115150637924671
1769667017763530000,10.984530029296875,0.001933454885147512,-0.00039015308720991015,-0.0062637547962367535
1769667017773518000,10.99451806640625,0.0012189288390800357,0.0016186692519113421,-0.004252003040164709
1769667017783507200,11.004507080078126,0.0011576761025935411,-0.0013078784104436636,-0.00421205535531044
1769667017793495300,11.014495361328125,0.00027616979787126184,-0.00038269624928943813,-0.003320961957797408
1769667017803484200,11.024484130859374,0.00046685212873853743,-0.00012996226723771542,-0.0031103058718144894
1769667017813472000,11.034471923828125,0.0007478156476281583,-0.0004799016169272363,-0.003609115956351161
1769667017823461000,11.044461181640624,0.003227484878152609,-0.0012085424968972802,-0.0038075214251875877
1769667017833449200,11.05444921875,0.00029534456552937627,-0.0012386362068355083,-0.004534830804914236
1769667017843438000,11.06443798828125,0.0025917883031070232,-0.0010120011866092682,-0.0038751657120883465
1769667017853426000,11.074426025390625,0.0008527441532351077,-0.00129695946816355,-0.003695135936141014
1769667017863415000,11.0844150390625,0.0005129248020239174,-0.001892175991088152,-0.004637096077203751
1769667017873403100,11.094403076171876,0.0018226674292236567,-0.0010418286547064781,-0.004341219086199999
1769667017883392000,11.10439208984375,0.0009504822082817554,-0.000589091214351356,-0.005519134923815727
1769667017893380000,11.114380126953124,0.0025654230266809464,-0.00009640643111197278,-0.0037297571543604136
1769667017903369200,11.124369140625,0.0022778017446398735,-0.0006199838826432824,-0.003206445835530758
1769667017913357000,11.134357177734374,0.001960885478183627,-0.0001752359967213124,-0.004610730800777674
1769667017923346000,11.144345947265625,0.001109739183448255,-0.00047857005847617984,-0.003528422210365534
1769667017933334000,11.154333984375,0.0026911243330687284,-0.000743554555810988,-0.004532434046268463
1769667017943323100,11.1643232421875,0.003543335711583495,-0.001547030289657414,-0.0034011229872703552
1769667017953311000,11.17431103515625,0.0015992282424122095,-0.0011592740193009377,-0.004141215234994888
1769667017963300000,11.184300048828124,0.0007422229973599315,-0.0012420982820913196,-0.002671416848897934
1769667017973288000,11.194287841796875,0.002079662401229143,-0.001841842196881771,-0.0021230720449239016
1769667017983277000,11.204277099609374,0.0007683219737373292,-0.001734250457957387,-0.0019827233627438545
1769667017993265200,11.21426513671875,0.0011606055777519941,0.00006498113361885771,-0.0030242856591939926
1769667018003254300,11.224254150390625,0.0010615360224619508,-0.0012503541074693203,-0.001636246219277382
1769667018013242000,11.2342421875,0.001841842196881771,-0.002490854589268565,-0.001989913871511817
1769667018023231000,11.24423095703125,0.0021558289881795645,-0.0033534523099660873,-0.003783819265663624
1769667018033219000,11.254218994140626,0.0015563513152301311,-0.001680987305007875,-0.0015662050573155284
1769667018043208200,11.264208251953125,0.001517735538072884,0.000261788722127676,-0.002627474721521139
1769667018053196300,11.2741962890625,0.000493750034365803,-0.0008375641773454845,-0.0030394657514989376
1769667018063185000,11.284184814453125,0.0019864519126713276,-0.0007352987886406481,-0.002796851797029376
1769667018073173000,11.294173095703124,0.0015081481542438269,-0.007139668334275484,-0.004479703027755022
1769667018083162000,11.304162109375,-0.0001549959706608206,-0.004197940696030855,-0.002388589084148407
1769667018093150200,11.314150146484375,0.0024983114562928677,0.0011448930017650127,-0.002901247702538967
1769667018103139000,11.32413916015625,0.0008852347382344306,-0.006050701718777418,-0.003862382611259818
1769667018113127000,11.334126953125,0.0005358280031941831,-0.004564658273011446,-0.003528422210365534
1769667018123116000,11.344115966796876,0.001790975802578032,-0.004054929129779339,-0.0035444011446088552
1769667018133105200,11.354105224609375,0.001493500778451562,-0.00561021501198411,-0.003593935864046216
1769667018143093000,11.364093017578124,0.003358246060088277,-0.0068086376413702965,-0.004876248072832823
1769667018153082000,11.37408203125,0.0030543794855475426,-0.003480218816548586,-0.003049852093681693
1769667018163070200,11.3840703125,0.0007243797881528735,-0.002201635157689452,-0.006050169467926025
1769667018173059000,11.39405908203125,0.0023289343807846308,-0.00042637207661755383,-0.00398701848462224
1769667018183047200,11.404047119140625,0.0016618125373497605,0.0006026733317412436,0.000035420041967881843
1769667018193036000,11.4140361328125,0.0018008295446634293,0.0011432950850576162,-0.0014447649009525776
1769667018203024100,11.424024169921875,0.0021283982787281275,-0.0006282397080212831,-0.0030980552546679974
1769667018213013200,11.43401318359375,0.0003307645965833217,-0.0012564794160425663,-0.0006793724023737013
1769667018223001000,11.4440009765625,0.004247209057211876,-0.0022130869328975677,-0.0007747135823592544
1769667018232990000,11.453989990234374,0.001100950757972896,-0.0017688715597614646,-0.0014514228096231818
1769667018242978000,11.46397802734375,0.0028040423057973385,-0.0035662390291690826,-0.0044080642983317375
1769667018252967200,11.47396728515625,0.002457032445818186,-0.00401631323620677,-0.004236556589603424
1769667018262955300,11.483955322265626,0.00101146858651191,-0.005613144487142563,-0.0017776599852368236
1769667018272943900,11.49394384765625,0.002698314841836691,-0.004396879114210606,-0.003364637726917863
1769667018282932000,11.503931884765626,0.001576857641339302,-0.003959854133427143,-0.00339126936160028
1769667018292921000,11.513921142578125,0.003141731023788452,-0.004875182639807463,-0.0044352286495268345
1769667018302909200,11.5239091796875,0.0012961605098098516,-0.0049825082533061504,-0.004717523697763681
1769667018312898000,11.53389794921875,0.0024197481106966734,-0.004275971557945013,-0.0033015208318829536
1769667018322886000,11.543885986328124,0.0023489079903811216,-0.003876497270539403,-0.003096990054473281
1769667018332875000,11.553875,0.0032812808640301228,-0.0030280142091214657,-0.0027614317368716
1769667018342863000,11.563863037109375,0.001047421246767044,-0.0014658038271591067,-0.0017113472567871213
1769667018352852200,11.573852294921876,0.0012594088912010193,-0.0025896579027175903,-0.0015568839153274894
1769667018362840000,11.583840087890625,0.0006492786924354732,-0.003349457634612918,-0.0040794298984110355
1769667018372829200,11.5938291015625,0.00011531487689353526,-0.003382480936124921,-0.0039116512052714825
1769667018382817000,11.603817138671875,0.0016974988393485546,-0.000041545314161339775,-0.0015606123488396406
1769667018392806100,11.61380615234375,0.0013907026732340455,0.0015211976133286953,-0.003078347770497203
1769667018402794200,11.623794189453125,0.0012053466634824872,0.0009890979854390025,-0.00020879182557109743
1769667018412783000,11.633783203125,0.0013379721203818917,0.0012684636749327183,-0.0027750139124691486
1769667018422771000,11.64377099609375,0.0015310513554140925,0.0004021373169962317,-0.004160390235483646
1769667018432760000,11.653760009765625,-0.0006492786924354732,0.0002759034978225827,-0.0026873957831412554
1769667018442748200,11.663748046875,0.0008045409340411425,-0.0008199872681871057,-0.0034738273825496435
1769667018452737000,11.673737060546875,0.0007113303290680051,-0.0014647386269643903,-0.00437956815585494
