time,seconds_elapsed,z,y,x
1769661548696691500,0.06969140625,0.06395502416864036,-0.06315116043984889,-0.019518939462304114
1769661548706679300,0.07967919921875,0.00413680754378438,-0.024465748214721677,-0.008916004644334315
1769661548716667400,0.08966748046875,-0.009635112699121236,-0.01648059467971325,-0.03355506359934807
1769661548726655500,0.099655517578125,0.008334697625041007,-0.024030279406905174,-0.031242402742803096
1769661548736643300,0.109643310546875,0.03844634277224541,-0.015139116942882537,0.00926437969058752
1769661548746631400,0.11963134765625,0.053468555337190624,-0.018657938718795775,0.04174100040346384
1769661548756618500,0.129618408203125,0.046277913180738685,-0.017947744622826577,0.03316255715042352
1769661548766606300,0.1396064453125,0.05308861610889434,-0.03388414942324161,0.01689355939477682
1769661548776594400,0.149594482421875,0.0934207726277411,-0.05799275476336479,0.003362462170422077
1769661548786582500,0.15958251953125,0.0928442879140377,-0.026011808612942694,-0.037159225571155544
1769661548796570400,0.1695703125,0.06750994017124176,-0.02371054593324661,-0.03818213887810707
1769661548806558500,0.179558349609375,0.023871435583382842,-0.03282558028101921,-0.03107610626518726
1769661548816546600,0.189546630859375,0.023888240587711333,-0.03150339176654816,-0.05149404039382934
1769661548826534400,0.199534423828125,0.03937821679487824,-0.023540450063347814,-0.09231149621158838
1769661548836522200,0.209522216796875,0.005478869802504778,-0.012788754424452781,-0.051792731079459184
1769661548846510300,0.21951025390625,-0.008455693656206131,-0.020460019704699513,-0.055581601968407626
1769661548856498400,0.22949853515625,0.020503420455008744,-0.019442951616644857,-0.04750438623577356
1769661548866485500,0.239485595703125,0.031823125240206716,-0.02444645899236202,-0.02441694063693285
1769661548876473300,0.249473388671875,0.05446867229044437,-0.037326983353495595,-0.006577917085587978
1769661548886461400,0.25946142578125,0.11038476691022514,-0.009705401456356047,-0.043838557204604146
1769661548896449500,0.269449462890625,0.10936331490799785,-0.005596797093749046,-0.03186228820681572
1769661548906437600,0.279437744140625,0.11164061219021677,-0.011160276439785956,-0.05890607021600008
1769661548916425500,0.289425537109375,0.06947057271972298,-0.0012818565040826797,0.023806115262210367
1769661548926413600,0.29941357421875,0.07623582907095551,-0.06814765355288982,-0.01753448764681816
1769661548936401700,0.309401611328125,0.09901450098156929,-0.07180792962610721,-0.036083413033187385
1769661548946389500,0.319389404296875,0.056307578155398365,-0.05410802228450775,-0.020811609621345997
1769661548956377600,0.329377685546875,0.038872459229826926,-0.031442016968131065,-0.006296469795703887
1769661548966365700,0.33936572265625,0.0024715046800673005,-0.029760932013392447,-0.015059037443995475
1769661548976353300,0.349353271484375,-0.032598201265931125,-0.018010872986912726,0.01591886914372444
1769661548986341400,0.35934130859375,-0.020108137527108192,-0.014872574961185454,-0.0021337971583008765
1769661548996329500,0.36932958984375,-0.030768209359794855,-0.019524200159311292,-0.03340571825653314
1769661549006317600,0.379317626953125,-0.022617928390949962,-0.030379356172680852,-0.03858341315537691
1769661549016305400,0.389305419921875,0.035668256361037494,-0.03159866883456707,-0.021805881355702876
1769661549026293500,0.39929345703125,0.054537207482010124,-0.005388707301020622,-0.004679389987885952
1769661549036281600,0.409281494140625,0.061421121776849025,-0.03112929775714874,-0.018519114769995213
1769661549046269400,0.41926953125,0.04618599711358547,-0.04827274025976658,0.014544950442016124
1769661549056257500,0.429257568359375,0.0292151346988976,-0.04541618178486824,0.019134908580780027
1769661549066245600,0.43924560546875,0.040381694748997686,-0.03312485548853874,-0.002395662964880466
1769661549076233700,0.449233642578125,0.039042116708308455,0.008116670960187911,-0.027662206168472765
1769661549086221600,0.4592216796875,0.005797288101911545,0.00658522360920906,-0.04795709843933582
1769661549096209400,0.46920947265625,0.061126815005391834,0.02914952211678028,-0.06851093390733003
1769661549106196700,0.47919677734375,0.10409940303042531,0.008524667239189147,-0.002474281159043312
1769661549116184600,0.4891845703125,0.01860153235644102,-0.0308522343814373,-0.016900865918397904
1769661549126172400,0.49917236328125,0.0436661232471466,-0.12390578113198279,0.004397650437057018
1769661549136160500,0.509160400390625,0.09258607536926865,-0.09510697214901447,-0.0020329671323299405
1769661549146148400,0.5191484375,0.03972118501365184,-0.0732160428583622,-0.05232639956474304
1769661549156136400,0.529136474609375,-0.04845642626360058,-0.06399871717989444,0.005599427442252635
1769661549166124500,0.53912451171875,-0.014167787692695855,-0.048236499902606006,-0.01312602355480194
1769661549176112400,0.5491123046875,0.03477159978225827,-0.037840778094530104,-0.015746435186266897
1769661549186100500,0.5591005859375,0.03768018070533871,0.01750526155233383,-0.03957563906311989
1769661549196088600,0.569088623046875,-0.040795974638313054,0.007028291201591492,-0.014722645096480845
1769661549206076700,0.57907666015625,-0.0526974248342216,-0.045130350580811496,-0.011906710892915725
1769661549216064500,0.589064453125,-0.035665333751589055,-0.05920739125013351,0.01414250712096691
1769661549226052600,0.599052490234375,-0.004649140980094671,-0.07503449045717715,0.01857289078384638
1769661549236040700,0.609040771484375,-0.0015478139638900755,-0.09570552256405353,0.008306056052446364
1769661549246028500,0.619028564453125,-0.0007324059277772903,-0.08201835799515247,0.018364216469228267
1769661549256016400,0.629016357421875,0.031162615504860876,-0.07759586537778378,0.027048750445246694
1769661549266004500,0.63900439453125,0.04550926689580083,-0.059769701308012006,0.04121142357140779
1769661549275992600,0.64899267578125,0.054404521013051266,-0.028180384823679922,0.048670507405698296
1769661549285980400,0.65898046875,0.06350903396680951,-0.016780454409122465,0.0324272286131978
1769661549295968500,0.668968505859375,0.06825111392736434,-0.0048895256072282785,0.05127046077102423
1769661549305956600,0.67895654296875,0.09398542077317833,-0.0029033202260732647,0.040462066508829594
1769661549315944400,0.6889443359375,0.08989493658915161,-0.01887771894931793,0.022007249146699905
1769661549325932500,0.6989326171875,0.09392229240909218,-0.029908231529593467,0.030273557710647582
1769661549335920600,0.708920654296875,0.11019231307804583,-0.05035656079649925,0.022222060941159725
1769661549345908700,0.71890869140625,0.08389832652285695,-0.05275894576311111,-0.005226210215687752
1769661549355896600,0.728896484375,0.06902209829986095,-0.04254442574083805,-0.012376666492223739
1769661549365884400,0.738884521484375,0.041712212700396774,-0.03063128510713577,-0.016174889731407165
1769661549375872500,0.74887255859375,0.018496610677242276,-0.030007600250840184,0.006400514692068099
1769661549385860400,0.7588603515625,0.004008651119470596,-0.01213175182044506,0.01100976205319166
1769661549395848400,0.768848388671875,-0.0027833471082150934,-0.005101122531294822,-0.006413958695530891
1769661549405836500,0.77883642578125,-0.004905746089667082,-0.00694470457136631,-0.009476268875598907
1769661549415824400,0.788824462890625,0.00580488688647747,0.009570376899838447,0.002221183180809021
1769661549425812500,0.7988125,0.01174202185049653,-0.011149755045771597,-0.002773556366562843
1769661549435800600,0.808800537109375,0.02993175853565335,-0.024863223099708554,0.008321253621578217
1769661549445787400,0.818787353515625,0.03975216467380523,-0.025472879430651664,-0.00887830298244953
1769661549455775500,0.828775390625,0.04908990186154842,-0.03509761686623096,-0.024124679692089555
1769661549465763600,0.838763671875,0.06698796212375163,-0.04395721514821052,-0.026524142049252984
1769661549475751700,0.848751708984375,0.06993687505722046,-0.04457622382938862,-0.05183101726323366
1769661549485739500,0.858739501953125,0.054722208660095924,-0.049426001948118206,-0.05099661226570606
1769661549495727600,0.8687275390625,0.05131064665094018,-0.0208048876196146,-0.04628565809577703
1769661549505715700,0.8787158203125,0.0517367631085217,-0.016571780094504357,-0.032766543570160865
1769661549515703600,0.88870361328125,0.0549292755395174,0.005330255112051963,-0.0366363707408309
1769661549525691400,0.89869140625,0.05799100119769573,0.031255554485321045,-0.047148996926844114
1769661549535679500,0.908679443359375,0.035786768174171445,0.003590717968344688,-0.053636605380475516
1769661549545667300,0.918667236328125,0.019515578461438417,-0.055692076605558395,-0.046396132732927794
1769661549555655400,0.928655517578125,0.005003361245244741,-0.107457919678092,-0.027358839307725428
1769661549565643500,0.9386435546875,0.023842501749843356,-0.1529968510597944,0.0014724106401205062
1769661549575631600,0.948631591796875,0.006358282985538244,-0.1412561443835497,0.018276245924830434
1769661549585619500,0.958619384765625,-0.0207515499971807,-0.08616904793381691,0.019391513690352438
1769661549595607600,0.968607666015625,-0.03498012796640396,-0.023235329636931416,-0.02119359467625618
1769661549605595600,0.978595703125,-0.012739654585719108,0.011930676290392874,-0.06178542504459619
1769661549615583500,0.98858349609375,0.034936434955149885,0.023916882160305974,-0.06504442684054375
1769661549625571600,0.998571533203125,0.05799290089383721,-0.009442366605997085,-0.042241058880090714
1769661549635559700,1.0085595703125,0.04524389395788312,-0.04584405180811882,-0.015369710828363895
1769661549645547500,1.018547607421875,0.03317000980451703,-0.09116787913441657,-0.012197802793979645
1769661549655535400,1.028535400390625,0.04391936735585332,-0.10051613771617413,-0.025240531979501248
1769661549665523500,1.0385234375,0.04983414435759186,-0.08299977024793624,-0.04599339715093374
1769661549675511600,1.048511474609375,0.009047960460931061,-0.062462009131908414,-0.03528174126148224
1769661549685499400,1.05849951171875,-0.030772739404439923,-0.08265081067979335,-0.022191958063840864
1769661549695487500,1.068487548828125,-0.026724925318360328,-0.12209960849285124,0.0151996149584651
1769661549705475600,1.0784755859375,-0.024997809264808893,-0.1825035160511732,0.060112523396313185
1769661549715463700,1.088463623046875,-0.02466916183233261,-0.1861936027407646,0.08084697612822056
1769661549725451500,1.098451416015625,-0.03205912595316768,-0.11888882975280284,0.08514116619080304
1769661549735439600,1.108439697265625,-0.035602059257030486,-0.05723755248188972,0.04774082534015178
1769661549745427700,1.118427734375,-0.07258052143380045,0.0030728315740823743,0.017776187448203563
1769661549755415600,1.12841552734375,-0.08804346350356936,0.018370938470959663,0.0021320435926318166
1769661549765402600,1.138402587890625,-0.07620105001851916,0.009750994163751601,-0.006451952618360519
1769661549775390700,1.148390625,-0.07966741095483303,-0.029334815555810925,-0.014479191729426383
1769661549785378600,1.158378662109375,-0.10110592030286789,-0.09334230056405067,-0.015655249771475793
1769661549795366400,1.168366455078125,-0.07887304570674895,-0.11512743139266968,-0.016505729120969773
1769661549805354500,1.1783544921875,-0.05168620196506381,-0.1383709443360567,-0.020104045873880386
1769661549815342300,1.18834228515625,-0.0416455772049725,-0.1349117437928915,-0.009542612110078334
1769661549825330400,1.198330322265625,-0.04544190074801445,-0.08330079902112483,-0.011159984178841113
1769661549835318500,1.208318603515625,-0.037447833254188295,0.015373510220646857,-0.005475508801639079
1769661549845306600,1.218306640625,-0.059349576199799775,0.06762275289595127,-0.001972176855802536
1769661549855294500,1.22829443359375,-0.06601634061262011,0.06107610773146152,0.03087883012741804
1769661549865283800,1.238283935546875,-0.03849661165475845,0.030253683966398236,0.03688362350016832
1769661549875271700,1.248271728515625,0.038957068773359055,0.005485737934708595,0.06614654286354779
1769661549885259800,1.258259765625,0.034893034204840655,-0.051257893550395964,0.09379033659249543
1769661549895247600,1.26824755859375,0.018124416363984347,-0.09284545695781707,0.11696078429967165
1769661549905235700,1.278235595703125,-0.0024355565838515758,-0.14526187289357184,0.1299383392944932
1769661549915223800,1.288223876953125,0.03514394022598862,-0.17110709276795386,0.14510317520052193
1769661549925211600,1.298211669921875,0.0924615722067654,-0.14294833525419234,0.10485738179087638
1769661549935199700,1.30819970703125,0.11688041253983973,-0.05010989255905151,0.03371609937995672
1769661549945187800,1.318187744140625,0.11041662335321306,0.058521747073531145,-0.04060585889369249
1769661549955176000,1.328176025390625,0.055865241215378045,0.07896773825287819,-0.08780775505155325
1769661549965163800,1.338163818359375,0.029053222135454415,0.02803366982936859,-0.11158026030510663
1769661549975151900,1.34815185546875,0.05194762938022613,-0.04981061735153198,-0.0914084098920226
1769661549985140000,1.358139892578125,0.08747823083624243,-0.09407470649182796,-0.07708499324619769
1769661549995127600,1.36812744140625,0.05047054256498813,-0.07412789700627327,-0.05215893404334783
1769661550005115600,1.37811572265625,0.013215455403923987,-0.04754501050710678,-0.04983019883483648
1769661550015103700,1.388103759765625,-0.026377719315886495,-0.02676058115363121,-0.045987844192981714
1769661550025091800,1.398091796875,-0.04372501382753253,-0.030880291432142257,-0.04867985975593328
1769661550035079700,1.40807958984375,-0.03826996329203248,-0.050263037294149396,-0.023224515981972216
1769661550045067800,1.41806787109375,0.005895633909851312,-0.03639642450511455,-0.004259995532035828
1769661550055056000,1.428055908203125,0.04344283588528633,-0.007407061386108398,0.0036284196302294727
1769661550065043700,1.438043701171875,0.01723711213544011,-0.00029050737917423245,0.022511691537499427
1769661550075030800,1.44803076171875,-0.033899346992373465,-0.03699614396393299,-0.01876665979027748
1769661550085019000,1.458018798828125,-0.022363076847046612,-0.058469140103459355,-0.0824526577591896
1769661550095006700,1.4680068359375,0.024710516756027937,-0.07895254068374634,-0.11443243486583232
1769661550104994800,1.477994873046875,0.06418561805412173,-0.07102057864069938,-0.12222002000212669
1769661550114983000,1.48798291015625,0.10850319094732404,0.004614215797185898,-0.14112228887081146
1769661550124970800,1.497970703125,0.09142696846202016,0.061865796804428094,-0.14000994371473788
1769661550134958800,1.507958740234375,0.0492477227717638,0.12673837420940398,-0.1298480306625366
1769661550144946700,1.51794677734375,0.033884880075603724,0.11868249352574348,-0.15670944184213875
1769661550154934800,1.527934814453125,-0.00783157040849328,0.021782208219170568,-0.14578765033334493
1769661550164922600,1.537922607421875,-0.026143764429539442,-0.06362520769238472,-0.15457389111816883
1769661550174910700,1.54791064453125,-0.04507584391459822,-0.11578560304045676,-0.11859539976418018
1769661550184898800,1.55789892578125,-0.08654548003077507,-0.15791852537095546,-0.09920008668154477
1769661550194886700,1.56788671875,-0.10286313923373817,-0.13504852191507816,-0.06976444109976292
1769661550204874800,1.577874755859375,-0.09992299412861466,-0.07427344295680523,-0.06513181286305189
1769661550214862800,1.58786279296875,-0.11700959187746048,0.000969137293100357,-0.06836100404262542
1769661550224851000,1.597850830078125,-0.1113059734083712,0.04001812213361263,-0.04439063812941312
1769661550234838800,1.6078388671875,-0.08386486264467238,-0.00476443792283535,-0.06365297248214483
1769661550244827000,1.617826904296875,-0.09073767102360725,-0.07542670464515686,-0.004480652545392513
1769661550254815000,1.62781494140625,0.004250058659911155,-0.1545364817172289,-0.006143909582495689
1769661550264802800,1.637802734375,0.1374001996077597,-0.1341278999388218,0.08211334280222654
1769661550274790700,1.647790771484375,0.17852292198240757,-0.10401800835728645,0.11499386814087628
1769661550284778800,1.65777880859375,0.15341536873281,-0.0905436097562313,0.1118602462902665
1769661550294766600,1.6677666015625,0.10588131801113486,-0.07970423583388328,0.16681319496631622
1769661550304754700,1.677754638671875,0.10247034052386879,-0.08964929126501082,0.19150456863045692
1769661550314742800,1.68774267578125,0.15273162425234912,-0.1812964783489704,0.16882658061534164
1769661550324731000,1.69773095703125,0.16451602393984793,-0.18188158476054667,0.14884236172884702
1769661550334718700,1.70771875,0.10252177845016121,-0.13025661146342754,0.10070260019898414
1769661550344706800,1.717706787109375,0.012285042686015367,-0.06832184107601642,0.04953998371660709
1769661550354695000,1.72769482421875,-0.16315101919695735,0.02262391974031925,0.06717296330183745
1769661550364682800,1.737682861328125,-0.22147592852413653,0.003537526476383209,0.04299129272550344
1769661550374670800,1.7476708984375,-0.04380801593586802,0.0007914426386356353,0.035569326031208034
1769661550384658700,1.75765869140625,-0.003112579062581062,-0.05136603009998798,0.07578764691203832
1769661550394645800,1.767645751953125,-0.038257980593293904,-0.10676993741393088,0.06292933438271284
1769661550404633900,1.7776337890625,-0.05284947359077632,-0.09340075275301933,-0.03302168737500906
1769661550414622000,1.7876220703125,-0.09447203524634241,-0.11325929943323135,-0.09283172069340943
1769661550424609500,1.797609619140625,-0.017784663015604017,-0.0351700975805521,-0.07613689874112606
1769661550434597600,1.80759765625,0.10095686722099781,0.06882511442303657,-0.029411095662415027
1769661550444585700,1.817585693359375,0.14527531689703463,0.13873393242955206,0.013328268128633499
1769661550454573800,1.82757373046875,0.1670966880828142,0.1357569624453783,-0.026918402063846585
1769661550464561700,1.837561767578125,0.1264839610569179,0.08237140921652317,-0.02998334259241819
1769661550474549800,1.8475498046875,0.13656827882826328,0.027492987081408498,-0.04881108492016792
1769661550484537900,1.857537841796875,0.18678455437123775,-0.04080664216279983,-0.07494681217372418
1769661550494525700,1.867525634765625,0.10730009876787662,-0.07282090606093407,-0.03431669562160969
1769661550504513800,1.877513671875,0.0281775352794677,-0.11449380966424941,0.06735474960952997
1769661550514502000,1.887501953125,0.02543897716104984,-0.1482622237533331,0.03450695749670267
1769661550524490000,1.897489990234375,-0.005957008708268404,-0.14319149636030196,0.0341027606099844
1769661550534477800,1.907477783203125,-0.09108443863466381,-0.15291209538578987,0.04033464073687792
1769661550544465700,1.917465576171875,-0.1079020832490176,-0.1150911910355091,0.04034165499955415
1769661550554453800,1.927453857421875,-0.11784662722349167,-0.0962426981806755,0.07404255681037902
1769661550564441600,1.937441650390625,-0.06593830694034696,-0.0473480266302824,0.03923427827954292
1769661550574429700,1.9474296875,0.0005593874484300613,0.054230771881341934,-0.00802694685012102
1769661550584417800,1.957417724609375,-0.03799406896010041,0.11806173127889633,-0.02144230874031782
1769661550594406000,1.967406005859375,-0.055727878571301695,0.14827274514734745,-0.11809651033133267
1769661550604393700,1.977393798828125,-0.10852248016968369,0.1843470980912447,-0.08049071003645658
1769661550614381800,1.9873818359375,-0.06315817470252513,0.1373608905106783,-0.093802319291234
1769661550624370000,1.997369873046875,0.008322861056774855,-0.004185761252045631,-0.028573768055438993
1769661550634357800,2.007357666015625,0.08178104210793971,-0.16514438497126102,-0.006013853462040424
1769661550644345900,2.017345947265625,0.1620996104478836,-0.22546645946502683,0.043633682282269
1769661550654334000,2.027333984375,0.11133739145994186,-0.22646482285261152,0.05380640898942947
1769661550664321500,2.037321533203125,-0.0067940440542995926,-0.15951836178302764,0.0428735115647316
1769661550674309600,2.0473095703125,-0.017225860089063644,-0.09906769247353077,-0.0007242226213216781
1769661550684297700,2.057297607421875,-0.017347952098771928,-0.04428104027509689,-0.03773644093722105
1769661550694284800,2.067284912109375,-0.08730784270539879,-0.01061024134159088,-0.06716741034388542
1769661550704272600,2.077272705078125,-0.10848974694386124,0.017606968361139296,-0.058440790791809555
1769661550714260700,2.0872607421875,-0.08905965480878948,0.012062193715572357,-0.07036620638519525
1769661550724248800,2.097248779296875,-0.06930434930734336,-0.03847732243239879,-0.0693619977787137
1769661550734236700,2.107236572265625,-0.0432475325088948,-0.07341361125707625,-0.07354922033548354
1769661550744224800,2.117224853515625,-0.019027502683550118,-0.08514262749552726,-0.06770487822145223
1769661550754212900,2.127212890625,0.05283960978388786,-0.03235328659415245,-0.04157908784002065
1769661550764200700,2.13720068359375,0.06515497454293072,0.004556348130106926,-0.05799100119769573
1769661550774188800,2.147188720703125,0.12801043997183442,0.01395604463815689,-0.08602730137556791
1769661550784177000,2.157177001953125,0.1173972760207951,0.007573065602779388,-0.09433920264691113
1769661550794164700,2.167164794921875,0.0644926381766796,-0.006125789403915405,-0.07742401594221592
1769661550804152800,2.17715283203125,0.04034077821671962,0.00291617970764637,-0.039105098941922184
1769661550814140700,2.187140625,0.027624942898005246,-0.019027356553077697,0.03280599879771471
1769661550824128800,2.197128662109375,0.029280308889597654,-0.03478080600202083,0.03695873456299305
1769661550834116600,2.20711669921875,0.034115035569667815,-0.05138356575667858,0.002319382858276367
1769661550844104700,2.217104736328125,0.028863179456070063,-0.059303837361931795,-0.014752455712854861
1769661550854092800,2.2270927734375,0.0912369257826358,-0.04666296697556972,-0.04046732720583677
1769661550864079400,2.237079345703125,0.08574176243245601,-0.046615036180615424,-0.007572481080889701
1769661550874067500,2.2470673828125,0.0741220517873764,-0.0633995822429657,0.06673603318929672
1769661550884055600,2.2570556640625,0.10007716177701949,-0.040569910797476766,0.05168722487837076
1769661550894043400,2.26704345703125,0.08974646802917122,-0.027805706292390823,0.05656739813536405
1769661550904031500,2.277031494140625,0.06894903306365013,-0.0015717793613672256,0.07995148859322071
1769661550914019600,2.28701953125,0.042001404905319215,-0.006150923845171928,0.08683248027861118
1769661550924007400,2.29700732421875,0.014705474765971302,-0.05143032750785351,0.1220256664738059
1769661550933995500,2.30699560546875,-0.020708368442580102,-0.08843348573446273,0.10970862121433018
1769661550943983600,2.316983642578125,0.03514671670496464,-0.12478081040084361,0.06975976492464542
1769661550953971700,2.3269716796875,0.058001960983127356,-0.11626958716511726,0.07192337269932031
1769661550963959600,2.33695947265625,0.018493541937321424,-0.09756488669514655,0.0643859629318118
1769661550973947600,2.34694775390625,0.0012174129657447337,-0.08017536047697067,0.0537201920107007
1769661550983935500,2.356935546875,0.01855900838896632,-0.10674947914779186,0.009850070624053478
1769661550993922600,2.366922607421875,0.02780979794561863,-0.07957856362760067,-0.03749766374528408
1769661551003910700,2.37691064453125,0.036573534637689586,-0.04643967961370945,-0.07192074235081672
1769661551013898500,2.3868984375,0.022036475241184232,-0.031000118419528006,-0.06972761622071266
1769661551023886300,2.39688623046875,0.01469648774191737,0.02119008754491806,-0.07772241436690092
1769661551033874400,2.40687451171875,-0.012188450443744659,0.07531973713934421,-0.0535460044875741
1769661551043862500,2.416862548828125,-0.04763327331244945,0.07549158657491206,-0.032788170880079265
1769661551053850400,2.426850341796875,-0.046050388035178184,0.061950552478432654,-0.05615180307179689
1769661551063838500,2.43683837890625,-0.07135192948691546,0.019231354692578313,-0.044779345186054705
1769661551073826600,2.44682666015625,-0.03381685634069145,-0.018171616506576536,-0.04417553407400846
1769661551083814700,2.456814697265625,-0.033872458985447884,-0.057747255569696426,-0.03485737836956978
1769661551093802500,2.466802490234375,-0.03458265308141708,-0.10759235971271991,-0.060898413076996796
1769661551103790600,2.47679052734375,-0.017225275567173955,-0.11185586237609386,-0.08928162699639797
1769661551113778700,2.48677880859375,0.004436521142721176,-0.09835282220244407,-0.08812398139387369
1769661551123766500,2.4967666015625,0.009352934756875037,-0.08450666767954826,-0.10194003303945064
1769661551133754400,2.50675439453125,0.03088423695489764,-0.08487024029493331,-0.08573504043072462
1769661551143742500,2.516742431640625,0.021520780804008245,-0.0770715492427349,-0.08540829269438982
1769661551153730600,2.52673046875,0.011364274579286574,-0.0775467655390501,-0.06085691202282905
1769661551163718400,2.536718505859375,0.046560091122984884,-0.044054830303788185,-0.09318331061005591
1769661551173706500,2.54670654296875,0.08809270947277545,-0.033684827458858486,-0.13244944533258676
1769661551183694600,2.556694580078125,0.04282441172599792,-0.04606149395108223,-0.13103256427198648
1769661551193682400,2.566682373046875,0.005432619507983327,0.029417233142256735,-0.07738982141166925
1769661551203670500,2.57667041015625,-0.013584873238205909,0.05963759936094284,-0.05363251372724771
1769661551213658600,2.58665869140625,-0.05099412804767489,0.05645370862782001,-0.002426350364089012
1769661551223646700,2.596646728515625,-0.034219080466032024,0.04446867180168628,0.015383739353716373
1769661551233634600,2.606634521484375,-0.016402780203148722,0.023446926560997963,0.017354162643849848
1769661551243622700,2.61662255859375,0.0031132366497069594,-0.00027238720059394837,0.030364450864493846
1769661551253610500,2.626610595703125,0.03827047474868595,0.008569090902805328,0.05278963316231966
1769661551263598300,2.636598388671875,0.09532499881386756,0.013777765461802483,-0.0033998715713620185
1769661551273586400,2.64658642578125,0.12049743399322033,0.005632452929019927,0.04200637334138155
1769661551283574500,2.656574462890625,0.02553308518528938,-0.02695756503045559,0.10765753390341996
1769661551293561300,2.666561279296875,0.03469495434947312,-0.08804127154648303,-0.015687398475408555
1769661551303549400,2.676549560546875,0.07832184156477451,-0.07932721921503544,0.018161095112562177
1769661551313537500,2.68653759765625,0.039810032340884205,-0.12202712777853011,-0.054446460458636284
1769661551323525400,2.696525390625,-0.009712927175685762,-0.08515490245521068,-0.046044542816281314
1769661551333513500,2.706513427734375,-0.03691189974658191,-0.05634674112200737,-0.06429331621229648
1769661551343501600,2.71650146484375,-0.009378653720021248,-0.03193944509625435,-0.08058043414652347
1769661551353489700,2.72648974609375,-0.02989252250380814,-0.0034019173979759213,-0.11345774461477995
1769661551363477500,2.7364775390625,-0.04161335543580353,-0.0006184241592884064,-0.07316928110718726
1769661551373465600,2.746465576171875,-0.027552023792266844,-0.03019990795254707,-0.06478197651207447
1769661551383453700,2.75645361328125,-0.008586626559495925,-0.004486790025234222,-0.05548953977078199
1769661551393441500,2.766441650390625,-0.019202128598093986,-0.015321487772464752,-0.0046419805869460104
1769661551403429600,2.7764296875,-0.007729790534451603,-0.012120645904541014,0.012767127114534378
1769661551413417500,2.78641748046875,0.015206410025432705,-0.0423287371635437,0.020740297950804232
1769661551423405300,2.7964052734375,0.015462357547879219,-0.04856733929216862,0.03537292667627334
1769661551433393400,2.806393310546875,0.07597147904634476,-0.04576747944056987,0.04076017267256975
1769661551443381500,2.816381591796875,0.09345036404840648,-0.06342530120611191,0.02211626247912645
1769661551453369600,2.82636962890625,0.09351005834639071,-0.06681552816629409,0.022406477597355843
1769661551463357400,2.836357421875,0.06462364414520562,-0.05197276382148266,0.01228431203365326
1769661551473345500,2.846345458984375,0.02956051407046616,-0.04692658634781837,0.028227731096744535
1769661551483333600,2.856333740234375,0.016243936379626393,-0.061357262760400766,0.025143501345813273
1769661551493321500,2.866321533203125,-0.009807035199925302,-0.05478431411087513,0.014494973820447921
1769661551503309600,2.8763095703125,-0.02238419270031154,-0.06102642337083816,-0.010370587366819381
1769661551513297700,2.886297607421875,-0.03468728249967098,-0.05448971507847309,0.001017068088054657
1769661551523285500,2.896285400390625,-0.038023733446002,-0.034003391888737675,0.014510463650524615
1769661551533273300,2.9062734375,-0.028783099957183002,-0.0369043740272522,0.03772971893548965
1769661551543261400,2.916261474609375,-0.03168349757380783,-0.03861351603269577,0.04663374088108539
1769661551553249500,2.92624951171875,-0.018581439416483044,-0.0540577534019947,0.04122749792337417
1769661551563237400,2.9362373046875,-0.003512392035126686,-0.05921323646903038,0.04763502687811851
1769661551573225500,2.9462255859375,0.00948445218205452,-0.0599573328346014,0.041964580026268954
1769661551583213600,2.956213623046875,0.027196049961447713,-0.036355507972836494,0.03404927685707807
1769661551593201700,2.96620166015625,0.026262057046964764,-0.019109774139523503,0.011718202583491802
1769661551603189500,2.976189453125,0.03396181776933372,-0.03844342016279697,-0.031049802780151365
1769661551613176600,2.986176513671875,0.04332476246356964,-0.02997603606879711,-0.039457565641403194
1769661551623164400,2.996164306640625,0.03947093657962978,-0.005297521886229515,-0.04079845885634422
1769661551633152500,3.006152587890625,0.022858897539973257,-0.026048633491992948,-0.04457008634954691
1769661551643140600,3.016140625,-0.0006740268040448426,-0.04255260904729366,-0.03332505423575639
1769661551653128700,3.026128662109375,0.026502733935043214,-0.032871757510304446,-0.010676292315125464
1769661551663116500,3.036116455078125,0.018334113591909406,-0.007666004583239555,-0.004171148204803466
1769661551673104600,3.046104736328125,0.00801079943291843,-0.00012158055305480956,0.027476620468497276
1769661551683092500,3.056092529296875,0.003931421164795756,0.006955810487270355,0.012516074962913988
1769661551693080300,3.066080322265625,0.020355901743099092,0.004794833061099052,0.01507014335989952
1769661551703068400,3.076068359375,0.017147022699192164,-0.03984042747914791,0.0031520342901349067
1769661551713056500,3.086056396484375,0.007571969624236226,-0.058448681837320327,0.01968172880858183
1769661551723044600,3.096044677734375,-0.0014274024546146393,-0.05657353561520576,0.010894903501868248
1769661551733032400,3.106032470703125,-0.006028174248337745,-0.04953706110715866,-0.00028349311649799344
1769661551743020500,3.1160205078125,-0.016711992282792926,-0.045129181537032124,-0.004940086750686168
1769661551753008600,3.126008544921875,-0.005597308550402522,-0.022520459365844726,-0.03583411444723606
1769661551762996500,3.13599658203125,0.029735870637372135,0.004883095866441726,-0.035439854432642456
1769661551772984600,3.145984619140625,0.05380991612076759,-0.004320201286673545,-0.027728549402952194
1769661551782972700,3.15597265625,0.06534954726696014,-0.011773439902067183,-0.006258768133819103
1769661551792960800,3.165960693359375,0.04239654170274734,-0.04403554108142853,0.01933744541555643
1769661551802948400,3.1759482421875,0.03985555198304355,-0.08130933294296264,0.006070844346284866
1769661551812936400,3.1859365234375,0.08307166644036769,-0.06297405030727386,-0.004633212758600711
1769661551822924500,3.195924560546875,0.08571253633797168,-0.05080138195455074,-0.024115619602799416
1769661551832912400,3.205912353515625,0.08533018595688044,-0.049879590934514995,-0.058442252096533774
1769661551842900500,3.215900390625,0.116516255402565,-0.021259645649790763,-0.0711482966735959
1769661551852888600,3.225888671875,0.11352525689303875,-0.020851649370789527,-0.11091916604787111
1769661551862876400,3.23587646484375,0.12037358841784297,-0.008731587988138199,-0.12051117025762796
1769661551872864800,3.24586474609375,0.1343419080156833,0.008136544704437256,-0.11729016238451004
1769661551882852900,3.255852783203125,0.12965228889472782,0.004494973331689835,-0.11164134284257889
1769661551892841000,3.265841064453125,0.11317286325879394,0.00019523031115531922,-0.104283673556149
1769661551902828800,3.275828857421875,0.12781272544264793,-0.002874678653478622,-0.09315086964517831
1769661551912815900,3.28581591796875,0.11488017863333225,-0.02142740343213081,-0.09012889147549867
1769661551922804000,3.295803955078125,0.10918876205869019,-0.01983984197974205,-0.10431114608496427
1769661551932791800,3.305791748046875,0.09449329723007976,-0.009305003961920738,-0.10168693506121634
1769661551942780000,3.31577978515625,0.08355747719593346,-0.014122633376717566,-0.09773176769465207
1769661551952767700,3.325767822265625,0.04997895965576172,-0.041938861063122744,-0.07337620185613632
1769661551962755600,3.335755615234375,0.02944412114918232,-0.03303600816130638,-0.027855975174903867
1769661551972743700,3.34574365234375,0.05314005403518676,-0.036897944286465645,-0.009358195453882216
1769661551982731800,3.355731689453125,0.05643566151447594,-0.05047054256498813,0.0014507833302021026
1769661551992720000,3.365719970703125,0.050595191857963795,-0.037245150288939474,0.01491933671236038
1769661552002707700,3.375707763671875,0.030152050222828984,0.023169278663396835,0.029604280146956444
1769661552012695800,3.38569580078125,0.016738368833065034,0.02209843456149101,0.038709962144494056
1769661552022684000,3.395683837890625,0.013942016112804411,0.03474515016674995,0.026952888855338097
1769661552032671700,3.405671630859375,-0.005062544086575508,0.02929974424242973,0.019505787719786165
1769661552042659800,3.415659912109375,-0.02627608557231724,0.0010544774889945983,0.01587327643632889
1769661552052648000,3.42564794921875,-0.009067761139944196,-0.0042693478822708126,0.044216742867231366
1769661552062635800,3.4356357421875,0.03450724975764751,-0.031981530672311784,0.014939502717554568
1769661552072623600,3.44562353515625,0.01491926364712417,-0.06552315026819705,0.007826748102903366
1769661552082611700,3.45561181640625,-0.011939371053501962,-0.07981295690536498,-0.028021687130630014
1769661552092599800,3.465599853515625,-0.0346698199082166,-0.08880874878764151,-0.031948212924599644
1769661552102587600,3.475587646484375,-0.013965323923155665,-0.06443710859715938,-0.03137450468987226
1769661552112575700,3.48557568359375,0.015157310186699031,-0.036866964626312254,-0.032333705110847946
1769661552122563800,3.495563720703125,0.005377674450352788,-0.0007534487158060073,-0.013842647391557692
1769661552132551700,3.5055517578125,-0.025004019809886813,0.018536358165740965,0.0014615969851613044
1769661552142539800,3.515539794921875,-0.06462130605764686,0.017293664628267286,-0.0009168225839734077
1769661552152528000,3.52552783203125,-0.06859020968861877,0.008926818299293518,-0.018192659294605253
1769661552162516000,3.535515869140625,-0.0374100585270673,-0.023263386687636375,-0.030444530363380906
1769661552172503800,3.54550390625,-0.007696399721503257,-0.040082419541478155,-0.0394683792963624
1769661552182492000,3.555491943359375,0.03246149620898068,-0.04408814805150032,-0.02832476173043251
1769661552192479700,3.565479736328125,0.03092939127087593,-0.012068038934469222,-0.020241408517956732
1769661552202467600,3.575467529296875,0.010522563058137892,0.004940379011631012,-0.007551438292860984
1769661552212455700,3.58545556640625,0.005325578936934471,-0.007615151178836822,-0.005459434449672698
1769661552222442800,3.59544287109375,0.026330373042821882,-0.03944412163794041,0.004298573976755142
1769661552232430600,3.6054306640625,0.0366377589803189,-0.048398412466049194,0.00006838906109333039
1769661552242418700,3.615418701171875,0.027575989189743993,-0.04446165753901005,-0.004132277499139309
1769661552252406800,3.62540673828125,0.002808700745180249,-0.0333358678907156,-0.019755963088572023
1769661552262394600,3.63539453125,-0.019764365590736268,-0.02786708109080791,-0.020512626674771307
1769661552272382700,3.6453828125,-0.012795111100003122,-0.0290092368632555,-0.01851882250905037
1769661552282370800,3.655370849609375,0.00967098773010075,-0.03587795358896255,-0.012611352030932903
1769661552292359000,3.66535888671875,0.015211086200550198,-0.03178688488304615,0.004599018228054046
1769661552302346800,3.6753466796875,0.03149235891588032,-0.0123129536062479,0.0088294954046607
1769661552312334800,3.6853349609375,0.03653020695261657,0.005021627554297447,-0.0026402853757143017
1769661552322323000,3.695322998046875,0.036822540962696076,-0.03315232801735401,0.013374153096973896
1769661552332310800,3.705310791015625,0.034430019802972674,-0.05356266336143017,0.02241261507719755
1769661552342298600,3.715298583984375,0.04158047607950866,-0.07581132004857064,0.02800707408338785
1769661552352286700,3.72528662109375,0.045615503749251364,-0.09757774617671966,0.046318975843489166
1769661552362274800,3.73527490234375,0.05115910935103893,-0.09802315185666084,0.04884498718976974
1769661552372262700,3.7452626953125,0.06989537400305271,-0.0967044704735279,0.03245733149051666
1769661552382250800,3.755250732421875,0.054449456133320924,-0.09051263009607792,0.0314274039208889
1769661552392238800,3.76523876953125,0.012316972194239497,-0.04946691848039627,0.025777415335178373
1769661552402226700,3.775226806640625,0.0009399111986160278,-0.017976970717310903,0.04365823220163584
1769661552412214800,3.78521484375,-0.015802403157204388,-0.014756255105137825,0.04654547807574272
1769661552422203000,3.795202880859375,-0.025186463704705238,-0.011083704072237015,0.03304886764287948
1769661552432190700,3.805190673828125,-0.00002104278802871704,-0.01111526825428009,0.041888884441554544
1769661552442178800,3.8151787109375,0.00895728650279343,-0.019065350475907326,0.052930795198678965
1769661552452167000,3.8251669921875,0.029841596034169197,-0.06409165616035462,0.04617985963374376
1769661552462154800,3.83515478515625,0.062019014604762196,-0.07011164710223675,0.05821341177672147
1769661552472142600,3.845142578125,0.08794599447846412,-0.06687748748660087,0.04585661902874708
1769661552482130700,3.855130615234375,0.09290865838713944,-0.055928807970881456,0.03132745067775249
1769661552492118800,3.865118896484375,0.07523549292199314,-0.061442018434405325,0.005687982508540153
1769661552502106600,3.875106689453125,0.07431443255431949,-0.06386778427660465,-0.02485094814002514
1769661552512094700,3.8850947265625,0.06631751551628112,-0.053475569599866865,-0.03876958337724209
1769661552522082800,3.895082763671875,0.03706453302502632,-0.03883212721943855,-0.04811579613238573
1769661552532071000,3.90507080078125,-0.007396466926857828,-0.055633624416589735,-0.041489655990898607
1769661552542057700,3.9150576171875,-0.005355389553308487,-0.07393383573889732,-0.0392483068048954
1769661552552045800,3.9250458984375,0.012339841613173485,-0.07311082891821861,-0.056090720534324644
1769661552562034000,3.935033935546875,0.010820011634752155,-0.06619885757267474,-0.06784282538741826
1769661552572021800,3.945021728515625,0.04125855064876378,-0.06253273628056048,-0.04323182348310947
1769661552582009900,3.955009765625,0.03843530992157757,-0.0679389792382717,-0.025671324612200258
1769661552591998000,3.964998046875,0.08437288523204624,-0.024214403802156448,-0.005599719703197479
1769661552601985800,3.97498583984375,0.0787146402746439,-0.03918634748458862,-0.0029547581523656843
1769661552611974000,3.984973876953125,-0.03051138505451381,-0.05323474658131599,0.0013356325179338453
1769661552621961700,3.994961669921875,-0.01742277090065181,-0.03893383402824402,-0.03936667248755693
1769661552631949600,4.004949462890625,0.026722002708911893,0.008021393892168998,-0.05429448476731777
1769661552641937700,4.014937744140625,-0.016090645514056087,0.014504910692572592,-0.04023556427657604
1769661552651925800,4.02492578125,-0.025155484044551847,-0.0026209961533546445,-0.023107903864979743
1769661552661913900,4.034913818359375,-0.0012836100697517395,0.005653495717048645,-0.01817892303019762
1769661552671901700,4.044901611328125,0.03226093213558197,-0.022746669337153434,-0.03944441389888525
1769661552681889800,4.054889892578125,0.026379984338209032,-0.0529161821514368,-0.04538929377794265
1769661552691878000,4.0648779296875,0.027266265653446316,-0.07592354825139046,-0.06631050125360488
1769661552701865700,4.07486572265625,0.0626759441435337,-0.05491583153605461,-0.06410597694665193
1769661552711853800,4.084853759765625,0.07007189961373805,-0.030141455763578413,-0.06735708769708872
1769661552721842000,4.094842041015625,-0.056792073736712335,-0.07191489713191986,-0.05483253716677427
1769661552731829800,4.104829833984375,-0.0733895727943629,0.003630465456843376,-0.03294599179029464
1769661552741817600,4.114817626953125,0.004894274847581983,0.04344166684150696,-0.03253419611901045
1769661552751805700,4.1248056640625,0.0030606296796351668,0.006495207238197327,-0.005706102687120437
1769661552761793800,4.134793701171875,-0.016593334339186548,-0.019191607204079628,0.011887421670556068
1769661552771781600,4.14478173828125,-0.019295652100443837,-0.030986089894175527,0.010667524486780166
1769661552781769700,4.154769775390625,0.008239420557022094,-0.06057984864711761,-0.011328911004960536
1769661552791757800,4.1647578125,-0.0038677813440561293,-0.07598492304980754,-0.025763971331715582
1769661552801746000,4.174745849609375,0.016498203401640057,-0.040939328631758684,-0.026384149056673047
1769661552811733800,4.184733642578125,0.05593699127733707,-0.0103261637032032,-0.024907354502379894
1769661552821721900,4.194721923828125,0.030471199174597858,0.014511924955248832,-0.009377776937186718
1769661552831710000,4.2047099609375,0.00391403163857758,0.024871406406164167,-0.003803776197135448
1769661552841697800,4.21469775390625,-0.00658171647787094,0.034085809475183484,0.011058861891925334
1769661552851686000,4.224685791015625,-0.01587444548010826,0.023545710760354995,-0.006802958013117313
1769661552861673700,4.234673828125,0.017690554991364477,0.0033060558080673214,-0.007501753932237625
1769661552871661300,4.244661376953125,0.01719897208213806,-0.039861470267176624,-0.012919687327742575
1769661552881649200,4.254649169921875,0.031392405672743914,-0.07518120545148849,-0.012381634928286075
1769661552891637200,4.26463720703125,0.06639649903662502,-0.06361760890781878,-0.024391806195676324
1769661552901625300,4.274625244140625,0.049853945036605,-0.05097556947767734,-0.015970014809072015
1769661552911613200,4.28461328125,0.02078442935347557,-0.05237783749103546,-0.022337504014372823
1769661552921601300,4.294601318359375,0.019337153154611587,-0.019673837763071057,-0.03717997609823942
1769661552931589400,4.30458935546875,0.021401757534220814,-0.016936521753668783,-0.04268821812570095
1769661552941577500,4.314577392578125,0.00775251382291317,0.010342530316114425,-0.030693536688387393
1769661552951565300,4.3245654296875,0.016442673822119832,0.04373743491768837,-0.03916939634978771
1769661552961553400,4.334553466796875,0.07946041714064776,0.1254039107352495,-0.005598842920362949
1769661552971541500,4.34454150390625,-0.036644188721105454,-0.0004717091649770736,-0.03870177883803844
1769661552981529300,4.354529296875,-0.06673069942705333,-0.06948796224594116,-0.07307108142971992
1769661552991517200,4.36451708984375,0.011722659562900662,-0.06696925742328166,-0.0966045172303915
1769661553001505300,4.37450537109375,0.02868080862648785,-0.04238602030873299,-0.07981120333969592
1769661553011493000,4.3844931640625,0.033145898276567456,-0.027474866902828216,-0.06629267333596944
1769661553021481200,4.394481201171875,0.016004209339618682,-0.05387187544107437,-0.05149462491571903
1769661553031469300,4.40446923828125,-0.005114566534757614,-0.07313947049081325,-0.036567981679737564
1769661553041457400,4.41445751953125,0.008344049975275993,-0.13011281907856465,-0.043832419724762435
1769661553051445200,4.4244453125,0.021991467055678365,-0.12735387575924395,-0.04973959794193506
1769661553061433300,4.434433349609375,0.0032838439762592313,-0.09778174431622028,-0.03691460316032171
1769661553071421400,4.44442138671875,-0.01011222869157791,-0.062386605808138845,-0.013486089038848877
1769661553081409300,4.4544091796875,-0.01940671125948429,-0.03704699736833572,-0.002378127308189869
1769661553091397400,4.4643974609375,-0.030214520999789236,-0.03376490695774555,-0.014858546435832976
1769661553101385500,4.474385498046875,-0.02711414383165538,-0.026765257328748703,-0.009732289463281632
1769661553111373300,4.484373291015625,-0.0007767565261572599,-0.009994155269861221,-0.006816694277524947
1769661553121361200,4.494361083984375,0.021339725148677824,-0.00590074847638607,-0.0008417115211486816
1769661553131349200,4.504349365234375,0.026307649754360316,-0.005263619616627693,0.031072891394793984
1769661553141337300,4.51433740234375,0.05297404981851577,-0.03274783886969089,0.04725304182320833
1769661553151325200,4.5243251953125,0.060358241785690186,-0.04281915102899074,0.023751462465524672
1769661553161313300,4.534313232421875,0.05282390075810253,-0.06479308242797852,-0.0051990299478173255
1769661553171301400,4.54430126953125,0.07376264389045536,-0.06088380002975464,-0.06561959637999534
1769661553181289500,4.55428955078125,0.0839438461650163,0.02334112809896469,-0.04365764767974615
1769661553191276300,4.5642763671875,0.022041224481537936,-0.09984919824004172,-0.06454495288580656
1769661553201264400,4.574264404296875,-0.04207673516385257,-0.13301497026085854,-0.0665644760146737
1769661553211252200,4.584252197265625,0.018255787658691406,-0.09303776465952396,-0.05677373436242342
1769661553221240300,4.594240234375,0.02490004797875881,-0.07903904992341995,-0.024499358223378658
1769661553231228400,4.604228515625,0.03231587719321251,-0.048777767172455785,0.01213613573461771
1769661553241216500,4.614216552734375,0.024484964371845126,-0.04050619791150093,0.03188479229956865
1769661553251204400,4.624204345703125,0.019857377636432645,-0.03318447672128677,0.06080635087937116
1769661553261192400,4.6341923828125,0.03703998310565948,-0.05118365927040577,0.054683191823959344
1769661553271180300,4.64418017578125,0.06255436359047889,-0.06737023943960667,0.022952713303267955
1769661553281168100,4.654168212890625,0.05602350051701069,-0.0950572877883911,0.028600363801419733
1769661553291156200,4.66415625,0.055012277647852895,-0.08940846824645995,0.00620616116374731
1769661553301144300,4.674144287109375,0.051426820376515386,-0.0939203927129507,-0.008569090902805328
1769661553311132400,4.68413232421875,0.06748707075230777,-0.09284779504537582,-0.01856236938983202
1769661553321120300,4.694120361328125,0.04772263209633529,-0.06855974148511886,-0.03461918569952249
1769661553331108400,4.7041083984375,0.03406827381849289,-0.07081307336986065,-0.029843641860783098
1769661553341096400,4.714096435546875,0.021309403075650334,-0.06692834089100361,-0.021292671136558056
1769661553351084300,4.724084228515625,0.0003163724727928638,-0.07806582097709179,-0.001946165631711483
1769661553361072400,4.734072265625,-0.006184753049537539,-0.06845628111064433,-0.0009673837274312972
1769661553371060500,4.744060546875,0.008500701841711998,-0.06778057380616664,0.01664776794016361
1769661553381048300,4.75404833984375,0.01431201846897602,-0.05640694687664508,0.008096504954993724
1769661553391036200,4.7640361328125,0.04405716839134693,-0.043782443103194235,-0.0010167758271098137
1769661553401024300,4.774024169921875,0.04474982683062553,-0.05125029476583004,-0.02173340064138174
1769661553411012400,4.784012451171875,0.03364164590425789,-0.07611644047498703,-0.022842530927062035
1769661553421000200,4.794000244140625,0.07781338058598339,-0.039466333469748496,0.009208265589177608
1769661553430988300,4.80398828125,0.06204466050267219,-0.04419920721054077,-0.001739244882762432
1769661553440976400,4.813976318359375,-0.0036819033831357955,-0.03157061178386211,-0.013966858293116093
1769661553450964200,4.823964111328125,-0.04729483513832092,-0.014259411498904227,-0.013718728750944136
1769661553460952300,4.833952392578125,-0.032619170988723634,-0.01196399403810501,-0.012822656694054602
1769661553470940400,4.8439404296875,-0.028225904465839266,0.0016050971090793608,-0.005623685100674629
1769661553480928500,4.853928466796875,-0.034142508098483085,-0.0017021277427673339,0.019480945539474485
1769661553490916400,4.863916259765625,-0.032522797942161556,-0.014088146585226058,0.0240291103631258
1769661553500904400,4.873904541015625,-0.014064692644402384,-0.050588031464815136,0.031799744364619256
1769661553510892300,4.883892333984375,0.024639497346431016,-0.04925239894688129,0.03070142773389816
1769661553520880000,4.893880126953125,0.07046477138884365,-0.037516368445754046,0.032443302965164185
1769661553530867500,4.903867431640625,0.06470489268787205,-0.04436111977398395,0.026249124500155447
1769661553540855300,4.913855224609375,0.06855155817866325,-0.0518880081474781,0.03461304821968078
1769661553550843100,4.923843017578125,0.05324819058477878,-0.08944763121306895,0.012061316932737827
1769661553560831200,4.933831298828125,0.0825005885541439,-0.0772416451126337,-0.01847001493126154
1769661553570819300,4.9438193359375,0.09828501766324042,-0.07024784070253372,-0.029362872606515884
1769661553580807200,4.95380712890625,0.03499291438274085,-0.05314239212274551,-0.03136544460058212
1769661553590795300,4.963795166015625,-0.01714578059017658,-0.03788578628003597,-0.02570230427235365
1769661553600783400,4.973783447265625,-0.035945758128166194,-0.0033685996502637863,-0.03345832522660493
1769661553610771500,4.983771484375,-0.0039437691897153855,0.03286240516006946,-0.028363632436096665
1769661553620759300,4.99375927734375,0.011837225853279232,0.026353753918409346,-0.02947451628744602
1769661553630747400,5.003747314453125,-0.009456395131349563,0.01160802020728588,0.0010784428864717482
1769661553640735500,5.013735595703125,0.0004383183520287275,0.012332242828607558,0.028201719872653484
1769661553650723300,5.023723388671875,0.04718487195782363,-0.009570961421728134,0.020139409448206424
1769661553660711200,5.033711181640625,0.04702135195918381,-0.06932604968249798,0.03509907817095518
1769661553670699300,5.04369921875,0.04337451988942921,-0.07716974892020224,0.048122810395061964
1769661553680687400,5.053687255859375,0.05118541283607483,-0.0815507404834032,0.04549041606485844
1769661553690675200,5.06367529296875,0.059846858197450635,-0.06134791041016578,0.02573532975912094
1769661553700663300,5.073663330078125,0.050430868141725656,-0.05950023671686649,-0.006273381181061267
1769661553710651400,5.0836513671875,0.030019290688633918,-0.047206572332978244,-0.022111001782119274
1769661553720639200,5.09363916015625,-0.015724807876348494,-0.026290625554323196,-0.03429740639925003
1769661553730627300,5.10362744140625,-0.030032661626860496,-0.011574117937684059,-0.04312544049918651
1769661553740615400,5.113615478515625,-0.04312134884595871,0.020631284618377686,-0.03806786484867334
1769661553750603300,5.123603271484375,-0.0364906055945903,0.010092354947328568,-0.03477554530501365
1769661553760591400,5.13359130859375,-0.024275705535337328,-0.001631400594115257,-0.03198942171782255
1769661553770579500,5.143579345703125,-0.01860584320537746,-0.01827741496860981,-0.01404138483405113
1769661553780567300,5.1535673828125,-0.020772665850445626,-0.026561259189248083,0.0014539982005953788
1769661553790555100,5.16355517578125,0.012481295910477638,-0.03839782745540142,0.018592180006206036
1769661553800543200,5.173543212890625,0.012571823738142847,-0.02361468434333801,0.03309475261121988
1769661553810531300,5.18353125,0.012149871999025345,-0.032225276300311086,0.04673953934311866
1769661553820519200,5.193519287109375,0.0033341859240084886,-0.054801849767565726,0.03978986633569002
1769661553830507300,5.20350732421875,0.02857091851122677,-0.051314592173695564,0.013810790948569773
1769661553840495400,5.213495361328125,0.05824709485061466,-0.06065525197088718,-0.004395312349498272
1769661553850483500,5.2234833984375,0.05512918202579021,-0.09868833776712417,-0.00601969868093729
1769661553860470300,5.23347021484375,0.05147182856202125,-0.08307400452792645,-0.007612813091278076
1769661553870458600,5.243458740234375,0.018541691927984355,-0.03900689926445484,0.029053368265926836
1769661553880446500,5.253446533203125,0.02175305518992245,-0.054794250982999795,0.02536591192483902
1769661553890434600,5.2634345703125,-0.019689619854092597,-0.06215045896470547,0.023864567451179024
1769661553900422700,5.273422607421875,-0.009893544439598917,-0.054341831040382385,0.012304478038847445
1769661553910410800,5.28341064453125,-0.020221461708471177,-0.03922375688552856,0.005052607214450836
1769661553920398600,5.293398681640625,0.003965981021523475,-0.033223055166006085,0.0051221653193235395
1769661553930386400,5.303386474609375,0.007880012660101056,-0.03512742748260498,-0.0024909400328993795
1769661553940374500,5.31337451171875,0.004261164575815201,-0.054557519617676735,0.0009767360776662827
1769661553950362400,5.3233623046875,0.018853095964714885,-0.04725158051848411,0.002594400407373905
1769661553960350500,5.3333505859375,0.030519714491441845,-0.05848784480392932,-0.009461948089301585
1769661553970338600,5.343338623046875,0.018839725026488303,-0.06129647248387336,-0.005009352594614029
1769661553980326400,5.353326416015625,0.006952303355932235,-0.0719347708761692,-0.0077644965216517444
1769661553990314500,5.363314453125,0.017932547053694722,-0.08236614851951599,-0.014189268872141838
1769661554000302600,5.373302490234375,0.026999723671749232,-0.06655015522837639,-0.01597235289663076
1769661554010290700,5.383290771484375,0.029213308067992327,-0.04647182831764221,-0.024182547359168527
1769661554020278500,5.393278564453125,0.000481061515212059,-0.04104804970324039,-0.0110842885941267
1769661554030266600,5.4032666015625,-0.007537994289398193,-0.06381225469708442,-0.02649608499854803
1769661554040254700,5.413254638671875,-0.006521437657997012,-0.06327683264613151,-0.03053600803911686
1769661554050242300,5.4232421875,0.019123218142986297,-0.04689969834089279,-0.023640695567429065
1769661554060230400,5.43323046875,-0.003081599402427673,-0.03648936348557472,-0.023492519268393516
1769661554070218500,5.443218505859375,-0.014199717200919984,-0.03790332193672657,-0.015068974316120146
1769661554080206600,5.45320654296875,-0.017954758885502815,-0.029778467670083044,-0.002641454419493675
1769661554090194400,5.4631943359375,-0.015469298745319247,-0.03470423363447189,0.0062730889201164245
1769661554100182500,5.4731826171875,0.004139072566106915,-0.023315993657708166,0.019118541967868805
1769661554110170600,5.483170654296875,-0.01414601425230503,-0.005195230555534363,0.02188362276703119
1769661554120158500,5.493158447265625,-0.02155950537919998,0.00047813890576362607,0.00625759909003973
1769661554130146600,5.503146484375,-0.015081833797693251,-0.002032382610440254,-0.004647825805842876
1769661554140134700,5.513134765625,0.005734159737825394,-0.012689385703206062,-0.010222411067783831
1769661554150122800,5.523122802734375,0.02383212648630142,-0.0263122528642416,-0.019020050029456614
1769661554160110600,5.533110595703125,0.026495719672366976,-0.053232993015646934,-0.008754092080891132
1769661554170098400,5.543098388671875,0.042784664237499236,-0.07120411851406097,-0.008653262054920195
1769661554180086500,5.55308642578125,0.03501045003943145,-0.07217910102605819,-0.027139935860037802
1769661554190074400,5.563074462890625,0.04107318414449691,-0.06897124489545822,-0.026804712556302547
1769661554200062500,5.5730625,0.05534538205973804,-0.07401800689101219,-0.02613864986300468
1769661554210049500,5.583049560546875,0.05028232651650905,-0.045534839728474615,-0.007222936990857124
1769661554220037400,5.593037353515625,0.02622808171212673,-0.028085107755661008,0.007908873428404331
1769661554230025500,5.603025390625,-0.013531024159118532,-0.011014145967364311,0.012924363502860069
1769661554240013600,5.613013671875,0.00967975555844605,-0.057222939434647555,-0.00659048430621624
1769661554250001400,5.62300146484375,0.00600369739420712,-0.0037169746965169904,-0.00528553918749094
1769661554259989500,5.632989501953125,-0.036840661141276355,0.021454291439056396,0.03242372148185968
1769661554269977600,5.6429775390625,-0.03567110590524971,-0.02330196513235569,0.002333411383628845
1769661554279965700,5.652965576171875,-0.020362404549121856,-0.03945639659762382,0.0005950432837009429
1769661554289953500,5.66295361328125,0.004471592456102371,-0.05621756178438663,-0.01152004966288805
1769661554299941600,5.672941650390625,0.022231121030449864,-0.04225567192733288,-0.0010363573104143142
1769661554309929700,5.6829296875,0.008636237854883074,-0.03529050908982754,-0.00493131892234087
1769661554319917600,5.69291748046875,-0.01245499242544174,-0.04392389740049839,-0.020635960793495178
1769661554329905400,5.702905517578125,-0.005907616608589887,-0.034709494331479074,-0.01799158376455307
1769661554339893500,5.7128935546875,0.008995791882276534,-0.02693184606730938,-0.009196575151383876
1769661554349881300,5.72288134765625,0.039843423153832554,-0.01406710379719734,0.011484101566672324
1769661554359869400,5.732869384765625,0.03649221302978694,-0.0229921685308218,0.0040413843452930445
1769661554369857500,5.742857421875,0.027616832656785845,-0.059167059239745134,-0.00047784664481878277
1769661554379845600,5.752845703125,0.010338438662886619,-0.06878770502209663,-0.004329261375963687
1769661554389833500,5.76283349609375,0.042909678856655954,-0.06988426808714866,-0.004635258585214614
1769661554399821600,5.772821533203125,0.018522987227514384,-0.08596797240376472,-0.005380231733620166
1769661554409809700,5.7828095703125,-0.015562310791015624,-0.07782265987098216,-0.01390022279769182
1769661554419797500,5.792797607421875,-0.01001636710166931,-0.031711481559276576,0.006354629723727702
1769661554429785600,5.80278564453125,-0.009087488753721118,-0.015468202766776084,0.010254852032661438
1769661554439773400,5.8127734375,-0.008742036316916346,-0.0252098445802927,0.018419453787803648
1769661554449761500,5.822761474609375,0.011246201157569885,-0.014867314264178276,0.03850537948310375
1769661554459749400,5.832749267578125,0.03342055049948394,0.007640285620093345,0.05830985788851976
1769661554469737500,5.842737548828125,0.030396891829371452,-0.009614800563454628,0.04982084648460149
1769661554479725600,5.8527255859375,0.060899582120776174,-0.04533844037353992,0.022806875091791152
1769661554489713400,5.86271337890625,0.0632551322709769,-0.06441372772157192,0.009533259759843348
1769661554499701500,5.872701416015625,0.06742635354101657,-0.07250409519672393,-0.0037573067069053647
1769661554509689600,5.882689697265625,0.07708616228997707,-0.0654687897324562,0.003177460992336273
1769661554519677700,5.892677734375,0.053446343505382535,-0.06466507213413715,0.022917349728941917
1769661554529665500,5.90266552734375,0.031765184507891536,-0.05875614035129547,0.018553893822431562
1769661554539653600,5.912653564453125,0.006560089167952537,-0.03817512461543083,0.014185469479858874
1769661554549640400,5.922640380859375,-0.024898878934979437,-0.03275426861047744,-0.011559212629497051
1769661554559628500,5.932628662109375,-0.029180501776933668,-0.03884615574479103,-0.03434767528176307
1769661554569616600,5.94261669921875,-0.021358941305801273,-0.02818447647690773,-0.044321956807374954
1769661554579604700,5.952604736328125,-0.002792188001796603,-0.021096564042568204,-0.061789224436879155
1769661554589592600,5.962592529296875,-0.008155249404907226,-0.009207973328232765,-0.03296995718777179
1769661554599580400,5.972580322265625,0.005826514196395874,-0.01269990709722042,-0.022068623945116994
1769661554609568500,5.982568603515625,-0.0005400982260704041,0.000682137045264244,-0.0384530647739768
1769661554619556400,5.992556396484375,0.008898176726698875,0.012166823133826256,-0.034417817908525467
1769661554629544400,6.00254443359375,0.02765723773241043,0.021945874348282813,-0.04189209931194782
1769661554639532500,6.012532470703125,0.028186814564466475,-0.0028179800301790237,-0.025527239966392515
1769661554649520600,6.022520751953125,0.01015730994231999,-0.03529343169927597,-0.009322539618611335
1769661554659508500,6.032508544921875,0.003621697628498077,-0.07124678861200809,-0.011541092450916767
1769661554669496600,6.04249658203125,0.004120367865636945,-0.06933657107651234,-0.022670681491494177
1769661554679484700,6.052484619140625,0.009270078779011964,-0.04748480475246906,-0.03666998074948787
1769661554689472500,6.062472412109375,0.003717047761753201,-0.03712181617021561,-0.005361234772205352
1769661554699460600,6.072460693359375,0.014369886136054992,-0.02783493238687515,0.005055822084844112
1769661554709448400,6.082448486328125,0.025970892080664634,-0.02947626985311508,-0.0015644728377461432
1769661554719436300,6.092436279296875,0.05753149392716586,-0.03154021664559841,-0.0132236387103796
1769661554729424400,6.10242431640625,0.06972418215461075,-0.009693711018562316,-0.021563597032427786
1769661554739412500,6.11241259765625,0.06085340489149093,-0.02213642848432064,-0.043975919848680496
1769661554749400600,6.122400634765625,0.04685242513306439,-0.028645664247870444,-0.030453298191726205
1769661554759388400,6.132388427734375,0.0355839390784502,-0.04074526736438274,-0.03161883483976125
1769661554769376500,6.14237646484375,0.00513378269188106,-0.044078795701265334,-0.026282442247867584
1769661554779364600,6.152364501953125,0.0055406829923391335,-0.05400689999759197,-0.015180910257995128
1769661554789352400,6.1623525390625,0.0019633359622210265,-0.0685971508860588,-0.022658991053700447
1769661554799340500,6.172340576171875,0.005859758878871798,-0.04692249469459057,-0.036380642414093015
1769661554809328600,6.18232861328125,0.007239961190894245,-0.05479249741733074,-0.03689940559118986
1769661554819316700,6.192316650390625,0.009041384589672088,-0.06364625048041343,-0.004346504771709442
1769661554829304600,6.2023046875,-0.00839088479168713,-0.0513823967128992,0.01234393326640129
1769661554839292400,6.21229248046875,-0.0021879384983330965,-0.03406944286227226,0.021357553066313265
1769661554849280500,6.222280517578125,-0.0019236615389585494,-0.0418757326990366,0.01443009189069271
1769661554859268400,6.232268310546875,-0.008947203500196337,-0.05264671756029129,0.02116787571310997
1769661554869256200,6.242256103515625,-0.004891279172897339,-0.0511082559466362,0.024537059885263442
1769661554879244000,6.252244140625,0.022463687677308917,-0.06349836644232272,0.008261047866940497
1769661554889232100,6.262232177734375,0.053749125844240186,-0.06199380709826946,0.009671206925809382
1769661554899219000,6.272218994140625,0.04703823002874851,-0.05688859291374683,-0.005134148018062114
1769661554909207000,6.28220703125,0.014558029119297862,-0.05774491748213768,-0.0012380173623561857
1769661554919195100,6.292195068359375,0.0051543140232563015,-0.055446577411890026,0.008314239358901977
1769661554929183200,6.302183349609375,0.008497852297499775,-0.05593991388678551,0.00699000501781702
1769661554939171000,6.312171142578125,0.0017688363034278154,-0.05279343255460262,0.008661153100430965
1769661554949159200,6.3221591796875,-0.011055062499642372,-0.049307928526401514,0.02126753669530153
1769661554959147300,6.332147216796875,-0.021528525719046593,-0.06645546268224715,0.031121698972582816
1769661554969135000,6.342135009765625,-0.003592471534013748,-0.06458557715713978,0.02518587918281555
1769661554979123200,6.352123291015625,0.015164835906028747,-0.04170972848236561,0.02319178275614977
1769661554989111300,6.362111328125,0.0205962863702327,-0.056848260903358455,0.004232230742275715
1769661554999099100,6.37209912109375,0.023451018214225766,-0.06677227354645729,0.008671966755390167
1769661555009087000,6.3820869140625,0.028822116793319582,-0.05513970341980457,-0.0012464929297566413
1769661555019075000,6.392074951171875,0.04317227531559765,-0.060602645000815386,0.006779284876585006
1769661555029063200,6.402063232421875,0.058346463571861386,-0.05373626636266708,-0.0005181786552071571
1769661555039051000,6.412051025390625,0.04949088387787342,-0.05975216565132141,-0.017341010901331902
1769661555049039000,6.4220390625,0.03626666064560413,-0.058417702177166936,-0.00994359412640333
1769661555059027200,6.432027099609375,0.036517420536279675,-0.028398996010422704,-0.003911620485782623
1769661555069015300,6.442015380859375,0.012827405934408306,-0.027304771032929418,-0.005419979222118854
1769661555079003100,6.452003173828125,-0.010861001232266425,-0.03366846084594726,-0.02393967851400375
1769661555088991200,6.4619912109375,-0.00893675517141819,-0.030323826593160626,-0.03043050183802843
1769661555098979300,6.471979248046875,-0.009635258829593658,-0.010959785431623459,-0.03199029850065708
1769661555108967200,6.48196728515625,-0.019485621714591977,-0.016520342168211934,-0.01536211204379797
1769661555118955000,6.491955078125,-0.003496683009341359,-0.022005495581030845,-0.023521453101933
1769661555128943000,6.501943115234375,0.008137786813452839,-0.013819851037859916,-0.022826456575095654
1769661555138931000,6.511930908203125,-0.00968779273442924,-0.00023848493099212645,-0.013550386446714401
1769661555148919000,6.5219189453125,-0.028173370561003684,0.0031061493217945098,-0.0002066284880042076
1769661555158907100,6.5319072265625,-0.016681085687875748,-0.0024620061993598937,-0.0051508068919181825
1769661555168895200,6.541895263671875,-0.018305472019314765,-0.02352232988476753,0.004569499872624874
1769661555178883000,6.551883056640625,0.0014413579147309064,-0.05057809459269046,-0.009033201283216476
1769661555188871200,6.56187109375,0.015049100571870803,-0.05110942499041557,-0.018852876769006252
1769661555198859300,6.571859375,0.039406127715110775,-0.05902618946433067,-0.01760667610019445
1769661555208847000,6.58184716796875,0.03888772986419499,-0.03884440217912197,-0.039131694687902924
1769661555218835200,6.591835205078125,0.07225918052494526,-0.008037175983190536,-0.02892155857980251
1769661555228823300,6.6018232421875,0.07936053696274757,-0.011737784066796302,-0.04246639206856489
1769661555238811100,6.61181103515625,0.04014905503690243,-0.024281039297580718,-0.0258045956030488
1769661555248798200,6.621798095703125,0.003967150065302848,-0.041056233009696005,-0.03209960409402847
1769661555258786300,6.631786376953125,0.006177227330207824,-0.024681436792016027,-0.04778934065699577
1769661555268774100,6.641774169921875,-0.010804887130856514,-0.03437047163546085,-0.05457797788381576
1769661555278762000,6.651761962890625,-0.026170214045047758,-0.02101180836856365,-0.04895429278314113
1769661555288750000,6.66175,-0.019706497923657296,-0.0068026657521724695,-0.03593669803887605
1769661555298738200,6.67173828125,0.00850888514816761,0.00154021517932415,-0.037029461711645124
1769661555308726000,6.68172607421875,0.03297353738434613,-0.008309563183784485,-0.03310439722239971
1769661555318714000,6.691714111328125,0.042214170873165126,-0.0181079036206007,-0.007356500242650508
1769661555328702200,6.7017021484375,0.024351766446232794,-0.031081951484084127,0.013498363998532294
1769661555338690000,6.71168994140625,0.04765307399146258,-0.038572599500417706,0.03170300599187612
1769661555348678100,6.72167822265625,0.057256257182359695,-0.047781741872429846,0.023005904795229435
1769661555358666200,6.731666259765625,0.03680968148112297,-0.06555471445024014,0.045351007594168186
1769661555368654300,6.741654296875,0.036435514406487346,-0.05637830530405044,0.050043841585516925
1769661555378642200,6.75164208984375,0.04225749855823815,-0.03920096053183079,0.0585477582976222
1769661555388630300,6.76163037109375,0.04929390000104904,-0.019092823004722596,0.05543313340842723
1769661555398618000,6.7716181640625,0.04311959528028965,-0.007642623707652092,0.030622517278790472
1769661555408606000,6.78160595703125,0.057986325022578236,-0.017478373545408248,0.03417144193202257
1769661555418594000,6.791593994140625,0.03508132331855595,0.004803016367554664,0.006387362949550152
1769661555428582100,6.80158203125,0.010949848559498786,0.02313946804702282,0.02699877382367849
1769661555438570200,6.8115703125,0.023791794475913047,-0.022101357170939445,-0.011025251883268356
1769661555448558000,6.82155810546875,0.028341128343343732,-0.09581716624498367,-0.07179273205697537
1769661555458546200,6.831546142578125,0.028378537744283675,-0.11101181276738643,-0.060547115421295164
1769661555468534300,6.8415341796875,0.053494785756990314,-0.0997018987238407,-0.06656067662239075
1769661555478522000,6.851522216796875,0.023658523485064507,-0.05915829141139984,-0.056575581441819664
1769661555488510200,6.86151025390625,0.012015943421050905,-0.04323883774578571,-0.04727408461123705
1769661555498498300,6.871498291015625,0.019416063609719276,-0.04144552458822727,-0.019330723413825034
1769661555508486100,6.881486083984375,0.04402845375351608,-0.03942483241558075,-0.012175590962171554
1769661555518474000,6.891473876953125,0.05441431175470352,-0.055744683575630186,0.006583470043540001
1769661555528462000,6.901462158203125,0.05952252161391079,-0.08162906641662121,0.02134644715040922
1769661555538450200,6.9114501953125,0.05667524242401123,-0.0836339764982462,0.012187573660910129
1769661555548438000,6.92143798828125,0.05578443106412887,-0.06305646789371967,0.020093524479866027
1769661555558426000,6.931426025390625,0.0154332045186311,-0.05162263520956039,0.015930851842463015
1769661555568414200,6.941414306640625,-0.03542144199311733,-0.028493104034662244,-0.007385141815245151
1769661555578402000,6.951402099609375,-0.06057159227542579,-0.029792496195435524,-0.02418108605444431
1769661555588389000,6.96138916015625,-0.0671854574572295,-0.004310264414548874,-0.047156011189520355
1769661555598377200,6.971377197265625,-0.08188676750473678,0.0033148236364126202,-0.06633797378242015
1769661555608365000,6.981364990234375,-0.0899251855969429,0.0007400047123432159,-0.056146250113844866
1769661555618353200,6.991353271484375,-0.07654716004244982,0.009977788656949996,-0.051471244040131564
1769661555628341200,7.00134130859375,-0.05939611875526607,-0.08286240760385989,-0.07252864511609076
1769661555638329300,7.011329345703125,-0.033374957792088385,-0.08412380584180354,-0.02814385220557451
1769661555648317200,7.021317138671875,0.01439100198931992,-0.08018471282720566,-0.021497546058893202
1769661555658305300,7.03130517578125,0.04795417582988739,-0.05010638542771339,0.006460720446705818
1769661555668293000,7.041293212890625,0.030123335584998127,-0.01691664800941944,0.0023918635725975034
1769661555678281000,7.051281005859375,0.036899697852134705,-0.0007218845337629318,-0.017056933262944222
1769661555688269000,7.06126904296875,0.05197919356226921,-0.005180032986402511,-0.020953648440539836
1769661555698257200,7.071257080078125,0.04011924442052841,-0.0234539408236742,-0.022027122890949248
1769661555708245000,7.081244873046875,0.0456319434273988,-0.0447685315310955,-0.010766600947082042
1769661555718233000,7.091233154296875,0.03820376618802547,-0.05551613551676273,-0.024240122765302657
1769661555728221200,7.10122119140625,0.022034794740751384,-0.04706862516701221,-0.017595277923345566
1769661555738209300,7.111209228515625,0.007020619351789355,-0.025631284862756728,-0.020754910998046397
1769661555748197000,7.121197021484375,-0.013672478456422686,-0.019473931276798247,-0.027977263467013833
1769661555758185200,7.131185302734375,-0.01030219830572605,-0.031732524347305294,-0.044753333961963654
1769661555768173300,7.14117333984375,-0.012592355069518089,-0.031983868759870526,-0.03977846815884113
1769661555778161200,7.1511611328125,0.002627425894141197,-0.03534311605989933,-0.03665624448508024
1769661555788149000,7.16114892578125,-0.009506590948626398,-0.030023382341861724,-0.011829554003477096
1769661555798137000,7.17113720703125,0.0016296470284461973,-0.03652209671139717,-0.017369067952036858
1769661555808125200,7.181125244140625,0.008543956461548805,-0.04530220001637936,-0.013685995525121689
1769661555818113000,7.191113037109375,0.03247837427854538,-0.05263210451304912,0.0020899580165743828
1769661555828101000,7.20110107421875,0.03565810029320419,-0.04441489578783512,0.016870178519189358
1769661555838089200,7.211089111328125,0.05827624787986278,-0.04759761747717857,0.03067483198791742
1769661555848077000,7.2210771484375,0.0662660775899887,-0.026551322317123413,0.03049626055061817
1769661555858065200,7.231065185546875,0.062461351544782516,-0.02343874325454235,0.03564589839875698
1769661555868053200,7.24105322265625,0.027775311154127118,-0.02122574338018894,0.025781799249351024
1769661555878040600,7.25104052734375,0.02587378838174045,-0.028157588469982144,0.004633505019545555
1769661555888028700,7.261028564453125,0.010247910835221408,-0.046909050691127774,0.003428513143956661
1769661555898016800,7.271016845703125,0.009974939112737774,-0.048611762955784794,0.001189209784567356
1769661555908004900,7.2810048828125,0.017561448718979952,-0.03926408889591693,-0.016041034218668936
1769661555917992700,7.29099267578125,0.0441723922688514,-0.04112754468023777,-0.020275310787558554
1769661555927980500,7.30098046875,0.04412972217090427,-0.035437224084138866,-0.030137948632240293
1769661555937968600,7.31096875,0.056404097332432866,-0.03719955758154392,-0.04220131139159202
1769661555947956500,7.32095654296875,0.06917056685984134,-0.029886604219675064,-0.03799158474206924
1769661555957943600,7.330943603515625,0.07116144841611385,-0.042865328258275985,-0.05048574013411999
1769661555967931600,7.340931640625,0.04000993882715702,-0.02781622768640518,-0.025159575697779653
1769661555977919500,7.35091943359375,0.01764912700243294,-0.029949732583761213,-0.030963293540477752
1769661555987907600,7.360907470703125,-0.005357654575631022,-0.02908230209946632,-0.022848376145958898
1769661555997895700,7.370895751953125,-0.012695157856866717,-0.014656301862001418,-0.02715133403688669
1769661556007883500,7.380883544921875,-0.0014472031336277722,-0.015761048233509063,-0.02285568266957998
1769661556017871600,7.39087158203125,0.008355813478305935,-0.02119476372003555,-0.033013211807608606
1769661556027859700,7.400859619140625,0.018199673557281495,-0.03305588190555572,-0.02825461910367012
1769661556037847800,7.410847900390625,0.03808459678776562,-0.05241290880441665,-0.0357189636349678
1769661556047835600,7.420835693359375,0.04650163893401622,-0.06156535255312919,-0.022754852643609047
1769661556057823700,7.43082373046875,0.060544777333736415,-0.06294774682223797,-0.016840660163760183
1769661556067811800,7.440811767578125,0.045698505857586856,-0.04414250858724117,-0.013992577256262302
1769661556077799700,7.450799560546875,0.003687821667268872,-0.07481003405153751,-0.023177461969852445
1769661556087787500,7.46078759765625,-0.019809373776242135,-0.07625321859717368,-0.006868716725707054
1769661556097775600,7.470775634765625,0.019306100429221987,-0.03882394391298294,-0.016111761367321013
1769661556107763700,7.480763671875,0.032788755401968954,-0.029521278038620948,-0.03757598967850208
1769661556117751600,7.49075146484375,0.009984218397736548,-0.05837327851355076,-0.04144230971783399
1769661556127739600,7.50073974609375,-0.0016460136413574218,-0.058681321549415584,-0.032384266254305835
1769661556137727700,7.510727783203125,0.02502162853181362,-0.03523088785707951,-0.012944237247109412
1769661556147715600,7.520715576171875,0.03949972428269684,-0.028531097957491872,-0.030170097336173055
1769661556157703700,7.53070361328125,0.008190905240178108,-0.026424481067061422,-0.01127338142544031
1769661556167691800,7.54069189453125,-0.00499525100402534,0.0016740706920623778,0.014933657498657703
1769661556177679600,7.5506796875,0.0034832390058785676,0.00558919830918312,0.012473989386856555
1769661556187667700,7.560667724609375,0.01545015565343201,-0.006148001235723495,0.021910510773956775
1769661556197655600,7.570655517578125,0.033099647982046,-0.04263268854618072,0.00334141938239336
1769661556207643600,7.5806435546875,0.044503085527941584,-0.06758826610445975,-0.011235095241665839
1769661556217631500,7.590631591796875,0.05799801546037197,-0.0654600219041109,0.0028398996010422705
1769661556227619600,7.60061962890625,0.05297814147174358,-0.07925006232559681,-0.016925123576819894
1769661556237607700,7.610607666015625,0.05141103828549385,-0.08982815496325493,-0.037491234004497526
1769661556247595500,7.620595458984375,0.03727269588299095,-0.08503156833648681,-0.03576864799559116
1769661556257583600,7.63058349609375,0.029295652589201925,-0.0698170480698347,-0.04184913695305586
1769661556267571700,7.64057177734375,0.0027846622824668882,-0.039269934114813804,-0.057167702116072174
1769661556277559800,7.650559814453125,-0.0431172571927309,-0.02326923190653324,-0.06156506029218435
1769661556287547600,7.660547607421875,-0.04627418685369193,0.006270750832557678,-0.05854015951305627
1769661556297535700,7.67053564453125,-0.05895202824957668,0.009800094002485275,-0.06282850435674191
1769661556307522600,7.6805224609375,-0.03526486319191754,0.003042436435818672,-0.031678456072509284
1769661556317510700,7.6905107421875,-0.025934651723504065,0.00807400086224079,-0.011617080296576023
1769661556327498800,7.700498779296875,-0.009645853288844227,-0.006193593943119049,0.004459025235474109
1769661556337486800,7.71048681640625,0.025193477967381476,-0.014828151297569274,-0.00015314473509788512
1769661556347474700,7.720474609375,0.0593031797748059,-0.04708908343315124,-0.006827215671539306
1769661556357462500,7.730462646484375,0.06298048004806041,-0.08793956473767757,0.004447627058625221
1769661556367450600,7.74045068359375,0.0814163735140115,-0.096805008238554,-0.01625350792557001
1769661556377438500,7.7504384765625,0.07104220595061779,-0.10235270549356937,-0.020630407835543155
1769661556387426600,7.760426513671875,0.0415834717541933,-0.0860170722424984,-0.019072364738583564
1769661556397414700,7.77041455078125,-0.008886486288905144,-0.0608504822820425,-0.014240706798434257
1769661556407402800,7.78040283203125,-0.048659620685502884,-0.05720657282173633,-0.009349135364592075
1769661556417390600,7.790390625,-0.07635960158109664,-0.06456628793478011,0.009003682927787303
1769661556427378700,7.800378662109375,-0.05879004262089729,-0.05410626871883869,-0.004221417087316512
1769661556437366800,7.81036669921875,-0.04008643812946975,-0.044827568241953844,-0.012668635176122187
1769661556447354600,7.820354736328125,-0.019567893170565367,-0.03151099055111408,-0.00576046322286129
1769661556457342700,7.8303427734375,-0.00058678691200912,-0.043349312382936475,-0.017069792744517327
1769661556467330800,7.840330810546875,0.011427476008608937,-0.03633388066291809,-0.003304594503343105
1769661556477318700,7.850318603515625,0.03329495135843753,-0.05566518859863281,-0.006920154651999473
1769661556487306500,7.860306396484375,0.03142440824620425,-0.055388709744811054,-0.017653145590424538
1769661556497294600,7.870294677734375,0.026316344517469406,-0.05296937364339828,-0.022785832303762434
1769661556507282700,7.88028271484375,0.0013157587736845017,-0.04668693237304687,-0.031764673051238056
1769661556517270500,7.8902705078125,-0.018603578183054924,-0.016450199541449547,-0.009319324748218059
1769661556527258600,7.900258544921875,-0.01443710615336895,-0.015507365733385086,0.019612170703709124
1769661556537246700,7.910246826171875,-0.00647599108107388,-0.027283143723011015,0.035767186690866946
1769661556547234600,7.920234619140625,-0.0023906945288181304,-0.02890636101067066,0.04126286149770021
1769661556557222700,7.93022265625,0.004545826736092567,-0.04355214147865772,0.033089784175157545
1769661556567210800,7.940210693359375,-0.0026771102547645566,-0.057606385794281956,0.016869301736354828
1769661556577198800,7.95019873046875,0.02351706918776035,-0.04845978726446628,0.014326631516218184
1769661556587186700,7.960186767578125,0.027648542969301342,-0.035392215898633,0.02588175249248743
1769661556597174500,7.970174560546875,0.033822190102934836,-0.031571780827641484,0.036727848416566844
1769661556607162600,7.98016259765625,0.025272388422489165,-0.04625380165278911,0.028507132560014723
1769661556617150500,7.990150390625,0.030687326143309473,-0.05945756661891937,0.02607113758474588
1769661556627138600,8.000138671875,0.02408873159587383,-0.06215396609604358,-0.0033718145206570625
1769661556637126700,8.010126708984375,0.027016090284660458,-0.05884089602530002,-0.0092129417642951
1769661556647114800,8.02011474609375,-0.014018003958463667,-0.055524903345108026,-0.010417056857049465
1769661556657102600,8.0301025390625,-0.03966623995602131,-0.03199965085089206,-0.009590250644087792
1769661556667090700,8.040090576171876,-0.05554711517691612,-0.01505143865942955,-0.005962123274803161
1769661556677078800,8.050078857421875,-0.05789170554168522,-0.007215922728180885,-0.014365502221882343
1769661556687065600,8.060065673828126,-0.04351232092492282,-0.008707622590661048,-0.012130290515720843
1769661556697053700,8.0700537109375,-0.030938670555874702,-0.02119476372003555,-0.012357085008919239
1769661556707041800,8.080041748046876,0.0026111323464661834,-0.010978490132093429,-0.015607903498411178
1769661556717029600,8.090029541015625,0.022287308197095988,-0.030503859335184097,-0.0159206227093935
1769661556727017700,8.100017822265626,0.025662337588146327,-0.04075403519272804,-0.0140972066745162
1769661556737005800,8.110005859375,0.025884382840991017,-0.059330140846967694,0.009687573538720608
1769661556746993700,8.11999365234375,0.02118650734834373,-0.05219605118334293,0.01487842018008232
1769661556756981500,8.1299814453125,-0.0008586626559495925,-0.05941080486774444,0.012213000363111496
1769661556766969600,8.139969482421876,0.0027758213888853787,-0.05259177250266075,0.037009003445506096
1769661556776957700,8.149957763671875,0.012087985743954777,-0.01586567765176296,0.04356909261345863
1769661556786945500,8.159945556640626,0.007623992072418331,-0.030071897658705708,0.04444616770893335
1769661556796933600,8.16993359375,0.005116393165662885,-0.03784779235720634,0.026782208463549614
1769661556806921700,8.179921630859376,0.023407836659625172,-0.06657236706018448,0.011061199979484081
1769661556816909600,8.18990966796875,0.038119668101146816,-0.08754851959347724,0.015004092386364937
1769661556826897700,8.199897705078126,0.05151040700674057,-0.10963701728284359,-0.00023877719193696973
1769661556836885800,8.2098857421875,0.034446532546356316,-0.10605623618662356,0.0009723521634936332
1769661556846873900,8.219873779296876,0.038947862553596495,-0.07424713947176932,-0.03215133428126574
1769661556856861700,8.22986181640625,0.03751278824917972,-0.054281040763854975,-0.03455897994488478
1769661556866849500,8.239849609375,0.037027708145976064,-0.05046528186798095,-0.0350742359906435
1769661556876838700,8.249838623046875,0.026597426481172443,-0.027467852640151978,-0.030773323926329612
1769661556886826800,8.25982666015625,0.03301847250461578,-0.003985270243883132,-0.01722849043756723
1769661556896814800,8.26981494140625,0.028627032612636685,-0.02369184123277664,-0.007170037759840488
1769661556906803000,8.279802978515624,0.008689502412080764,-0.05673427913486957,0.006385901644825935
1769661556916790800,8.289790771484375,-0.01818162644393742,-0.08054244022369385,0.02364215687215328
1769661556926779000,8.29977880859375,-0.014454641810059546,-0.0536702153891325,0.026911387801170347
1769661556936767000,8.30976708984375,0.014218494966626166,-0.0454787256270647,0.020084464390575884
1769661556946754800,8.3197548828125,-0.025339023917913435,-0.08083470116853714,0.030323534332215785
1769661556956742700,8.32974267578125,-0.015028642305731773,-0.04916764327287674,0.04226034810245037
1769661556966730800,8.339730712890624,0.002304112223908305,-0.021249124255776405,0.040998073081672186
1769661556976718600,8.349718505859375,0.016593334339186548,-0.00855155524611473,0.031205577863752842
1769661556986706700,8.359706787109374,0.0047141690403223035,-0.0038753801286220547,0.034818799924850465
1769661556996694800,8.36969482421875,-0.0034136809010058638,-0.011518588358163833,0.02190992625206709
1769661557006683000,8.379682861328124,0.0013443272810429335,-0.010053776502609251,0.008492226274311543
1769661557016670700,8.389670654296875,0.03620937750041485,-0.02659574598073959,-0.0027148119166493416
1769661557026658800,8.399658935546874,0.03982881010659039,-0.06007365269064903,-0.016117898847162724
1769661557036647000,8.40964697265625,0.029897710135579108,-0.05943301669955253,-0.003567629353702068
1769661557046634800,8.419634765625,0.0260077900249511,-0.07067687976956367,-0.024681144531071186
1769661557056621800,8.429621826171875,0.029115546781942246,-0.06222644681036472,-0.022082067948579788
1769661557066610000,8.43960986328125,0.009365721173211931,-0.07373100664317607,-0.0032528643161058423
1769661557076597800,8.44959765625,0.018149989196658133,-0.06039630877375602,-0.035192601673305034
1769661557086585900,8.4595859375,-0.02925532057881355,-0.01686345651745796,-0.0026908465191721916
1769661557096574000,8.469573974609375,-0.06751337423734366,-0.013731588232517241,-0.013250526717305183
1769661557106561500,8.4795615234375,-0.0545060086261481,-0.014206804528832434,-0.017227905915677546
1769661557116549600,8.489549560546875,-0.02066102216951549,-0.0047393034815788266,-0.02197948435693979
1769661557126537700,8.499537841796876,-0.024808278042078018,-0.01137362692952156,-0.01612052919566631
1769661557136525800,8.50952587890625,-0.020396891340613364,-0.01644084719121456,0.0006494038194417953
1769661557146513700,8.519513671875,-0.020489318864420056,-0.004250643181800842,0.015370879872143268
1769661557156501800,8.529501708984375,-0.02766958575733006,-0.014732874229550361,0.04744739535152912
1769661557166489900,8.53948974609375,0.01776245118379593,-0.030714287215471266,0.06226239490658044
1769661557176477700,8.549477783203125,0.05497084965892136,-0.06723463036119938,0.05626929197162389
1769661557186465800,8.5594658203125,0.06823182470500469,-0.06806406692266463,0.04209931232184171
1769661557196454000,8.569453857421875,0.06912672771811484,-0.07790040128231047,0.0029147184029221533
1769661557206442000,8.57944189453125,0.06233100316338241,-0.07667407435774802,-0.010718085630238055
1769661557216429800,8.589429931640625,0.05456095368377864,-0.05534487060308456,-0.03949351373761892
1769661557226417700,8.599417724609374,0.038995720283314585,-0.029909985095262527,-0.02739098801165819
1769661557236405800,8.60940576171875,0.007295929161831736,-0.022754268121719358,-0.04352876060307025
1769661557246393600,8.6193935546875,0.009293971111252903,-0.04577157109379768,-0.050180619707703586
1769661557256381700,8.629381591796875,-0.018264044030383227,-0.041378304570913314,-0.06615151129961014
1769661557266369800,8.639369873046874,-0.04034435841329396,-0.012440963900089263,-0.05333060817122459
1769661557276358000,8.64935791015625,-0.0417846203494817,-0.013609423157572745,-0.037920857593417165
1769661557286345700,8.659345703125,-0.029465237002447246,-0.02327449260354042,-0.02626081493794918
1769661557296333800,8.669333740234375,-0.01688917548060417,-0.041324528557062146,0.010809563305974006
1769661557306322000,8.679322021484374,-0.007195537527278065,-0.06556348227858542,0.02928717702180147
1769661557316309800,8.689309814453125,0.015053119159862398,-0.06651333034932613,0.04076309528201818
1769661557326297900,8.6992978515625,0.058823433433845634,-0.06075052903890609,0.031821956196427345
1769661557336286000,8.709285888671875,0.064663976155594,-0.05311258150637149,0.030162206290662286
1769661557346273500,8.7192734375,0.06022212125062942,-0.05060498259961605,0.017057517784833907
1769661557356261600,8.72926171875,0.05175524861328303,-0.05030804547965526,0.0032137013494968414
1769661557366249700,8.739249755859374,0.028648586857318876,-0.040432548153400416,0.009335691361129283
1769661557376237800,8.74923779296875,0.008815759140253067,-0.04878361239135265,0.019116203880310056
1769661557386225700,8.7592255859375,-0.020221461708471177,-0.0354576823502779,0.0110647071108222
1769661557396213800,8.7692138671875,-0.02729951033592224,-0.024055998370051384,0.007518412806093692
1769661557406201900,8.779201904296874,-0.04012333607375622,-0.02330313417613506,-0.009506956274807453
1769661557416188700,8.789188720703125,-0.018556231909990308,-0.027599370065331457,-0.03931348099559545
1769661557426176800,8.7991767578125,-0.010908347505331038,-0.02301964105963707,-0.03831336404234171
1769661557436164900,8.809164794921875,0.007167407411336898,-0.030539515170454976,-0.03887771992683411
1769661557446152700,8.819152587890626,0.017718027520179747,-0.03223521317243576,-0.0203822782933712
1769661557456140800,8.829140869140625,0.030327918246388433,-0.061439095824956894,-0.005040039993822574
1769661557466129000,8.83912890625,0.03951492185182869,-0.05999474223554134,0.017264146272838114
1769661557476116700,8.84911669921875,0.04451777164041996,-0.05196867216825485,0.02551175013631582
1769661557486104800,8.859104736328124,0.03875204772055149,-0.05325052867233753,0.03911620485782623
1769661557496092700,8.8690927734375,0.0239474234290421,-0.03857786019742489,0.04545008405447006
1769661557506080800,8.879080810546874,0.03819434077255428,-0.047020694372057914,0.008149111925065518
1769661557516068600,8.889068603515625,0.021986133293434976,-0.049153614747524256,-0.012185235573351383
1769661557526056700,8.899056640625,0.021371873852610586,-0.04459609757363796,-0.02509177115857601
1769661557536044800,8.909044921875,0.02645553379245102,-0.045595045483112336,-0.0381546663492918
1769661557546032600,8.91903271484375,0.039842838631942865,-0.03818213887810707,-0.03074029843956232
1769661557556020700,8.929020751953125,0.027793431332707404,-0.034785482177138324,-0.03704465928077698
1769661557566008800,8.9390087890625,0.019137319733574985,-0.016400515180826185,-0.021728724466264247
1769661557575997000,8.948996826171875,0.021770517781376838,-0.03406885834038258,-0.02165712053477764
1769661557585984800,8.95898486328125,0.019797171881794928,-0.05101356340050697,-0.021808511704206467
1769661557595972900,8.968972900390625,0.028049451920390128,-0.0493868389815092,0.003263093449175358
1769661557605961000,8.9789609375,0.021694676066190004,-0.061114686176180835,-0.011236556546390056
1769661557615948800,8.98894873046875,0.01594115404076874,-0.05774959365725517,-0.013522621656954288
1769661557625936600,8.9989365234375,0.02030687496960163,-0.04783960953950882,-0.035464112091064454
1769661557635924700,9.0089248046875,0.03783968211598694,-0.05216565604507923,-0.03325783421844244
1769661557645912800,9.018912841796874,0.04497084917016327,-0.03316284941136837,-0.04149988512396812
1769661557655900700,9.028900634765625,0.03509827445335686,-0.041406361621618266,-0.018904022434353827
1769661557665888800,9.038888671875,0.047910336688160894,-0.03532090422809124,-0.025396891584992407
1769661557675876900,9.048876953125,0.02472417995519936,-0.03221533942818641,-0.025178280398249625
1769661557685864700,9.05886474609375,0.01762691517062485,-0.023295535391569137,-0.020242869822680948
1769661557695852800,9.068852783203125,0.011486512719467282,-0.03146481332182884,-0.018085399527847767
1769661557705841000,9.0788408203125,0.011219313150644302,-0.018719898039102553,-0.025394845758378505
1769661557715828700,9.088828857421875,0.002455649523809552,-0.015825345641374586,-0.015744681620597837
1769661557725816800,9.09881689453125,0.008166939842700957,-0.017976970717310903,-0.024777298381924627
1769661557735804700,9.1088046875,0.010303951871395111,-0.0377712199896574,-0.022622458435595034
1769661557745792800,9.118792724609374,0.016768690906092523,-0.04106032466292381,-0.027744039233028886
1769661557755780600,9.128780517578125,-0.006642506754398345,-0.048365094718337054,-0.027772973066568372
1769661557765768700,9.138768798828124,-0.008838044037297368,-0.04905366150438785,-0.036063539288938046
1769661557775756800,9.1487568359375,-0.0074683631192892785,-0.03728080612421036,-0.02947890020161867
1769661557785744600,9.15874462890625,0.03087276571281254,-0.022049919244647026,-0.02671352714151144
1769661557795731700,9.168731689453125,0.018339374288916587,-0.023366262540221214,-0.024390052630007264
1769661557805719800,9.1787197265625,0.009225435919687152,-0.04041968867182731,-0.02783639369159937
1769661557815707600,9.188707763671875,0.024159458744525908,-0.026911387801170347,-0.014964929419755935
1769661557825695700,9.19869580078125,0.02192541608214378,-0.03582885375022888,-0.023490765702724455
1769661557835683800,9.208683837890625,-0.001253214931488037,-0.041754736667871474,-0.0404223190203309
1769661557845672000,9.218671875,-0.02076404415257275,-0.023925649988651276,-0.03212327723056078
1769661557855659800,9.22865966796875,-0.001903203272819519,-0.012519289833307266,-0.028404548968374726
1769661557865647900,9.23864794921875,0.03260981863848865,-0.022469605961441992,-0.00490647674202919
1769661557875635000,9.248635009765625,0.03963401818685233,-0.002564297530055046,0.0016845920860767364
1769661557885623000,9.258623046875,0.0015706103175878523,-0.014552841487526893,-0.015786474935710428
1769661557895611000,9.26861083984375,-0.006022329029440879,-0.005168927070498466,-0.015739128662645815
1769661557905599000,9.278598876953126,0.02046761848926544,-0.014212649747729301,-0.01941372552216053
1769661557915587000,9.288587158203125,0.031004794594645498,-0.04196574907004833,-0.03266805163174868
1769661557925575000,9.298574951171876,0.017054010653495787,-0.051257893550395964,-0.014792787723243236
1769661557935562800,9.308562744140625,0.013620017616823315,-0.054713002440333364,-0.027890169705450534
1769661557945550800,9.31855078125,0.031899697607755656,-0.06259528012275696,-0.017248364181816578
1769661557955539000,9.3285390625,0.04516308380663395,-0.07011573875546455,-0.02341039394289255
1769661557965526800,9.33852685546875,0.022885127959772943,-0.07294014852643013,-0.01699731203019619
1769661557975515000,9.348514892578125,0.016402341811731457,-0.0550859274059534,-0.01618599564731121
1769661557985503000,9.3585029296875,0.011109423035383224,-0.029115035325288773,0.0010977321088314056
1769661557995490800,9.36849072265625,0.010703180322051047,-0.054902972054481504,-0.01594108097553253
1769661558005479000,9.37847900390625,0.051053968476131556,0.017367314386367797,-0.03255494664609432
1769661558015467000,9.388467041015625,-0.009883680632710456,0.025115152034163472,0.005480769498646259
1769661558025455000,9.398455078125,0.0033656770408153533,-0.013510638958215714,-0.02637888835966587
1769661558035443000,9.40844287109375,0.038318843935057516,-0.022476035702228545,-0.007330489018559455
1769661558045430800,9.4184306640625,0.05875080658905208,-0.029458149674534796,0.018274492359161378
1769661558055419000,9.4284189453125,0.0521020162243396,-0.04849018240272999,0.0367713952973485
1769661558065406700,9.43840673828125,0.023947861820459364,-0.06517477522194386,0.022670389230549336
1769661558075394800,9.448394775390625,0.017595350988581775,-0.07415595405697822,0.0027960604593157768
1769661558085383000,9.4583828125,0.020175942066311837,-0.0642968233436346,-0.009270224909484386
1769661558095371000,9.46837109375,0.03262107068486512,-0.04902151280045509,-0.015367957262694834
1769661558105358800,9.47835888671875,0.01876907094307244,-0.04620002563893795,0.002995382423698902
1769661558115347000,9.488346923828125,0.0016957710672169924,-0.03873451206386089,0.016655951246619224
1769661558125335000,9.4983349609375,0.009631240241602062,-0.03444996661245823,0.0045090018570423124
1769661558135323000,9.508322998046875,-0.0004945055186748505,-0.04840601125061512,-0.00407996279001236
1769661558145311000,9.51831103515625,-0.005797872623801231,-0.049335401055216783,-0.003822480897605419
1769661558155299000,9.528299072265625,-0.013202595922350882,-0.029131401938199995,-0.005278817185759544
1769661558165287000,9.538286865234374,-0.006137479841709137,-0.019086393263936043,-0.019026187509298322
1769661558175274000,9.54827392578125,-0.010316811352968216,-0.029235446834564208,-0.032767420352995395
1769661558185262000,9.558261962890626,0.003615852409601211,-0.03112052992880344,-0.016290040543675423
1769661558195250000,9.56825,0.025898338301107285,-0.039325463694334026,-0.0026297639816999434
1769661558205237800,9.57823779296875,0.03825228150486946,-0.05368015226125717,0.008747954601049423
1769661558215225900,9.588225830078125,0.04906425596363842,-0.04740764786303043,-0.005171849679946899
1769661558225214000,9.5982138671875,0.022874679630994797,-0.05053776258230209,-0.020517595110833644
1769661558235201800,9.608201904296875,0.011470730628445744,-0.027924948757886883,-0.01561696358770132
1769661558245190000,9.61818994140625,0.00640584845431149,-0.031951135534048075,-0.02125321590900421
1769661558255178000,9.628177978515625,0.006413301108404994,-0.04900573070943355,-0.0013920388802886009
1769661558265165800,9.638165771484376,0.020467107032611963,-0.03554068445861339,-0.010432838948071002
1769661558275154000,9.64815380859375,0.01142689148671925,-0.03804886788725853,-0.014385960488021373
1769661558285142000,9.65814208984375,0.009312675811722874,-0.0240682733297348,-0.02191898634135723
1769661558295130000,9.668130126953125,0.012743819304183125,-0.026104163071513174,-0.010728899285197257
1769661558305118000,9.678117919921876,0.018403160240128634,-0.03243628870248794,-0.021212007115781306
1769661558315105800,9.688105712890625,0.03800736683309078,-0.01600654742717743,-0.00046031098812818525
1769661558325094000,9.698093994140624,0.0241337397813797,-0.031770518270134926,-0.00014086977541446686
1769661558335081700,9.708081787109375,0.04134082210473716,-0.03698971422314644,-0.016572656877338884
1769661558345069800,9.71806982421875,0.03634147944748401,-0.01991466078162193,-0.017355916209518908
1769661558355058000,9.728057861328125,0.026563012754917143,-0.02080196501016617,-0.011951426817476749
1769661558365045800,9.738045654296876,0.021545549919083713,-0.030223288828134534,-0.016499007119238376
1769661558375033900,9.748033935546875,0.03592128127403557,-0.02945931871831417,-0.030665187376737593
1769661558385022000,9.75802197265625,0.01989427558071911,-0.02719312735199928,-0.03575724981874227
1769661558395010000,9.768010009765625,0.022658991053700447,-0.021003040540218353,-0.0414376335427165
1769661558404998000,9.777997802734374,0.0074503160059452055,-0.01915185971558094,-0.04700783489048481
1769661558414986000,9.787986083984375,0.024500892593339083,-0.03001870616674423,-0.038111996251344676
1769661558424974000,9.79797412109375,0.020898484187200663,-0.051962242427468296,-0.03372778981775045
1769661558434962000,9.8079619140625,0.014719941682741045,-0.039193946269154546,-0.03248071236610412
1769661558444949800,9.81794970703125,0.017325813332200048,-0.015645897421240805,-0.02943213845044374
1769661558454937900,9.827937744140625,0.030423195314407347,-0.02505085462629795,-0.01177402442395687
1769661558464926000,9.837926025390624,0.03882920460999012,-0.023565584504604338,-0.010574877767264842
1769661558474913800,9.847913818359375,0.024824133198335766,-0.03596329378485679,-0.019607202267646787
1769661558484902000,9.85790185546875,0.03598674772568047,-0.027690555480122565,-0.011566811414062976
1769661558494890000,9.867889892578125,0.030745851397514342,-0.030767478707432745,-0.0017824995025992392
1769661558504877800,9.8778779296875,0.025409239609912038,-0.03264847014844417,-0.0172734986230731
1769661558514866000,9.887865966796875,0.04060381306707859,-0.047564884251356125,-0.021368951243162154
1769661558524854000,9.89785400390625,0.04342756525091827,-0.04920096102058887,-0.02927139493077993
1769661558534842000,9.907842041015625,0.03704933545589447,-0.05726677857637405,-0.028526129521429536
1769661558544830000,9.917829833984374,0.038353988313674925,-0.058034255817532535,-0.03383797219395637
1769661558554817800,9.92781787109375,0.033146555863693354,-0.046888592424988745,-0.02927840919345617
1769661558564804900,9.937804931640626,0.01949380502104759,-0.04129121080935001,-0.018149404674768447
1769661558574793000,9.94779296875,0.0058749564480036496,-0.02657762580215931,-0.01898322515040636
1769661558584781000,9.957781005859376,0.011821370697021483,-0.023253449815511702,-0.020975860272347924
1769661558594769000,9.967768798828125,0.00995491923801601,-0.018891747474670408,-0.0075295187219977374
1769661558604756700,9.9777568359375,0.023343393121287224,-0.017231705307960508,-0.02396072130203247
1769661558614744800,9.987744873046875,0.029649872854351996,-0.026670564782619473,-0.024888065280020237
1769661558624733000,9.99773291015625,0.014711831441521644,-0.048588382080197334,-0.02142448082268238
1769661558634720800,10.007720703125,0.018791209709644315,-0.053875382572412485,-0.028159049774706364
1769661558644708900,10.017708984375,0.038085181309655304,-0.04676584282815456,-0.03528700195848942
1769661558654697000,10.027697021484375,0.02862403693795204,-0.0405289942651987,-0.018250526961684225
1769661558664685000,10.03768505859375,0.011999065351486206,-0.035945758128166194,-0.006876607771217823
1769661558674673000,10.0476728515625,-0.012224763866141438,-0.04303308604061603,-0.023745617246627805
1769661558684661000,10.057660888671874,-0.010000585010647774,-0.06898878055214881,-0.006647767451405525
1769661558694649000,10.067649169921875,-0.006371288597583771,-0.04525193113386631,-0.01687397791147232
1769661558704637000,10.077636962890624,0.00443067592382431,-0.059256491088867186,-0.015434592758119106
1769661558714624800,10.087624755859375,-0.02317505081705749,-0.06191548116505146,-0.013969488641619681
1769661558724612900,10.09761279296875,-0.012277809227630495,-0.019513094243407247,-0.019289222359657285
1769661558734600700,10.1076005859375,0.010324410137534141,-0.02050678145587444,-0.016004209339618682
1769661558744588800,10.1175888671875,0.003977160002663732,0.0011538462102413177,-0.0037920857593417164
1769661558754577000,10.127576904296875,0.014415551908686756,0.010129764348268509,0.012761281895637511
1769661558764565000,10.13756494140625,-0.0025678046613931654,-0.0000415010541677475,0.035488662010431285
1769661558774552800,10.147552734375,-0.004299743020534515,-0.018248773396015164,0.02888414917886257
1769661558784541000,10.157541015625,0.025551278429105876,-0.03922083427608013,0.0042763621449470515
1769661558794529000,10.167529052734375,0.02490362817533314,-0.06917407399117946,-0.020529870070517063
1769661558804516900,10.177516845703124,0.04762925472445786,-0.07411562204658985,-0.01845598640590906
1769661558814505000,10.1875048828125,0.035767552017047996,-0.09154898740649223,-0.0264189281091094
1769661558824493000,10.1974931640625,0.01393032567501068,-0.09982523284256457,-0.00913110869973898
1769661558834481000,10.20748095703125,0.010211670478060842,-0.09637187751829623,-0.0075982000440359115
1769661558844468700,10.21746875,-0.016036431108787656,-0.0632511136829853,-0.0012549684971570967
1769661558854456800,10.227456787109375,-0.04037592259533703,-0.024938626423478126,-0.0063476154610514635
1769661558864445000,10.23744482421875,-0.04684833347983658,-0.008288520395755767,-0.01888911712616682
1769661558874433300,10.247433349609375,-0.03645378071554005,0.010336100575327873,-0.026551614578068254
1769661558884421400,10.25742138671875,-0.013250453652068972,0.010744096854329109,-0.01201104805022478
1769661558894409500,10.267409423828125,-0.010296864543482661,-0.004424246183037757,0.006335048240423202
1769661558904397300,10.277397216796874,0.011614523013308644,-0.056090136012434955,0.0018535189121961593
1769661558914385400,10.287385498046875,0.02467624916024506,-0.07201368133127689,0.0010690905362367629
1769661558924373500,10.29737353515625,0.04315174398422241,-0.06787643539607524,0.008282090654969215
1769661558934360300,10.3073603515625,0.03791325880885124,-0.05807809495925903,0.00002104278802871704
1769661558944348400,10.317348388671874,-0.006503975066542625,-0.0863432354569435,-0.011158230613172053
1769661558954336500,10.32733642578125,-0.0049479777961969375,-0.08091361162364483,-0.016351707603037356
1769661558964324400,10.337324462890624,0.02495090138316154,-0.06840308961868286,-0.0037099604338407515
1769661558974312200,10.347312255859375,0.015915435077622532,-0.05989478899240493,0.003129530197381973
1769661558984300300,10.35730029296875,0.0000637128859758377,-0.02860357867181301,-0.0017079729616641998
1769661558994288000,10.3672880859375,-0.03261975551061332,-0.03753624219000339,0.006975099709630012
1769661559004276200,10.377276123046874,-0.022633929677680135,-0.04602934524714947,0.005034194774925708
1769661559014264300,10.387264404296875,0.0030575609397143124,-0.05468260730206966,-0.0009524784192442893
1769661559024252400,10.39725244140625,-0.00024732582457363605,-0.05120879371166229,-0.005633329711854458
1769661559034240300,10.407240234375,0.0036971009522676467,-0.042671266990900035,-0.009336568143963813
1769661559044228400,10.417228271484374,0.01601473073363304,-0.03172141843140125,-0.0034811201140284537
1769661559054216400,10.427216552734375,0.019515432330965993,-0.024074703070521352,-0.005342530071735381
1769661559064204300,10.437204345703124,0.03982639895379543,-0.03829670516848564,0.004689619120955467
1769661559074192400,10.4471923828125,0.052803369426727295,-0.06629179655313491,0.01581920816153288
1769661559084180500,10.457180419921874,0.03470189554691314,-0.07769172696769237,0.0057183776468038554
1769661559094168300,10.467168212890625,0.012712839644029736,-0.08747779244482516,0.004208849866688251
1769661559104156200,10.47715625,-0.011377645517513156,-0.06903145065009593,-0.01440700327605009
1769661559114144300,10.487144287109375,-0.01833871670179069,-0.057494742113351816,-0.01983019736856222
1769661559124132400,10.49713232421875,-0.036920156118273734,-0.04549392319619655,-0.00978285060673952
1769661559134120200,10.5071201171875,-0.020382862815260885,-0.03855155671238899,-0.020331424888968466
1769661559144108300,10.5171083984375,-0.011066095350310206,-0.03321545638144016,0.006263444308936596
1769661559154096400,10.527096435546875,-0.002483048987388611,-0.048182139366865155,0.013423545196652412
1769661559164084500,10.53708447265625,0.016215806263685226,-0.04387947373688221,0.015277648630738258
1769661559174072300,10.547072265625,0.01917867465727031,-0.04274140961766243,0.0035752281382679936
1769661559184060400,10.557060302734374,0.03331131797134876,-0.04673077151477337,0.007894552642107009
1769661559194048500,10.567048583984375,0.029720015481114387,-0.05913900218904018,0.020245207910239694
1769661559204036400,10.577036376953124,0.029112112715840337,-0.04091185610294342,0.0034670915886759754
1769661559214024200,10.587024169921875,0.00957856020629406,-0.023068156376481054,-0.0035337270841002463
1769661559224012300,10.59701220703125,-0.021991467055678365,-0.03512801200449466,0.000035948096215724944
1769661559234000100,10.607000244140625,-0.007943579415604472,-0.02327741521298885,0.007765081043541431
1769661559243988200,10.61698828125,0.0015659341424703597,-0.02893558710515499,0.00018967735320329665
1769661559253976300,10.626976318359375,-0.010181713731214403,-0.050012861925363535,-0.011290917082130909
1769661559263964400,10.63696435546875,-0.029394436788558957,-0.0502934324324131,-0.007410276256501674
1769661559273952300,10.6469521484375,-0.0008943184912204742,-0.054873161438107484,-0.007385726337134838
1769661559283940400,10.6569404296875,0.017975801673531532,-0.06520458583831787,0.0017544424518942832
1769661559293928400,10.666928466796875,0.03720839847512543,-0.04702829315662384,0.0047679450541734695
1769661559303916300,10.676916259765624,0.03996383466310799,-0.047456747701764106,0.0036094226688146588
1769661559313904400,10.686904296875,0.03544833000004291,-0.06800269212424755,-0.020993688189983366
1769661559323891500,10.696891357421874,0.04472476545460522,-0.02103285115659237,0.013580781584978103
1769661559333879300,10.70687939453125,0.0007831862669438123,-0.025427871245145797,0.0031201778471469876
1769661559343867400,10.716867431640624,-0.032824484302476045,-0.04207388561964035,-0.009215279851853848
1769661559353855500,10.72685546875,0.0007171352934092283,-0.03312544001042843,0.007153963407874107
1769661559363843300,10.73684326171875,0.01692198177166283,-0.03755670045614242,0.00505202269256115
1769661559373831200,10.7468310546875,0.01783434737622738,-0.04265080872476101,-0.0014247721061110496
1769661559383819300,10.7568193359375,0.002815641942620277,-0.0449210917443037,-0.009541150805354118
1769661559393807400,10.766807373046875,-0.0031090719312429427,-0.04798924714326858,-0.029791911673545834
1769661559403795200,10.776795166015624,-0.002139350116252899,-0.052848962134122844,-0.016385317611694334
1769661559413783300,10.786783203125,0.014098156522586941,-0.03990121775567532,-0.022878771284222603
1769661559423771400,10.796771484375,0.003378609587624669,-0.03526420560479164,-0.015773907715082167
1769661559433759200,10.80675927734375,-0.008943696368858218,-0.023841478836536405,-0.00024608371555805207
1769661559443747300,10.816747314453124,-0.02568564539849758,-0.008165770798921584,-0.008939385519921779
1769661559453735400,10.8267353515625,-0.020217443120479583,-0.01186813244819641,0.005692658683657646
1769661559463723500,10.8367236328125,-0.008228241575881838,-0.038946693509817124,0.009842179578542708
1769661559473711400,10.84671142578125,0.022328809251263737,-0.05276128385066986,0.009803601133823394
1769661559483699200,10.85669921875,0.042360958932712675,-0.03573825285732746,0.015857202084362507
1769661559493687300,10.866687255859375,0.028843817168474197,-0.030531916385889053,0.0019900047734379765
1769661559503675100,10.876675048828124,0.031903862326219674,-0.029208558827638623,0.004915536831319332
1769661559513663200,10.886663330078125,0.025828926326707004,-0.04965045835375786,-0.016356968300044537
1769661559523651300,10.8966513671875,0.020402225102856754,-0.05799333928525448,0.00017915595918893812
1769661559533639400,10.906639404296875,0.012156374805048107,-0.051478842824697495,0.0006447276443243027
1769661559543627300,10.916627197265624,-0.008650850902125239,-0.07623919007182121,-0.011877192537486552
1769661559553615400,10.926615478515625,-0.05421089813709259,-0.06825520558059216,-0.009319909270107746
1769661559563603500,10.936603515625,-0.057201312124729155,-0.056686932861804956,0.006348492243885994
1769661559573591300,10.94659130859375,-0.021048706312850118,-0.036567104896903034,0.004883680388331413
1769661559583579400,10.956579345703124,-0.003190978061035275,-0.02014087075293064,0.026050971579551694
1769661559593567500,10.9665673828125,0.0017184212904423474,-0.013765490502119063,0.04455547330230474
1769661559603555300,10.976555419921874,0.019629487164691088,-0.0033937340915203094,0.03352408393919468
1769661559613543200,10.986543212890625,0.05109079335518181,-0.015411504143476485,0.04199059125036001
1769661559623531300,10.99653125,0.07487199337184429,-0.04862111530601978,0.008091244257986544
1769661559633519400,11.006519287109375,0.07161043429262935,-0.06660685385167599,-0.005155775327980518
1769661559643507200,11.016507080078124,0.05319799476750195,-0.06756839236021041,-0.00900602101534605
1769661559653495300,11.026495361328125,0.036716815565899015,-0.059276364833116525,-0.009647826050221919
1769661559663483400,11.0364833984375,0.028200258567929265,-0.04987374571561813,-0.02362520573735237
1769661559673471200,11.04647119140625,0.004527195100858807,-0.07151274607181549,-0.017228782698512076
1769661559683459300,11.056459228515624,-0.027031799310445782,-0.06071662676930427,-0.010516425578296185
1769661559693447400,11.066447509765625,-0.03705466921813786,-0.03879647138416767,-0.019333353762328625
1769661559703435500,11.076435546875,-0.021536709025502202,-0.033223639687895774,-0.019325754977762698
1769661559713423400,11.08642333984375,-0.009743395379185676,0.009544657936692237,-0.010606734210252761
1769661559723410400,11.096410400390624,-0.010130275804921984,0.01019289271235466,-0.020791151355206965
1769661559733398300,11.106398193359375,-0.013590060869976878,0.008527005326747893,-0.007602291697263717
1769661559743386400,11.116386474609374,0.0024503888268023726,-0.001911386579275131,-0.011526479403674602
1769661559753374500,11.12637451171875,0.013919292824342845,-0.03625789281725883,0.007125029574334621
1769661559763362300,11.1363623046875,0.03351655821986496,-0.06069558398127556,0.02767068173587322
1769661559773350100,11.14635009765625,0.042761940949037666,-0.0639350042939186,0.02291501164138317
1769661559783338200,11.156338134765624,0.04023154568858445,-0.08929565552175045,0.022348025408387182
1769661559793326300,11.166326416015625,0.016323431356623768,-0.102429862383008,-0.0020630700096487997
1769661559803314200,11.176314208984374,0.0016495938379317522,-0.0721522130191326,-0.019167349545657634
1769661559813302300,11.18630224609375,-0.011949892447516321,-0.03645779930353164,-0.04458119226545095
1769661559823290400,11.196290283203124,-0.013788798312470317,-0.02331716270148754,-0.03451221819370985
1769661559833278500,11.206278564453125,-0.01914192284345627,-0.02598842773735523,-0.009215279851853848
1769661559843266300,11.216266357421874,-0.02516016021966934,-0.03661562021374702,-0.012056056235730648
1769661559853254400,11.22625439453125,-0.02114157222807407,-0.03890168532431126,-0.015180617997050285
1769661559863242500,11.236242431640624,-0.001986278446391225,-0.046296471750736236,-0.006750935564935207
1769661559873229800,11.246229736328125,0.01812375877685845,-0.014280454286932944,-0.004059504523873329
1769661559883218000,11.256218017578124,0.03454984679035842,-0.01861643766462803,0.012561959931254385
1769661559893205800,11.266205810546875,0.06111001000106334,-0.022089082211256026,0.034904140120744706
1769661559903193600,11.276193603515624,0.08371990121603011,-0.04531096784472465,0.023202888672053813
1769661559913181700,11.286181640625,0.07496434783041477,-0.06521744531989097,0.024226678761839864
1769661559923169500,11.29616943359375,0.05753507412374019,-0.062331660750508305,0.020995441755652426
1769661559933157600,11.30615771484375,0.039869069051742555,-0.06070201372206211,0.011839490875601768
1769661559943145700,11.316145751953124,0.010664601877331733,-0.05257423684597015,0.0134545248568058
1769661559953133600,11.326133544921875,-0.0004033201038837433,-0.05867898346185684,-0.003642448155581951
1769661559963121700,11.33612158203125,-0.005553542473912239,-0.039082887110114095,-0.029060674789547918
1769661559973109800,11.34610986328125,0.000042670097947120666,-0.035167759492993354,-0.028152327772974967
1769661559983097900,11.356097900390624,-0.0032066140215843914,-0.020682722544670105,-0.03254091812074184
1769661559993085700,11.366085693359375,0.010804960196092724,-0.014963760375976562,-0.01614595589786768
1769661560003073800,11.37607373046875,0.023652020679041742,-0.005061959564685821,-0.029650749637186526
1769661560013062000,11.386061767578125,0.029473931765556335,-0.008021978414058686,-0.028779812021553514
1769661560023049500,11.396049560546874,0.038867783054709434,-0.021146832925081252,-0.006809972275793552
1769661560033037600,11.40603759765625,0.040787352940440176,-0.03760872290432453,0.0021510405540466305
1769661560043025700,11.416025634765624,0.03872289469130337,-0.053526423004269595,0.007839023062586783
1769661560053013800,11.426013671875,0.043862595667317504,-0.061408700686693185,0.0012383096233010292
1769661560063001600,11.436001708984374,0.035442557846382255,-0.05586626412868499,-0.008518822020292282
1769661560072989700,11.44598974609375,0.02234751395173371,-0.04328676854074001,-0.022787585869431495
1769661560082977800,11.455977783203124,0.02369892856068909,-0.041191257566213606,-0.03180383601784706
1769661560092965600,11.465965576171875,0.00761054806895554,-0.020209844335913656,-0.04272241265624761
1769661560102953700,11.47595361328125,-0.0039023412007838485,-0.027916765451431274,-0.030248715530335903
1769661560112940800,11.48594091796875,-0.018372765101864932,-0.030919454398751257,-0.012597908027470111
1769661560122928600,11.4959287109375,-0.015670520405843852,-0.0419581502854824,-0.01322100836187601
1769661560132916700,11.505916748046875,-0.022797522741556168,-0.049692543929815286,-0.019286299750208853
1769661560142904800,11.51590478515625,-0.009561609071493149,-0.04938099376261234,-0.010652326917648315
1769661560152892700,11.525892578125,0.02151683528125286,-0.02916822681725025,-0.006228665256500244
1769661560162880800,11.535880859375,0.005713116949796676,-0.030641221979260443,-0.0064256491333246225
1769661560172868600,11.54586865234375,0.027616905722022054,-0.03633446518480778,-0.0051543140232563015
1769661560182856700,11.555856689453124,0.03894895853213966,-0.038163434177637096,-0.007239303603768349
1769661560192844500,11.565844482421875,0.038268063595890994,-0.028768413844704625,-0.01753624121248722
1769661560202832600,11.57583251953125,0.050451837864518165,-0.038082770156860346,-0.009411386945843696
1769661560212820700,11.58582080078125,0.02079436622560024,-0.048023149412870406,-0.026335926000773904
1769661560222808600,11.59580859375,0.008607742412760853,-0.02388181084692478,-0.011263152292370796
1769661560232796700,11.605796630859375,0.0023258125990629195,-0.030281741017103195,-0.021753566646575927
1769661560242784800,11.61578466796875,-0.007093757653236389,-0.02942658549249172,-0.027208032660186288
1769661560252772900,11.62577294921875,-0.0244517196893692,-0.03785714470744133,-0.03222556856125593
1769661560262760700,11.6357607421875,-0.006812675689533352,-0.034741643035411836,-0.05425561406165361
1769661560272748800,11.645748779296875,0.002013020322844386,-0.027253917628526685,-0.04801058219224214
1769661560282737000,11.65573681640625,-0.014914733602479099,-0.032115970706939695,-0.042866497302055356
1769661560292724700,11.665724853515625,-0.015131518158316612,-0.042247488620877266,-0.028998423208296296
1769661560302712600,11.675712646484374,0.02481638828329742,-0.0403939697086811,-0.01742898144572973
1769661560312700700,11.68570068359375,0.011645941064879298,-0.04605272612273693,-0.021750936298072336
1769661560322688500,11.6956884765625,0.01322356564514339,-0.039461072772741315,-0.03378156583160162
1769661560332676600,11.705676513671875,0.02855097170174122,-0.031322774502635,-0.031794775928556916
1769661560342664700,11.715664794921874,0.024423005051538348,-0.011372457885742187,-0.03756283793598413
1769661560352652800,11.72565283203125,0.002684124517440796,-0.004706570255756378,-0.01704991900026798
1769661560362640600,11.735640625,-0.011468903997540473,-0.03837853823304176,-0.012523089225590228
1769661560372628700,11.745628662109375,-0.013595394632220268,-0.04515373145639896,-0.0038999300479888913
1769661560382616800,11.755616943359374,-0.009844006209447979,-0.030680384945869443,-0.01922287912517786
1769661560392604700,11.765604736328125,-0.004532382732629776,-0.04656067564487457,-0.038139761041104794
1769661560402592800,11.7755927734375,-0.005368175969645381,-0.06438216353952884,-0.030466449934244154
1769661560412580600,11.78558056640625,0.0029595804579555986,-0.03661678925752639,-0.012559037321805954
1769661560422568700,11.795568603515624,0.04868957743234932,-0.023398411244153976,-0.015539222176373005
1769661560432556500,11.805556640625,0.06332527489773929,0.0041167876690626146,-0.007842530193924904
1769661560442544600,11.815544677734374,0.0373141969371587,0.03294306918084621,0.009758592948317527
1769661560452532700,11.82553271484375,0.03215571819543838,0.032279636836051936,0.02158434755951166
1769661560462520600,11.8355205078125,0.036554318480566145,0.005194061511754989,0.025668402002751826
1769661560472508700,11.8455087890625,0.033986513819172975,-0.021481763967871666,-0.006002747546136379
1769661560482496800,11.855496826171875,0.002590674080327153,-0.06435936718583106,-0.04583791432827711
1769661560492484900,11.86548486328125,-0.046291137988492846,-0.09719897599220276,-0.04087941513806581
1769661560502472700,11.87547265625,-0.04634498706758022,-0.09007248511314392,-0.0418798243522644
1769661560512459800,11.885459716796875,-0.016942440037801862,-0.09528291323781013,-0.03645458443313837
1769661560522447600,11.895447509765624,-0.033164602977037425,-0.10000409654080868,-0.03617839784026146
1769661560532435700,11.905435791015625,-0.038962987057492134,-0.0696820235133171,-0.03402940311282873
1769661560542423800,11.915423828125,-0.03397876890413463,-0.04716682484447956,-0.015411211882531643
1769661560552412000,11.925411865234375,-0.024498481440544128,-0.02498947982788086,-0.020921791997551918
1769661560562399700,11.935399658203124,-0.019224267364665863,-0.0293055894613266,-0.01920095955431461
1769661560572387600,11.9453876953125,0.0106306265424937,-0.023169278663396835,-0.007495616452395916
1769661560582375700,11.955375732421874,0.028093802518770097,0.00031856442987918853,0.01620206999927759
1769661560592363500,11.965363525390625,0.0487596469938755,-0.0013227730363607406,0.0090299864128232
