time,seconds_elapsed,z,y,x
1769661548691697400,0.064697509765625,-0.121612548828125,0.92938232421875,0.3224945068359375
1769661548701685500,0.074685546875,-0.127227783203125,0.9322967529296875,0.324554443359375
1769661548711673600,0.084673583984375,-0.130340576171875,0.934844970703125,0.3238983154296875
1769661548721661400,0.094661376953125,-0.132476806640625,0.9349365234375,0.3218994140625
1769661548731649300,0.104649169921875,-0.126800537109375,0.9344635009765625,0.32568359375
1769661548741636600,0.11463671875,-0.12530517578125,0.93450927734375,0.329742431640625
1769661548751624400,0.12462451171875,-0.124786376953125,0.9354248046875,0.32952880859375
1769661548761612300,0.1346123046875,-0.124847412109375,0.9340667724609375,0.3286285400390625
1769661548771600400,0.144600341796875,-0.122344970703125,0.9312744140625,0.3263702392578125
1769661548781588200,0.154588134765625,-0.1197509765625,0.9321441650390625,0.3241119384765625
1769661548791576300,0.164576416015625,-0.1206512451171875,0.9338226318359375,0.321075439453125
1769661548801564400,0.174564453125,-0.1249542236328125,0.933319091796875,0.32208251953125
1769661548811552300,0.18455224609375,-0.1273956298828125,0.9326171875,0.3220367431640625
1769661548821540400,0.194540283203125,-0.1267547607421875,0.9343719482421875,0.3174896240234375
1769661548831528400,0.204528564453125,-0.1267242431640625,0.934783935546875,0.3174896240234375
1769661548841516500,0.2145166015625,-0.1309814453125,0.935333251953125,0.321197509765625
1769661548851504400,0.22450439453125,-0.1301116943359375,0.9336090087890625,0.319732666015625
1769661548861492500,0.234492431640625,-0.127593994140625,0.9351654052734375,0.3229827880859375
1769661548871479600,0.2444794921875,-0.1266021728515625,0.932586669921875,0.3242645263671875
1769661548881467600,0.254467529296875,-0.1218719482421875,0.9340057373046875,0.32379150390625
1769661548891455500,0.26445556640625,-0.11895751953125,0.9356689453125,0.3225860595703125
1769661548901443600,0.274443603515625,-0.119537353515625,0.934417724609375,0.320281982421875
1769661548911431400,0.284431396484375,-0.1215972900390625,0.9368896484375,0.3245391845703125
1769661548921419500,0.29441943359375,-0.12420654296875,0.93310546875,0.3269805908203125
1769661548931407400,0.304407470703125,-0.1214141845703125,0.928558349609375,0.32269287109375
1769661548941395500,0.3143955078125,-0.123016357421875,0.9297027587890625,0.3230743408203125
1769661548951383600,0.324383544921875,-0.1266632080078125,0.932647705078125,0.324127197265625
1769661548961371400,0.334371337890625,-0.1296234130859375,0.9328765869140625,0.32525634765625
1769661548971359500,0.344359375,-0.1345367431640625,0.9337005615234375,0.3256988525390625
1769661548981347600,0.35434765625,-0.135589599609375,0.93359375,0.3282318115234375
1769661548991335700,0.364335693359375,-0.134674072265625,0.9346466064453125,0.3238983154296875
1769661549001323500,0.374323486328125,-0.1352386474609375,0.9327239990234375,0.3224029541015625
1769661549011311600,0.3843115234375,-0.1334075927734375,0.9323577880859375,0.3229217529296875
1769661549021299700,0.3942998046875,-0.1268157958984375,0.9338226318359375,0.325958251953125
1769661549031287600,0.40428759765625,-0.1275634765625,0.9345245361328125,0.3250579833984375
1769661549041275400,0.414275390625,-0.126556396484375,0.930511474609375,0.3268280029296875
1769661549051263500,0.424263427734375,-0.130035400390625,0.930816650390625,0.328948974609375
1769661549061251600,0.43425146484375,-0.128936767578125,0.93194580078125,0.3284912109375
1769661549071239400,0.444239501953125,-0.12872314453125,0.934814453125,0.3253326416015625
1769661549081227500,0.4542275390625,-0.130462646484375,0.93634033203125,0.322998046875
1769661549091215600,0.464215576171875,-0.1305694580078125,0.9375152587890625,0.3221435546875
1769661549101203500,0.474203369140625,-0.12213134765625,0.9384918212890625,0.3236236572265625
1769661549111190500,0.4841904296875,-0.126922607421875,0.9343414306640625,0.3266754150390625
1769661549121178600,0.4941787109375,-0.1316680908203125,0.9273681640625,0.327545166015625
1769661549131166500,0.50416650390625,-0.1259765625,0.9216461181640625,0.3291015625
1769661549141154600,0.514154541015625,-0.1239471435546875,0.92742919921875,0.32525634765625
1769661549151142700,0.524142578125,-0.134857177734375,0.9274139404296875,0.3253326416015625
1769661549161130500,0.534130615234375,-0.136566162109375,0.9292449951171875,0.32940673828125
1769661549171118600,0.54411865234375,-0.130950927734375,0.9299774169921875,0.326995849609375
1769661549181106700,0.554106689453125,-0.1271209716796875,0.9345245361328125,0.3266754150390625
1769661549191094500,0.564094482421875,-0.1313018798828125,0.937164306640625,0.32568359375
1769661549201082400,0.574082275390625,-0.1364898681640625,0.933197021484375,0.328094482421875
1769661549211070500,0.584070556640625,-0.13421630859375,0.9300079345703125,0.32904052734375
1769661549221058600,0.59405859375,-0.131591796875,0.9290313720703125,0.3314666748046875
1769661549231046400,0.60404638671875,-0.129241943359375,0.92578125,0.330474853515625
1769661549241034500,0.614034423828125,-0.129730224609375,0.9263153076171875,0.3311767578125
1769661549251022600,0.624022705078125,-0.1268768310546875,0.9266204833984375,0.33319091796875
1769661549261010400,0.634010498046875,-0.124481201171875,0.9277496337890625,0.3335113525390625
1769661549270998500,0.64399853515625,-0.12310791015625,0.9308319091796875,0.335906982421875
1769661549280986600,0.653986572265625,-0.1217041015625,0.932281494140625,0.334716796875
1769661549290974700,0.663974609375,-0.1224822998046875,0.9341583251953125,0.3358612060546875
1769661549300962600,0.673962646484375,-0.1198883056640625,0.9349212646484375,0.33599853515625
1769661549310950400,0.683950439453125,-0.118865966796875,0.9340667724609375,0.33441162109375
1769661549320938500,0.6939384765625,-0.1203460693359375,0.932403564453125,0.3338623046875
1769661549330926300,0.70392626953125,-0.1198577880859375,0.930389404296875,0.3347015380859375
1769661549340914400,0.71391455078125,-0.119598388671875,0.9287109375,0.3319244384765625
1769661549350902500,0.723902587890625,-0.1232452392578125,0.929443359375,0.330352783203125
1769661549360890600,0.733890625,-0.12451171875,0.930328369140625,0.32965087890625
1769661549370878500,0.74387841796875,-0.1290130615234375,0.9314117431640625,0.3310699462890625
1769661549380866600,0.753866455078125,-0.1302032470703125,0.9321136474609375,0.3327178955078125
1769661549390854700,0.763854736328125,-0.13177490234375,0.933258056640625,0.3323822021484375
1769661549400842500,0.773842529296875,-0.133026123046875,0.933135986328125,0.331207275390625
1769661549410830600,0.78383056640625,-0.1329498291015625,0.933807373046875,0.331787109375
1769661549420818700,0.793818603515625,-0.132720947265625,0.933441162109375,0.3315277099609375
1769661549430806500,0.803806640625,-0.1329498291015625,0.931060791015625,0.3327178955078125
1769661549440794400,0.81379443359375,-0.1317596435546875,0.931243896484375,0.3322906494140625
1769661549450781700,0.82378173828125,-0.13092041015625,0.9298248291015625,0.330352783203125
1769661549460769500,0.83376953125,-0.1299591064453125,0.92901611328125,0.3297119140625
1769661549470757400,0.84375732421875,-0.1292724609375,0.928802490234375,0.3284759521484375
1769661549480745500,0.853745361328125,-0.1314544677734375,0.9273529052734375,0.3275909423828125
1769661549490733600,0.863733642578125,-0.13262939453125,0.9289093017578125,0.3274688720703125
1769661549500721400,0.873721435546875,-0.13336181640625,0.930267333984375,0.3289947509765625
1769661549510709500,0.88370947265625,-0.133697509765625,0.931976318359375,0.3297576904296875
1769661549520697600,0.893697509765625,-0.134735107421875,0.9351959228515625,0.32818603515625
1769661549530685400,0.903685546875,-0.13470458984375,0.9355621337890625,0.3283843994140625
1769661549540673500,0.913673583984375,-0.138336181640625,0.92974853515625,0.3274993896484375
1769661549550661600,0.92366162109375,-0.1405029296875,0.9233856201171875,0.3297119140625
1769661549560649700,0.933649658203125,-0.1406707763671875,0.918426513671875,0.3312530517578125
1769661549570637600,0.943637451171875,-0.1400299072265625,0.917022705078125,0.333831787109375
1769661549580625400,0.95362548828125,-0.1428375244140625,0.9210052490234375,0.3363494873046875
1769661549590613500,0.963613525390625,-0.1449127197265625,0.9264678955078125,0.3340606689453125
1769661549600601300,0.973601318359375,-0.1448974609375,0.931304931640625,0.3282928466796875
1769661549610589400,0.98358935546875,-0.141754150390625,0.9340362548828125,0.3264617919921875
1769661549620577500,0.99357763671875,-0.136993408203125,0.9334869384765625,0.32781982421875
1769661549630565600,1.003565673828125,-0.13720703125,0.9297637939453125,0.330230712890625
1769661549640553500,1.013553466796875,-0.140045166015625,0.9246978759765625,0.3320159912109375
1769661549650541600,1.02354150390625,-0.1390228271484375,0.9224395751953125,0.3316650390625
1769661549660529700,1.03352978515625,-0.1371612548828125,0.9224395751953125,0.32977294921875
1769661549670517500,1.043517578125,-0.1394500732421875,0.9249725341796875,0.32904052734375
1769661549680505600,1.053505615234375,-0.1443634033203125,0.9251556396484375,0.3303375244140625
1769661549690493700,1.06349365234375,-0.146087646484375,0.921905517578125,0.33221435546875
1769661549700481500,1.0734814453125,-0.146392822265625,0.91607666015625,0.336669921875
1769661549710469400,1.083469482421875,-0.1454315185546875,0.9131927490234375,0.339599609375
1769661549720457500,1.09345751953125,-0.145263671875,0.915802001953125,0.3406524658203125
1769661549730445600,1.103445556640625,-0.146148681640625,0.9238739013671875,0.338958740234375
1769661549740433400,1.113433349609375,-0.147430419921875,0.9301605224609375,0.3348236083984375
1769661549750421500,1.12342138671875,-0.15203857421875,0.9343719482421875,0.3318939208984375
1769661549760409600,1.13340966796875,-0.1508636474609375,0.9343719482421875,0.331756591796875
1769661549770396400,1.143396484375,-0.150604248046875,0.9322662353515625,0.3295135498046875
1769661549780384500,1.153384521484375,-0.151153564453125,0.9268798828125,0.3289337158203125
1769661549790372600,1.16337255859375,-0.1516265869140625,0.92205810546875,0.3286285400390625
1769661549800360400,1.1733603515625,-0.147796630859375,0.9196014404296875,0.3281707763671875
1769661549810348500,1.1833486328125,-0.1444854736328125,0.91925048828125,0.328369140625
1769661549820336600,1.193336669921875,-0.1463165283203125,0.9212646484375,0.3285675048828125
1769661549830324500,1.203324462890625,-0.1440887451171875,0.9302215576171875,0.3285369873046875
1769661549840312600,1.2133125,-0.14599609375,0.937835693359375,0.3285369873046875
1769661549850300700,1.22330078125,-0.1461029052734375,0.9407196044921875,0.3304595947265625
1769661549860288500,1.23328857421875,-0.1465301513671875,0.9384918212890625,0.3334197998046875
1769661549870278000,1.24327783203125,-0.139068603515625,0.9361572265625,0.333892822265625
1769661549880265700,1.253265625,-0.135772705078125,0.9312896728515625,0.3368988037109375
1769661549890253800,1.26325390625,-0.13665771484375,0.92633056640625,0.339324951171875
1769661549900242000,1.273241943359375,-0.140045166015625,0.9222869873046875,0.341522216796875
1769661549910229800,1.283229736328125,-0.1402435302734375,0.9168548583984375,0.342010498046875
1769661549920217900,1.2932177734375,-0.1343841552734375,0.9170379638671875,0.3414459228515625
1769661549930205700,1.303205810546875,-0.1298370361328125,0.9232330322265625,0.3354034423828125
1769661549940193800,1.31319384765625,-0.129302978515625,0.9362945556640625,0.327301025390625
1769661549950181600,1.323181640625,-0.1330718994140625,0.9432220458984375,0.3200225830078125
1769661549960169700,1.333169677734375,-0.1387176513671875,0.939666748046875,0.3162384033203125
1769661549970157800,1.34315771484375,-0.1377716064453125,0.9335479736328125,0.316009521484375
1769661549980145700,1.353145751953125,-0.135772705078125,0.9259796142578125,0.31793212890625
1769661549990133800,1.3631337890625,-0.1348114013671875,0.9253082275390625,0.31988525390625
1769661550000121900,1.373121826171875,-0.139801025390625,0.9279937744140625,0.3210906982421875
1769661550010109700,1.383109619140625,-0.1439361572265625,0.931243896484375,0.321563720703125
1769661550020097800,1.393097900390625,-0.1474761962890625,0.93157958984375,0.3217010498046875
1769661550030086000,1.4030859375,-0.1482391357421875,0.9304962158203125,0.3216094970703125
1769661550040074000,1.413073974609375,-0.145294189453125,0.9290618896484375,0.3257293701171875
1769661550050061800,1.423061767578125,-0.1396942138671875,0.9330291748046875,0.325836181640625
1769661550060049700,1.433049560546875,-0.1393890380859375,0.9349365234375,0.3284912109375
1769661550070037800,1.443037841796875,-0.1439971923828125,0.9324798583984375,0.326568603515625
1769661550080024800,1.45302490234375,-0.1460113525390625,0.929473876953125,0.3214874267578125
1769661550090012700,1.4630126953125,-0.141845703125,0.92816162109375,0.3164520263671875
1769661550100000800,1.473000732421875,-0.1377410888671875,0.926116943359375,0.31402587890625
1769661550109988600,1.482988525390625,-0.1321868896484375,0.9309844970703125,0.3119964599609375
1769661550119976700,1.492976806640625,-0.1295623779296875,0.938629150390625,0.3116607666015625
1769661550129964800,1.50296484375,-0.134185791015625,0.944854736328125,0.3131103515625
1769661550139952600,1.51295263671875,-0.1358489990234375,0.94781494140625,0.3115386962890625
1769661550149940700,1.522940673828125,-0.138641357421875,0.94244384765625,0.31146240234375
1769661550159928800,1.5329287109375,-0.14178466796875,0.931610107421875,0.3116912841796875
1769661550169917000,1.5429169921875,-0.143463134765625,0.9255218505859375,0.3133697509765625
1769661550179904800,1.55290478515625,-0.14715576171875,0.9203033447265625,0.316162109375
1769661550189892900,1.562892822265625,-0.149688720703125,0.918365478515625,0.3197784423828125
1769661550199881000,1.572880859375,-0.1497955322265625,0.92364501953125,0.3216400146484375
1769661550209868500,1.58286865234375,-0.1492919921875,0.930877685546875,0.3217010498046875
1769661550219856600,1.592856689453125,-0.149688720703125,0.937347412109375,0.323394775390625
1769661550229844700,1.6028447265625,-0.146270751953125,0.9373931884765625,0.3242645263671875
1769661550239832800,1.612832763671875,-0.144744873046875,0.930633544921875,0.3261260986328125
1769661550249820700,1.622820556640625,-0.140380859375,0.920989990234375,0.330078125
1769661550259808800,1.632808837890625,-0.1252593994140625,0.9183349609375,0.3347015380859375
1769661550269796900,1.642796875,-0.1148681640625,0.9222259521484375,0.343780517578125
1769661550279784700,1.65278466796875,-0.1135101318359375,0.924041748046875,0.34356689453125
1769661550289772800,1.662772705078125,-0.1170654296875,0.9254913330078125,0.3475494384765625
1769661550299761000,1.672760986328125,-0.119720458984375,0.9246673583984375,0.3520050048828125
1769661550309749000,1.6827490234375,-0.1165618896484375,0.9207000732421875,0.3543701171875
1769661550319736800,1.69273681640625,-0.1107330322265625,0.913116455078125,0.3512420654296875
1769661550329724700,1.702724609375,-0.1139678955078125,0.9177703857421875,0.350006103515625
1769661550339712800,1.712712646484375,-0.121124267578125,0.9221038818359375,0.342803955078125
1769661550349700600,1.72270068359375,-0.13427734375,0.9320068359375,0.3420562744140625
1769661550359688700,1.732688720703125,-0.149200439453125,0.9348602294921875,0.3430023193359375
1769661550369676800,1.7426767578125,-0.140533447265625,0.9328460693359375,0.3404541015625
1769661550379663600,1.75266357421875,-0.1246185302734375,0.9318084716796875,0.3434600830078125
1769661550389651700,1.762651611328125,-0.1274871826171875,0.92352294921875,0.346893310546875
1769661550399639800,1.772639892578125,-0.12860107421875,0.9227142333984375,0.3411102294921875
1769661550409627600,1.782627685546875,-0.1313629150390625,0.9221954345703125,0.333160400390625
1769661550419615700,1.79261572265625,-0.1297607421875,0.9228668212890625,0.329925537109375
1769661550429603800,1.802603759765625,-0.1157379150390625,0.9358673095703125,0.3347625732421875
1769661550439592000,1.812592041015625,-0.108062744140625,0.94305419921875,0.3399200439453125
1769661550449579800,1.822579833984375,-0.1033477783203125,0.9477386474609375,0.3406982421875
1769661550459567900,1.83256787109375,-0.1036834716796875,0.943145751953125,0.33612060546875
1769661550469556000,1.842555908203125,-0.1066131591796875,0.9379119873046875,0.33673095703125
1769661550479543800,1.852543701171875,-0.101348876953125,0.9322052001953125,0.334686279296875
1769661550489531600,1.86253173828125,-0.1012115478515625,0.92669677734375,0.3323974609375
1769661550499519700,1.872519775390625,-0.111968994140625,0.92388916015625,0.344482421875
1769661550509507800,1.8825078125,-0.1141510009765625,0.9185333251953125,0.345794677734375
1769661550519495700,1.89249560546875,-0.1139984130859375,0.917572021484375,0.3433837890625
1769661550529483800,1.90248388671875,-0.121063232421875,0.9190673828125,0.3444061279296875
1769661550539472000,1.912471923828125,-0.125396728515625,0.9188385009765625,0.3426666259765625
1769661550549459700,1.922459716796875,-0.126220703125,0.923187255859375,0.3455963134765625
1769661550559447800,1.93244775390625,-0.1251068115234375,0.9251251220703125,0.34600830078125
1769661550569436000,1.942435791015625,-0.116790771484375,0.9347991943359375,0.339385986328125
1769661550579423700,1.952423828125,-0.11456298828125,0.9437255859375,0.3388519287109375
1769661550589411800,1.962411865234375,-0.11773681640625,0.947906494140625,0.3313140869140625
1769661550599399700,1.972399658203125,-0.121185302734375,0.950927734375,0.327606201171875
1769661550609387800,1.9823876953125,-0.1224517822265625,0.9534149169921875,0.328125
1769661550619375600,1.992375732421875,-0.1133575439453125,0.942230224609375,0.3289337158203125
1769661550629363700,2.00236376953125,-0.108428955078125,0.926116943359375,0.3344573974609375
1769661550639351800,2.012351806640625,-0.098358154296875,0.9139862060546875,0.3379058837890625
1769661550649339600,2.022339599609375,-0.0955352783203125,0.9123077392578125,0.3399200439453125
1769661550659327700,2.03232763671875,-0.106475830078125,0.9155731201171875,0.339813232421875
1769661550669315800,2.04231591796875,-0.113311767578125,0.9229583740234375,0.336181640625
1769661550679304000,2.052303955078125,-0.1116180419921875,0.92901611328125,0.3312225341796875
1769661550689291800,2.062291748046875,-0.1151885986328125,0.9340972900390625,0.3278961181640625
1769661550699278800,2.07227880859375,-0.1203155517578125,0.9373779296875,0.326202392578125
1769661550709266700,2.0822666015625,-0.118896484375,0.939483642578125,0.32708740234375
1769661550719254800,2.0922548828125,-0.1169891357421875,0.935546875,0.324737548828125
1769661550729243000,2.102242919921875,-0.1134796142578125,0.9312591552734375,0.3253326416015625
1769661550739231000,2.11223095703125,-0.11248779296875,0.9273834228515625,0.32452392578125
1769661550749218800,2.12221875,-0.1055145263671875,0.930511474609375,0.3264312744140625
1769661550759206700,2.13220654296875,-0.1010284423828125,0.9359130859375,0.3275146484375
1769661550769194800,2.14219482421875,-0.0968017578125,0.9383544921875,0.3246002197265625
1769661550779182600,2.1521826171875,-0.0932159423828125,0.9387664794921875,0.32220458984375
1769661550789170700,2.162170654296875,-0.096038818359375,0.9376373291015625,0.321807861328125
1769661550799158800,2.17215869140625,-0.100860595703125,0.9376678466796875,0.3259735107421875
1769661550809147000,2.18214697265625,-0.102020263671875,0.936767578125,0.331024169921875
1769661550819134700,2.192134765625,-0.1027069091796875,0.93475341796875,0.3363494873046875
1769661550829122800,2.202122802734375,-0.101226806640625,0.9330596923828125,0.3327789306640625
1769661550839111000,2.21211083984375,-0.102752685546875,0.931427001953125,0.331024169921875
1769661550849098800,2.2220986328125,-0.0988922119140625,0.9328460693359375,0.327789306640625
1769661550859086800,2.2320869140625,-0.09429931640625,0.93365478515625,0.3265380859375
1769661550869073700,2.24207373046875,-0.0972137451171875,0.932525634765625,0.334716796875
1769661550879061500,2.2520615234375,-0.0936431884765625,0.9320220947265625,0.3372955322265625
1769661550889049600,2.262049560546875,-0.093017578125,0.935333251953125,0.335113525390625
1769661550899037700,2.27203759765625,-0.0948638916015625,0.9365386962890625,0.3377532958984375
1769661550909025500,2.282025634765625,-0.09808349609375,0.938568115234375,0.3399200439453125
1769661550919013400,2.292013427734375,-0.09857177734375,0.9355621337890625,0.3407745361328125
1769661550929001500,2.30200146484375,-0.10382080078125,0.931121826171875,0.3447418212890625
1769661550938989600,2.311989501953125,-0.1020050048828125,0.9269561767578125,0.3383026123046875
1769661550948977400,2.321977294921875,-0.0973663330078125,0.9263153076171875,0.337249755859375
1769661550958965500,2.331965576171875,-0.098541259765625,0.927642822265625,0.3370361328125
1769661550968953600,2.34195361328125,-0.102630615234375,0.929779052734375,0.3371429443359375
1769661550978941400,2.35194140625,-0.1005096435546875,0.929107666015625,0.33306884765625
1769661550988928500,2.361928466796875,-0.1000823974609375,0.92840576171875,0.32843017578125
1769661550998916600,2.37191650390625,-0.097747802734375,0.931732177734375,0.32342529296875
1769661551008904400,2.381904541015625,-0.09759521484375,0.93511962890625,0.3224334716796875
1769661551018892500,2.391892578125,-0.0984344482421875,0.93707275390625,0.3214874267578125
1769661551028880600,2.401880615234375,-0.0986175537109375,0.9448699951171875,0.321807861328125
1769661551038868500,2.411868408203125,-0.103515625,0.945892333984375,0.3251495361328125
1769661551048856600,2.421856689453125,-0.104461669921875,0.946868896484375,0.324676513671875
1769661551058844700,2.4318447265625,-0.1057281494140625,0.9439697265625,0.322998046875
1769661551068832500,2.44183251953125,-0.10528564453125,0.9389495849609375,0.324249267578125
1769661551078820400,2.4518203125,-0.10107421875,0.935882568359375,0.32391357421875
1769661551088808400,2.461808349609375,-0.102813720703125,0.930328369140625,0.3243255615234375
1769661551098796500,2.471796630859375,-0.1011810302734375,0.9279022216796875,0.3191986083984375
1769661551108784400,2.481784423828125,-0.0988006591796875,0.9288482666015625,0.31854248046875
1769661551118772500,2.4917724609375,-0.0971527099609375,0.930816650390625,0.318267822265625
1769661551128760600,2.501760498046875,-0.095550537109375,0.9309234619140625,0.3182220458984375
1769661551138748400,2.51174853515625,-0.0931854248046875,0.9311981201171875,0.318389892578125
1769661551148736500,2.521736572265625,-0.0954742431640625,0.9321136474609375,0.3202056884765625
1769661551158724600,2.531724609375,-0.094879150390625,0.9328460693359375,0.319366455078125
1769661551168712700,2.541712646484375,-0.0881805419921875,0.93756103515625,0.3159027099609375
1769661551178700500,2.551700439453125,-0.0872039794921875,0.9351806640625,0.312103271484375
1769661551188688600,2.561688720703125,-0.0924530029296875,0.939483642578125,0.317352294921875
1769661551198676500,2.571676513671875,-0.0946044921875,0.9455108642578125,0.3195648193359375
1769661551208664300,2.581664306640625,-0.09735107421875,0.947113037109375,0.3240966796875
1769661551218652400,2.59165234375,-0.0987091064453125,0.9459075927734375,0.3282623291015625
1769661551228640500,2.601640625,-0.0956268310546875,0.943695068359375,0.3290863037109375
1769661551238628600,2.611628662109375,-0.093048095703125,0.9420318603515625,0.3298797607421875
1769661551248616400,2.621616455078125,-0.090972900390625,0.9398193359375,0.331878662109375
1769661551258604500,2.6316044921875,-0.085357666015625,0.9414215087890625,0.33099365234375
1769661551268592600,2.641592529296875,-0.0791778564453125,0.9419403076171875,0.3258819580078125
1769661551278580500,2.65158056640625,-0.08380126953125,0.94061279296875,0.3387603759765625
1769661551288568600,2.661568603515625,-0.0908355712890625,0.933319091796875,0.3304595947265625
1769661551298555600,2.6715556640625,-0.0847625732421875,0.931915283203125,0.3271636962890625
1769661551308543500,2.68154345703125,-0.08587646484375,0.930267333984375,0.3248291015625
1769661551318531600,2.691531494140625,-0.0904388427734375,0.92974853515625,0.3212127685546875
1769661551328519700,2.701519775390625,-0.0950469970703125,0.93377685546875,0.3209381103515625
1769661551338507500,2.711507568359375,-0.0936431884765625,0.936614990234375,0.31927490234375
1769661551348495400,2.721495361328125,-0.0933380126953125,0.9387359619140625,0.316131591796875
1769661551358483500,2.7314833984375,-0.0956573486328125,0.9411468505859375,0.3170928955078125
1769661551368471600,2.741471435546875,-0.095794677734375,0.9385223388671875,0.3199005126953125
1769661551378459400,2.75145947265625,-0.092041015625,0.9386138916015625,0.32086181640625
1769661551388447500,2.761447509765625,-0.0922088623046875,0.939605712890625,0.3231353759765625
1769661551398435600,2.771435546875,-0.0926971435546875,0.939727783203125,0.3280181884765625
1769661551408423400,2.78142333984375,-0.0891876220703125,0.9393463134765625,0.328582763671875
1769661551418411500,2.79141162109375,-0.0894317626953125,0.9356231689453125,0.329803466796875
1769661551428399600,2.801399658203125,-0.0844268798828125,0.9366455078125,0.3321685791015625
1769661551438387700,2.8113876953125,-0.079742431640625,0.9352569580078125,0.329986572265625
1769661551448375600,2.82137548828125,-0.07861328125,0.93365478515625,0.3287506103515625
1769661551458363600,2.83136376953125,-0.0794677734375,0.93475341796875,0.329071044921875
1769661551468351500,2.8413515625,-0.0839385986328125,0.93560791015625,0.3291473388671875
1769661551478339300,2.85133935546875,-0.0858306884765625,0.9352569580078125,0.329620361328125
1769661551488327400,2.861327392578125,-0.08697509765625,0.9346923828125,0.3295745849609375
1769661551498315500,2.8713154296875,-0.0898284912109375,0.9355926513671875,0.32757568359375
1769661551508303600,2.8813037109375,-0.08990478515625,0.9345703125,0.326995849609375
1769661551518291500,2.89129150390625,-0.0926055908203125,0.93621826171875,0.328125
1769661551528279600,2.901279541015625,-0.0910186767578125,0.9370880126953125,0.329559326171875
1769661551538267600,2.911267578125,-0.090545654296875,0.936553955078125,0.3326263427734375
1769661551548255500,2.92125537109375,-0.0901336669921875,0.9351043701171875,0.3322296142578125
1769661551558243600,2.93124365234375,-0.088287353515625,0.93438720703125,0.3321990966796875
1769661551568231700,2.941231689453125,-0.0865631103515625,0.93438720703125,0.3334808349609375
1769661551578219500,2.951219482421875,-0.0845184326171875,0.935638427734375,0.33197021484375
1769661551588207400,2.961207275390625,-0.0830078125,0.9380645751953125,0.331451416015625
1769661551598195500,2.971195556640625,-0.0839691162109375,0.9369964599609375,0.3270111083984375
1769661551608182500,2.9811826171875,-0.082183837890625,0.93658447265625,0.324737548828125
1769661551618170600,2.991170654296875,-0.0828399658203125,0.9388885498046875,0.3241119384765625
1769661551628158500,3.001158447265625,-0.0833587646484375,0.9384765625,0.32391357421875
1769661551638146600,3.011146484375,-0.0859222412109375,0.9366607666015625,0.3244781494140625
1769661551648134400,3.021134521484375,-0.0851287841796875,0.93609619140625,0.325958251953125
1769661551658122500,3.03112255859375,-0.08404541015625,0.938507080078125,0.3287353515625
1769661551668110600,3.041110595703125,-0.0854644775390625,0.940216064453125,0.3306121826171875
1769661551678098400,3.051098388671875,-0.0856475830078125,0.9398651123046875,0.3312225341796875
1769661551688086500,3.06108642578125,-0.0846405029296875,0.94097900390625,0.3302459716796875
1769661551698074600,3.07107470703125,-0.083587646484375,0.9389495849609375,0.3305816650390625
1769661551708062500,3.0810625,-0.085113525390625,0.935302734375,0.3305816650390625
1769661551718050600,3.091050537109375,-0.08599853515625,0.9340057373046875,0.3317108154296875
1769661551728038700,3.10103857421875,-0.0872344970703125,0.934051513671875,0.3299407958984375
1769661551738026500,3.111026611328125,-0.0864410400390625,0.935577392578125,0.32965087890625
1769661551748014300,3.121014404296875,-0.08758544921875,0.93603515625,0.3275146484375
1769661551758002400,3.13100244140625,-0.084869384765625,0.940155029296875,0.3270111083984375
1769661551767990500,3.140990478515625,-0.08197021484375,0.93994140625,0.3265228271484375
1769661551777978400,3.150978271484375,-0.0794219970703125,0.9388275146484375,0.3281402587890625
1769661551787966500,3.160966552734375,-0.080078125,0.9375762939453125,0.332275390625
1769661551797954600,3.17095458984375,-0.0831451416015625,0.9333648681640625,0.3325347900390625
1769661551807942700,3.180942626953125,-0.080078125,0.9316253662109375,0.3309326171875
1769661551817930500,3.190930419921875,-0.07757568359375,0.9342041015625,0.3294525146484375
1769661551827918600,3.200918701171875,-0.077667236328125,0.9338836669921875,0.3264312744140625
1769661551837906700,3.21090673828125,-0.076141357421875,0.93719482421875,0.3232574462890625
1769661551847894500,3.22089453125,-0.0752716064453125,0.93804931640625,0.3211822509765625
1769661551857882600,3.230882568359375,-0.074798583984375,0.9376220703125,0.3188018798828125
1769661551867870700,3.24087060546875,-0.073944091796875,0.9401092529296875,0.317962646484375
1769661551877858800,3.25085888671875,-0.07275390625,0.940765380859375,0.3189697265625
1769661551887846700,3.2608466796875,-0.073699951171875,0.9413604736328125,0.318817138671875
1769661551897834800,3.270834716796875,-0.07373046875,0.9399871826171875,0.320709228515625
1769661551907822800,3.28082275390625,-0.0730438232421875,0.9381866455078125,0.3202362060546875
1769661551917809700,3.2908095703125,-0.0741729736328125,0.937225341796875,0.3200836181640625
1769661551927797800,3.3007978515625,-0.0752716064453125,0.9382781982421875,0.31915283203125
1769661551937785900,3.310785888671875,-0.075592041015625,0.9398345947265625,0.3189697265625
1769661551947773700,3.320773681640625,-0.0772857666015625,0.937591552734375,0.32049560546875
1769661551957761800,3.33076171875,-0.0812530517578125,0.9359130859375,0.3238525390625
1769661551967750000,3.34075,-0.07952880859375,0.9375762939453125,0.326568603515625
1769661551977737700,3.35073779296875,-0.0779876708984375,0.936126708984375,0.3283843994140625
1769661551987725800,3.360725830078125,-0.0787353515625,0.9353485107421875,0.3289642333984375
1769661551997714000,3.3707138671875,-0.0789947509765625,0.940399169921875,0.331146240234375
1769661552007701800,3.38070166015625,-0.080291748046875,0.9436492919921875,0.3325958251953125
1769661552017689600,3.390689697265625,-0.0800018310546875,0.94378662109375,0.3315582275390625
1769661552027677700,3.400677734375,-0.0813446044921875,0.94500732421875,0.3314208984375
1769661552037665800,3.410665771484375,-0.083892822265625,0.941864013671875,0.3292999267578125
1769661552047653600,3.420653564453125,-0.085174560546875,0.940155029296875,0.33306884765625
1769661552057641700,3.430641845703125,-0.0797271728515625,0.939666748046875,0.331390380859375
1769661552067629800,3.4406298828125,-0.078643798828125,0.9355926513671875,0.329986572265625
1769661552077618000,3.450617919921875,-0.08245849609375,0.9331817626953125,0.3266448974609375
1769661552087605800,3.460605712890625,-0.0846405029296875,0.9329833984375,0.325592041015625
1769661552097593900,3.47059375,-0.08465576171875,0.9323272705078125,0.3255615234375
1769661552107582000,3.48058203125,-0.082550048828125,0.9364471435546875,0.3245849609375
1769661552117569800,3.49056982421875,-0.0808563232421875,0.9383697509765625,0.32647705078125
1769661552127557600,3.5005576171875,-0.0829315185546875,0.9426116943359375,0.328277587890625
1769661552137545700,3.510545654296875,-0.087188720703125,0.943359375,0.328887939453125
1769661552147533800,3.520533935546875,-0.09014892578125,0.9427947998046875,0.327667236328125
1769661552157521700,3.530521728515625,-0.08837890625,0.939910888671875,0.326416015625
1769661552167509800,3.540509765625,-0.084686279296875,0.9373626708984375,0.3256683349609375
1769661552177497900,3.550497802734375,-0.080780029296875,0.936248779296875,0.3258056640625
1769661552187485700,3.560485595703125,-0.078887939453125,0.937164306640625,0.326446533203125
1769661552197473800,3.570473876953125,-0.0802154541015625,0.9404754638671875,0.327606201171875
1769661552207462000,3.5804619140625,-0.0813446044921875,0.940521240234375,0.32879638671875
1769661552217449700,3.59044970703125,-0.0812225341796875,0.938323974609375,0.3298797607421875
1769661552227436800,3.600436767578125,-0.07977294921875,0.935302734375,0.3303680419921875
1769661552237425000,3.6104248046875,-0.0789642333984375,0.935546875,0.3297119140625
1769661552247412700,3.620412841796875,-0.0812530517578125,0.936279296875,0.3287200927734375
1769661552257400800,3.63040087890625,-0.0842132568359375,0.9376068115234375,0.327789306640625
1769661552267389000,3.640388916015625,-0.086334228515625,0.937286376953125,0.3291168212890625
1769661552277376800,3.650376708984375,-0.0836029052734375,0.937042236328125,0.328277587890625
1769661552287364600,3.660364501953125,-0.081512451171875,0.9365692138671875,0.3300323486328125
1769661552297352700,3.670352783203125,-0.081268310546875,0.9370269775390625,0.3316497802734375
1769661552307340800,3.6803408203125,-0.079559326171875,0.9400177001953125,0.331817626953125
1769661552317328600,3.69032861328125,-0.0803375244140625,0.9386749267578125,0.330780029296875
1769661552327316700,3.700316650390625,-0.0794677734375,0.935150146484375,0.3325042724609375
1769661552337304800,3.710304931640625,-0.0797271728515625,0.9337158203125,0.333587646484375
1769661552347292700,3.720292724609375,-0.0793914794921875,0.930908203125,0.3349151611328125
1769661552357280800,3.73028076171875,-0.0792083740234375,0.9300994873046875,0.3359832763671875
1769661552367268900,3.740268798828125,-0.0777587890625,0.9302825927734375,0.334930419921875
1769661552377257000,3.750257080078125,-0.0772705078125,0.9295654296875,0.3334197998046875
1769661552387244800,3.760244873046875,-0.0798492431640625,0.9319915771484375,0.3340606689453125
1769661552397233000,3.77023291015625,-0.0835418701171875,0.936981201171875,0.33502197265625
1769661552407220700,3.780220703125,-0.0843658447265625,0.9376068115234375,0.33642578125
1769661552417208600,3.79020849609375,-0.087066650390625,0.93865966796875,0.334747314453125
1769661552427196700,3.80019677734375,-0.084503173828125,0.938568115234375,0.3343353271484375
1769661552437184800,3.810184814453125,-0.082794189453125,0.9396514892578125,0.336822509765625
1769661552447172900,3.8201728515625,-0.0823516845703125,0.9358978271484375,0.3367462158203125
1769661552457160700,3.83016064453125,-0.0794677734375,0.932464599609375,0.3370513916015625
1769661552467148800,3.840148681640625,-0.0760498046875,0.9327850341796875,0.336395263671875
1769661552477137000,3.850136962890625,-0.0746612548828125,0.933380126953125,0.3356475830078125
1769661552487124700,3.860124755859375,-0.07525634765625,0.934326171875,0.333282470703125
1769661552497112800,3.87011279296875,-0.0775299072265625,0.9333953857421875,0.3306121826171875
1769661552507101000,3.880100830078125,-0.07745361328125,0.9340362548828125,0.3282318115234375
1769661552517088800,3.8900888671875,-0.0787353515625,0.9349365234375,0.326141357421875
1769661552527076600,3.90007666015625,-0.0830841064453125,0.93463134765625,0.326141357421875
1769661552537064700,3.910064697265625,-0.08544921875,0.9324188232421875,0.3274078369140625
1769661552547051800,3.9200517578125,-0.0842742919921875,0.931854248046875,0.3259735107421875
1769661552557039600,3.93003955078125,-0.082733154296875,0.9329071044921875,0.324615478515625
1769661552567027700,3.94002783203125,-0.082061767578125,0.933380126953125,0.3246612548828125
1769661552577015800,3.950015869140625,-0.0794677734375,0.9327545166015625,0.3272857666015625
1769661552587003600,3.960003662109375,-0.0774383544921875,0.9345855712890625,0.3297271728515625
1769661552596991700,3.96999169921875,-0.073516845703125,0.9385833740234375,0.3309173583984375
1769661552606979800,3.979979736328125,-0.0812835693359375,0.9339447021484375,0.3317108154296875
1769661552616967700,3.9899677734375,-0.0867767333984375,0.93524169921875,0.3297119140625
1769661552626955800,3.999955810546875,-0.0819091796875,0.9383087158203125,0.326873779296875
1769661552636944000,4.00994384765625,-0.0827484130859375,0.942169189453125,0.3261566162109375
1769661552646932000,4.019931884765625,-0.0861663818359375,0.940582275390625,0.327606201171875
1769661552656919800,4.029919921875,-0.0853118896484375,0.939300537109375,0.3289031982421875
1769661552666908000,4.039907958984375,-0.0803070068359375,0.939666748046875,0.3291778564453125
1769661552676895700,4.049895751953125,-0.0790557861328125,0.934844970703125,0.326934814453125
1769661552686883600,4.059883544921875,-0.080230712890625,0.9329986572265625,0.3268890380859375
1769661552696871700,4.06987158203125,-0.0776824951171875,0.9312896728515625,0.3238677978515625
1769661552706859800,4.07985986328125,-0.0749359130859375,0.9363555908203125,0.3259124755859375
1769661552716847600,4.08984765625,-0.0798492431640625,0.9324951171875,0.32421875
1769661552726835700,4.099835693359375,-0.0916290283203125,0.93560791015625,0.3286590576171875
1769661552736823800,4.10982373046875,-0.0851898193359375,0.9433746337890625,0.3281097412109375
1769661552746812000,4.11981201171875,-0.080596923828125,0.942626953125,0.33111572265625
1769661552756799700,4.1297998046875,-0.083282470703125,0.9384765625,0.3329315185546875
1769661552766787800,4.139787841796875,-0.08465576171875,0.9364776611328125,0.333831787109375
1769661552776776000,4.14977587890625,-0.082611083984375,0.9347686767578125,0.332977294921875
1769661552786763800,4.159763671875,-0.080810546875,0.93182373046875,0.3307037353515625
1769661552796751600,4.169751708984375,-0.0816192626953125,0.9338531494140625,0.33111572265625
1769661552806739700,4.17973974609375,-0.077392578125,0.936920166015625,0.33050537109375
1769661552816727800,4.189727783203125,-0.076171875,0.939788818359375,0.3320159912109375
1769661552826715600,4.199715576171875,-0.0793609619140625,0.9405517578125,0.3331146240234375
1769661552836703700,4.209703857421875,-0.0816497802734375,0.942779541015625,0.3334503173828125
1769661552846691800,4.21969189453125,-0.084136962890625,0.9423065185546875,0.3345794677734375
1769661552856679700,4.2296796875,-0.0818328857421875,0.9406890869140625,0.3325347900390625
1769661552866668300,4.239668212890625,-0.0803680419921875,0.9372406005859375,0.3321380615234375
1769661552876655400,4.2496552734375,-0.0791015625,0.93267822265625,0.332916259765625
1769661552886643500,4.2596435546875,-0.0776519775390625,0.9311370849609375,0.33233642578125
1769661552896631300,4.26963134765625,-0.0753173828125,0.9341278076171875,0.332061767578125
1769661552906619400,4.279619384765625,-0.0791473388671875,0.9332733154296875,0.33221435546875
1769661552916607500,4.289607421875,-0.081634521484375,0.93438720703125,0.3317718505859375
1769661552926595300,4.29959521484375,-0.081146240234375,0.936859130859375,0.329925537109375
1769661552936583200,4.309583251953125,-0.080810546875,0.9391937255859375,0.3305206298828125
1769661552946571300,4.3195712890625,-0.0825653076171875,0.9403076171875,0.3308868408203125
1769661552956559400,4.329559326171875,-0.0769195556640625,0.949310302734375,0.332550048828125
1769661552966547200,4.339547119140625,-0.0799713134765625,0.945892333984375,0.332672119140625
1769661552976535300,4.349535400390625,-0.0911865234375,0.934112548828125,0.3297271728515625
1769661552986523400,4.3595234375,-0.0861053466796875,0.93084716796875,0.3254241943359375
1769661552996511200,4.36951123046875,-0.080108642578125,0.9331512451171875,0.32550048828125
1769661553006499300,4.379499267578125,-0.08038330078125,0.9362030029296875,0.3286285400390625
1769661553016487400,4.3894873046875,-0.08001708984375,0.934722900390625,0.3288116455078125
1769661553026475500,4.3994755859375,-0.0835113525390625,0.9324951171875,0.330780029296875
1769661553036463400,4.40946337890625,-0.0826416015625,0.9276885986328125,0.33160400390625
1769661553046451500,4.419451416015625,-0.081695556640625,0.92498779296875,0.3301239013671875
1769661553056439300,4.429439208984375,-0.08160400390625,0.9265594482421875,0.330352783203125
1769661553066427100,4.43942724609375,-0.0842132568359375,0.9308624267578125,0.332763671875
1769661553076415200,4.449415283203125,-0.084747314453125,0.9339447021484375,0.334564208984375
1769661553086403300,4.4594033203125,-0.0850830078125,0.93511962890625,0.335113525390625
1769661553096391200,4.46939111328125,-0.0863037109375,0.9348297119140625,0.334197998046875
1769661553106379300,4.479379150390625,-0.084442138671875,0.9365234375,0.3355712890625
1769661553116367400,4.489367431640625,-0.0821685791015625,0.9381103515625,0.3350372314453125
1769661553126355500,4.49935546875,-0.0796966552734375,0.9385223388671875,0.337005615234375
1769661553136343300,4.50934326171875,-0.079742431640625,0.9369964599609375,0.3401031494140625
1769661553146331400,4.519331298828125,-0.0759124755859375,0.934112548828125,0.3390960693359375
1769661553156319500,4.529319580078125,-0.077392578125,0.93353271484375,0.3376312255859375
1769661553166307300,4.539307373046875,-0.0769195556640625,0.9303131103515625,0.3326873779296875
1769661553176295200,4.549295166015625,-0.075042724609375,0.9373779296875,0.3277740478515625
1769661553186283300,4.559283203125,-0.0753631591796875,0.93646240234375,0.3319244384765625
1769661553196270300,4.569270263671875,-0.0845184326171875,0.924468994140625,0.3274688720703125
1769661553206258200,4.579258056640625,-0.08489990234375,0.92803955078125,0.3294830322265625
1769661553216246300,4.589246337890625,-0.0783538818359375,0.9288482666015625,0.329681396484375
1769661553226234400,4.599234375,-0.07940673828125,0.932342529296875,0.3358154296875
1769661553236222200,4.60922216796875,-0.077667236328125,0.9344329833984375,0.337615966796875
1769661553246210300,4.619210205078125,-0.0797882080078125,0.9346923828125,0.3404083251953125
1769661553256198400,4.629198486328125,-0.078399658203125,0.9343414306640625,0.341796875
1769661553266186200,4.639186279296875,-0.0750885009765625,0.931915283203125,0.3396148681640625
1769661553276174300,4.64917431640625,-0.0749664306640625,0.9295654296875,0.337890625
1769661553286162400,4.659162353515625,-0.0761566162109375,0.9286041259765625,0.33770751953125
1769661553296150300,4.669150390625,-0.0761566162109375,0.9296417236328125,0.3354644775390625
1769661553306138400,4.679138427734375,-0.074127197265625,0.92864990234375,0.334991455078125
1769661553316126500,4.68912646484375,-0.074554443359375,0.93060302734375,0.333282470703125
1769661553326114300,4.6991142578125,-0.0770111083984375,0.931640625,0.332916259765625
1769661553336102100,4.70910205078125,-0.07696533203125,0.9308929443359375,0.3318328857421875
1769661553346090200,4.71909033203125,-0.0791168212890625,0.930816650390625,0.33563232421875
1769661553356078300,4.729078369140625,-0.07989501953125,0.9312744140625,0.3353271484375
1769661553366066200,4.739066162109375,-0.0798492431640625,0.9320068359375,0.337554931640625
1769661553376054300,4.74905419921875,-0.0782470703125,0.931671142578125,0.3368682861328125
1769661553386042400,4.75904248046875,-0.07611083984375,0.93328857421875,0.3374176025390625
1769661553396030500,4.769030517578125,-0.072845458984375,0.934814453125,0.3346405029296875
1769661553406018300,4.779018310546875,-0.0751190185546875,0.9315643310546875,0.3333740234375
1769661553416006400,4.78900634765625,-0.0727081298828125,0.932586669921875,0.3361053466796875
1769661553425994500,4.798994384765625,-0.0685882568359375,0.9353179931640625,0.33709716796875
1769661553435982300,4.808982421875,-0.0737457275390625,0.934417724609375,0.335479736328125
1769661553445970200,4.81897021484375,-0.0808258056640625,0.936492919921875,0.33544921875
1769661553455958300,4.828958251953125,-0.0804595947265625,0.9375,0.33544921875
1769661553465946400,4.8389462890625,-0.0791778564453125,0.938812255859375,0.3352813720703125
1769661553475934200,4.848934326171875,-0.078765869140625,0.9393768310546875,0.3374786376953125
1769661553485922300,4.85892236328125,-0.079620361328125,0.9384002685546875,0.3393707275390625
1769661553495910400,4.868910400390625,-0.07806396484375,0.9348297119140625,0.3394775390625
1769661553505898200,4.878898193359375,-0.0757904052734375,0.9331512451171875,0.3404541015625
1769661553515886300,4.88888623046875,-0.0706939697265625,0.93377685546875,0.3402557373046875
1769661553525874400,4.89887451171875,-0.067596435546875,0.934112548828125,0.3401336669921875
1769661553535861200,4.908861328125,-0.0682220458984375,0.934356689453125,0.34051513671875
1769661553545849300,4.918849365234375,-0.0692138671875,0.9308624267578125,0.3397216796875
1769661553555837400,4.92883740234375,-0.0684814453125,0.9295196533203125,0.335784912109375
1769661553565825300,4.9388251953125,-0.0650482177734375,0.931304931640625,0.33404541015625
1769661553575813400,4.9488134765625,-0.0665740966796875,0.931854248046875,0.333404541015625
1769661553585801500,4.958801513671875,-0.073760986328125,0.9342803955078125,0.334869384765625
1769661553595789300,4.968789306640625,-0.076934814453125,0.9364471435546875,0.3338165283203125
1769661553605777200,4.978777099609375,-0.0763092041015625,0.94061279296875,0.3332672119140625
1769661553615765200,4.98876513671875,-0.0720367431640625,0.9419708251953125,0.333282470703125
1769661553625753300,4.99875341796875,-0.07232666015625,0.9400482177734375,0.335968017578125
1769661553635741200,5.0087412109375,-0.07421875,0.94024658203125,0.3385162353515625
1769661553645729300,5.018729248046875,-0.07012939453125,0.939910888671875,0.339447021484375
1769661553655717400,5.02871728515625,-0.067108154296875,0.934600830078125,0.3385009765625
1769661553665705200,5.038705322265625,-0.06817626953125,0.93072509765625,0.340606689453125
1769661553675693300,5.048693359375,-0.0688018798828125,0.930419921875,0.341400146484375
1769661553685681400,5.058681396484375,-0.06707763671875,0.9316864013671875,0.34027099609375
1769661553695669500,5.06866943359375,-0.0669097900390625,0.9332122802734375,0.3363189697265625
1769661553705657300,5.0786572265625,-0.068634033203125,0.9329986572265625,0.3349151611328125
1769661553715645400,5.0886455078125,-0.0718231201171875,0.9355926513671875,0.331787109375
1769661553725633300,5.09863330078125,-0.0760040283203125,0.9371337890625,0.3317718505859375
1769661553735621000,5.10862109375,-0.076446533203125,0.939605712890625,0.33172607421875
1769661553745609200,5.118609130859375,-0.0777587890625,0.9414825439453125,0.3319091796875
1769661553755597300,5.128597412109375,-0.07623291015625,0.9391326904296875,0.3316650390625
1769661553765585400,5.13858544921875,-0.074859619140625,0.93780517578125,0.3333587646484375
1769661553775573200,5.1485732421875,-0.0755462646484375,0.9361724853515625,0.3345184326171875
1769661553785561300,5.158561279296875,-0.0738372802734375,0.9360809326171875,0.33697509765625
1769661553795549400,5.168549560546875,-0.0719451904296875,0.9356536865234375,0.3385467529296875
1769661553805537300,5.178537353515625,-0.0718841552734375,0.9366912841796875,0.3401031494140625
1769661553815525400,5.188525390625,-0.0729827880859375,0.9347381591796875,0.3411407470703125
1769661553825513500,5.198513427734375,-0.071929931640625,0.93267822265625,0.3375091552734375
1769661553835501300,5.208501220703125,-0.068145751953125,0.933868408203125,0.3359222412109375
1769661553845489200,5.2184892578125,-0.068084716796875,0.9308929443359375,0.3349609375
1769661553855477200,5.228477294921875,-0.066741943359375,0.92889404296875,0.334716796875
1769661553865464300,5.23846435546875,-0.069915771484375,0.9327239990234375,0.337860107421875
1769661553875452400,5.248452392578125,-0.0721588134765625,0.934722900390625,0.33880615234375
1769661553885440500,5.2584404296875,-0.0731964111328125,0.93304443359375,0.3386688232421875
1769661553895428400,5.268428466796875,-0.0756072998046875,0.93255615234375,0.3380584716796875
1769661553905416400,5.27841650390625,-0.0750732421875,0.9339447021484375,0.336273193359375
1769661553915404500,5.288404541015625,-0.0751190185546875,0.935882568359375,0.3364105224609375
1769661553925392600,5.298392578125,-0.0735931396484375,0.935943603515625,0.3368988037109375
1769661553935380500,5.30838037109375,-0.07427978515625,0.93389892578125,0.33642578125
1769661553945368600,5.31836865234375,-0.073455810546875,0.9339752197265625,0.3375244140625
1769661553955356700,5.328356689453125,-0.0723724365234375,0.9335479736328125,0.3358306884765625
1769661553965344500,5.338344482421875,-0.0725555419921875,0.9322357177734375,0.3353424072265625
1769661553975332600,5.34833251953125,-0.073577880859375,0.932952880859375,0.3352203369140625
1769661553985320400,5.358320556640625,-0.073760986328125,0.93060302734375,0.3353729248046875
1769661553995308500,5.36830859375,-0.072723388671875,0.9308624267578125,0.334991455078125
1769661554005296400,5.37829638671875,-0.0727386474609375,0.933074951171875,0.3343658447265625
1769661554015284500,5.388284423828125,-0.07421875,0.9342193603515625,0.33465576171875
1769661554025272600,5.3982724609375,-0.075927734375,0.9337005615234375,0.3342132568359375
1769661554035260400,5.408260498046875,-0.0768280029296875,0.93231201171875,0.33319091796875
1769661554045248500,5.41824853515625,-0.074432373046875,0.932159423828125,0.3340301513671875
1769661554055236600,5.428236572265625,-0.0741119384765625,0.9340667724609375,0.333587646484375
1769661554065224400,5.438224365234375,-0.0769195556640625,0.9350433349609375,0.334716796875
1769661554075212500,5.448212646484375,-0.076568603515625,0.9355926513671875,0.33551025390625
1769661554085200600,5.45820068359375,-0.077606201171875,0.93572998046875,0.3366851806640625
1769661554095188700,5.468188720703125,-0.0751953125,0.935760498046875,0.3372650146484375
1769661554105176600,5.478176513671875,-0.0751800537109375,0.9380950927734375,0.3380126953125
1769661554115164400,5.488164306640625,-0.0771331787109375,0.9387969970703125,0.3384246826171875
1769661554125152500,5.498152587890625,-0.0773773193359375,0.93896484375,0.33575439453125
1769661554135140400,5.508140380859375,-0.0757293701171875,0.9388580322265625,0.33551025390625
1769661554145128400,5.51812841796875,-0.0735321044921875,0.9360198974609375,0.3342437744140625
1769661554155116500,5.528116455078125,-0.073089599609375,0.9352264404296875,0.33453369140625
1769661554165104600,5.538104736328125,-0.0723419189453125,0.9326324462890625,0.33587646484375
1769661554175092500,5.548092529296875,-0.0717926025390625,0.9315185546875,0.3342742919921875
1769661554185080600,5.55808056640625,-0.0714569091796875,0.9312744140625,0.3332366943359375
1769661554195068700,5.568068603515625,-0.07025146484375,0.9312896728515625,0.332916259765625
1769661554205055500,5.578055419921875,-0.069671630859375,0.932830810546875,0.334197998046875
1769661554215043600,5.588043701171875,-0.071441650390625,0.935089111328125,0.3365020751953125
1769661554225031700,5.59803173828125,-0.07476806640625,0.936981201171875,0.3375701904296875
1769661554235019500,5.60801953125,-0.0759735107421875,0.93560791015625,0.33758544921875
1769661554245007600,5.618007568359375,-0.0733795166015625,0.9344482421875,0.333709716796875
1769661554254995700,5.62799560546875,-0.07733154296875,0.9414215087890625,0.3383331298828125
1769661554264983300,5.6379833984375,-0.0796966552734375,0.9383697509765625,0.3377227783203125
1769661554274971400,5.647971435546875,-0.077545166015625,0.9354400634765625,0.3360595703125
1769661554284959500,5.65795947265625,-0.0767669677734375,0.933837890625,0.334686279296875
1769661554294947600,5.667947509765625,-0.0732879638671875,0.9338226318359375,0.335601806640625
1769661554304935400,5.677935302734375,-0.073211669921875,0.9346160888671875,0.33514404296875
1769661554314923500,5.687923583984375,-0.075469970703125,0.934600830078125,0.335693359375
1769661554324911600,5.69791162109375,-0.077423095703125,0.935821533203125,0.333648681640625
1769661554334899500,5.7078994140625,-0.0751190185546875,0.93585205078125,0.3344879150390625
1769661554344887600,5.717887451171875,-0.0726776123046875,0.9374542236328125,0.335723876953125
1769661554354875600,5.727875732421875,-0.072174072265625,0.9376220703125,0.3370361328125
1769661554364863700,5.73786376953125,-0.072906494140625,0.9350738525390625,0.3360595703125
1769661554374851600,5.7478515625,-0.0749664306640625,0.9315338134765625,0.336334228515625
1769661554384839400,5.75783935546875,-0.072723388671875,0.9315032958984375,0.3359832763671875
1769661554394827500,5.76782763671875,-0.0721893310546875,0.93121337890625,0.33612060546875
1769661554404815400,5.7778154296875,-0.076629638671875,0.9298858642578125,0.334716796875
1769661554414803500,5.787803466796875,-0.077392578125,0.9327545166015625,0.33612060546875
1769661554424791600,5.79779150390625,-0.0764312744140625,0.9374237060546875,0.337005615234375
1769661554434779600,5.807779541015625,-0.0766754150390625,0.936431884765625,0.3378448486328125
1769661554444767500,5.817767578125,-0.07666015625,0.9365692138671875,0.338714599609375
1769661554454755600,5.827755615234375,-0.0738067626953125,0.9384307861328125,0.341796875
1769661554464743700,5.83774365234375,-0.0725860595703125,0.939178466796875,0.3418121337890625
1769661554474731500,5.8477314453125,-0.0719146728515625,0.9356536865234375,0.34033203125
1769661554484719600,5.8577197265625,-0.0690765380859375,0.9322509765625,0.3386077880859375
1769661554494707700,5.867707763671875,-0.0694732666015625,0.9324188232421875,0.3358612060546875
1769661554504695300,5.8776953125,-0.068328857421875,0.931488037109375,0.3367462158203125
1769661554514683400,5.887683349609375,-0.0685272216796875,0.9317626953125,0.3374481201171875
1769661554524671500,5.89767138671875,-0.072021484375,0.9326324462890625,0.33721923828125
1769661554534659600,5.90765966796875,-0.0749969482421875,0.9331512451171875,0.3378448486328125
1769661554544646400,5.917646484375,-0.07733154296875,0.9358062744140625,0.3361053466796875
1769661554554634500,5.927634521484375,-0.080108642578125,0.935211181640625,0.3331756591796875
1769661554564622600,5.93762255859375,-0.0789947509765625,0.9354705810546875,0.331329345703125
1769661554574610400,5.9476103515625,-0.07769775390625,0.936279296875,0.329803466796875
1769661554584598500,5.9575986328125,-0.0776824951171875,0.9373016357421875,0.3305816650390625
1769661554594586600,5.967586669921875,-0.0769500732421875,0.93780517578125,0.3330078125
1769661554604574500,5.977574462890625,-0.0762176513671875,0.937530517578125,0.3325042724609375
1769661554614562600,5.9875625,-0.0761871337890625,0.939727783203125,0.33172607421875
1769661554624550700,5.997550537109375,-0.074493408203125,0.9405517578125,0.33087158203125
1769661554634538500,6.00753857421875,-0.0746002197265625,0.93963623046875,0.331085205078125
1769661554644526600,6.017526611328125,-0.076141357421875,0.936859130859375,0.3334197998046875
1769661554654514400,6.027514404296875,-0.0762939453125,0.93328857421875,0.33380126953125
1769661554664502500,6.03750244140625,-0.0777130126953125,0.9315185546875,0.3331298828125
1769661554674490400,6.047490478515625,-0.07684326171875,0.932708740234375,0.331634521484375
1769661554684478500,6.057478515625,-0.0777587890625,0.93505859375,0.3323822021484375
1769661554694466600,6.067466552734375,-0.0769805908203125,0.93572998046875,0.3345489501953125
1769661554704454400,6.077454345703125,-0.0757904052734375,0.9366912841796875,0.335174560546875
1769661554714442500,6.0874423828125,-0.0743560791015625,0.9357452392578125,0.333526611328125
1769661554724430600,6.0974306640625,-0.0709991455078125,0.9371185302734375,0.333526611328125
1769661554734418700,6.107418701171875,-0.0716094970703125,0.9370269775390625,0.3310699462890625
1769661554744406500,6.117406494140625,-0.073638916015625,0.9364013671875,0.330474853515625
1769661554754394600,6.12739453125,-0.07427978515625,0.935821533203125,0.3317108154296875
1769661554764382700,6.1373828125,-0.0768280029296875,0.9352569580078125,0.331329345703125
1769661554774370300,6.147370361328125,-0.0783233642578125,0.934417724609375,0.33203125
1769661554784358400,6.1573583984375,-0.0781707763671875,0.9335174560546875,0.331146240234375
1769661554794346500,6.167346435546875,-0.0783538818359375,0.932830810546875,0.3309478759765625
1769661554804334600,6.17733447265625,-0.0782623291015625,0.9340972900390625,0.330047607421875
1769661554814322400,6.187322509765625,-0.0782470703125,0.93328857421875,0.3315277099609375
1769661554824310500,6.197310546875,-0.08001708984375,0.9325408935546875,0.3337860107421875
1769661554834298600,6.207298583984375,-0.08062744140625,0.93511962890625,0.3349456787109375
1769661554844286500,6.217286376953125,-0.079437255859375,0.93560791015625,0.3356170654296875
1769661554854274600,6.227274658203125,-0.0801239013671875,0.934112548828125,0.3351898193359375
1769661554864262700,6.2372626953125,-0.0803375244140625,0.934906005859375,0.336212158203125
1769661554874250200,6.247250244140625,-0.079376220703125,0.933380126953125,0.3345184326171875
1769661554884238300,6.25723828125,-0.075714111328125,0.932769775390625,0.3341522216796875
1769661554894226200,6.26722607421875,-0.074005126953125,0.9326171875,0.3332672119140625
1769661554904213200,6.277213134765625,-0.0758209228515625,0.9341278076171875,0.33258056640625
1769661554914201300,6.287201416015625,-0.0791168212890625,0.9343719482421875,0.333038330078125
1769661554924189200,6.297189208984375,-0.0777435302734375,0.933197021484375,0.3332977294921875
1769661554934177300,6.30717724609375,-0.0788726806640625,0.9344635009765625,0.3342742919921875
1769661554944165000,6.3171650390625,-0.0793914794921875,0.934814453125,0.3342132568359375
1769661554954153000,6.327153076171875,-0.0815887451171875,0.93389892578125,0.33660888671875
1769661554964141000,6.33714111328125,-0.0816192626953125,0.932403564453125,0.335723876953125
1769661554974129200,6.347129150390625,-0.078277587890625,0.9349365234375,0.335693359375
1769661554984117200,6.3571171875,-0.0775299072265625,0.93402099609375,0.3342437744140625
1769661554994105000,6.36710498046875,-0.0772857666015625,0.933074951171875,0.33343505859375
1769661555004093200,6.37709326171875,-0.0771026611328125,0.933319091796875,0.3340301513671875
1769661555014081300,6.387081298828125,-0.075225830078125,0.9336395263671875,0.3340911865234375
1769661555024069000,6.397069091796875,-0.0733184814453125,0.93377685546875,0.3332977294921875
1769661555034057200,6.40705712890625,-0.0734100341796875,0.9345855712890625,0.33203125
1769661555044045300,6.41704541015625,-0.0750274658203125,0.9332122802734375,0.3314361572265625
1769661555054033200,6.427033203125,-0.0743560791015625,0.934814453125,0.33233642578125
1769661555064021000,6.43702099609375,-0.0757293701171875,0.9375,0.3329620361328125
1769661555074009000,6.447009033203125,-0.0784912109375,0.9362640380859375,0.33209228515625
1769661555083997200,6.4569970703125,-0.080535888671875,0.9358062744140625,0.33087158203125
1769661555093985000,6.466985107421875,-0.0791473388671875,0.9376068115234375,0.3306121826171875
1769661555103973000,6.47697314453125,-0.080474853515625,0.93853759765625,0.3309326171875
1769661555113961200,6.486961181640625,-0.07977294921875,0.93804931640625,0.331298828125
1769661555123949000,6.496948974609375,-0.0772705078125,0.9381866455078125,0.3304595947265625
1769661555133937200,6.506937255859375,-0.078216552734375,0.9388580322265625,0.332275390625
1769661555143925200,6.51692529296875,-0.0802459716796875,0.9398651123046875,0.33197021484375
1769661555153913300,6.526913330078125,-0.0810394287109375,0.9404754638671875,0.3331298828125
1769661555163901200,6.536901123046875,-0.080078125,0.9378204345703125,0.3335113525390625
1769661555173889300,6.54688916015625,-0.0785675048828125,0.9352569580078125,0.3332977294921875
1769661555183877000,6.556877197265625,-0.078460693359375,0.9348907470703125,0.33135986328125
1769661555193865000,6.566864990234375,-0.07635498046875,0.9338836669921875,0.33135986328125
1769661555203853000,6.57685302734375,-0.07476806640625,0.9338531494140625,0.3303680419921875
1769661555213841200,6.586841064453125,-0.074005126953125,0.9378662109375,0.3299713134765625
1769661555223829200,6.596829345703125,-0.070037841796875,0.938262939453125,0.3300628662109375
1769661555233816000,6.606816162109375,-0.0724639892578125,0.9380645751953125,0.3295135498046875
1769661555243804200,6.61680419921875,-0.0770263671875,0.935455322265625,0.33038330078125
1769661555253792000,6.6267919921875,-0.0797576904296875,0.9358978271484375,0.3291168212890625
1769661555263780000,6.636780029296875,-0.08026123046875,0.93658447265625,0.3275909423828125
1769661555273768200,6.646768310546875,-0.0822601318359375,0.93609619140625,0.32684326171875
1769661555283756300,6.65675634765625,-0.0830535888671875,0.9382476806640625,0.3276519775390625
1769661555293744000,6.666744140625,-0.080474853515625,0.939422607421875,0.3284912109375
1769661555303732200,6.676732177734375,-0.077667236328125,0.9396209716796875,0.3285980224609375
1769661555313720300,6.68672021484375,-0.0753173828125,0.93792724609375,0.3305511474609375
1769661555323708200,6.696708251953125,-0.0763092041015625,0.93682861328125,0.3326263427734375
1769661555333696000,6.706696044921875,-0.07769775390625,0.936676025390625,0.3352203369140625
1769661555343684000,6.71668408203125,-0.0736083984375,0.935028076171875,0.33538818359375
1769661555353672200,6.726672119140625,-0.0752410888671875,0.9335479736328125,0.3359832763671875
1769661555363660000,6.736659912109375,-0.076629638671875,0.9330596923828125,0.3373565673828125
1769661555373648100,6.746648193359375,-0.07598876953125,0.9349365234375,0.3376922607421875
1769661555383636200,6.75663623046875,-0.0750732421875,0.9375762939453125,0.3378448486328125
1769661555393624000,6.7666240234375,-0.075469970703125,0.9378662109375,0.3365325927734375
1769661555403612200,6.776612060546875,-0.0760650634765625,0.93865966796875,0.3352813720703125
1769661555413600300,6.786600341796875,-0.075531005859375,0.9396209716796875,0.3343658447265625
1769661555423588000,6.796588134765625,-0.07952880859375,0.9408416748046875,0.332489013671875
1769661555433576200,6.806576171875,-0.07958984375,0.94110107421875,0.3349761962890625
1769661555443564300,6.816564208984375,-0.079193115234375,0.9333038330078125,0.32550048828125
1769661555453552000,6.82655224609375,-0.079376220703125,0.9286956787109375,0.32611083984375
1769661555463540000,6.8365400390625,-0.07745361328125,0.92864990234375,0.32470703125
1769661555473528000,6.846528076171875,-0.077362060546875,0.931427001953125,0.3262176513671875
1769661555483516200,6.85651611328125,-0.0797576904296875,0.935333251953125,0.327728271484375
1769661555493504000,6.86650390625,-0.0812530517578125,0.9349365234375,0.3289337158203125
1769661555503492000,6.8764921875,-0.0787811279296875,0.935791015625,0.3304290771484375
1769661555513480200,6.886480224609375,-0.0760498046875,0.9349212646484375,0.3316497802734375
1769661555523468300,6.89646826171875,-0.0754547119140625,0.9319915771484375,0.3340911865234375
1769661555533456100,6.9064560546875,-0.075531005859375,0.9306793212890625,0.3344879150390625
1769661555543444200,6.9164443359375,-0.0761871337890625,0.931884765625,0.3333892822265625
1769661555553432300,6.926432373046875,-0.077178955078125,0.9336090087890625,0.3344879150390625
1769661555563420200,6.936420166015625,-0.0827178955078125,0.9358367919921875,0.3331451416015625
1769661555573408000,6.946407958984375,-0.087310791015625,0.93646240234375,0.3311309814453125
1769661555583396000,6.95639599609375,-0.087799072265625,0.9373779296875,0.3291778564453125
1769661555593383200,6.966383056640625,-0.0893096923828125,0.939697265625,0.326568603515625
1769661555603371300,6.976371337890625,-0.0907745361328125,0.939239501953125,0.3266448974609375
1769661555613359000,6.986359130859375,-0.0903167724609375,0.941192626953125,0.327911376953125
1769661555623347000,6.996346923828125,-0.0886688232421875,0.9359893798828125,0.3260040283203125
1769661555633335000,7.0063349609375,-0.0862579345703125,0.9300079345703125,0.328369140625
1769661555643323100,7.0163232421875,-0.082916259765625,0.93035888671875,0.330474853515625
1769661555653311200,7.026311279296875,-0.077301025390625,0.9318389892578125,0.3332977294921875
1769661555663299000,7.036299072265625,-0.07757568359375,0.9360809326171875,0.33477783203125
1769661555673287200,7.046287109375,-0.0777130126953125,0.9380035400390625,0.333404541015625
1769661555683275300,7.056275146484375,-0.0773773193359375,0.93878173828125,0.3322906494140625
1769661555693263000,7.06626318359375,-0.076873779296875,0.93798828125,0.332000732421875
1769661555703251200,7.076251220703125,-0.0768280029296875,0.9354400634765625,0.333648681640625
1769661555713239300,7.0862392578125,-0.0771636962890625,0.9328155517578125,0.33203125
1769661555723227100,7.09622705078125,-0.078521728515625,0.933135986328125,0.3327789306640625
1769661555733215000,7.106215087890625,-0.0804443359375,0.93487548828125,0.3321075439453125
1769661555743203000,7.116203125,-0.082763671875,0.9363250732421875,0.3332977294921875
1769661555753191200,7.126191162109375,-0.0826416015625,0.9360504150390625,0.330230712890625
1769661555763179000,7.136178955078125,-0.0827789306640625,0.9351043701171875,0.330810546875
1769661555773167000,7.1461669921875,-0.0816802978515625,0.934661865234375,0.331512451171875
1769661555783155200,7.1561552734375,-0.082244873046875,0.93438720703125,0.3327789306640625
1769661555793143000,7.16614306640625,-0.0819854736328125,0.93621826171875,0.3335113525390625
1769661555803131100,7.176131103515625,-0.081329345703125,0.9335479736328125,0.3333282470703125
1769661555813119200,7.186119140625,-0.0798492431640625,0.9338836669921875,0.33453369140625
1769661555823107300,7.196107421875,-0.077789306640625,0.9330596923828125,0.33673095703125
1769661555833095200,7.20609521484375,-0.075592041015625,0.9326934814453125,0.338134765625
1769661555843083300,7.216083251953125,-0.0742645263671875,0.9346466064453125,0.337890625
1769661555853071000,7.226071044921875,-0.0736083984375,0.935028076171875,0.338531494140625
1769661555863059000,7.236058837890625,-0.0758514404296875,0.93572998046875,0.33892822265625
1769661555873046500,7.246046630859375,-0.0792694091796875,0.9360198974609375,0.33697509765625
1769661555883034600,7.25603466796875,-0.078704833984375,0.9351348876953125,0.33514404296875
1769661555893022500,7.2660224609375,-0.0802154541015625,0.9336700439453125,0.3363037109375
1769661555903010600,7.276010498046875,-0.080413818359375,0.9339752197265625,0.3349761962890625
1769661555912998700,7.28599853515625,-0.078765869140625,0.93450927734375,0.33349609375
1769661555922986800,7.29598681640625,-0.0770263671875,0.93475341796875,0.333251953125
1769661555932974600,7.305974609375,-0.076202392578125,0.9342803955078125,0.3323516845703125
1769661555942961700,7.315961669921875,-0.0738983154296875,0.93603515625,0.3326416015625
1769661555952949800,7.32594970703125,-0.0737762451171875,0.9343109130859375,0.3308868408203125
1769661555962937600,7.3359375,-0.0755767822265625,0.9343719482421875,0.333038330078125
1769661555972925700,7.34592578125,-0.07806396484375,0.935333251953125,0.333526611328125
1769661555982913800,7.355913818359375,-0.080169677734375,0.9348907470703125,0.3340606689453125
1769661555992901600,7.365901611328125,-0.082672119140625,0.9358673095703125,0.3343505859375
1769661556002889700,7.3758896484375,-0.0831451416015625,0.9371795654296875,0.3345794677734375
1769661556012877800,7.3858779296875,-0.0811920166015625,0.9368133544921875,0.3328094482421875
1769661556022865400,7.395865478515625,-0.0799560546875,0.9352874755859375,0.3343048095703125
1769661556032853500,7.405853515625,-0.0775909423828125,0.9339141845703125,0.3330078125
1769661556042841600,7.415841552734375,-0.07666015625,0.9312591552734375,0.3333892822265625
1769661556052829700,7.42582958984375,-0.075714111328125,0.93096923828125,0.334564208984375
1769661556062817500,7.435817626953125,-0.07489013671875,0.933258056640625,0.3353118896484375
1769661556072805600,7.4458056640625,-0.07781982421875,0.931915283203125,0.334625244140625
1769661556082793700,7.455793701171875,-0.0830841064453125,0.9291839599609375,0.3355712890625
1769661556092781600,7.465781494140625,-0.081573486328125,0.931549072265625,0.33697509765625
1769661556102769700,7.475769775390625,-0.07708740234375,0.9346466064453125,0.334136962890625
1769661556112757800,7.4857578125,-0.0787811279296875,0.93365478515625,0.333251953125
1769661556122745900,7.495745849609375,-0.0809173583984375,0.9313507080078125,0.333709716796875
1769661556132733700,7.505733642578125,-0.0811309814453125,0.932861328125,0.3361053466796875
1769661556142721500,7.515721435546875,-0.0774688720703125,0.9340362548828125,0.335906982421875
1769661556152709600,7.525709716796875,-0.0775146484375,0.9349822998046875,0.335723876953125
1769661556162697500,7.535697509765625,-0.0803070068359375,0.93670654296875,0.33843994140625
1769661556172685600,7.545685546875,-0.0807647705078125,0.9381103515625,0.3393096923828125
1769661556182673700,7.555673583984375,-0.079864501953125,0.9375,0.3391265869140625
1769661556192661800,7.565661865234375,-0.0781707763671875,0.9361114501953125,0.3397674560546875
1769661556202649600,7.575649658203125,-0.0760345458984375,0.9322662353515625,0.3367767333984375
1769661556212637700,7.5856376953125,-0.0743865966796875,0.931671142578125,0.3382110595703125
1769661556222625800,7.595625732421875,-0.074249267578125,0.9300384521484375,0.337432861328125
1769661556232613600,7.605613525390625,-0.074676513671875,0.9295196533203125,0.3357391357421875
1769661556242601700,7.615601806640625,-0.07489013671875,0.9275360107421875,0.3345794677734375
1769661556252589800,7.62558984375,-0.0767059326171875,0.9298095703125,0.333892822265625
1769661556262577400,7.635577392578125,-0.0783233642578125,0.9316864013671875,0.3328094482421875
1769661556272565500,7.6455654296875,-0.0821075439453125,0.934783935546875,0.3321533203125
1769661556282553600,7.6555537109375,-0.084136962890625,0.9368438720703125,0.3317413330078125
1769661556292541700,7.665541748046875,-0.0850982666015625,0.9391937255859375,0.3305206298828125
1769661556302529500,7.675529541015625,-0.084808349609375,0.9380950927734375,0.3323211669921875
1769661556312516600,7.6855166015625,-0.0818023681640625,0.9386444091796875,0.337066650390625
1769661556322504700,7.695504638671875,-0.0808868408203125,0.9382781982421875,0.33697509765625
1769661556332492500,7.705492431640625,-0.0780792236328125,0.9375152587890625,0.338287353515625
1769661556342480600,7.715480712890625,-0.0742034912109375,0.93505859375,0.3371429443359375
1769661556352468700,7.72546875,-0.071441650390625,0.9299468994140625,0.3374481201171875
1769661556362456600,7.73545654296875,-0.071075439453125,0.9277801513671875,0.337432861328125
1769661556372444700,7.745444580078125,-0.070526123046875,0.9274749755859375,0.3357086181640625
1769661556382432800,7.755432861328125,-0.07122802734375,0.9279327392578125,0.335296630859375
1769661556392420900,7.7654208984375,-0.0767822265625,0.930328369140625,0.3365325927734375
1769661556402408700,7.77540869140625,-0.0804595947265625,0.931671142578125,0.33648681640625
1769661556412396500,7.785396484375,-0.0849761962890625,0.9312591552734375,0.337615966796875
1769661556422384600,7.795384521484375,-0.0842437744140625,0.9320526123046875,0.3386077880859375
1769661556432372500,7.80537255859375,-0.08258056640625,0.93206787109375,0.3370361328125
1769661556442360600,7.815360595703125,-0.0809478759765625,0.933807373046875,0.33721923828125
1769661556452348700,7.8253486328125,-0.07867431640625,0.9341583251953125,0.337066650390625
1769661556462336500,7.83533642578125,-0.075927734375,0.934356689453125,0.3365325927734375
1769661556472324600,7.84532470703125,-0.0740203857421875,0.9331817626953125,0.3369140625
1769661556482312700,7.855312744140625,-0.0739898681640625,0.931976318359375,0.3360595703125
1769661556492300800,7.86530078125,-0.0725860595703125,0.9324798583984375,0.3353271484375
1769661556502288600,7.87528857421875,-0.074066162109375,0.9332427978515625,0.3350830078125
1769661556512276700,7.88527685546875,-0.0765533447265625,0.93499755859375,0.335906982421875
1769661556522264800,7.895264892578125,-0.077728271484375,0.9367218017578125,0.3381500244140625
1769661556532252700,7.905252685546875,-0.0769500732421875,0.935699462890625,0.3409576416015625
1769661556542240500,7.915240478515625,-0.07647705078125,0.9353179931640625,0.34210205078125
1769661556552228600,7.925228515625,-0.074371337890625,0.9346466064453125,0.34149169921875
1769661556562216700,7.935216796875,-0.07464599609375,0.9333953857421875,0.3412017822265625
1769661556572204500,7.94520458984375,-0.0742034912109375,0.931976318359375,0.3394317626953125
1769661556582192600,7.955192626953125,-0.0718536376953125,0.9331817626953125,0.339569091796875
1769661556592180700,7.9651806640625,-0.07171630859375,0.93511962890625,0.34124755859375
1769661556602168600,7.97516845703125,-0.071563720703125,0.934722900390625,0.34100341796875
1769661556612156700,7.98515673828125,-0.072723388671875,0.932220458984375,0.3408050537109375
1769661556622144800,7.995144775390625,-0.0714874267578125,0.9317474365234375,0.3389739990234375
1769661556632132900,8.0051328125,-0.071685791015625,0.9319915771484375,0.336669921875
1769661556642120700,8.01512060546875,-0.0741729736328125,0.9320831298828125,0.336944580078125
1769661556652108500,8.025108642578125,-0.0767059326171875,0.9337158203125,0.336700439453125
1769661556662096600,8.0350966796875,-0.0801544189453125,0.9364013671875,0.336883544921875
1769661556672084500,8.04508447265625,-0.08056640625,0.936920166015625,0.3367156982421875
1769661556682071800,8.05507177734375,-0.07965087890625,0.9371795654296875,0.33624267578125
1769661556692059600,8.0650595703125,-0.079833984375,0.93701171875,0.3369293212890625
1769661556702047500,8.075047607421874,-0.07586669921875,0.93634033203125,0.3369903564453125
1769661556712035600,8.08503564453125,-0.073333740234375,0.9365081787109375,0.335906982421875
1769661556722023700,8.095023681640624,-0.0720367431640625,0.9344024658203125,0.336822509765625
1769661556732011500,8.105011474609375,-0.0726470947265625,0.932525634765625,0.33843994140625
1769661556741999600,8.11499951171875,-0.072265625,0.93194580078125,0.33929443359375
1769661556751987700,8.12498779296875,-0.073699951171875,0.93280029296875,0.3401336669921875
1769661556761975800,8.134975830078124,-0.0750732421875,0.9315643310546875,0.34112548828125
1769661556771963600,8.144963623046875,-0.0743560791015625,0.9351806640625,0.3424224853515625
1769661556781951700,8.15495166015625,-0.07403564453125,0.9359588623046875,0.3425140380859375
1769661556791939800,8.16493994140625,-0.0745391845703125,0.934295654296875,0.341888427734375
1769661556801927700,8.174927734375,-0.073822021484375,0.9329986572265625,0.33966064453125
1769661556811915500,8.18491552734375,-0.0714263916015625,0.929962158203125,0.339691162109375
1769661556821903600,8.194903564453124,-0.069671630859375,0.92755126953125,0.338043212890625
1769661556831891500,8.204891357421875,-0.070770263671875,0.926788330078125,0.33843994140625
1769661556841879600,8.214879638671874,-0.071624755859375,0.9282989501953125,0.33636474609375
1769661556851867600,8.22486767578125,-0.071533203125,0.932037353515625,0.3338775634765625
1769661556861855700,8.234855712890624,-0.0711212158203125,0.9329681396484375,0.333648681640625
1769661556871844900,8.244844970703125,-0.071624755859375,0.9337005615234375,0.33343505859375
1769661556881833000,8.2548330078125,-0.071990966796875,0.9368438720703125,0.3349151611328125
1769661556891820500,8.264820556640625,-0.069976806640625,0.9370574951171875,0.3362274169921875
1769661556901808600,8.27480859375,-0.0720367431640625,0.9342498779296875,0.33721923828125
1769661556911796700,8.284796630859375,-0.074737548828125,0.93182373046875,0.3398590087890625
1769661556921784800,8.294784912109375,-0.075897216796875,0.9320526123046875,0.3398284912109375
1769661556931772700,8.304772705078125,-0.0730743408203125,0.9349212646484375,0.3389434814453125
1769661556941760800,8.3147607421875,-0.0732269287109375,0.931640625,0.3397064208984375
1769661556951748900,8.324748779296876,-0.0755157470703125,0.9312896728515625,0.34027099609375
1769661556961736700,8.33473681640625,-0.0732574462890625,0.934722900390625,0.3409271240234375
1769661556971724800,8.344724853515626,-0.07171630859375,0.9373321533203125,0.34051513671875
1769661556981713000,8.354712890625,-0.072113037109375,0.938507080078125,0.3404541015625
1769661556991701000,8.364700927734376,-0.0732421875,0.9383392333984375,0.3401031494140625
1769661557001688800,8.374688720703125,-0.072906494140625,0.9377288818359375,0.3386077880859375
1769661557011676700,8.3846767578125,-0.0705413818359375,0.9374237060546875,0.337310791015625
1769661557021664800,8.394664794921875,-0.0687255859375,0.9346160888671875,0.3347320556640625
1769661557031652600,8.404652587890626,-0.06951904296875,0.93218994140625,0.335693359375
1769661557041640700,8.414640625,-0.0699462890625,0.9326019287109375,0.334716796875
1769661557051627800,8.424627685546875,-0.0697784423828125,0.93218994140625,0.3333282470703125
1769661557061615600,8.43461572265625,-0.070404052734375,0.9323272705078125,0.3349761962890625
1769661557071603700,8.444603759765625,-0.0712890625,0.93072509765625,0.333648681640625
1769661557081591800,8.454591796875,-0.072296142578125,0.9350128173828125,0.332916259765625
1769661557091579600,8.46457958984375,-0.0783233642578125,0.9382781982421875,0.3360748291015625
1769661557101567700,8.474567626953124,-0.079345703125,0.93780517578125,0.333709716796875
1769661557111555800,8.484555908203125,-0.07623291015625,0.93902587890625,0.3334503173828125
1769661557121544000,8.4945439453125,-0.0748443603515625,0.9380035400390625,0.3330078125
1769661557131531800,8.50453173828125,-0.0745697021484375,0.938385009765625,0.335479736328125
1769661557141520000,8.514519775390625,-0.074188232421875,0.9387359619140625,0.3363800048828125
1769661557151508000,8.524508056640625,-0.0752105712890625,0.938507080078125,0.33831787109375
1769661557161495800,8.534495849609375,-0.0731353759765625,0.9381561279296875,0.3411407470703125
1769661557171483600,8.544483642578125,-0.0677490234375,0.933837890625,0.3417510986328125
1769661557181471700,8.5544716796875,-0.0663909912109375,0.9318695068359375,0.341278076171875
1769661557191459800,8.5644599609375,-0.0658111572265625,0.93109130859375,0.3372344970703125
1769661557201447700,8.57444775390625,-0.0653839111328125,0.93084716796875,0.335357666015625
1769661557211435800,8.584435791015625,-0.06707763671875,0.932708740234375,0.3328399658203125
1769661557221423900,8.594423828125,-0.068572998046875,0.93487548828125,0.331939697265625
1769661557231411700,8.60441162109375,-0.07110595703125,0.93719482421875,0.3318939208984375
1769661557241399800,8.61439990234375,-0.0727386474609375,0.9360198974609375,0.330718994140625
1769661557251388000,8.624387939453126,-0.07415771484375,0.9355926513671875,0.328887939453125
1769661557261375700,8.634375732421875,-0.07666015625,0.93634033203125,0.3285064697265625
1769661557271363800,8.64436376953125,-0.0778961181640625,0.9381256103515625,0.3311004638671875
1769661557281351700,8.6543515625,-0.0774993896484375,0.9373626708984375,0.332427978515625
1769661557291339800,8.66433984375,-0.0755157470703125,0.935546875,0.3338623046875
1769661557301327600,8.67432763671875,-0.0753173828125,0.933807373046875,0.3379669189453125
1769661557311315700,8.684315673828126,-0.0733489990234375,0.9327850341796875,0.33856201171875
1769661557321303800,8.6943037109375,-0.069976806640625,0.933349609375,0.3392181396484375
1769661557331291600,8.704291748046876,-0.0662841796875,0.9331817626953125,0.3387298583984375
1769661557341279700,8.71427978515625,-0.0673980712890625,0.9337310791015625,0.3377532958984375
1769661557351267800,8.724267822265626,-0.0680084228515625,0.9339447021484375,0.33544921875
1769661557361256000,8.734255859375,-0.0689544677734375,0.935302734375,0.3353118896484375
1769661557371243800,8.744243896484376,-0.072265625,0.9345703125,0.3352203369140625
1769661557381231900,8.75423193359375,-0.0750274658203125,0.935272216796875,0.336822509765625
1769661557391220000,8.764219970703126,-0.075836181640625,0.9367828369140625,0.3357391357421875
1769661557401207800,8.774207763671875,-0.0769500732421875,0.9365386962890625,0.334197998046875
1769661557411195000,8.78419482421875,-0.0774383544921875,0.9375152587890625,0.3322601318359375
1769661557421183700,8.794183837890625,-0.0750732421875,0.9360809326171875,0.33099365234375
1769661557431170800,8.8041708984375,-0.0745086669921875,0.9370269775390625,0.331207275390625
1769661557441158700,8.81415869140625,-0.071929931640625,0.93701171875,0.33148193359375
1769661557451146800,8.824146728515625,-0.071563720703125,0.9344482421875,0.3333892822265625
1769661557461134600,8.834134521484375,-0.070526123046875,0.93328857421875,0.3355712890625
1769661557471122700,8.844122802734375,-0.06982421875,0.9345703125,0.337554931640625
1769661557481110800,8.85411083984375,-0.0694122314453125,0.9340362548828125,0.337615966796875
1769661557491099000,8.864098876953125,-0.0721893310546875,0.9358673095703125,0.33892822265625
1769661557501086700,8.874086669921875,-0.0713348388671875,0.935577392578125,0.3375396728515625
1769661557511074800,8.88407470703125,-0.07183837890625,0.9346160888671875,0.3341522216796875
1769661557521063000,8.89406298828125,-0.072601318359375,0.9351043701171875,0.33258056640625
1769661557531050800,8.90405078125,-0.0726470947265625,0.93414306640625,0.3302001953125
1769661557541038800,8.914038818359375,-0.0703125,0.93511962890625,0.330810546875
1769661557551027000,8.92402685546875,-0.0711669921875,0.9356231689453125,0.3308258056640625
1769661557561014800,8.934014892578125,-0.07159423828125,0.9374542236328125,0.3303680419921875
1769661557571002600,8.944002685546875,-0.0725555419921875,0.9372406005859375,0.331787109375
1769661557580990700,8.95399072265625,-0.0715484619140625,0.9352264404296875,0.331146240234375
1769661557590978800,8.963978759765626,-0.0718231201171875,0.934600830078125,0.3333740234375
1769661557600966700,8.973966552734375,-0.070831298828125,0.9342803955078125,0.3336944580078125
1769661557610954800,8.983954833984376,-0.0718994140625,0.9336090087890625,0.332916259765625
1769661557620942800,8.99394287109375,-0.0723419189453125,0.9349517822265625,0.33221435546875
1769661557630930700,9.0039306640625,-0.07061767578125,0.9346771240234375,0.329864501953125
1769661557640918800,9.013918701171875,-0.0685882568359375,0.9356231689453125,0.3298492431640625
1769661557650907000,9.023906982421876,-0.069580078125,0.93560791015625,0.330108642578125
1769661557660895000,9.03389501953125,-0.0698089599609375,0.936798095703125,0.331878662109375
1769661557670882800,9.0438828125,-0.0702972412109375,0.936309814453125,0.3302001953125
1769661557680870700,9.05387060546875,-0.0719451904296875,0.93707275390625,0.3310546875
1769661557690858800,9.063858642578126,-0.071624755859375,0.936798095703125,0.3303375244140625
1769661557700846600,9.0738466796875,-0.07220458984375,0.9370880126953125,0.3310089111328125
1769661557710834700,9.083834716796876,-0.07220458984375,0.9384918212890625,0.33050537109375
1769661557720822800,9.09382275390625,-0.07330322265625,0.9387054443359375,0.331695556640625
1769661557730811000,9.103810791015626,-0.0725250244140625,0.93768310546875,0.330413818359375
1769661557740798700,9.113798828125,-0.0717315673828125,0.9363555908203125,0.330657958984375
1769661557750786800,9.123786865234376,-0.072418212890625,0.935760498046875,0.3303375244140625
1769661557760775000,9.13377490234375,-0.0739288330078125,0.9354095458984375,0.3297271728515625
1769661557770762800,9.1437626953125,-0.0737152099609375,0.9354400634765625,0.3297119140625
1769661557780750800,9.153750732421875,-0.071929931640625,0.936737060546875,0.329071044921875
1769661557790739000,9.163739013671876,-0.0691986083984375,0.9384918212890625,0.329437255859375
1769661557800725800,9.173725830078125,-0.0727996826171875,0.93682861328125,0.32952880859375
1769661557810713900,9.1837138671875,-0.071441650390625,0.9365997314453125,0.3301239013671875
1769661557820702000,9.193701904296875,-0.07061767578125,0.9380035400390625,0.330322265625
1769661557830689800,9.203689697265625,-0.0716400146484375,0.936187744140625,0.3287200927734375
1769661557840677600,9.213677734375,-0.0744476318359375,0.9369659423828125,0.328460693359375
1769661557850665700,9.223665771484375,-0.0747833251953125,0.9387054443359375,0.3288726806640625
1769661557860653800,9.23365380859375,-0.0713043212890625,0.9387969970703125,0.331085205078125
1769661557870641700,9.2436416015625,-0.06842041015625,0.9392242431640625,0.3313140869140625
1769661557880628700,9.253628662109374,-0.07061767578125,0.9398956298828125,0.332733154296875
1769661557890616800,9.263616943359375,-0.072845458984375,0.9389495849609375,0.330169677734375
1769661557900605000,9.27360498046875,-0.07275390625,0.9392547607421875,0.330841064453125
1769661557910592800,9.2835927734375,-0.0691680908203125,0.9378509521484375,0.329254150390625
1769661557920580900,9.293580810546874,-0.070281982421875,0.935455322265625,0.328948974609375
1769661557930569000,9.30356884765625,-0.0711212158203125,0.9351806640625,0.33074951171875
1769661557940557000,9.31355712890625,-0.0710906982421875,0.9349212646484375,0.330322265625
1769661557950545000,9.323544921875,-0.0685577392578125,0.9334716796875,0.3300018310546875
1769661557960533000,9.333532958984375,-0.0698089599609375,0.932464599609375,0.330902099609375
1769661557970521000,9.34352099609375,-0.0711669921875,0.9330902099609375,0.3302001953125
1769661557980509000,9.353509033203125,-0.0713348388671875,0.937042236328125,0.3317718505859375
1769661557990496800,9.363496826171875,-0.0723114013671875,0.9352264404296875,0.3330230712890625
1769661558000484900,9.37348486328125,-0.06890869140625,0.9369659423828125,0.32843017578125
1769661558010473000,9.383472900390625,-0.0701141357421875,0.9447021484375,0.332794189453125
1769661558020460800,9.393460693359375,-0.074310302734375,0.940521240234375,0.3310699462890625
1769661558030449000,9.403448974609375,-0.070831298828125,0.938995361328125,0.3317718505859375
1769661558040437000,9.41343701171875,-0.06744384765625,0.937469482421875,0.33270263671875
1769661558050424800,9.4234248046875,-0.066650390625,0.9364166259765625,0.3365631103515625
1769661558060413000,9.433412841796875,-0.0692596435546875,0.9347991943359375,0.3354949951171875
1769661558070401000,9.443401123046876,-0.0710906982421875,0.9329071044921875,0.3343658447265625
1769661558080388900,9.453388916015625,-0.0711822509765625,0.9335174560546875,0.33233642578125
1769661558090377000,9.463376953125,-0.0702667236328125,0.93438720703125,0.3319549560546875
1769661558100364800,9.47336474609375,-0.069793701171875,0.934814453125,0.3321380615234375
1769661558110353000,9.483352783203125,-0.0724945068359375,0.9359283447265625,0.3346710205078125
1769661558120340700,9.4933408203125,-0.0721282958984375,0.9365234375,0.33392333984375
1769661558130328800,9.503328857421875,-0.072174072265625,0.935791015625,0.3323516845703125
1769661558140317000,9.51331689453125,-0.07244873046875,0.9347991943359375,0.3316192626953125
1769661558150304800,9.5233046875,-0.0739288330078125,0.93597412109375,0.3322601318359375
1769661558160292900,9.53329296875,-0.0744781494140625,0.9385986328125,0.3312530517578125
1769661558170281000,9.543281005859376,-0.0741424560546875,0.93817138671875,0.3301544189453125
1769661558180267800,9.553267822265624,-0.0736083984375,0.9375457763671875,0.330078125
1769661558190255900,9.563255859375,-0.0718536376953125,0.9363250732421875,0.3320159912109375
1769661558200244000,9.573243896484374,-0.0703277587890625,0.9358673095703125,0.3331298828125
1769661558210232000,9.583232177734375,-0.0689849853515625,0.9348907470703125,0.3335418701171875
1769661558220220000,9.593219970703124,-0.069305419921875,0.935516357421875,0.3310089111328125
1769661558230208000,9.6032080078125,-0.0709686279296875,0.9356536865234375,0.33001708984375
1769661558240196000,9.613196044921875,-0.07275390625,0.937652587890625,0.3309783935546875
1769661558250184000,9.623183837890625,-0.072418212890625,0.936004638671875,0.3313140869140625
1769661558260171800,9.633171875,-0.071807861328125,0.9356689453125,0.3326568603515625
1769661558270160000,9.643159912109375,-0.070892333984375,0.93646240234375,0.3312530517578125
1769661558280147700,9.653147705078124,-0.0716094970703125,0.9376983642578125,0.3314361572265625
1769661558290135800,9.6631357421875,-0.07073974609375,0.9378509521484375,0.3311004638671875
1769661558300124000,9.6731240234375,-0.0713348388671875,0.936126708984375,0.3315887451171875
1769661558310112000,9.683112060546875,-0.0692138671875,0.9374847412109375,0.3315277099609375
1769661558320099800,9.693099853515625,-0.0686187744140625,0.93841552734375,0.333251953125
1769661558330088000,9.703087890625,-0.0686492919921875,0.9361724853515625,0.332183837890625
1769661558340076000,9.713075927734375,-0.0689239501953125,0.9376068115234375,0.3324432373046875
1769661558350063900,9.72306396484375,-0.068389892578125,0.9377288818359375,0.33160400390625
1769661558360052000,9.733052001953125,-0.0699462890625,0.9371795654296875,0.3317413330078125
1769661558370040000,9.7430400390625,-0.06915283203125,0.9370574951171875,0.3310699462890625
1769661558380028000,9.75302783203125,-0.069122314453125,0.9366607666015625,0.3305816650390625
1769661558390015700,9.763015625,-0.070526123046875,0.937652587890625,0.3295745849609375
1769661558400003800,9.77300390625,-0.0706787109375,0.9377288818359375,0.329559326171875
1769661558409992000,9.782991943359375,-0.0706787109375,0.937957763671875,0.3287200927734375
1769661558419979800,9.792979736328125,-0.070098876953125,0.9346160888671875,0.33026123046875
1769661558429968000,9.8029677734375,-0.0702056884765625,0.934722900390625,0.329132080078125
1769661558439956000,9.8129560546875,-0.07037353515625,0.937286376953125,0.3306732177734375
1769661558449944000,9.822944091796876,-0.0691070556640625,0.9379425048828125,0.3313751220703125
1769661558459932000,9.832931884765625,-0.0691070556640625,0.9377288818359375,0.33349609375
1769661558469920000,9.842919921875,-0.06939697265625,0.9365997314453125,0.3327484130859375
1769661558479908000,9.852908203125,-0.069091796875,0.9367523193359375,0.3325958251953125
1769661558489896000,9.86289599609375,-0.068939208984375,0.936187744140625,0.3329315185546875
1769661558499883800,9.8728837890625,-0.069549560546875,0.93707275390625,0.3335723876953125
1769661558509871900,9.882871826171876,-0.068634033203125,0.9351654052734375,0.33172607421875
1769661558519859700,9.892859619140625,-0.0677032470703125,0.935821533203125,0.3313140869140625
1769661558529847800,9.902847900390626,-0.0680999755859375,0.933868408203125,0.330963134765625
1769661558539836000,9.9128359375,-0.068267822265625,0.9340667724609375,0.331451416015625
1769661558549824000,9.922823974609376,-0.0682830810546875,0.93524169921875,0.3309478759765625
1769661558559810800,9.932810791015624,-0.0696868896484375,0.9354095458984375,0.331756591796875
1769661558569799000,9.942798828125,-0.070526123046875,0.9362335205078125,0.3325042724609375
1769661558579787000,9.952787109375,-0.0714569091796875,0.9371490478515625,0.33209228515625
1769661558589774800,9.96277490234375,-0.0706024169921875,0.938140869140625,0.3336944580078125
1769661558599763000,9.972762939453125,-0.070465087890625,0.9373626708984375,0.3327789306640625
1769661558609751000,9.9827509765625,-0.0688018798828125,0.9369964599609375,0.332550048828125
1769661558619739000,9.99273876953125,-0.069427490234375,0.9359588623046875,0.3327484130859375
1769661558629727000,10.00272705078125,-0.0706634521484375,0.9340972900390625,0.33154296875
1769661558639715000,10.012715087890625,-0.068115234375,0.934112548828125,0.33087158203125
1769661558649703000,10.022702880859375,-0.068603515625,0.935577392578125,0.331573486328125
1769661558659690800,10.032690673828125,-0.0702667236328125,0.93536376953125,0.3330841064453125
1769661558669678800,10.042678955078125,-0.0714874267578125,0.9357147216796875,0.3328399658203125
1769661558679667000,10.0526669921875,-0.07330322265625,0.9337005615234375,0.3330230712890625
1769661558689654800,10.06265478515625,-0.0715179443359375,0.93414306640625,0.333038330078125
1769661558699643000,10.072642822265625,-0.071807861328125,0.9349365234375,0.3326263427734375
1769661558709631000,10.082630859375,-0.072174072265625,0.932769775390625,0.3325042724609375
1769661558719618800,10.092618896484375,-0.074188232421875,0.936126708984375,0.3323822021484375
1769661558729607000,10.10260693359375,-0.071319580078125,0.937652587890625,0.3319244384765625
1769661558739595000,10.112594970703125,-0.0702362060546875,0.93878173828125,0.333831787109375
1769661558749583000,10.1225830078125,-0.069976806640625,0.9407958984375,0.3347320556640625
1769661558759571000,10.132571044921875,-0.0708770751953125,0.940521240234375,0.33746337890625
1769661558769558800,10.142558837890626,-0.0718841552734375,0.9388885498046875,0.3372039794921875
1769661558779547000,10.152546875,-0.0711212158203125,0.93719482421875,0.3358917236328125
1769661558789534700,10.16253466796875,-0.0689849853515625,0.9340972900390625,0.3325042724609375
1769661558799522800,10.172522705078125,-0.06787109375,0.9326934814453125,0.3319549560546875
1769661558809511000,10.182510986328126,-0.0670318603515625,0.9320526123046875,0.3321685791015625
1769661558819499000,10.1924990234375,-0.0689697265625,0.92950439453125,0.3323211669921875
1769661558829486800,10.20248681640625,-0.070648193359375,0.9295806884765625,0.3333892822265625
1769661558839475000,10.212474853515625,-0.0720672607421875,0.930908203125,0.334075927734375
1769661558849463000,10.222463134765626,-0.075103759765625,0.935302734375,0.33349609375
1769661558859451000,10.232450927734375,-0.076507568359375,0.9380645751953125,0.3326873779296875
1769661558869439000,10.24243896484375,-0.07598876953125,0.940032958984375,0.3309478759765625
1769661558879427300,10.25242724609375,-0.0743560791015625,0.9418487548828125,0.331817626953125
1769661558889415200,10.262415283203126,-0.0723724365234375,0.9404144287109375,0.33380126953125
1769661558899403300,10.2724033203125,-0.071380615234375,0.9366302490234375,0.3350067138671875
1769661558909391400,10.282391357421876,-0.06988525390625,0.9331817626953125,0.333740234375
1769661558919379200,10.292379150390625,-0.0677947998046875,0.93341064453125,0.3344879150390625
1769661558929367300,10.3023671875,-0.0675506591796875,0.933319091796875,0.3355560302734375
1769661558939355400,10.31235546875,-0.0696258544921875,0.932342529296875,0.3332061767578125
1769661558949342200,10.32234228515625,-0.07318115234375,0.9311065673828125,0.3320770263671875
1769661558959330300,10.332330322265625,-0.069854736328125,0.9318389892578125,0.3335113525390625
1769661558969318400,10.342318359375,-0.069122314453125,0.932281494140625,0.333709716796875
1769661558979306200,10.35230615234375,-0.0706329345703125,0.9349517822265625,0.33502197265625
1769661558989294300,10.36229443359375,-0.07373046875,0.9360198974609375,0.3343048095703125
1769661558999282400,10.372282470703125,-0.0744781494140625,0.9352874755859375,0.33544921875
1769661559009270500,10.3822705078125,-0.0725860595703125,0.934478759765625,0.33489990234375
1769661559019258400,10.39225830078125,-0.0715484619140625,0.934844970703125,0.33453369140625
1769661559029246200,10.40224609375,-0.071807861328125,0.9353485107421875,0.334228515625
1769661559039234300,10.412234375,-0.0705413818359375,0.935516357421875,0.334564208984375
1769661559049222100,10.42222216796875,-0.0689697265625,0.9362945556640625,0.334869384765625
1769661559059210200,10.432210205078125,-0.0684661865234375,0.9361724853515625,0.3349761962890625
1769661559069198300,10.4421982421875,-0.066070556640625,0.934051513671875,0.3358001708984375
1769661559079186200,10.452186279296875,-0.0674285888671875,0.9319610595703125,0.335540771484375
1769661559089174300,10.46217431640625,-0.0685577392578125,0.9314117431640625,0.3362274169921875
1769661559099162400,10.472162353515625,-0.070770263671875,0.9309539794921875,0.3342437744140625
1769661559109150500,10.482150390625,-0.0729522705078125,0.9329071044921875,0.33245849609375
1769661559119138300,10.49213818359375,-0.0749053955078125,0.933990478515625,0.3338623046875
1769661559129126400,10.50212646484375,-0.074462890625,0.93450927734375,0.3336029052734375
1769661559139114500,10.512114501953125,-0.0726165771484375,0.935821533203125,0.334564208984375
1769661559149102300,10.522102294921876,-0.0717010498046875,0.9350738525390625,0.335479736328125
1769661559159090200,10.532090087890625,-0.0701751708984375,0.933837890625,0.3368072509765625
1769661559169078300,10.542078369140626,-0.069061279296875,0.934906005859375,0.3369598388671875
1769661559179066400,10.55206640625,-0.0673828125,0.934661865234375,0.3353118896484375
1769661559189054200,10.56205419921875,-0.0677642822265625,0.933349609375,0.3374786376953125
1769661559199042300,10.572042236328125,-0.0674285888671875,0.93377685546875,0.3364715576171875
1769661559209030400,10.582030517578126,-0.0684051513671875,0.9372406005859375,0.3361358642578125
1769661559219018200,10.592018310546875,-0.07122802734375,0.9372100830078125,0.3350372314453125
1769661559229006300,10.60200634765625,-0.0726165771484375,0.936370849609375,0.33673095703125
1769661559238994400,10.611994384765625,-0.070037841796875,0.9381256103515625,0.3355560302734375
1769661559248982500,10.621982421875,-0.07073974609375,0.934906005859375,0.334869384765625
1769661559258970400,10.631970458984375,-0.07220458984375,0.9336395263671875,0.3344268798828125
1769661559268958200,10.641958251953126,-0.0719451904296875,0.9346160888671875,0.3349456787109375
1769661559278946300,10.6519462890625,-0.06927490234375,0.9336700439453125,0.3345184326171875
1769661559288934100,10.66193408203125,-0.0678863525390625,0.934051513671875,0.336029052734375
1769661559298922200,10.671922119140625,-0.06591796875,0.93463134765625,0.335662841796875
1769661559308910300,10.681910400390626,-0.0661773681640625,0.9333038330078125,0.3340301513671875
1769661559318898200,10.691898193359375,-0.066009521484375,0.93505859375,0.334503173828125
1769661559328885200,10.70188525390625,-0.067047119140625,0.9383697509765625,0.3368988037109375
1769661559338873300,10.711873291015625,-0.0714569091796875,0.9354095458984375,0.3347320556640625
1769661559348861200,10.721861083984376,-0.0723876953125,0.93560791015625,0.335357666015625
1769661559358849300,10.731849365234375,-0.06805419921875,0.93597412109375,0.3364715576171875
1769661559368837400,10.74183740234375,-0.067779541015625,0.9355926513671875,0.3343048095703125
1769661559378825500,10.751825439453125,-0.0684661865234375,0.934844970703125,0.334625244140625
1769661559388813300,10.761813232421876,-0.0690765380859375,0.9344940185546875,0.33184814453125
1769661559398801400,10.771801513671875,-0.07012939453125,0.934173583984375,0.3324737548828125
1769661559408789500,10.78178955078125,-0.06817626953125,0.9352264404296875,0.332855224609375
1769661559418777300,10.79177734375,-0.0674591064453125,0.935455322265625,0.333343505859375
1769661559428765200,10.80176513671875,-0.069732666015625,0.93701171875,0.33331298828125
1769661559438753300,10.811753173828125,-0.071014404296875,0.9381866455078125,0.33441162109375
1769661559448741400,10.821741455078126,-0.072021484375,0.938934326171875,0.333465576171875
1769661559458729200,10.831729248046875,-0.070526123046875,0.937835693359375,0.3353271484375
1769661559468717300,10.84171728515625,-0.06817626953125,0.935333251953125,0.3353424072265625
1769661559478705400,10.851705322265625,-0.0653228759765625,0.9356536865234375,0.3351287841796875
1769661559488693200,10.861693359375,-0.0653533935546875,0.9361572265625,0.3357086181640625
1769661559498681300,10.871681396484375,-0.065887451171875,0.9375,0.3341522216796875
1769661559508669400,10.88166943359375,-0.06549072265625,0.9362945556640625,0.334197998046875
1769661559518657300,10.8916572265625,-0.0667572021484375,0.9337158203125,0.3323516845703125
1769661559528645400,10.901645263671876,-0.066864013671875,0.9347381591796875,0.334442138671875
1769661559538633500,10.911633544921875,-0.0698089599609375,0.9333953857421875,0.3330535888671875
1769661559548621300,10.921621337890626,-0.0714263916015625,0.9318084716796875,0.333526611328125
1769661559558609200,10.931609130859375,-0.075836181640625,0.9334259033203125,0.33331298828125
1769661559568597200,10.94159716796875,-0.072662353515625,0.935516357421875,0.3350372314453125
1769661559578585300,10.95158544921875,-0.06939697265625,0.9377288818359375,0.33514404296875
1769661559588573200,10.9615732421875,-0.0685272216796875,0.9384765625,0.3378448486328125
1769661559598561300,10.971561279296875,-0.0689849853515625,0.939208984375,0.3379669189453125
1769661559608549400,10.98154931640625,-0.0652923583984375,0.9387054443359375,0.338043212890625
1769661559618537500,10.991537353515625,-0.0620574951171875,0.9373016357421875,0.3365478515625
1769661559628525300,11.001525390625,-0.0616302490234375,0.93402099609375,0.333404541015625
1769661559638513400,11.011513427734375,-0.063232421875,0.933502197265625,0.333099365234375
1769661559648501500,11.02150146484375,-0.0648956298828125,0.9334869384765625,0.332733154296875
1769661559658489300,11.0314892578125,-0.0657501220703125,0.935516357421875,0.331573486328125
1769661559668477200,11.041477294921876,-0.067718505859375,0.9344482421875,0.3316192626953125
1769661559678465300,11.05146533203125,-0.0706024169921875,0.932891845703125,0.3319549560546875
1769661559688453400,11.061453369140626,-0.07281494140625,0.935272216796875,0.3310089111328125
1769661559698441200,11.071441162109375,-0.0729522705078125,0.936279296875,0.330657958984375
1769661559708428300,11.08142822265625,-0.0706939697265625,0.939361572265625,0.33172607421875
1769661559718416100,11.091416015625,-0.0709686279296875,0.9415435791015625,0.331146240234375
1769661559728404200,11.101404296875,-0.07098388671875,0.941162109375,0.33026123046875
1769661559738392300,11.111392333984375,-0.0700531005859375,0.9406890869140625,0.33258056640625
1769661559748380400,11.12138037109375,-0.0687408447265625,0.93890380859375,0.3321075439453125
1769661559758368300,11.1313681640625,-0.066925048828125,0.93487548828125,0.33477783203125
1769661559768356400,11.1413564453125,-0.0654144287109375,0.9339752197265625,0.3358917236328125
1769661559778344400,11.151344482421875,-0.065460205078125,0.9323272705078125,0.33489990234375
1769661559788332300,11.161332275390626,-0.0657958984375,0.930633544921875,0.3341522216796875
1769661559798320400,11.1713203125,-0.06976318359375,0.93109130859375,0.3318634033203125
1769661559808308500,11.18130859375,-0.0710601806640625,0.9345855712890625,0.3290252685546875
1769661559818296300,11.19129638671875,-0.071014404296875,0.93768310546875,0.327972412109375
1769661559828284200,11.2012841796875,-0.07159423828125,0.9378662109375,0.3303985595703125
1769661559838272300,11.211272216796875,-0.0727691650390625,0.9370574951171875,0.331939697265625
1769661559848260400,11.22126025390625,-0.0727996826171875,0.936187744140625,0.3312530517578125
1769661559858248200,11.231248291015625,-0.0718231201171875,0.93603515625,0.3317413330078125
1769661559868236300,11.241236328125,-0.0687103271484375,0.9378662109375,0.332366943359375
1769661559878223600,11.2512236328125,-0.0672607421875,0.9381103515625,0.3330078125
1769661559888211700,11.261211669921876,-0.0646820068359375,0.938751220703125,0.335113525390625
1769661559898199800,11.27119970703125,-0.0625152587890625,0.9376678466796875,0.3362579345703125
1769661559908187600,11.281187744140626,-0.0616302490234375,0.9350433349609375,0.3350982666015625
1769661559918175700,11.29117578125,-0.063079833984375,0.9333343505859375,0.33544921875
1769661559928163800,11.301163818359376,-0.064239501953125,0.9345855712890625,0.3336639404296875
1769661559938151700,11.311151611328125,-0.0680999755859375,0.9353485107421875,0.3331756591796875
1769661559948139800,11.321139892578126,-0.0700836181640625,0.933807373046875,0.33251953125
1769661559958127600,11.331127685546875,-0.071075439453125,0.9354248046875,0.3302764892578125
1769661559968115700,11.34111572265625,-0.0710296630859375,0.936798095703125,0.328826904296875
1769661559978103600,11.351103515625,-0.070343017578125,0.9370880126953125,0.3294219970703125
1769661559988091600,11.361091552734376,-0.0712432861328125,0.9383697509765625,0.329864501953125
1769661559998079700,11.371079833984375,-0.0679931640625,0.93878173828125,0.329315185546875
1769661560008067600,11.381067626953126,-0.0675201416015625,0.9403076171875,0.328521728515625
1769661560018055700,11.3910556640625,-0.0675811767578125,0.938873291015625,0.3310699462890625
1769661560028043800,11.401043701171876,-0.06585693359375,0.9376068115234375,0.3314208984375
1769661560038031600,11.411031494140625,-0.066619873046875,0.9357757568359375,0.3326568603515625
1769661560048019700,11.421019775390626,-0.0666351318359375,0.9345550537109375,0.3323516845703125
1769661560058007800,11.4310078125,-0.0669097900390625,0.9345855712890625,0.331756591796875
1769661560067996000,11.440995849609376,-0.0680084228515625,0.9366455078125,0.3297271728515625
1769661560077983700,11.450983642578125,-0.068389892578125,0.9362335205078125,0.3284912109375
1769661560087971600,11.4609716796875,-0.0694122314453125,0.9373931884765625,0.3278656005859375
1769661560097959700,11.470959716796875,-0.0707550048828125,0.9388885498046875,0.327880859375
1769661560107946800,11.48094677734375,-0.0732879638671875,0.9378662109375,0.3289337158203125
1769661560117934600,11.4909345703125,-0.073760986328125,0.937469482421875,0.32977294921875
1769661560127922700,11.500922607421876,-0.07269287109375,0.9359588623046875,0.32928466796875
1769661560137910500,11.51091064453125,-0.073089599609375,0.9351959228515625,0.329681396484375
1769661560147898600,11.520898681640626,-0.0708465576171875,0.93707275390625,0.330078125
1769661560157886700,11.53088671875,-0.0695648193359375,0.938018798828125,0.3309326171875
1769661560167874600,11.54087451171875,-0.0699615478515625,0.9372100830078125,0.3303070068359375
1769661560177862700,11.550862548828125,-0.06744384765625,0.937042236328125,0.3296966552734375
1769661560187850800,11.560850830078126,-0.068023681640625,0.936859130859375,0.329559326171875
1769661560197838800,11.5708388671875,-0.066192626953125,0.9378814697265625,0.3296051025390625
1769661560207826700,11.58082666015625,-0.0680084228515625,0.936431884765625,0.3291473388671875
1769661560217814800,11.590814697265625,-0.06982421875,0.937164306640625,0.3289337158203125
1769661560227803000,11.600802978515626,-0.070648193359375,0.938568115234375,0.329315185546875
1769661560237790500,11.61079052734375,-0.072113037109375,0.9380340576171875,0.327056884765625
1769661560247778600,11.620778564453126,-0.0734405517578125,0.937652587890625,0.3273468017578125
1769661560257766700,11.6307666015625,-0.073974609375,0.9370880126953125,0.32672119140625
1769661560267754800,11.640754638671876,-0.0716094970703125,0.9381103515625,0.3255462646484375
1769661560277742600,11.65074267578125,-0.072723388671875,0.93804931640625,0.3262786865234375
1769661560287730700,11.660730712890626,-0.073577880859375,0.9381561279296875,0.3258819580078125
1769661560297718800,11.67071875,-0.0713958740234375,0.937042236328125,0.3277587890625
1769661560307706600,11.68070654296875,-0.0702056884765625,0.93719482421875,0.3278656005859375
1769661560317694700,11.69069482421875,-0.0707550048828125,0.937225341796875,0.327911376953125
1769661560327682800,11.700682861328126,-0.0706329345703125,0.9379119873046875,0.3266448974609375
1769661560337671000,11.7106708984375,-0.069183349609375,0.939422607421875,0.326812744140625
1769661560347658800,11.72065869140625,-0.070953369140625,0.941192626953125,0.3268585205078125
1769661560357646600,11.730646484375,-0.071746826171875,0.9395751953125,0.3286590576171875
1769661560367634700,11.740634765625,-0.07342529296875,0.9368133544921875,0.32916259765625
1769661560377622500,11.75062255859375,-0.0727081298828125,0.93695068359375,0.328857421875
1769661560387610600,11.760610595703126,-0.072052001953125,0.936981201171875,0.32666015625
1769661560397598700,11.7705986328125,-0.0724945068359375,0.935272216796875,0.325653076171875
1769661560407586600,11.780586669921876,-0.0729827880859375,0.9355926513671875,0.3276214599609375
1769661560417574700,11.79057470703125,-0.069732666015625,0.9375,0.328155517578125
1769661560427562800,11.800562744140626,-0.06549072265625,0.9395751953125,0.329132080078125
1769661560437550800,11.81055078125,-0.0659332275390625,0.943267822265625,0.3306121826171875
1769661560447538700,11.82053857421875,-0.0681915283203125,0.9446258544921875,0.3319549560546875
1769661560457526800,11.83052685546875,-0.0684814453125,0.9434661865234375,0.3327484130859375
1769661560467515000,11.840514892578126,-0.069183349609375,0.940887451171875,0.3321533203125
1769661560477502500,11.85050244140625,-0.069732666015625,0.9376220703125,0.3264007568359375
1769661560487490600,11.860490478515626,-0.0749664306640625,0.932708740234375,0.3250579833984375
1769661560497478700,11.870478759765625,-0.07763671875,0.932159423828125,0.326019287109375
1769661560507465700,11.8804658203125,-0.075836181640625,0.93243408203125,0.326019287109375
1769661560517453600,11.89045361328125,-0.0750579833984375,0.9305419921875,0.3263702392578125
1769661560527441700,11.900441650390626,-0.0765380859375,0.9325714111328125,0.326019287109375
1769661560537429800,11.9104296875,-0.0768585205078125,0.9355621337890625,0.3267059326171875
1769661560547417600,11.92041748046875,-0.0751953125,0.937774658203125,0.3283233642578125
1769661560557405700,11.93040576171875,-0.073883056640625,0.938629150390625,0.32720947265625
1769661560567393800,11.940393798828126,-0.0731658935546875,0.9374237060546875,0.328826904296875
1769661560577381600,11.950381591796875,-0.069671630859375,0.940460205078125,0.3309173583984375
1769661560587369700,11.96036962890625,-0.06817626953125,0.94061279296875,0.3319244384765625
1769661560597357800,11.97035791015625,-0.066864013671875,0.9418792724609375,0.3301544189453125
1769661560607345700,11.980345703125,-0.0666046142578125,0.94073486328125,0.3300628662109375
1769661560617333800,11.990333740234375,-0.064971923828125,0.937591552734375,0.3287811279296875
1769661560627321600,12.000321533203126,-0.0657501220703125,0.93603515625,0.3281097412109375
1769661560637309700,12.010309814453125,-0.0667572021484375,0.9330902099609375,0.3286895751953125
1769661560647297500,12.020297607421876,-0.0683746337890625,0.9306640625,0.3270111083984375
1769661560657285600,12.03028564453125,-0.0692291259765625,0.9317626953125,0.32867431640625
1769661560667273700,12.040273681640626,-0.0709228515625,0.9359283447265625,0.3277130126953125
1769661560677261600,12.050261474609375,-0.073394775390625,0.9383544921875,0.3292236328125
1769661560687249700,12.060249755859376,-0.0731201171875,0.940185546875,0.3312530517578125
1769661560697237800,12.07023779296875,-0.071929931640625,0.9378662109375,0.3308258056640625
1769661560707225900,12.080225830078126,-0.069244384765625,0.9380645751953125,0.32806396484375
1769661560717213700,12.090213623046875,-0.0723724365234375,0.9364471435546875,0.3234100341796875
1769661560727201800,12.100201904296876,-0.0737762451171875,0.93487548828125,0.3260345458984375
1769661560737190000,12.11018994140625,-0.069671630859375,0.9380645751953125,0.32904052734375
1769661560747177700,12.120177734375,-0.0679168701171875,0.93878173828125,0.3307647705078125
1769661560757165600,12.13016552734375,-0.0695343017578125,0.937469482421875,0.3337249755859375
1769661560767153700,12.140153564453126,-0.0693206787109375,0.93792724609375,0.3335113525390625
1769661560777141800,12.150141845703125,-0.0694427490234375,0.93707275390625,0.3319854736328125
1769661560787129600,12.160129638671876,-0.0683135986328125,0.9371185302734375,0.3303375244140625
1769661560797117700,12.17011767578125,-0.068511962890625,0.9367828369140625,0.3293304443359375
1769661560807105800,12.180105712890626,-0.0684661865234375,0.936248779296875,0.3282470703125
1769661560817093600,12.19009375,-0.06915283203125,0.9361724853515625,0.3282318115234375
1769661560827081700,12.200081787109376,-0.0699310302734375,0.9358978271484375,0.3277435302734375
1769661560837069800,12.21006982421875,-0.0678253173828125,0.9379119873046875,0.3275604248046875
1769661560847057700,12.2200576171875,-0.0701446533203125,0.938690185546875,0.3281402587890625
1769661560857045800,12.230045654296875,-0.06988525390625,0.938690185546875,0.3288116455078125
1769661560867033600,12.24003369140625,-0.0680389404296875,0.93743896484375,0.33074951171875
1769661560877021700,12.250021728515625,-0.0678558349609375,0.9368743896484375,0.3316497802734375
1769661560887009800,12.260009765625,-0.068695068359375,0.9381866455078125,0.331939697265625
1769661560896998000,12.269997802734375,-0.069244384765625,0.939239501953125,0.33111572265625
1769661560906986000,12.279986083984374,-0.0691375732421875,0.9378509521484375,0.328521728515625
1769661560916973800,12.289973876953125,-0.0681915283203125,0.9381561279296875,0.3262939453125
1769661560926962000,12.2999619140625,-0.0694122314453125,0.938720703125,0.3271942138671875
1769661560936949000,12.309948974609375,-0.0699615478515625,0.9381103515625,0.3272552490234375
1769661560946936800,12.319936767578126,-0.0695037841796875,0.9389190673828125,0.3276519775390625
1769661560956925000,12.329925048828125,-0.0715484619140625,0.9379119873046875,0.3274688720703125
1769661560966913000,12.3399130859375,-0.072265625,0.9373016357421875,0.32659912109375
1769661560976900900,12.34990087890625,-0.0714874267578125,0.9367828369140625,0.326507568359375
1769661560986889000,12.359888916015626,-0.07025146484375,0.9369049072265625,0.327362060546875
1769661560996877000,12.369876953125,-0.06964111328125,0.93670654296875,0.3292999267578125
1769661561006865000,12.379864990234376,-0.06744384765625,0.93878173828125,0.330169677734375
1769661561016852700,12.389852783203125,-0.067413330078125,0.9385528564453125,0.3309173583984375
1769661561026840800,12.3998408203125,-0.067291259765625,0.9394989013671875,0.3310699462890625
1769661561036829000,12.409828857421875,-0.0673370361328125,0.9400634765625,0.3311614990234375
1769661561046816800,12.419816650390626,-0.067474365234375,0.939239501953125,0.3296356201171875
1769661561056804900,12.429804931640625,-0.06756591796875,0.9376678466796875,0.3304443359375
1769661561066793000,12.43979296875,-0.069488525390625,0.93646240234375,0.328704833984375
1769661561076780800,12.44978076171875,-0.0719757080078125,0.9357147216796875,0.3281707763671875
1769661561086769000,12.459768798828126,-0.0696563720703125,0.93829345703125,0.3275909423828125
1769661561096757000,12.469757080078125,-0.0713958740234375,0.9381256103515625,0.3280181884765625
1769661561106745000,12.4797451171875,-0.0709075927734375,0.9354095458984375,0.3304443359375
1769661561116733000,12.48973291015625,-0.0715179443359375,0.934722900390625,0.3307647705078125
1769661561126721000,12.499720947265626,-0.0681610107421875,0.93658447265625,0.330474853515625
1769661561136708900,12.509708984375,-0.066375732421875,0.939971923828125,0.3321685791015625
1769661561146696700,12.51969677734375,-0.064727783203125,0.943695068359375,0.33062744140625
1769661561156684800,12.529684814453125,-0.0653533935546875,0.9421234130859375,0.330780029296875
1769661561166673000,12.5396728515625,-0.0646820068359375,0.9397735595703125,0.3287506103515625
1769661561176661000,12.549660888671875,-0.0652313232421875,0.9374542236328125,0.3280487060546875
1769661561186648800,12.55964892578125,-0.06793212890625,0.9338836669921875,0.3283233642578125
1769661561196637000,12.569636962890625,-0.0717315673828125,0.9338836669921875,0.33013916015625
1769661561206625000,12.579625,-0.0738067626953125,0.9360198974609375,0.3303375244140625
1769661561216612900,12.58961279296875,-0.073211669921875,0.937530517578125,0.3294677734375
1769661561226601000,12.59960107421875,-0.07110595703125,0.939056396484375,0.3278961181640625
1769661561236589000,12.609589111328125,-0.0728912353515625,0.9407958984375,0.3321380615234375
1769661561246577000,12.619576904296874,-0.073486328125,0.9416351318359375,0.333709716796875
1769661561256564700,12.629564697265625,-0.070953369140625,0.9413909912109375,0.3333587646484375
1769661561266552800,12.639552734375,-0.0679779052734375,0.9394378662109375,0.33111572265625
1769661561276541000,12.649541015625,-0.0674285888671875,0.934478759765625,0.3301239013671875
1769661561286528800,12.65952880859375,-0.0687255859375,0.9325714111328125,0.328460693359375
1769661561296516900,12.669516845703125,-0.0686798095703125,0.933807373046875,0.3291015625
1769661561306505000,12.6795048828125,-0.0664520263671875,0.93341064453125,0.3298492431640625
1769661561316492800,12.689492919921875,-0.0688629150390625,0.93280029296875,0.3294830322265625
1769661561326481000,12.69948095703125,-0.0714874267578125,0.9347076416015625,0.329864501953125
1769661561336469000,12.709468994140625,-0.072052001953125,0.93707275390625,0.3299102783203125
1769661561346457000,12.71945703125,-0.076141357421875,0.9398193359375,0.32928466796875
1769661561356445000,12.72944482421875,-0.0746002197265625,0.9412078857421875,0.329437255859375
1769661561366433000,12.73943310546875,-0.075714111328125,0.940765380859375,0.32891845703125
1769661561376420900,12.7494208984375,-0.0762176513671875,0.9394989013671875,0.328643798828125
1769661561386408700,12.75940869140625,-0.076751708984375,0.938629150390625,0.33087158203125
1769661561396396800,12.769396728515625,-0.0757904052734375,0.9364471435546875,0.3339691162109375
1769661561406385000,12.779385009765624,-0.0756988525390625,0.93768310546875,0.337066650390625
1769661561416373000,12.789373046875,-0.077056884765625,0.9369964599609375,0.3385009765625
1769661561426359800,12.79935986328125,-0.0742340087890625,0.9349212646484375,0.3396759033203125
1769661561436348000,12.809347900390625,-0.0716552734375,0.933013916015625,0.33880615234375
1769661561446335700,12.819335693359376,-0.0703582763671875,0.9269866943359375,0.3352508544921875
1769661561456323800,12.82932373046875,-0.0662078857421875,0.928619384765625,0.33447265625
1769661561466312000,12.83931201171875,-0.06390380859375,0.9290924072265625,0.3353729248046875
1769661561476300000,12.849300048828125,-0.0681304931640625,0.933746337890625,0.3360595703125
1769661561486288000,12.859287841796874,-0.0713043212890625,0.936431884765625,0.33673095703125
1769661561496276000,12.86927587890625,-0.0732421875,0.936614990234375,0.3346099853515625
1769661561506264000,12.87926416015625,-0.0756072998046875,0.9376068115234375,0.3304595947265625
1769661561516252000,12.889251953125,-0.07489013671875,0.9376983642578125,0.331268310546875
1769661561526239700,12.89923974609375,-0.075286865234375,0.9359283447265625,0.33197021484375
1769661561536227800,12.909227783203125,-0.074981689453125,0.9331817626953125,0.3324737548828125
1769661561546216000,12.9192158203125,-0.0751190185546875,0.9337310791015625,0.332550048828125
1769661561556203800,12.929203857421875,-0.0740203857421875,0.9318389892578125,0.3321685791015625
1769661561566191900,12.93919189453125,-0.072296142578125,0.932891845703125,0.3317413330078125
1769661561576180000,12.949179931640625,-0.0727386474609375,0.934478759765625,0.3307037353515625
1769661561586167800,12.959167724609374,-0.074554443359375,0.9351043701171875,0.3319854736328125
1769661561596156000,12.969156005859375,-0.0735015869140625,0.9342041015625,0.3332061767578125
1769661561606144000,12.97914404296875,-0.0751190185546875,0.93646240234375,0.335784912109375
1769661561616131800,12.9891318359375,-0.0751190185546875,0.937652587890625,0.33721923828125
1769661561626120000,12.999119873046874,-0.0723114013671875,0.935821533203125,0.3350067138671875
1769661561636108000,13.00910791015625,-0.07183837890625,0.936859130859375,0.3347015380859375
1769661561646096000,13.019095947265624,-0.0709381103515625,0.9365234375,0.333984375
1769661561656083700,13.029083740234375,-0.0679931640625,0.93609619140625,0.3332977294921875
1769661561666071800,13.03907177734375,-0.0693206787109375,0.9357147216796875,0.333831787109375
1769661561676060000,13.049059814453125,-0.0715179443359375,0.9361724853515625,0.3340911865234375
