time,seconds_elapsed,z,y,x
1769661548696691500,0.06969140625,0.006255947984755039,0.0025293761864304543,-0.02049059048295021
1769661548706679300,0.07967919921875,0.00710309948772192,0.01047651469707489,-0.013903527520596981
1769661548716667400,0.08966748046875,0.006256020162254572,0.012996956706047058,-0.005003718659281731
1769661548726655500,0.099655517578125,0.0034549077972769737,0.012439822778105736,0.000650172121822834
1769661548736643300,0.109643310546875,0.0010734364623203874,0.004259483888745308,-0.0011614691466093063
1769661548746631400,0.11963134765625,-0.003437958424910903,-0.004779284819960594,-0.008252933621406555
1769661548756618500,0.129618408203125,-0.008486149832606316,-0.002446042373776436,-0.013016743585467339
1769661548766606300,0.1396064453125,-0.009922126308083534,-0.0026748082600533962,-0.014670301228761673
1769661548776594400,0.149594482421875,-0.0057762861251831055,-0.007400129456073046,-0.014610487967729568
1769661548786582500,0.15958251953125,-0.0042188698425889015,-0.013201825320720673,-0.010835723020136356
1769661548796570400,0.1695703125,-0.0035047540441155434,-0.01810581609606743,-0.004607774317264557
1769661548806558500,0.179558349609375,0.004155030008405447,-0.020955398678779602,0.004340447019785643
1769661548816546600,0.189546630859375,0.006721032317727804,-0.018875349313020706,0.0053337677381932735
1769661548826534400,0.199534423828125,0.008625192567706108,-0.01625639572739601,0.006002753973007202
1769661548836522200,0.209522216796875,0.009597972966730595,-0.01703581027686596,0.008879872038960457
1769661548846510300,0.21951025390625,0.009099428541958332,-0.016647787764668465,0.009007703512907028
1769661548856498400,0.22949853515625,0.01104339212179184,-0.017568767070770264,0.008404656313359737
1769661548866485500,0.239485595703125,0.011127813719213009,-0.012105558067560196,0.008058978244662285
1769661548876473300,0.249473388671875,0.006761827506124973,-0.006135695148259401,0.0017189525533467531
1769661548886461400,0.25946142578125,0.00036251742858439684,-0.0014956698287278414,0.001311222673393786
1769661548896449500,0.269449462890625,-0.007471678778529167,0.0013367680367082357,0.002435975940898061
1769661548906437600,0.279437744140625,-0.0024074113462120295,0.0005687123630195856,0.008643804118037224
1769661548916425500,0.289425537109375,0.0018290487350896,-0.014741312712430954,0.018369080498814583
1769661548926413600,0.29941357421875,0.0035643642768263817,-0.024373698979616165,0.021794438362121582
1769661548936401700,0.309401611328125,0.006133854389190674,-0.02478167414665222,0.02169542759656906
1769661548946389500,0.319389404296875,0.01035203505307436,-0.026176370680332184,0.02410106174647808
1769661548956377600,0.329377685546875,0.013713163323700428,-0.031121859326958656,0.021726787090301514
1769661548966365700,0.33936572265625,0.009657168760895729,-0.02896816097199917,0.024378497153520584
1769661548976353300,0.349353271484375,0.008636838756501675,-0.024761077016592026,0.02312798798084259
1769661548986341400,0.35934130859375,0.007504729088395834,-0.01726507768034935,0.015463944524526596
1769661548996329500,0.36932958984375,0.006858161184936762,-0.010029000230133533,0.0156357791274786
1769661549006317600,0.379317626953125,0.006038174033164978,-0.004655806813389063,0.011920402757823467
1769661549016305400,0.389305419921875,0.009193463250994682,-0.008133232593536377,-0.00011351914145052433
1769661549026293500,0.39929345703125,0.014471849426627159,-0.015965323895215988,-0.008221779018640518
1769661549036281600,0.409281494140625,0.010629004798829556,-0.019972380250692368,-0.007393385283648968
1769661549046269400,0.41926953125,0.010576540604233742,-0.020272785797715187,-0.004611713346093893
1769661549056257500,0.429257568359375,0.011479593813419342,-0.019340436905622482,-0.004769367165863514
1769661549066245600,0.43924560546875,0.012166689150035381,-0.014728641137480736,-0.0077811358496546745
1769661549076233700,0.449233642578125,0.01741606928408146,-0.0058391401544213295,-0.003220574464648962
1769661549086221600,0.4592216796875,0.020769257098436356,-0.02151929959654808,0.0034293385688215494
1769661549096209400,0.46920947265625,0.027065187692642212,-0.031988345086574554,-0.005388547666370869
1769661549106196700,0.47919677734375,0.026257982477545738,-0.016518305987119675,-0.005347535014152527
1769661549116184600,0.4891845703125,0.02409692481160164,0.0009779088431969285,-0.0005223657935857773
1769661549126172400,0.49917236328125,0.025646351277828217,0.009427586570382118,-0.002943711820989847
1769661549136160500,0.509160400390625,0.02144579589366913,0.0005963208386674523,-0.016530102118849754
1769661549146148400,0.5191484375,0.019192760810256004,-0.013785548508167267,-0.021517403423786163
1769661549156136400,0.529136474609375,0.016493188217282295,-0.00481024943292141,-0.026007339358329773
1769661549166124500,0.53912451171875,0.013921640813350677,0.0052847289480268955,-0.032631151378154755
1769661549176112400,0.5491123046875,0.01574152335524559,0.011805676855146885,-0.041721902787685394
1769661549186100500,0.5591005859375,0.02115493081510067,0.014400394633412361,-0.04486683011054993
1769661549196088600,0.569088623046875,0.02483992464840412,0.019526850432157516,-0.04300598055124283
1769661549206076700,0.57907666015625,0.02321459725499153,0.025120019912719727,-0.04059768468141556
1769661549216064500,0.589064453125,0.020563200116157532,0.024909211322665215,-0.03859635069966316
1769661549226052600,0.599052490234375,0.021204223856329918,0.01922842301428318,-0.03287534788250923
1769661549236040700,0.609040771484375,0.01729985885322094,0.01869278773665428,-0.027169637382030487
1769661549246028500,0.619028564453125,0.015700897201895714,0.01802406832575798,-0.02489369921386242
1769661549256016400,0.629016357421875,0.017499232664704323,0.008359679020941257,-0.01914984919130802
1769661549266004500,0.63900439453125,0.017468340694904327,0.0026296216528862715,-0.01257823221385479
1769661549275992600,0.64899267578125,0.017798718065023422,-0.00605435948818922,-0.0006807153113186359
1769661549285980400,0.65898046875,0.01622265949845314,-0.013070990331470966,0.009276844561100006
1769661549295968500,0.668968505859375,0.013228007592260838,-0.016301987692713737,0.015008320100605488
1769661549305956600,0.67895654296875,0.011694027110934258,-0.021599281579256058,0.019888294860720634
1769661549315944400,0.6889443359375,0.008062808774411678,-0.02943652682006359,0.024983808398246765
1769661549325932500,0.6989326171875,0.007393823005259037,-0.03845692053437233,0.028779879212379456
1769661549335920600,0.708920654296875,0.007792131509631872,-0.04670339450240135,0.030470652505755424
1769661549345908700,0.71890869140625,0.010899242013692856,-0.050150588154792786,0.032349247485399246
1769661549355896600,0.728896484375,0.011451484635472298,-0.05320155248045921,0.03460142761468887
1769661549365884400,0.738884521484375,0.011747894808650017,-0.04717801511287689,0.03710799291729927
1769661549375872500,0.74887255859375,0.015187804587185383,-0.0424923375248909,0.03652559965848923
1769661549385860400,0.7588603515625,0.01717825047671795,-0.03942597657442093,0.03864254802465439
1769661549395848400,0.768848388671875,0.016740452498197556,-0.03611404076218605,0.04105163738131523
1769661549405836500,0.77883642578125,0.019874192774295807,-0.04391896724700928,0.045044515281915665
1769661549415824400,0.788824462890625,0.020223792642354965,-0.05019808188080788,0.047732822597026825
1769661549425812500,0.7988125,0.019878113642334938,-0.047837723046541214,0.04942712560296059
1769661549435800600,0.808800537109375,0.018296295776963234,-0.04562762379646301,0.047428302466869354
1769661549445787400,0.818787353515625,0.016190266236662865,-0.04790090024471283,0.04500642418861389
1769661549455775500,0.828775390625,0.016810152679681778,-0.051346972584724426,0.044186823070049286
1769661549465763600,0.838763671875,0.01754465140402317,-0.052708644419908524,0.04491919279098511
1769661549475751700,0.848751708984375,0.016076162457466125,-0.0504743829369545,0.047078318893909454
1769661549485739500,0.858739501953125,0.015478283166885376,-0.045934226363897324,0.04693903028964996
1769661549495727600,0.8687275390625,0.012968615628778934,-0.045025140047073364,0.04823462665081024
1769661549505715700,0.8787158203125,0.014286613091826439,-0.041473016142845154,0.04784846678376198
1769661549515703600,0.88870361328125,0.015450559556484222,-0.03467775881290436,0.045223601162433624
1769661549525691400,0.89869140625,0.015276921913027763,-0.03437921777367592,0.04489869624376297
1769661549535679500,0.908679443359375,0.013637382537126541,-0.03578050062060356,0.047127872705459595
1769661549545667300,0.918667236328125,0.01378651987761259,-0.034530412405729294,0.04560934007167816
1769661549555655400,0.928655517578125,0.01035414170473814,-0.0272098109126091,0.03846998140215874
1769661549565643500,0.9386435546875,0.008512299507856369,-0.01793508604168892,0.024808764457702637
1769661549575631600,0.948631591796875,0.004844593815505505,-0.01193247176706791,0.008891483768820763
1769661549585619500,0.958619384765625,0.004315689671784639,-0.006960882805287838,0.0007009322289377451
1769661549595607600,0.968607666015625,0.003276404459029436,0.0004432136192917824,0.005315535236150026
1769661549605595600,0.978595703125,0.004519301932305098,0.001188898691907525,0.012898087501525879
1769661549615583500,0.98858349609375,0.0048378161154687405,-0.005521734245121479,0.017813216894865036
1769661549625571600,0.998571533203125,0.002261473797261715,-0.013351427391171455,0.01598069630563259
1769661549635559700,1.0085595703125,-0.005367975682020187,-0.019877558574080467,0.007438942790031433
1769661549645547500,1.018547607421875,-0.010718000121414661,-0.015277214348316193,-0.0009654609020799398
1769661549655535400,1.028535400390625,-0.010951800271868706,-0.0023074569180607796,-0.00568634457886219
1769661549665523500,1.0385234375,-0.01145966537296772,0.004645524080842733,-0.007584112696349621
1769661549675511600,1.048511474609375,-0.01055622473359108,0.0032183807343244553,0.0016134349862113595
1769661549685499400,1.05849951171875,-0.01130989845842123,0.0014263398479670286,0.01458036620169878
1769661549695487500,1.068487548828125,-0.01437877956777811,0.0019294993253424764,0.019097667187452316
1769661549705475600,1.0784755859375,-0.022512074559926987,0.004339926410466433,0.012400881387293339
1769661549715463700,1.088463623046875,-0.026127364486455917,0.0077442023903131485,-0.00166779151186347
1769661549725451500,1.098451416015625,-0.025029342621564865,0.0006793685024604201,-0.014511417597532272
1769661549735439600,1.108439697265625,-0.025286288931965828,0.0013770060613751411,-0.01782955601811409
1769661549745427700,1.118427734375,-0.023875879123806953,0.0031243059784173965,-0.014812462031841278
1769661549755415600,1.12841552734375,-0.025029148906469345,-0.004417563788592815,-0.01356455683708191
1769661549765402600,1.138402587890625,-0.026298411190509796,-0.004428216256201267,-0.01579149253666401
1769661549775390700,1.148390625,-0.029295509681105614,-0.00029071071185171604,-0.019613662734627724
1769661549785378600,1.158378662109375,-0.03071337565779686,0.0062066032551229,-0.02573280781507492
1769661549795366400,1.168366455078125,-0.03078530542552471,0.0063934228383004665,-0.034223929047584534
1769661549805354500,1.1783544921875,-0.029972774907946587,0.0016316907713189721,-0.04457377269864082
1769661549815342300,1.18834228515625,-0.02374417334794998,-0.003015258815139532,-0.0524897538125515
1769661549825330400,1.198330322265625,-0.018525710329413414,-0.01077677495777607,-0.052408259361982346
1769661549835318500,1.208318603515625,-0.013554748147726059,-0.024004576727747917,-0.042683422565460205
1769661549845306600,1.218306640625,-0.010915289632976055,-0.03378317505121231,-0.02930343523621559
1769661549855294500,1.22829443359375,-0.009247038513422012,-0.04251355305314064,-0.013165942393243313
1769661549865283800,1.238283935546875,-0.0037489421665668488,-0.05016028881072998,-0.008265458978712559
1769661549875271700,1.248271728515625,-0.0061625889502465725,-0.05199480801820755,-0.008980684913694859
1769661549885259800,1.258259765625,-0.008115751668810844,-0.048596080392599106,-0.010892834514379501
1769661549895247600,1.26824755859375,-0.013342980295419693,-0.05525891110301018,-0.007184482179582119
1769661549905235700,1.278235595703125,-0.015439687296748161,-0.07883375138044357,-0.0011598793789744377
1769661549915223800,1.288223876953125,-0.017042256891727448,-0.10166830569505692,-0.005601280368864536
1769661549925211600,1.298211669921875,-0.01776903308928013,-0.11335079371929169,-0.015933813527226448
1769661549935199700,1.30819970703125,-0.019046185538172722,-0.11954069137573242,-0.02413344196975231
1769661549945187800,1.318187744140625,-0.02011171728372574,-0.11522503942251205,-0.02074749954044819
1769661549955176000,1.328176025390625,-0.02084902673959732,-0.102849580347538,-0.005396377295255661
1769661549965163800,1.338163818359375,-0.01832381822168827,-0.09447420388460159,0.009566327556967735
1769661549975151900,1.34815185546875,-0.008522295393049717,-0.09179583936929703,0.013813532888889313
1769661549985140000,1.358139892578125,0.0008730703266337514,-0.08775848150253296,0.006730589084327221
1769661549995127600,1.36812744140625,0.0074057811871171,-0.07871346175670624,-0.0005163042806088924
1769661550005115600,1.37811572265625,0.0069533102214336395,-0.06843605637550354,-0.006573930382728577
1769661550015103700,1.388103759765625,0.005969368387013674,-0.04928388446569443,-0.005270789377391338
1769661550025091800,1.398091796875,0.008475136943161488,-0.03011125884950161,-0.007261502556502819
1769661550035079700,1.40807958984375,0.01098698191344738,-0.012854661792516708,-0.015203210525214672
1769661550045067800,1.41806787109375,0.012359841726720333,-0.015945792198181152,-0.028986666351556778
1769661550055056000,1.428055908203125,0.01129046082496643,-0.026969216763973236,-0.03984522446990013
1769661550065043700,1.438043701171875,0.009758343920111656,-0.03527694568037987,-0.03829260170459747
1769661550075030800,1.44803076171875,0.002072825562208891,-0.02962072193622589,-0.03206225484609604
1769661550085019000,1.458018798828125,-0.006816007196903229,-0.01764129102230072,-0.028057392686605453
1769661550095006700,1.4680068359375,-0.01052012573927641,-0.000968818785622716,-0.030968964099884033
1769661550104994800,1.477994873046875,-0.006017519626766443,0.008348250761628151,-0.03244994580745697
1769661550114983000,1.48798291015625,0.0011052737245336175,0.018025711178779602,-0.03259523957967758
1769661550124970800,1.497970703125,0.008653204888105392,0.02914121374487877,-0.023347681388258934
1769661550134958800,1.507958740234375,0.012345339171588421,0.03543051332235336,-0.016231507062911987
1769661550144946700,1.51794677734375,0.015935545787215233,0.039585042744874954,-0.006581543013453484
1769661550154934800,1.527934814453125,0.017326273024082184,0.04741635546088219,0.0015488161006942391
1769661550164922600,1.537922607421875,0.022708522155880928,0.05762052536010742,0.005649019032716751
1769661550174910700,1.54791064453125,0.022736411541700363,0.0569327212870121,-0.0036208010278642178
1769661550184898800,1.55789892578125,0.023756936192512512,0.06071653962135315,-0.020230405032634735
1769661550194886700,1.56788671875,0.02615421824157238,0.07111230492591858,-0.037901777774095535
1769661550204874800,1.577874755859375,0.031653113663196564,0.08207760751247406,-0.048476655036211014
1769661550214862800,1.58786279296875,0.04696989431977272,0.09778326004743576,-0.053221121430397034
1769661550224851000,1.597850830078125,0.05407281219959259,0.11864300072193146,-0.05544380098581314
1769661550234838800,1.6078388671875,0.05543572083115578,0.137370303273201,-0.056799668818712234
1769661550244827000,1.617826904296875,0.04876556620001793,0.1477864682674408,-0.05597542226314545
1769661550254815000,1.62781494140625,0.043511103838682175,0.14132770895957947,-0.06453480571508408
1769661550264802800,1.637802734375,0.05615685507655144,0.11986370384693146,-0.07502473145723343
1769661550274790700,1.647790771484375,0.05937293916940689,0.10136698931455612,-0.07630005478858948
1769661550284778800,1.65777880859375,0.06111837178468704,0.10781823098659515,-0.06766022741794586
1769661550294766600,1.6677666015625,0.05724446848034859,0.10999096930027008,-0.05388738960027695
1769661550304754700,1.677754638671875,0.050490956753492355,0.08483821153640747,-0.04433383420109749
1769661550314742800,1.68774267578125,0.044403236359357834,0.04892681539058685,-0.038477275520563126
1769661550324731000,1.69773095703125,0.04126150533556938,0.02598235197365284,-0.04189304634928703
1769661550334718700,1.70771875,0.042659349739551544,-0.009355817921459675,-0.04201624542474747
1769661550344706800,1.717706787109375,0.04896358400583267,-0.012476776726543903,-0.0394367054104805
1769661550354695000,1.72769482421875,0.0447293296456337,0.0392778255045414,-0.02832854352891445
1769661550364682800,1.737682861328125,0.04022379219532013,0.08542215079069138,-0.02693251520395279
1769661550374670800,1.7476708984375,0.04127177223563194,0.0830112174153328,-0.04276501387357712
1769661550384658700,1.75765869140625,0.03788023442029953,0.07015347480773926,-0.058503761887550354
1769661550394645800,1.767645751953125,0.03546249866485596,0.05495694652199745,-0.07355395704507828
1769661550404633900,1.7776337890625,0.034134116023778915,0.047637250274419785,-0.07885871082544327
1769661550414622000,1.7876220703125,0.029801245778799057,0.060532096773386,-0.08015242218971252
1769661550424609500,1.797609619140625,0.026256311684846878,0.06396890431642532,-0.08301638811826706
1769661550434597600,1.80759765625,0.020567752420902252,0.05505983158946037,-0.08011627197265625
1769661550444585700,1.817585693359375,0.019996503368020058,0.024841472506523132,-0.06693921983242035
1769661550454573800,1.82757373046875,0.011111520230770111,0.01482896413654089,-0.05033738166093826
1769661550464561700,1.837561767578125,0.00041386857628822327,0.04038438946008682,-0.03896009176969528
1769661550474549800,1.8475498046875,-0.005338922142982483,0.04686515033245087,-0.030678510665893555
1769661550484537900,1.857537841796875,-0.012703361921012402,0.03438717499375343,-0.03058583289384842
1769661550494525700,1.867525634765625,-0.010852850042283535,0.034196749329566956,-0.027868211269378662
1769661550504513800,1.877513671875,-0.009258948266506195,0.025203250348567963,-0.029517240822315216
1769661550514502000,1.887501953125,-0.015591314062476158,0.028348127380013466,-0.033541399985551834
1769661550524490000,1.897489990234375,-0.01976155862212181,0.02872869372367859,-0.0335208959877491
1769661550534477800,1.907477783203125,-0.02475235052406788,0.018618442118167877,-0.03462281450629234
1769661550544465700,1.917465576171875,-0.028469057753682137,0.035756416618824005,-0.03967296704649925
1769661550554453800,1.927453857421875,-0.030444126576185226,0.0431792326271534,-0.04598561301827431
1769661550564441600,1.937441650390625,-0.03442049399018288,0.025762157514691353,-0.05287627503275871
1769661550574429700,1.9474296875,-0.03474842756986618,0.00959555059671402,-0.05914951115846634
1769661550584417800,1.957417724609375,-0.04575527086853981,0.0038005115929991007,-0.05553719773888588
1769661550594406000,1.967406005859375,-0.055178191512823105,0.007480815518647432,-0.038365352898836136
1769661550604393700,1.977393798828125,-0.06799199432134628,0.027499530464410782,-0.01997276209294796
1769661550614381800,1.9873818359375,-0.07708936929702759,0.0365406759083271,-0.006479855626821518
1769661550624370000,1.997369873046875,-0.08283007889986038,0.03392891585826874,0.0007735302206128836
1769661550634357800,2.007357666015625,-0.08063618838787079,0.020060788840055466,-0.011153768748044968
1769661550644345900,2.017345947265625,-0.07278279215097427,-0.007587883155792952,-0.03600718826055527
1769661550654334000,2.027333984375,-0.061123333871364594,-0.02377917245030403,-0.05017685145139694
1769661550664321500,2.037321533203125,-0.04582294076681137,-0.02244572713971138,-0.05238301306962967
1769661550674309600,2.0473095703125,-0.034289129078388214,-0.0168997123837471,-0.05285711959004402
1769661550684297700,2.057297607421875,-0.030014486983418465,-0.012514818459749222,-0.05170902982354164
1769661550694284800,2.067284912109375,-0.027441220358014107,-0.00039683282375335693,-0.04510700702667236
1769661550704272600,2.077272705078125,-0.023280831053853035,0.017678573727607727,-0.04209870100021362
1769661550714260700,2.0872607421875,-0.01801569014787674,0.015593869611620903,-0.03958514332771301
1769661550724248800,2.097248779296875,-0.015835892409086227,0.018776079639792442,-0.038630664348602295
1769661550734236700,2.107236572265625,-0.015481499955058098,0.012557800859212875,-0.04170980304479599
1769661550744224800,2.117224853515625,-0.013670016080141068,0.009784119203686714,-0.045583903789520264
1769661550754212900,2.127212890625,-0.014743971638381481,0.0040195295587182045,-0.0507696270942688
1769661550764200700,2.13720068359375,-0.011781737208366394,-0.0005174314137548208,-0.04589151591062546
1769661550774188800,2.147188720703125,-0.00868879072368145,-0.0027053726371377707,-0.042907070368528366
1769661550784177000,2.157177001953125,-0.012193776667118073,0.005180247128009796,-0.030389681458473206
1769661550794164700,2.167164794921875,-0.020220229402184486,0.011440960690379143,-0.01702018640935421
1769661550804152800,2.17715283203125,-0.02012328989803791,0.006187609396874905,-0.008410452865064144
1769661550814140700,2.187140625,-0.012407241389155388,0.0022032721899449825,-0.009258873760700226
1769661550824128800,2.197128662109375,-0.00923355296254158,0.00006954767741262913,-0.018159158527851105
1769661550834116600,2.20711669921875,-0.01250928919762373,0.013629409484565258,-0.02333330735564232
1769661550844104700,2.217104736328125,-0.016195369884371758,0.016962356865406036,-0.025914445519447327
1769661550854092800,2.2270927734375,-0.019141187891364098,0.012405544519424438,-0.035143859684467316
1769661550864079400,2.237079345703125,-0.013711003586649895,0.009256355464458466,-0.035514574497938156
1769661550874067500,2.2470673828125,-0.006778310518711805,0.008771772496402264,-0.03914755582809448
1769661550884055600,2.2570556640625,0.001955792773514986,0.005030564032495022,-0.03893024101853371
1769661550894043400,2.26704345703125,0.004285136703401804,-0.006709417328238487,-0.034693021327257156
1769661550904031500,2.277031494140625,0.006395159754902124,-0.023674286901950836,-0.024033185094594955
1769661550914019600,2.28701953125,0.010001612827181816,-0.042678602039813995,-0.02063765749335289
1769661550924007400,2.29700732421875,0.011385125108063221,-0.055509716272354126,-0.01338906493037939
1769661550933995500,2.30699560546875,0.005035687703639269,-0.06213217228651047,-0.017381083220243454
1769661550943983600,2.316983642578125,0.0012966099893674254,-0.06482676416635513,-0.029358915984630585
1769661550953971700,2.3269716796875,-0.002342452760785818,-0.07490018010139465,-0.04122795909643173
1769661550963959600,2.33695947265625,-0.007510050665587187,-0.0795133113861084,-0.048998795449733734
1769661550973947600,2.34694775390625,-0.013753857463598251,-0.07594379037618637,-0.06117405742406845
1769661550983935500,2.356935546875,-0.018229832872748375,-0.06929361075162888,-0.06756271421909332
1769661550993922600,2.366922607421875,-0.02102089859545231,-0.07051271945238113,-0.06758417189121246
1769661551003910700,2.37691064453125,-0.016077805310487747,-0.07414980232715607,-0.0629207119345665
1769661551013898500,2.3868984375,-0.017442893236875534,-0.06579621881246567,-0.059963811188936234
1769661551023886300,2.39688623046875,-0.01951509900391102,-0.059709563851356506,-0.05874808132648468
1769661551033874400,2.40687451171875,-0.010546756908297539,-0.06557285040616989,-0.05121590942144394
1769661551043862500,2.416862548828125,-0.010723857209086418,-0.0558757409453392,-0.04843530431389809
1769661551053850400,2.426850341796875,-0.0068972110748291016,-0.04912041127681732,-0.04246155917644501
1769661551063838500,2.43683837890625,-0.0066015999764204025,-0.04616430401802063,-0.0375317819416523
1769661551073826600,2.44682666015625,-0.006467013619840145,-0.03612653538584709,-0.03950779512524605
1769661551083814700,2.456814697265625,-0.00875307060778141,-0.032120078802108765,-0.043033551424741745
1769661551093802500,2.466802490234375,-0.01103692501783371,-0.03846514970064163,-0.0420118048787117
1769661551103790600,2.47679052734375,-0.011422283947467804,-0.03816767781972885,-0.0431593619287014
1769661551113778700,2.48677880859375,-0.012336667627096176,-0.02843426540493965,-0.043472770601511
1769661551123766500,2.4967666015625,-0.011325465515255928,-0.02379051223397255,-0.04236382991075516
1769661551133754400,2.50675439453125,-0.011582775972783566,-0.013217538595199585,-0.04248739406466484
1769661551143742500,2.516742431640625,-0.015091490931808949,-0.0010743229649960995,-0.042389389127492905
1769661551153730600,2.52673046875,-0.01602727733552456,0.0038421815261244774,-0.043729498982429504
1769661551163718400,2.536718505859375,-0.013302329927682877,0.009360783733427525,-0.05123748257756233
1769661551173706500,2.54670654296875,-0.01016330998390913,0.02174246311187744,-0.04995053634047508
1769661551183694600,2.556694580078125,-0.004382653161883354,0.036521412432193756,-0.04259035736322403
1769661551193682400,2.566682373046875,0.0009597704047337174,0.04080081358551979,-0.03382283076643944
1769661551203670500,2.57667041015625,0.0017153091030195355,0.04573298618197441,-0.029942072927951813
1769661551213658600,2.58665869140625,0.0022767754271626472,0.052291564643383026,-0.022510986775159836
1769661551223646700,2.596646728515625,0.0019585276022553444,0.05682746320962906,-0.020901372656226158
1769661551233634600,2.606634521484375,-0.003214300610125065,0.050862133502960205,-0.02401251532137394
1769661551243622700,2.61662255859375,-0.0027359970845282078,0.040221475064754486,-0.02527512051165104
1769661551253610500,2.626610595703125,-0.005915302783250809,0.02919052541255951,-0.024518948048353195
1769661551263598300,2.636598388671875,-0.013629680499434471,0.015039287507534027,-0.024880871176719666
1769661551273586400,2.64658642578125,-0.003039767500013113,0.004472693428397179,-0.0169149711728096
1769661551283574500,2.656574462890625,-0.016234399750828743,-0.007026836276054382,0.0001747987698763609
1769661551293561300,2.666561279296875,-0.012260331772267818,-0.015749938786029816,0.004203083459287882
1769661551303549400,2.676549560546875,-0.008108996786177158,-0.021351099014282227,0.00541189219802618
1769661551313537500,2.68653759765625,-0.007316850125789642,-0.014096678234636784,0.0019858721643686295
1769661551323525400,2.696525390625,-0.009914230555295944,-0.002561729634180665,-0.0005201625172048807
1769661551333513500,2.706513427734375,-0.00511410366743803,0.0033006363082677126,-0.0014326851814985275
1769661551343501600,2.71650146484375,0.0004122218815609813,0.011731671169400215,-0.004112358205020428
1769661551353489700,2.72648974609375,0.0016161169623956084,0.028850706294178963,-0.007347684353590012
1769661551363477500,2.7364775390625,0.002753020264208317,0.04923587292432785,-0.01031737495213747
1769661551373465600,2.746465576171875,0.006967957131564617,0.058080606162548065,-0.010795573703944683
1769661551383453700,2.75645361328125,0.009167196229100227,0.06585517525672913,-0.018307285383343697
1769661551393441500,2.766441650390625,0.008621851913630962,0.06778865307569504,-0.021268926560878754
1769661551403429600,2.7764296875,0.008741161786019802,0.06261119991540909,-0.023856453597545624
1769661551413417500,2.78641748046875,0.006492994260042906,0.054375551640987396,-0.024681877344846725
1769661551423405300,2.7964052734375,0.004541429691016674,0.0457940474152565,-0.028041722252964973
1769661551433393400,2.806393310546875,0.004618129692971706,0.029381947591900826,-0.0294797383248806
1769661551443381500,2.816381591796875,0.0035241032019257545,0.013349451124668121,-0.025296177715063095
1769661551453369600,2.82636962890625,0.0034361942671239376,0.003191862255334854,-0.02061113715171814
1769661551463357400,2.836357421875,0.0009557260200381279,-0.0029344733338803053,-0.01694449782371521
1769661551473345500,2.846345458984375,0.0025503530632704496,-0.004101271741092205,-0.013937506824731827
1769661551483333600,2.856333740234375,0.0010925387032330036,-0.008816398680210114,-0.013023776933550835
1769661551493321500,2.866321533203125,0.002650247188284993,-0.01135474443435669,-0.010855340398848057
1769661551503309600,2.8763095703125,0.0036870159674435854,-0.006523770745843649,-0.011482514441013336
1769661551513297700,2.886297607421875,0.0054463958367705345,-0.000508069759234786,-0.011207981035113335
1769661551523285500,2.896285400390625,0.006689293310046196,0.005298420321196318,-0.009712083265185356
1769661551533273300,2.9062734375,0.009500017389655113,0.003982574213296175,-0.010089457966387272
1769661551543261400,2.916261474609375,0.009363397024571896,0.0007180712418630719,-0.010645792819559574
1769661551553249500,2.92624951171875,0.011058571748435497,0.0005905292928218842,-0.012586113065481186
1769661551563237400,2.9362373046875,0.010485726408660412,0.0037317276000976562,-0.017626145854592323
1769661551573225500,2.9462255859375,0.006780182011425495,0.0031369742937386036,-0.01858566887676716
1769661551583213600,2.956213623046875,0.008295787498354912,-0.005335073918104172,-0.017162209376692772
1769661551593201700,2.96620166015625,0.009559067897498608,-0.011928234249353409,-0.011656523682177067
1769661551603189500,2.976189453125,0.009003532119095325,-0.009746839292347431,-0.009103084914386272
1769661551613176600,2.986176513671875,0.008348855189979076,-0.003711231052875519,-0.005449116230010986
1769661551623164400,2.996164306640625,0.008692136034369469,0.001840128330513835,-0.0029782354831695557
1769661551633152500,3.006152587890625,0.011909864842891693,0.0062428065575659275,-0.004900358617305756
1769661551643140600,3.016140625,0.01159694418311119,0.017589204013347626,-0.0036185793578624725
1769661551653128700,3.026128662109375,0.013537564314901829,0.021806558594107628,-0.007326756604015827
1769661551663116500,3.036116455078125,0.012476294301450253,0.017892243340611458,-0.009265538305044174
1769661551673104600,3.046104736328125,0.0140558872371912,0.015179302543401718,-0.01191132701933384
1769661551683092500,3.056092529296875,0.014946714043617249,0.011889233253896236,-0.00746358186006546
1769661551693080300,3.066080322265625,0.014527557417750359,0.00887147244066,-0.003401031019166112
1769661551703068400,3.076068359375,0.013672682456672192,0.007737232372164726,0.0007638866081833839
1769661551713056500,3.086056396484375,0.011651077307760715,0.0047118812799453735,0.0040800548158586025
1769661551723044600,3.096044677734375,0.009804440662264824,0.003602941520512104,0.0030960168223828077
1769661551733032400,3.106032470703125,0.010192803107202053,0.005629943683743477,0.0033455388620495796
1769661551743020500,3.1160205078125,0.012151291593909264,0.006296798586845398,0.002179606817662716
1769661551753008600,3.126008544921875,0.012906370684504509,0.004458436742424965,0.005409018602222204
1769661551762996500,3.13599658203125,0.014537823386490345,-0.00020209490321576595,0.0028230890166014433
1769661551772984600,3.145984619140625,0.015958739444613457,-0.0050904154777526855,0.001332737854681909
1769661551782972700,3.15597265625,0.013813030906021595,-0.007914697751402855,0.00341852568089962
1769661551792960800,3.165960693359375,0.01210151519626379,-0.011880743317306042,0.010615603998303413
1769661551802948400,3.1759482421875,0.007432460319250822,-0.016936222091317177,0.011595380492508411
1769661551812936400,3.1859365234375,0.0015045542968437076,-0.02379186637699604,0.009387519210577011
1769661551822924500,3.195924560546875,-0.0023189459461718798,-0.03149159625172615,0.006202112417668104
1769661551832912400,3.205912353515625,-0.005680944304913282,-0.03312717378139496,-0.0006192075088620186
1769661551842900500,3.215900390625,-0.0056548453867435455,-0.03405475616455078,-0.005971628241240978
1769661551852888600,3.225888671875,-0.0067891343496739864,-0.030618522316217422,-0.01724185049533844
1769661551862876400,3.23587646484375,-0.009396635927259922,-0.02596811205148697,-0.020535649731755257
1769661551872864800,3.24586474609375,-0.009306450374424458,-0.017358798533678055,-0.025345543399453163
1769661551882852900,3.255852783203125,-0.0098603880032897,-0.004645932465791702,-0.0253191776573658
1769661551892841000,3.265841064453125,-0.012158524245023727,0.0038707160856574774,-0.026232078671455383
1769661551902828800,3.275828857421875,-0.015736214816570282,-0.00015092338435351849,-0.024434978142380714
1769661551912815900,3.28581591796875,-0.01735793799161911,-0.0013108572456985712,-0.022894037887454033
1769661551922804000,3.295803955078125,-0.018514549359679222,0.005118546076118946,-0.023189915344119072
1769661551932791800,3.305791748046875,-0.016474325209856033,0.010910254903137684,-0.023624442517757416
1769661551942780000,3.31577978515625,-0.016129445284605026,0.015213390812277794,-0.01860198751091957
1769661551952767700,3.325767822265625,-0.013304024934768677,0.02092099003493786,-0.01856241561472416
1769661551962755600,3.335755615234375,-0.012489896267652512,0.030584270134568214,-0.018282784149050713
1769661551972743700,3.34574365234375,-0.009920455515384674,0.03911051154136658,-0.02007359452545643
1769661551982731800,3.355731689453125,-0.00854493211954832,0.04557027295231819,-0.023048877716064453
1769661551992720000,3.365719970703125,-0.007221220061182976,0.04764175042510033,-0.022216057404875755
1769661552002707700,3.375707763671875,-0.007693131919950247,0.04193992167711258,-0.02181977964937687
1769661552012695800,3.38569580078125,-0.00695998826995492,0.029768986627459526,-0.01693287491798401
1769661552022684000,3.395683837890625,-0.003415320999920368,0.014796428382396698,-0.01131280418485403
1769661552032671700,3.405671630859375,-0.003975819796323776,0.002890812000259757,-0.0038039672654122114
1769661552042659800,3.415659912109375,-0.002931061666458845,0.001988799311220646,-0.0005916624795645475
1769661552052648000,3.42564794921875,-0.001395168248564005,-0.007450885139405727,-0.004113532602787018
1769661552062635800,3.4356357421875,-0.0007070074207149446,-0.015545296482741833,-0.0064874738454818726
1769661552072623600,3.44562353515625,0.0014826926635578275,-0.014873337000608444,-0.0025822236202657223
1769661552082611700,3.45561181640625,0.0020816377364099026,-0.004513374995440245,0.007038712035864592
1769661552092599800,3.465599853515625,0.00010959059000015259,0.008892577141523361,0.01280808262526989
1769661552102587600,3.475587646484375,0.0004965477855876088,0.018432287499308586,0.014939943328499794
1769661552112575700,3.48557568359375,0.0019776285625994205,0.02284305915236473,0.012432899326086044
1769661552122563800,3.495563720703125,0.005307378713041544,0.02451925165951252,0.008694353513419628
1769661552132551700,3.5055517578125,0.007427666801959276,0.029417427256703377,0.008974563330411911
1769661552142539800,3.515539794921875,0.010600024834275246,0.03075539879500866,0.011282725259661674
1769661552152528000,3.52552783203125,0.009578726254403591,0.03464241698384285,0.015597477555274963
1769661552162516000,3.535515869140625,0.009572334587574005,0.03705790266394615,0.015030758455395699
1769661552172503800,3.54550390625,0.009292848408222198,0.03208214417099953,0.009873325005173683
1769661552182492000,3.555491943359375,0.007538624107837677,0.028596332296729088,0.009029901586472988
1769661552192479700,3.565479736328125,0.007003255654126406,0.03129739686846733,0.01049714908003807
1769661552202467600,3.575467529296875,0.008772127330303192,0.035778965801000595,0.01801045797765255
1769661552212455700,3.58545556640625,0.00956945400685072,0.03524646535515785,0.02710871398448944
1769661552222442800,3.59544287109375,0.009434165433049202,0.030232800170779228,0.026775021106004715
1769661552232430600,3.6054306640625,0.010224374011158943,0.02328929677605629,0.022423043847084045
1769661552242418700,3.615418701171875,0.011088303290307522,0.019907347857952118,0.020115148276090622
1769661552252406800,3.62540673828125,0.010853727348148823,0.022695032879710197,0.02129748836159706
1769661552262394600,3.63539453125,0.010812448337674141,0.027183525264263153,0.022271938621997833
1769661552272382700,3.6453828125,0.009982363320887089,0.0306840892881155,0.022552859038114548
1769661552282370800,3.655370849609375,0.0109176654368639,0.034854866564273834,0.019113387912511826
1769661552292359000,3.66535888671875,0.011296343989670277,0.04018332064151764,0.01642540469765663
1769661552302346800,3.6753466796875,0.00972134992480278,0.03680163994431496,0.014489819295704365
1769661552312334800,3.6853349609375,0.008592947386205196,0.028731931000947952,0.015629131346940994
1769661552322323000,3.695322998046875,0.007536205463111401,0.02360321208834648,0.018204141408205032
1769661552332310800,3.705310791015625,0.008720995858311653,0.021991675719618797,0.01938633807003498
1769661552342298600,3.715298583984375,0.004291093442589045,0.01791863702237606,0.01847047731280327
1769661552352286700,3.72528662109375,0.002443027915433049,0.01352832093834877,0.012993176467716694
1769661552362274800,3.73527490234375,0.0025777837727218866,0.014531267806887627,0.006457779556512833
1769661552372262700,3.7452626953125,0.0014027258148416877,0.01682092435657978,0.0020758481696248055
1769661552382250800,3.755250732421875,0.0015065890038385987,0.017527461051940918,0.00035012001171708107
1769661552392238800,3.76523876953125,0.0015397586394101381,0.012393518351018429,0.0009629519190639257
1769661552402226700,3.775226806640625,0.0013621256221085787,0.0017752283019945025,0.002898271195590496
1769661552412214800,3.78521484375,-0.0011369866551831365,-0.004885396920144558,0.007463013753294945
1769661552422203000,3.795202880859375,-0.0004259226843714714,-0.006927508395165205,0.00755702331662178
1769661552432190700,3.805190673828125,0.0013361690798774362,-0.009373299777507782,0.005320078693330288
1769661552442178800,3.8151787109375,-0.0008401661179959774,-0.012059630826115608,0.004864678718149662
1769661552452167000,3.8251669921875,-0.002900022082030773,-0.011304649524390697,0.004609627649188042
1769661552462154800,3.83515478515625,-0.0016131827142089605,-0.013498295098543167,-0.0021436158567667007
1769661552472142600,3.845142578125,-0.0028237118385732174,-0.020439257845282555,-0.004587739706039429
1769661552482130700,3.855130615234375,-0.005117226392030716,-0.029517173767089844,-0.005074565298855305
1769661552492118800,3.865118896484375,-0.004838679917156696,-0.036639854311943054,-0.0034705395810306072
1769661552502106600,3.875106689453125,-0.003565689083188772,-0.040499839931726456,-0.004823691677302122
1769661552512094700,3.8850947265625,-0.0007962213712744415,-0.04128309711813927,-0.006052394397556782
1769661552522082800,3.895082763671875,0.00012869446072727442,-0.036823634058237076,-0.006775975227355957
1769661552532071000,3.90507080078125,0.0007805856876075268,-0.03185438737273216,-0.01038863230496645
1769661552542057700,3.9150576171875,0.0017646239139139652,-0.024451596662402153,-0.01528911478817463
1769661552552045800,3.9250458984375,0.0009759659878909588,-0.014833477325737476,-0.018764767795801163
1769661552562034000,3.935033935546875,-0.0007489633862860501,-0.003927299752831459,-0.01971524953842163
1769661552572021800,3.945021728515625,0.002865526359528303,0.0042685759253799915,-0.015963587909936905
1769661552582009900,3.955009765625,0.004441851284354925,0.010156558826565742,-0.016306869685649872
1769661552591998000,3.964998046875,0.006288100499659777,0.008002150803804398,-0.0212874673306942
1769661552601985800,3.97498583984375,0.005521376151591539,-0.0019207876175642014,-0.018813125789165497
1769661552611974000,3.984973876953125,0.005108223762363195,-0.005169088952243328,-0.01081224624067545
1769661552621961700,3.994961669921875,0.006519964896142483,-0.008126795291900635,-0.012213069014251232
1769661552631949600,4.004949462890625,0.008853355422616005,-0.011835264042019844,-0.013783067464828491
1769661552641937700,4.014937744140625,0.01102383155375719,-0.012849662452936172,-0.011445876210927963
1769661552651925800,4.02492578125,0.00968917366117239,-0.009943483397364616,-0.010311610996723175
1769661552661913900,4.034913818359375,0.00809607096016407,-0.008139191195368767,-0.010877000167965889
1769661552671901700,4.044901611328125,0.009203123860061169,-0.010307526215910912,-0.01229359582066536
1769661552681889800,4.054889892578125,0.01083510834723711,-0.010578103363513947,-0.013885900378227234
1769661552691878000,4.0648779296875,0.009492052718997002,-0.014314916916191578,-0.013848249800503254
1769661552701865700,4.07486572265625,0.0113839628174901,-0.02120637707412243,-0.020246759057044983
1769661552711853800,4.084853759765625,0.007659168913960457,-0.024050412699580193,-0.020598087459802628
1769661552721842000,4.094842041015625,0.008903663605451584,-0.010440059937536716,-0.006784536875784397
1769661552731829800,4.104829833984375,0.01099143736064434,0.01206585019826889,-0.0029426126275211573
1769661552741817600,4.114817626953125,0.011173863895237446,0.02035919949412346,-0.005002833902835846
1769661552751805700,4.1248056640625,0.012968179769814014,0.012872828170657158,-0.006815258413553238
1769661552761793800,4.134793701171875,0.01368749886751175,0.006637568585574627,-0.009872300550341606
1769661552771781600,4.14478173828125,0.01581161469221115,0.0054317195899784565,-0.013224496506154537
1769661552781769700,4.154769775390625,0.01466352492570877,0.012730911374092102,-0.01354087982326746
1769661552791757800,4.1647578125,0.012880513444542885,0.015715064480900764,-0.010507358238101006
1769661552801746000,4.174745849609375,0.013615812174975872,0.004121524281799793,-0.010140109807252884
1769661552811733800,4.184733642578125,0.01537388563156128,-0.008865579962730408,-0.006995663978159428
1769661552821721900,4.194721923828125,0.01609293930232525,-0.015341855585575104,-0.00047704484313726425
1769661552831710000,4.2047099609375,0.015047067776322365,-0.019483644515275955,0.005502025596797466
1769661552841697800,4.21469775390625,0.014240395277738571,-0.021093524992465973,0.010000903159379959
1769661552851686000,4.224685791015625,0.011631079018115997,-0.01874830387532711,0.008698077872395515
1769661552861673700,4.234673828125,0.00890852976590395,-0.014285910874605179,0.007816305384039879
1769661552871661300,4.244661376953125,0.01189369149506092,-0.012559893541038036,0.007691663224250078
1769661552881649200,4.254649169921875,0.012717407196760178,-0.01224697194993496,0.009972660802304745
1769661552891637200,4.26463720703125,0.014094116166234016,-0.016583753749728203,0.008404014632105827
1769661552901625300,4.274625244140625,0.014696521684527397,-0.01639200560748577,0.009015476331114769
1769661552911613200,4.28461328125,0.012643322348594666,-0.014536270871758461,0.013362076133489609
1769661552921601300,4.294601318359375,0.012584466487169266,-0.007214176002889872,0.016004463657736778
1769661552931589400,4.30458935546875,0.0121974628418684,0.0018473999807611108,0.01565507799386978
1769661552941577500,4.314577392578125,0.009512729942798615,0.004237852990627289,0.019232504069805145
1769661552951565300,4.3245654296875,0.00840037502348423,0.0031446125358343124,0.009105108678340912
1769661552961553400,4.334553466796875,0.006054928991943598,0.001626877230592072,0.0009276060154661536
1769661552971541500,4.34454150390625,0.0040096440352499485,-0.0016970348078757524,0.0037394389510154724
1769661552981529300,4.354529296875,0.0015166590455919504,0.005283110309392214,0.00421880790963769
1769661552991517200,4.36451708984375,0.004152658861130476,0.010077817365527153,0.0018976063001900911
1769661553001505300,4.37450537109375,0.007156970910727978,0.008946239948272705,0.0030028182081878185
1769661553011493000,4.3844931640625,0.007179605308920145,0.00544251874089241,0.004455662332475185
1769661553021481200,4.394481201171875,0.005751352291554213,0.007554405368864536,0.005130773410201073
1769661553031469300,4.40446923828125,0.005646544508635998,0.011491004377603531,0.00698508508503437
1769661553041457400,4.41445751953125,0.0048856791108846664,0.016492154449224472,0.006535277236253023
1769661553051445200,4.4244453125,0.007186480797827244,0.02404625527560711,0.0014542867429554462
1769661553061433300,4.434433349609375,0.008378778584301472,0.03090576082468033,0.003422629088163376
1769661553071421400,4.44442138671875,0.007593338843435049,0.029314080253243446,0.004440064076334238
1769661553081409300,4.4544091796875,0.006009557284414768,0.02681523561477661,0.0032134121283888817
1769661553091397400,4.4643974609375,0.004448024556040764,0.022776901721954346,0.004516546614468098
1769661553101385500,4.474385498046875,0.003562790108844638,0.01931479386985302,0.004093370400369167
1769661553111373300,4.484373291015625,0.005183372646570206,0.016619184985756874,0.003337556030601263
1769661553121361200,4.494361083984375,0.006219075992703438,0.00925581157207489,0.0009455048711970448
1769661553131349200,4.504349365234375,0.005231890827417374,0.00029682659078389406,0.00004258798435330391
1769661553141337300,4.51433740234375,0.0008778887568041682,-0.008393334224820137,-0.0027523995377123356
1769661553151325200,4.5243251953125,-0.00291404128074646,-0.009895158000290394,-0.0038941469974815845
1769661553161313300,4.534313232421875,-0.005585458129644394,-0.012001984752714634,-0.003556191921234131
1769661553171301400,4.54430126953125,-0.007265283726155758,-0.011327894404530525,-0.007463793270289898
1769661553181289500,4.55428955078125,-0.006611211225390434,-0.011341476812958717,-0.01748819835484028
1769661553191276300,4.5642763671875,-0.005745151080191135,-0.007279889192432165,-0.014585351571440697
1769661553201264400,4.574264404296875,-0.003096104832366109,0.014005424454808235,-0.010639079846441746
1769661553211252200,4.584252197265625,-0.0021017054095864296,0.028559967875480652,-0.010565410368144512
1769661553221240300,4.594240234375,0.0016373725375160575,0.03746398165822029,-0.010455954819917679
1769661553231228400,4.604228515625,0.0033333953469991684,0.035789329558610916,-0.009537541307508945
1769661553241216500,4.614216552734375,0.000720834475941956,0.03530729562044144,-0.0063675809651613235
1769661553251204400,4.624204345703125,0.0016855772119015455,0.029632722958922386,-0.0066519612446427345
1769661553261192400,4.6341923828125,0.0016248570755124092,0.01912735216319561,-0.00990527868270874
1769661553271180300,4.64418017578125,0.0029207742772996426,0.01139230839908123,-0.012275268323719501
1769661553281168100,4.654168212890625,0.003513593692332506,0.005937089212238789,-0.015641236677765846
1769661553291156200,4.66415625,0.0022187174763530493,0.0023161231074482203,-0.013781769201159477
1769661553301144300,4.674144287109375,0.0020634550601243973,0.0021890904754400253,-0.014687512069940567
1769661553311132400,4.68413232421875,0.0036905016750097275,0.009463848546147346,-0.012491950765252113
1769661553321120300,4.694120361328125,0.004794647917151451,0.017526568844914436,-0.008337685838341713
1769661553331108400,4.7041083984375,0.0039438651874661446,0.01976366713643074,-0.01104473415762186
1769661553341096400,4.714096435546875,0.006682659965008497,0.024618344381451607,-0.015788357704877853
1769661553351084300,4.724084228515625,0.006722971331328154,0.028007419779896736,-0.01948840543627739
1769661553361072400,4.734072265625,0.004090702626854181,0.02720048278570175,-0.026202233508229256
1769661553371060500,4.744060546875,0.0025160228833556175,0.027012191712856293,-0.029524726793169975
1769661553381048300,4.75404833984375,0.002902979962527752,0.024504560977220535,-0.030898919329047203
1769661553391036200,4.7640361328125,0.00397838931530714,0.01869889162480831,-0.029426194727420807
1769661553401024300,4.774024169921875,-0.0005412613973021507,0.024029474705457687,-0.02360905148088932
1769661553411012400,4.784012451171875,0.0000820142449811101,0.025574535131454468,-0.023668482899665833
1769661553421000200,4.794000244140625,0.0017198582645505667,0.024825919419527054,-0.02653937041759491
1769661553430988300,4.80398828125,0.0023852610029280186,0.02175736054778099,-0.026530900970101357
1769661553440976400,4.813976318359375,0.0013599441153928638,0.02524583414196968,-0.02150205336511135
1769661553450964200,4.823964111328125,0.004152100533246994,0.026145268231630325,-0.020944669842720032
1769661553460952300,4.833952392578125,0.006190483924001455,0.02364003285765648,-0.0196722112596035
1769661553470940400,4.8439404296875,0.00861320924013853,0.0212413240224123,-0.019396508112549782
1769661553480928500,4.853928466796875,0.009670217521488667,0.018962455913424492,-0.01752510480582714
1769661553490916400,4.863916259765625,0.008103479631245136,0.019699620082974434,-0.015696845948696136
1769661553500904400,4.873904541015625,0.007621181197464466,0.023858144879341125,-0.010752420872449875
1769661553510892300,4.883892333984375,0.0035833693109452724,0.021523529663681984,-0.01048408355563879
1769661553520880000,4.893880126953125,0.004602827597409487,0.015876561403274536,-0.011301673948764801
1769661553530867500,4.903867431640625,0.0019172237953171134,0.010038626380264759,-0.007541351951658726
1769661553540855300,4.913855224609375,-0.002873270306736231,0.004888338968157768,-0.004521327093243599
1769661553550843100,4.923843017578125,-0.0036839128006249666,-0.00039870315231382847,-0.0045424653217196465
1769661553560831200,4.933831298828125,-0.006033087149262428,-0.004979074001312256,-0.014010269194841385
1769661553570819300,4.9438193359375,-0.00869162380695343,-0.007715693674981594,-0.022470012307167053
1769661553580807200,4.95380712890625,-0.007810384035110474,0.0007587510626763105,-0.02449987456202507
1769661553590795300,4.963795166015625,-0.011071182787418365,0.012692620977759361,-0.023089727386832237
1769661553600783400,4.973783447265625,-0.010338014923036098,0.01869139075279236,-0.022151494398713112
1769661553610771500,4.983771484375,-0.007975814864039421,0.01757284626364708,-0.020119234919548035
1769661553620759300,4.99375927734375,-0.00850818119943142,0.01489450503140688,-0.017728248611092567
1769661553630747400,5.003747314453125,-0.010399340651929379,0.01429993100464344,-0.014303850010037422
1769661553640735500,5.013735595703125,-0.011087767779827118,0.0037783142179250717,-0.015065247192978859
1769661553650723300,5.023723388671875,-0.012659153901040554,-0.004455444402992725,-0.014429869130253792
1769661553660711200,5.033711181640625,-0.013680210337042809,-0.008765503764152527,-0.009913681074976921
1769661553670699300,5.04369921875,-0.013858835212886333,-0.012861277908086777,-0.005668398924171925
1769661553680687400,5.053687255859375,-0.01392434909939766,-0.012979255989193916,-0.0015237214975059032
1769661553690675200,5.06367529296875,-0.014603042975068092,-0.015369351953268051,-0.0007950770668685436
1769661553700663300,5.073663330078125,-0.009846637025475502,-0.013143216259777546,0.0016595586203038692
1769661553710651400,5.0836513671875,-0.008948981761932373,-0.008493220433592796,0.003930740058422089
1769661553720639200,5.09363916015625,-0.006495943292975426,-0.0012153340503573418,0.010095158591866493
1769661553730627300,5.10362744140625,-0.004331303294748068,0.006472919601947069,0.012720840983092785
1769661553740615400,5.113615478515625,-0.0030220933258533478,0.010565931908786297,0.01711106300354004
1769661553750603300,5.123603271484375,-0.001867322251200676,0.012525772675871849,0.01692676730453968
1769661553760591400,5.13359130859375,-0.0013666480081155896,0.015872035175561905,0.01650545559823513
1769661553770579500,5.143579345703125,0.0002150527434423566,0.016898997128009796,0.014003670774400234
1769661553780567300,5.1535673828125,0.0014590153004974127,0.014426251873373985,0.006597419269382954
1769661553790555100,5.16355517578125,0.002473484491929412,0.009116841480135918,0.004466055892407894
1769661553800543200,5.173543212890625,0.0025909303221851587,0.0031335169915109873,0.0017562892753630877
1769661553810531300,5.18353125,0.0017093030037358403,-0.0011655380949378014,0.0055430857464671135
1769661553820519200,5.193519287109375,-0.000612174510024488,-0.0036057927645742893,0.005971588660031557
1769661553830507300,5.20350732421875,0.0009545140201225877,-0.004839941393584013,0.005454408470541239
1769661553840495400,5.213495361328125,0.0019481395138427615,-0.00013759778812527657,0.0044927410781383514
1769661553850483500,5.2234833984375,0.0044488003477454185,0.011220513842999935,0.004209319595247507
1769661553860470300,5.23347021484375,0.005588633008301258,0.016844576224684715,0.0067483773455023766
1769661553870458600,5.243458740234375,0.0033945750910788774,0.011459577828645706,0.006897467188537121
1769661553880446500,5.253446533203125,0.004735477268695831,0.0058275251649320126,0.008221857249736786
1769661553890434600,5.2634345703125,0.006208715029060841,0.0009832598734647036,0.012642900459468365
1769661553900422700,5.273422607421875,0.0056744846515357494,-0.0057087307795882225,0.014019754715263844
1769661553910410800,5.28341064453125,0.007180746644735336,-0.00933084823191166,0.015176810324192047
1769661553920398600,5.293398681640625,0.007765843532979488,-0.013108009472489357,0.014595442451536655
1769661553930386400,5.303386474609375,0.007496860809624195,-0.010077938437461853,0.015596618875861168
1769661553940374500,5.31337451171875,0.00452024582773447,-0.003729495219886303,0.013993396423757076
1769661553950362400,5.3233623046875,0.004031265154480934,-0.0016929993871599436,0.012751569971442223
1769661553960350500,5.3333505859375,0.005333017557859421,-0.0014397329650819302,0.013146783225238323
1769661553970338600,5.343338623046875,0.005727867595851421,-0.0020460649393498898,0.013608688488602638
1769661553980326400,5.353326416015625,0.00394621305167675,-0.0037635373882949352,0.010596118867397308
1769661553990314500,5.363314453125,0.0038310433737933636,-0.008752884343266487,0.00642805453389883
1769661554000302600,5.373302490234375,0.0016848020022735,-0.013052025809884071,0.0026642088778316975
1769661554010290700,5.383290771484375,-0.00007295631803572178,-0.015002013184130192,-0.0028211651369929314
1769661554020278500,5.393278564453125,0.0010911113349720836,-0.007031703367829323,-0.0032715057022869587
1769661554030266600,5.4032666015625,-0.0007354793488048017,0.005096469074487686,-0.0037690233439207077
1769661554040254700,5.413254638671875,-0.0005431991303339601,0.012604452669620514,-0.00449233828112483
1769661554050242300,5.4232421875,-0.0017081619007512927,0.014007777906954288,-0.006324547342956066
1769661554060230400,5.43323046875,-0.00009375368244946003,0.011121976189315319,-0.002959110774099827
1769661554070218500,5.443218505859375,-0.002099767792969942,0.013619421981275082,-0.0018401015549898148
1769661554080206600,5.45320654296875,-0.0023602249566465616,0.013990134000778198,-0.0013016103766858578
1769661554090194400,5.4631943359375,-0.0034140131901949644,0.004864302463829517,-0.0048156557604670525
1769661554100182500,5.4731826171875,-0.0026627355255186558,-0.0019832169637084007,-0.005331243388354778
1769661554110170600,5.483170654296875,-0.004921944811940193,-0.007651143707334995,0.00011908495798707008
1769661554120158500,5.493158447265625,-0.005163493566215038,-0.008145959116518497,0.002493559382855892
1769661554130146600,5.503146484375,-0.003116779960691929,-0.008889568038284779,0.004526174161583185
1769661554140134700,5.513134765625,-0.0026190350763499737,-0.00964910164475441,0.00414667371660471
1769661554150122800,5.523122802734375,-0.0009505175985395908,-0.008020727895200253,0.005643866024911404
1769661554160110600,5.533110595703125,0.0004545660922303796,-0.003843293059617281,0.0019162397366017103
1769661554170098400,5.543098388671875,-0.0010936729377135634,-0.003646379103884101,0.0007486904505640268
1769661554180086500,5.55308642578125,-0.0029088836163282394,-0.00036323443055152893,-0.0018795833457261324
1769661554190074400,5.563074462890625,-0.0025267198216170073,0.006028885021805763,-0.0018345757853239775
1769661554200062500,5.5730625,-0.00355896120890975,0.007350611500442028,-0.002535786246880889
1769661554210049500,5.583049560546875,-0.0022157602943480015,-0.0027355158235877752,-0.0016448409296572208
1769661554220037400,5.593037353515625,-0.001996848499402404,-0.009919925592839718,-0.0009055475238710642
1769661554230025500,5.603025390625,0.003928611520677805,-0.0123045789077878,0.0036591188982129097
1769661554240013600,5.613013671875,0.005072439089417458,-0.01031732838600874,0.002103566424921155
1769661554250001400,5.62300146484375,0.0007140076486393809,-0.007442629896104336,0.0009280332596972585
1769661554259989500,5.632989501953125,0.001366482232697308,-0.010584893636405468,0.003139788517728448
1769661554269977600,5.6429775390625,-0.0011858183424919844,-0.00831543281674385,0.001921280287206173
1769661554279965700,5.652965576171875,-0.00027341931127011776,-0.0029345161747187376,0.0012198035838082433
1769661554289953500,5.66295361328125,0.0005729804979637265,-0.003148638876155019,-0.00044487137347459793
1769661554299941600,5.672941650390625,0.0041045984253287315,-0.008819574490189552,-0.0037133689038455486
1769661554309929700,5.6829296875,0.0009937839349731803,-0.011887666769325733,0.00023280084133148193
1769661554319917600,5.69291748046875,0.0001397080486640334,-0.010172324255108833,0.005287214182317257
1769661554329905400,5.702905517578125,0.0011859436053782701,-0.009774627164006233,0.006421502213925123
1769661554339893500,5.7128935546875,0.0019286992028355598,-0.006089612375944853,0.006228955462574959
1769661554349881300,5.72288134765625,0.003937618341296911,0.0005030875327065587,0.006175747141242027
1769661554359869400,5.732869384765625,0.0050590755417943,-0.00025617959909141064,0.008584575727581978
1769661554369857500,5.742857421875,0.000983010744675994,-0.00300300819799304,0.009511567652225494
1769661554379845600,5.752845703125,0.0014208343345671892,-0.005688273813575506,0.005533337593078613
1769661554389833500,5.76283349609375,0.0027891905046999454,-0.011278913356363773,0.00022156117483973503
1769661554399821600,5.772821533203125,0.002387851942330599,-0.011013396084308624,-0.0010628814343363047
1769661554409809700,5.7828095703125,0.0021811663173139095,-0.006919603794813156,-0.0023297450970858335
1769661554419797500,5.792797607421875,0.0025047403760254383,-0.002884648274630308,-0.005332459695637226
1769661554429785600,5.80278564453125,0.003455852158367634,0.0010437092278152704,-0.000664582010358572
1769661554439773400,5.8127734375,0.003730690572410822,0.003652009181678295,0.004423120990395546
1769661554449761500,5.822761474609375,0.0027619539760053158,0.0031364879105240107,0.005281507968902588
1769661554459749400,5.832749267578125,-0.0005419636145234108,-0.006247426383197308,0.0013304426101967692
1769661554469737500,5.842737548828125,-0.002100324956700206,-0.015682827681303024,-0.0013269069604575634
1769661554479725600,5.8527255859375,-0.004653231240808964,-0.017479661852121353,-0.005064653232693672
1769661554489713400,5.86271337890625,-0.007952136918902397,-0.014970586635172367,-0.005105826072394848
1769661554499701500,5.872701416015625,-0.009789984673261642,-0.01941540464758873,-0.0026264232583343983
1769661554509689600,5.882689697265625,-0.008335534483194351,-0.023595567792654037,-0.0012153282295912504
1769661554519677700,5.892677734375,-0.00803166814148426,-0.024714894592761993,0.003611118532717228
1769661554529665500,5.90266552734375,-0.007987799122929573,-0.02230064943432808,0.0044661033898591995
1769661554539653600,5.912653564453125,-0.010516736656427383,-0.020594095811247826,0.006797967478632927
1769661554549640400,5.922640380859375,-0.01148808840662241,-0.015817761421203613,0.01104485522955656
1769661554559628500,5.932628662109375,-0.010420694015920162,-0.009443486109375954,0.010823280550539494
1769661554569616600,5.94261669921875,-0.010053831152617931,-0.005358530208468437,0.006823960691690445
1769661554579604700,5.952604736328125,-0.009224522858858109,0.0020799452904611826,0.004753086715936661
1769661554589592600,5.962592529296875,-0.007007441483438015,0.004390621557831764,0.0048736268654465675
1769661554599580400,5.972580322265625,-0.008792025968432426,0.0063890572637319565,0.003723141038790345
1769661554609568500,5.982568603515625,-0.009594992734491825,0.01015675999224186,0.0048561543226242065
1769661554619556400,5.992556396484375,-0.00670386478304863,0.007228880655020475,0.006695599760860205
1769661554629544400,6.00254443359375,-0.004411390982568264,-0.0021543223410844803,0.009656858630478382
1769661554639532500,6.012532470703125,-0.00543857179582119,-0.014350801706314087,0.009242204949259758
1769661554649520600,6.022520751953125,-0.007347380742430687,-0.02470843493938446,0.008295401930809021
1769661554659508500,6.032508544921875,-0.0058522820472717285,-0.025998735800385475,0.007756378035992384
1769661554669496600,6.04249658203125,-0.0060694520361721516,-0.023857776075601578,0.005098395980894566
1769661554679484700,6.052484619140625,-0.004843066446483135,-0.015240052714943886,0.004954053089022636
1769661554689472500,6.062472412109375,-0.003829249646514654,-0.003292481414973736,0.007355580106377602
1769661554699460600,6.072460693359375,-0.0064010643400251865,0.0032144198194146156,0.007874097675085068
1769661554709448400,6.082448486328125,-0.005305584520101547,0.003583877347409725,0.010632069781422615
1769661554719436300,6.092436279296875,-0.006412127986550331,-0.005753964651376009,0.01373331993818283
1769661554729424400,6.10242431640625,-0.00815523974597454,-0.01622343622148037,0.014125874266028404
1769661554739412500,6.11241259765625,-0.008505978621542454,-0.020366249606013298,0.015348264947533607
1769661554749400600,6.122400634765625,-0.010926549322903156,-0.022004086524248123,0.014179611578583717
1769661554759388400,6.132388427734375,-0.012197409756481647,-0.021112458780407906,0.011821115389466286
1769661554769376500,6.14237646484375,-0.012862764298915863,-0.01535048894584179,0.007297416217625141
1769661554779364600,6.152364501953125,-0.014040946029126644,-0.0077484953217208385,0.00846334733068943
1769661554789352400,6.1623525390625,-0.011974841356277466,0.0003452521050348878,0.005564661230891943
1769661554799340500,6.172340576171875,-0.008859742432832718,0.004994865041226149,0.0040993900038301945
1769661554809328600,6.18232861328125,-0.006412975024431944,0.006105202715843916,0.003708755364641547
1769661554819316700,6.192316650390625,-0.005418284330517054,0.0010630397591739893,0.005802799016237259
1769661554829304600,6.2023046875,-0.005762751214206219,-0.004373181611299515,0.004157277289777994
1769661554839292400,6.21229248046875,-0.006886606104671955,-0.004580375272780657,0.0022262190468609333
1769661554849280500,6.222280517578125,-0.004616503603756428,-0.002104302402585745,0.000365634448826313
1769661554859268400,6.232268310546875,-0.004322490654885769,-0.0014744647778570652,0.0016522076912224293
1769661554869256200,6.242256103515625,-0.003376777283847332,0.0007969682337716222,0.0017110584303736687
1769661554879244000,6.252244140625,-0.0024113813415169716,0.0022872730623930693,0.0004260833375155926
1769661554889232100,6.262232177734375,-0.00265963701531291,0.002051539486274123,-0.0023952610790729523
1769661554899219000,6.272218994140625,-0.004228771664202213,-0.00017512962222099304,-0.002158505842089653
1769661554909207000,6.28220703125,-0.00411863811314106,-0.0023597851395606995,-0.00029887212440371513
1769661554919195100,6.292195068359375,-0.0031532421708106995,0.0006112371338531375,0.0007296407129615545
1769661554929183200,6.302183349609375,-0.002140151569619775,-0.002293333411216736,0.001858449075371027
1769661554939171000,6.312171142578125,-0.0012535853311419487,-0.0028459392488002777,-0.0002936513628810644
1769661554949159200,6.3221591796875,0.0009124123025685549,-0.0028190051671117544,-0.001145866233855486
1769661554959147300,6.332147216796875,0.0009883122984319925,-0.0011116527020931244,-0.0004917937330901623
1769661554969135000,6.342135009765625,0.0035542927216738462,0.00038320093881338835,-0.0018116601277142763
1769661554979123200,6.352123291015625,0.0040986426174640656,0.001866847975179553,-0.005728903226554394
1769661554989111300,6.362111328125,0.004985427483916283,0.0037695211358368397,-0.008846561424434185
1769661554999099100,6.37209912109375,0.004565979354083538,0.0049458397552371025,-0.007924574427306652
1769661555009087000,6.3820869140625,0.003343659918755293,0.005691935308277607,-0.005965332500636578
1769661555019075000,6.392074951171875,0.0018565506907179952,0.005193125456571579,-0.005274774506688118
1769661555029063200,6.402063232421875,-0.0005001274403184652,0.0045589059591293335,-0.005215879529714584
1769661555039051000,6.412051025390625,-0.0012000061105936766,0.0029583461582660675,-0.006003908812999725
1769661555049039000,6.4220390625,-0.0006294603808782995,0.0004536866908892989,-0.004447501618415117
1769661555059027200,6.432027099609375,-0.002080084290355444,0.002295795362442732,-0.004290641285479069
1769661555069015300,6.442015380859375,-0.002362064551562071,0.00715249078348279,-0.00546360295265913
1769661555079003100,6.452003173828125,-0.0024241162464022636,0.009077956900000572,-0.005804487504065037
1769661555088991200,6.4619912109375,-0.002140151336789131,0.007231076247990131,-0.004557003267109394
1769661555098979300,6.471979248046875,-0.0038997018709778786,0.00707288458943367,-0.0035769599489867687
1769661555108967200,6.48196728515625,-0.0044226739555597305,0.006052804179489613,-0.004334739409387112
1769661555118955000,6.491955078125,-0.004808299243450165,0.003717212239280343,-0.006890840828418732
1769661555128943000,6.501943115234375,-0.004389602690935135,-0.00652503315359354,-0.007698517292737961
1769661555138931000,6.511930908203125,-0.004653255455195904,-0.012121399864554405,-0.00486544705927372
1769661555148919000,6.5219189453125,-0.0011389721184968948,-0.017514705657958984,0.0003323485143482685
1769661555158907100,6.5319072265625,-0.00022311101201921701,-0.022562194615602493,0.004246929194778204
1769661555168895200,6.541895263671875,0.0013280351413413882,-0.024439923465251923,0.003068265039473772
1769661555178883000,6.551883056640625,0.0014127237955108285,-0.02345987968146801,0.002301274798810482
1769661555188871200,6.56187109375,0.000773977255448699,-0.020155074074864388,0.0038241157308220863
1769661555198859300,6.571859375,-0.002828480675816536,-0.016331573948264122,0.006232146173715591
1769661555208847000,6.58184716796875,-0.0015088844811543822,-0.012570923194289207,0.00991902593523264
1769661555218835200,6.591835205078125,-0.0015493645332753658,-0.009256886318325996,0.009700912982225418
1769661555228823300,6.6018232421875,-0.0016197212971746922,-0.012656988576054573,0.0131065733730793
1769661555238811100,6.61181103515625,-0.003918029367923737,-0.019787069410085678,0.015023782849311829
1769661555248798200,6.621798095703125,-0.006839709356427193,-0.027294451370835304,0.01562084723263979
1769661555258786300,6.631786376953125,-0.007399771828204393,-0.02617485821247101,0.013186451978981495
1769661555268774100,6.641774169921875,-0.004455139860510826,-0.01752706617116928,0.0069666458293795586
1769661555278762000,6.651761962890625,-0.004892164375633001,-0.004001404158771038,0.0055873943492770195
1769661555288750000,6.66175,-0.004903857596218586,0.009830014780163765,0.001299432129599154
1769661555298738200,6.67173828125,-0.004894270095974207,0.015255672857165337,0.0004027457907795906
1769661555308726000,6.68172607421875,-0.0024276275653392076,0.015499593690037727,0.0013383846962824464
1769661555318714000,6.691714111328125,-0.0025338875129818916,0.008020903915166855,0.004954691044986248
1769661555328702200,6.7017021484375,-0.004134011920541525,-0.005628253798931837,0.0024868485052138567
1769661555338690000,6.71168994140625,-0.005529242102056742,-0.015786614269018173,-0.0013150800950825214
1769661555348678100,6.72167822265625,-0.004573335405439138,-0.0217024814337492,-0.004149227403104305
1769661555358666200,6.731666259765625,-0.0062450021505355835,-0.018547967076301575,-0.00564911961555481
1769661555368654300,6.741654296875,-0.005224164575338364,-0.02333260141313076,-0.0010865291114896536
1769661555378642200,6.75164208984375,-0.004510171245783567,-0.028276493772864342,0.003901305142790079
1769661555388630300,6.76163037109375,-0.0038489559665322304,-0.026860758662223816,0.01023850031197071
1769661555398618000,6.7716181640625,-0.005538199096918106,-0.025521721690893173,0.01300366036593914
1769661555408606000,6.78160595703125,-0.0007320156437344849,-0.03523466736078262,0.015376902185380459
1769661555418594000,6.791593994140625,0.0007249998161569238,-0.04044460877776146,0.013658630661666393
1769661555428582100,6.80158203125,0.005269852001219988,-0.05029333382844925,0.014234423637390137
1769661555438570200,6.8115703125,0.0018921648152172565,-0.05392908304929733,0.012311621569097042
1769661555448558000,6.82155810546875,0.003090611658990383,-0.03779870644211769,0.0084584541618824
1769661555458546200,6.831546142578125,0.0017790045822039247,-0.028619855642318726,0.0014098661486059427
1769661555468534300,6.8415341796875,0.003263377584517002,-0.016150841489434242,-0.005386681295931339
1769661555478522000,6.851522216796875,0.0064011141657829285,-0.0020597896073013544,-0.0051065171137452126
1769661555488510200,6.86151025390625,0.006853803060948849,0.008189229294657707,-0.0016693344805389643
1769661555498498300,6.871498291015625,0.010146002285182476,0.013128060847520828,0.0033813505433499813
1769661555508486100,6.881486083984375,0.00986448209732771,0.008340622298419476,0.0027936978731304407
1769661555518474000,6.891473876953125,0.007504389155656099,-0.00015699234791100025,-0.0009003728628158569
1769661555528462000,6.901462158203125,0.005612990353256464,-0.010868311859667301,-0.006491387262940407
1769661555538450200,6.9114501953125,0.006069988943636417,-0.022051190957427025,-0.010166283696889877
1769661555548438000,6.92143798828125,0.005900682415813208,-0.025838881731033325,-0.013405782170593739
1769661555558426000,6.931426025390625,0.006847170181572437,-0.022532567381858826,-0.011689641512930393
1769661555568414200,6.941414306640625,0.006150729022920132,-0.019082995131611824,-0.006587820593267679
1769661555578402000,6.951402099609375,0.008532128296792507,-0.01767391711473465,-0.00025269342586398125
1769661555588389000,6.96138916015625,0.012047016061842442,-0.016830336302518845,0.0029347380623221397
1769661555598377200,6.971377197265625,0.010623023845255375,-0.005831482354551554,0.006908706855028868
1769661555608365000,6.981364990234375,0.01875365525484085,0.004863658919930458,0.006497080437839031
1769661555618353200,6.991353271484375,0.018643399700522423,0.01029118150472641,0.007646767422556877
1769661555628341200,7.00134130859375,0.01869073137640953,0.023167503997683525,0.008908581919968128
1769661555638329300,7.011329345703125,0.018298979848623276,0.032430779188871384,0.004089858382940292
1769661555648317200,7.021317138671875,0.020333442836999893,0.032269421964883804,-0.0018694449681788683
1769661555658305300,7.03130517578125,0.02042691968381405,0.027203289791941643,-0.0031637412030249834
1769661555668293000,7.041293212890625,0.017324287444353104,0.023903241381049156,-0.0015791163314133883
1769661555678281000,7.051281005859375,0.016608163714408875,0.022678453475236893,0.001987122930586338
1769661555688269000,7.06126904296875,0.013623557984828949,0.01590999960899353,0.007128418423235416
1769661555698257200,7.071257080078125,0.010994219221174717,0.00872052926570177,0.00977213867008686
1769661555708245000,7.081244873046875,0.009520863182842731,0.005944814532995224,0.009166320785880089
1769661555718233000,7.091233154296875,0.006935199722647667,0.005480092950165272,0.006695439573377371
1769661555728221200,7.10122119140625,0.004365976899862289,0.010374588891863823,0.003930578473955393
1769661555738209300,7.111209228515625,0.004433088470250368,0.021839231252670288,0.0021073785610497
1769661555748197000,7.121197021484375,0.005845579318702221,0.026414338499307632,0.0014502920676022768
1769661555758185200,7.131185302734375,0.005944116041064262,0.027256431058049202,0.004459930583834648
1769661555768173300,7.14117333984375,0.006705924868583679,0.024790139868855476,0.004998792894184589
1769661555778161200,7.1511611328125,0.0061178989708423615,0.02486683987081051,0.0044911946170032024
1769661555788149000,7.16114892578125,0.005076288711279631,0.024991989135742188,0.005254937801510096
1769661555798137000,7.17113720703125,0.00541957002133131,0.02247317135334015,0.0042290883138775826
1769661555808125200,7.181125244140625,0.00525370379909873,0.02454766444861889,0.004815143533051014
1769661555818113000,7.191113037109375,0.0034371614456176758,0.027517620474100113,0.005878543481230736
1769661555828101000,7.20110107421875,0.004101498983800411,0.02601819857954979,0.004244108684360981
1769661555838089200,7.211089111328125,0.003100416623055935,0.020497731864452362,0.002891489304602146
1769661555848077000,7.2210771484375,0.004506662953644991,0.01169750839471817,0.0011454117484390736
1769661555858065200,7.231065185546875,0.0038264920003712177,-0.000716283917427063,-0.00008922978304326534
1769661555868053200,7.24105322265625,0.002874314785003662,-0.008939636871218681,0.0003972752019762993
1769661555878040600,7.25104052734375,0.0033313133753836155,-0.01591871865093708,-0.0018376493826508522
1769661555888028700,7.261028564453125,0.0027820486575365067,-0.017211593687534332,0.0016189131420105696
1769661555898016800,7.271016845703125,0.0013860199833288789,-0.016157779842615128,-0.001291921827942133
1769661555908004900,7.2810048828125,0.0013020812766626477,-0.009978225454688072,-0.0039220512844622135
1769661555917992700,7.29099267578125,0.0038224970921874046,-0.00025156233459711075,-0.005286389030516148
1769661555927980500,7.30098046875,0.006035607773810625,0.005210718605667353,-0.005953081883490086
1769661555937968600,7.31096875,0.006968246307224035,0.004956120625138283,-0.0031144185923039913
1769661555947956500,7.32095654296875,0.008409090340137482,0.0027739875949919224,-0.0019303869921714067
1769661555957943600,7.330943603515625,0.010598741471767426,0.0013851491967216134,0.0016214707866311073
1769661555967931600,7.340931640625,0.011036782525479794,-0.0016570226289331913,0.0037397569976747036
1769661555977919500,7.35091943359375,0.011913761496543884,-0.004018714185804129,0.00513498717918992
1769661555987907600,7.360907470703125,0.011963780038058758,-0.004395440686494112,0.006126588210463524
1769661555997895700,7.370895751953125,0.010224736295640469,-0.0014625017065554857,0.006904231384396553
1769661556007883500,7.380883544921875,0.011633718386292458,0.005192317068576813,0.008204960264265537
1769661556017871600,7.39087158203125,0.012168747372925282,0.008792644366621971,0.00803797971457243
1769661556027859700,7.400859619140625,0.01098937913775444,0.009993129409849644,0.008635543286800385
1769661556037847800,7.410847900390625,0.011390451341867447,0.007102001924067736,0.0071377819404006
1769661556047835600,7.420835693359375,0.013041659258306026,0.002615263219922781,0.004898490384221077
1769661556057823700,7.43082373046875,0.011435240507125854,0.006292555946856737,0.0006254485342651606
1769661556067811800,7.440811767578125,0.012963772751390934,0.003368071746081114,-0.0033775989431887865
1769661556077799700,7.450799560546875,0.0076132165268063545,0.004021611530333757,-0.0024068767670542
1769661556087787500,7.46078759765625,0.007406143005937338,0.0013538366183638573,-0.0013352683745324612
1769661556097775600,7.470775634765625,0.006549936253577471,-0.0019215850625187159,-0.007278644945472479
1769661556107763700,7.480763671875,0.007386072538793087,0.001616645255126059,-0.008534912019968033
1769661556117751600,7.49075146484375,0.007483811117708683,0.01235637441277504,-0.005627806298434734
1769661556127739600,7.50073974609375,0.005338731687515974,0.02032661624252796,-0.005635642446577549
1769661556137727700,7.510727783203125,0.004934730473905802,0.020631548017263412,-0.005635376088321209
1769661556147715600,7.520715576171875,0.006356663536280394,0.01615544781088829,-0.005378957837820053
1769661556157703700,7.53070361328125,0.00616864487528801,0.017375975847244263,-0.00665221456438303
1769661556167691800,7.54069189453125,0.0029734570998698473,0.01576215773820877,-0.0069989655166864395
1769661556177679600,7.5506796875,0.0021478773560374975,0.009578030556440353,-0.01070102583616972
1769661556187667700,7.560667724609375,0.0007501530926674604,0.00251193530857563,-0.014872755855321884
1769661556197655600,7.570655517578125,0.0015871846117079258,-0.0006660148501396179,-0.016369452700018883
1769661556207643600,7.5806435546875,-0.00012019183486700058,-0.00543880183249712,-0.018735036253929138
1769661556217631500,7.590631591796875,0.000586877460591495,-0.010319577530026436,-0.014525108970701694
1769661556227619600,7.60061962890625,-0.0013960401993244886,-0.016156401485204697,-0.012112760916352272
1769661556237607700,7.610607666015625,-0.00176888273563236,-0.019952736794948578,-0.007924940437078476
1769661556247595500,7.620595458984375,-0.0046260664239525795,-0.019334664568305016,-0.007597754709422588
1769661556257583600,7.63058349609375,-0.002118700183928013,-0.015666959807276726,-0.009279540739953518
1769661556267571700,7.64057177734375,-0.002302507171407342,-0.00782852154225111,-0.009985269978642464
1769661556277559800,7.650559814453125,-0.0017560265259817243,-0.00008085370063781738,-0.008055809885263443
1769661556287547600,7.660547607421875,-0.0014508046442642808,0.0062127262353897095,-0.008264015428721905
1769661556297535700,7.67053564453125,-0.0013613224728032947,0.012626683339476585,-0.008033119142055511
1769661556307522600,7.6805224609375,0.001146988128311932,0.021115317940711975,-0.00932842493057251
1769661556317510700,7.6905107421875,0.001432212651707232,0.028564445674419403,-0.013677367009222507
1769661556327498800,7.700498779296875,0.0018975635757669806,0.032905712723731995,-0.012687151320278645
1769661556337486800,7.71048681640625,0.00006237917114049196,0.030694223940372467,-0.014453625306487083
1769661556347474700,7.720474609375,0.0006777640664950013,0.026589881628751755,-0.01269802451133728
1769661556357462500,7.730462646484375,-0.002653850242495537,0.0209122896194458,-0.008472386747598648
1769661556367450600,7.74045068359375,-0.003503205254673958,0.010363331064581871,-0.009145524352788925
1769661556377438500,7.7504384765625,-0.0010054265148937702,0.001347465324215591,-0.008048035204410553
1769661556387426600,7.760426513671875,-0.002229246310889721,-0.0008088243193924427,-0.006687847897410393
1769661556397414700,7.77041455078125,-0.0008028573356568813,0.003522008191794157,-0.007192516699433327
1769661556407402800,7.78040283203125,-0.0030628396198153496,0.009343273937702179,-0.005548976361751556
1769661556417390600,7.790390625,-0.0041667199693620205,0.01458544097840786,-0.007578837685286999
1769661556427378700,7.800378662109375,-0.0022841314785182476,0.01680278778076172,-0.012685448862612247
1769661556437366800,7.81036669921875,-0.00018742471002042294,0.021002594381570816,-0.015776047483086586
1769661556447354600,7.820354736328125,-0.002009995747357607,0.025513891130685806,-0.015911919996142387
1769661556457342700,7.8303427734375,-0.0013982676900923252,0.027967460453510284,-0.014111622236669064
1769661556467330800,7.840330810546875,-0.0028784277383238077,0.025686893612146378,-0.010029161348938942
1769661556477318700,7.850318603515625,-0.0033327629789710045,0.019645778462290764,-0.008384126238524914
1769661556487306500,7.860306396484375,-0.0031034648418426514,0.01691364124417305,-0.009201183915138245
1769661556497294600,7.870294677734375,-0.0031205089762806892,0.015086181461811066,-0.009119158610701561
1769661556507282700,7.88028271484375,-0.00329313101246953,0.01688244380056858,-0.007409936748445034
1769661556517270500,7.8902705078125,-0.0025021720211952925,0.01833519898355007,-0.00590924546122551
1769661556527258600,7.900258544921875,-0.002116691553965211,0.01986445114016533,-0.005787487141788006
1769661556537246700,7.910246826171875,-0.0007587457075715065,0.02221735194325447,-0.009042402729392052
1769661556547234600,7.920234619140625,-0.002139377174898982,0.025822706520557404,-0.01065148413181305
1769661556557222700,7.93022265625,-0.001413133111782372,0.02725016139447689,-0.01300864852964878
1769661556567210800,7.940210693359375,-0.0011924533173441887,0.02304033376276493,-0.011452245526015759
1769661556577198800,7.95019873046875,-0.000610552669968456,0.01840962842106819,-0.008442340418696404
1769661556587186700,7.960186767578125,-0.00209599151276052,0.010028157383203506,-0.005966078024357557
1769661556597174500,7.970174560546875,-0.0009313912596553564,0.005696792155504227,-0.0020445729605853558
1769661556607162600,7.98016259765625,-0.0016126518603414297,0.0013692829525098205,0.0002849989105015993
1769661556617150500,7.990150390625,-0.0025442256592214108,-0.0010312905069440603,0.0005579728167504072
1769661556627138600,8.000138671875,-0.0006514203269034624,-0.0035149087198078632,-0.00033652898855507374
1769661556637126700,8.010126708984375,-0.0003760494291782379,-0.006796189583837986,0.001337001333013177
1769661556647114800,8.02011474609375,-0.0005395668558776379,-0.003377071348950267,0.0005189774092286825
1769661556657102600,8.0301025390625,-0.00017178431153297424,0.0028949391562491655,0.0020596161484718323
1769661556667090700,8.040090576171876,-0.0015345244901254773,0.012851014733314514,0.0037871096283197403
1769661556677078800,8.050078857421875,0.0016575404442846775,0.02004847303032875,0.008016475476324558
1769661556687065600,8.060065673828126,0.0034216425847262144,0.028076592832803726,0.009039659984409809
1769661556697053700,8.0700537109375,0.0032437436748296022,0.033239662647247314,0.010319574736058712
1769661556707041800,8.080041748046876,0.0033024779986590147,0.030195195227861404,0.0121103934943676
1769661556717029600,8.090029541015625,0.004654564894735813,0.0296188872307539,0.01105924416333437
1769661556727017700,8.100017822265626,0.0017302446067333221,0.028305072337388992,0.011014661751687527
1769661556737005800,8.110005859375,0.0010490079876035452,0.02341604232788086,0.010983237065374851
1769661556746993700,8.11999365234375,-0.000446768244728446,0.018679140135645866,0.010108707472682
1769661556756981500,8.1299814453125,-0.0037959597539156675,0.012657999992370605,0.006211969535797834
1769661556766969600,8.139969482421876,-0.003187886904925108,0.00587324146181345,0.0037777312099933624
1769661556776957700,8.149957763671875,-0.0036864308640360832,0.0004622306441888213,0.0010914006270468235
1769661556786945500,8.159945556640626,-0.0038336797151714563,-0.0016383349429816008,0.00074002705514431
1769661556796933600,8.16993359375,-0.004217707552015781,-0.0012953197583556175,0.0019134157337248325
1769661556806921700,8.179921630859376,-0.005575799383223057,-0.004161760210990906,0.000567135401070118
1769661556816909600,8.18990966796875,-0.005333717912435532,-0.012161629274487495,-0.005312591791152954
1769661556826897700,8.199897705078126,-0.006264297757297754,-0.014085907489061356,-0.008233235217630863
1769661556836885800,8.2098857421875,-0.009535991586744785,-0.0141783207654953,-0.01221412792801857
1769661556846873900,8.219873779296876,-0.010558088310062885,-0.010764279402792454,-0.012994268909096718
1769661556856861700,8.22986181640625,-0.009820126928389072,-0.010897171683609486,-0.013761792331933975
1769661556866849500,8.239849609375,-0.010231198742985725,-0.004998886026442051,-0.011587105691432953
1769661556876838700,8.249838623046875,-0.006862033158540726,0.0020491702016443014,-0.014727771282196045
1769661556886826800,8.25982666015625,-0.007423766888678074,0.01013781689107418,-0.0145534947514534
1769661556896814800,8.26981494140625,-0.0047696600668132305,0.012567151337862015,-0.011742261238396168
1769661556906803000,8.279802978515624,-0.00853837188333273,0.01234634593129158,-0.012535138987004757
1769661556916790800,8.289790771484375,-0.007261386141180992,0.011481617577373981,-0.015557028353214264
1769661556926779000,8.29977880859375,-0.005723628681153059,0.005982080474495888,-0.018904993310570717
1769661556936767000,8.30976708984375,-0.0053694280795753,0.003601480508223176,-0.02090689167380333
1769661556946754800,8.3197548828125,-0.005438427906483412,0.0010811941465362906,-0.02234303019940853
1769661556956742700,8.32974267578125,-0.007180933840572834,-0.005332496948540211,-0.020432477816939354
1769661556966730800,8.339730712890624,-0.006329327821731567,-0.012249434366822243,-0.018436597660183907
1769661556976718600,8.349718505859375,-0.004848344251513481,-0.01518183946609497,-0.01195606030523777
1769661556986706700,8.359706787109374,-0.007754337042570114,-0.012402942404150963,-0.008178207091987133
1769661556996694800,8.36969482421875,-0.00935729406774044,-0.014493790455162525,-0.004316090606153011
1769661557006683000,8.379682861328124,-0.010049885138869286,-0.020547224208712578,-0.005619820207357407
1769661557016670700,8.389670654296875,-0.01179478783160448,-0.021329129114747047,-0.008799368515610695
1769661557026658800,8.399658935546874,-0.012200557626783848,-0.016657652333378792,-0.01006212830543518
1769661557036647000,8.40964697265625,-0.012541708536446095,-0.011550243012607098,-0.011900775134563446
1769661557046634800,8.419634765625,-0.012063936330378056,-0.013995004817843437,-0.011678989045321941
1769661557056621800,8.429621826171875,-0.009243115782737732,-0.015410209074616432,-0.009350321255624294
1769661557066610000,8.43960986328125,-0.007071768864989281,-0.013163415715098381,-0.008451820351183414
1769661557076597800,8.44959765625,-0.007564454339444637,-0.009348437190055847,-0.009413221850991249
1769661557086585900,8.4595859375,-0.008674046956002712,-0.010351956821978092,-0.006483056116849184
1769661557096574000,8.469573974609375,-0.009683918207883835,-0.0038288102950900793,-0.004997544921934605
1769661557106561500,8.4795615234375,-0.00830241572111845,0.0018987652147188783,-0.0034273939672857523
1769661557116549600,8.489549560546875,-0.008167926222085953,0.0023070278111845255,-0.0038931805174797773
1769661557126537700,8.499537841796876,-0.0035572675988078117,0.000282733584754169,-0.0017501921392977238
1769661557136525800,8.50952587890625,-0.003920256160199642,0.0007714235689491034,-0.0019240966066718102
1769661557146513700,8.519513671875,-0.0020319060422480106,0.004001643508672714,0.0013596920762211084
1769661557156501800,8.529501708984375,0.00029622926376760006,0.0032261309679597616,0.0038124634884297848
1769661557166489900,8.53948974609375,0.0003918367438018322,-0.002407253487035632,0.002294727833941579
1769661557176477700,8.549477783203125,-0.0022577422205358744,-0.015537968836724758,-0.00024699303321540356
1769661557186465800,8.5594658203125,-0.0017988306935876608,-0.024950606748461723,-0.00447077164426446
1769661557196454000,8.569453857421875,-0.0025831316597759724,-0.03165271505713463,-0.002238510176539421
1769661557206442000,8.57944189453125,-0.003986230585724115,-0.03381875157356262,0.0030755128245800734
1769661557216429800,8.589429931640625,-0.003559592179954052,-0.030124150216579437,0.009176015853881836
1769661557226417700,8.599417724609374,-0.004664029460400343,-0.026823442429304123,0.0113142691552639
1769661557236405800,8.60940576171875,-0.004205965902656317,-0.016740184277296066,0.011463671922683716
1769661557246393600,8.6193935546875,-0.0018864008598029613,-0.007810228504240513,0.00958198867738247
1769661557256381700,8.629381591796875,-0.0015306024579331279,0.00031694036442786455,0.009478924795985222
1769661557266369800,8.639369873046874,-0.0019481134368106723,0.007515904493629932,0.009764840826392174
1769661557276358000,8.64935791015625,0.000014103599824011326,0.011427555233240128,0.007937646470963955
1769661557286345700,8.659345703125,0.000863264431245625,0.012744019739329815,0.005081243813037872
1769661557296333800,8.669333740234375,0.0021144174970686436,0.013419131748378277,0.0027954529505223036
1769661557306322000,8.679322021484374,-0.0009645839454606175,0.010015817359089851,-0.00013248133473098278
1769661557316309800,8.689309814453125,-0.0015691214939579368,0.0034758930560201406,0.0017074965871870518
1769661557326297900,8.6992978515625,-0.0023490882012993097,0.0006161166820675135,-0.0006666067056357861
1769661557336286000,8.709285888671875,-0.003290515625849366,-0.0066926623694598675,0.00026683113537728786
1769661557346273500,8.7192734375,-0.005479924380779266,-0.01408801507204771,0.005145746283233166
1769661557356261600,8.72926171875,-0.006310298107564449,-0.021004777401685715,0.004914317280054092
1769661557366249700,8.739249755859374,-0.003849416971206665,-0.02720736339688301,0.0056322552263736725
1769661557376237800,8.74923779296875,-0.006447330117225647,-0.025739694014191628,0.004675647243857384
1769661557386225700,8.7592255859375,-0.004431680776178837,-0.02640473283827305,0.000673661706969142
1769661557396213800,8.7692138671875,-0.005347275175154209,-0.02447979897260666,-0.0018092035315930843
1769661557406201900,8.779201904296874,-0.005751398392021656,-0.016217010095715523,-0.0031321588903665543
1769661557416188700,8.789188720703125,-0.0023401551879942417,-0.007139091845601797,-0.003231228329241276
1769661557426176800,8.7991767578125,-0.0023215129040181637,-0.0007452380377799273,-0.0025016781874001026
1769661557436164900,8.809164794921875,-0.0017278942978009582,0.002435907954350114,-0.0017147143371403217
1769661557446152700,8.819152587890626,-0.001794497249647975,0.005193205550312996,0.0022862583864480257
1769661557456140800,8.829140869140625,-0.003205706365406513,0.007488850504159927,0.004418118856847286
1769661557466129000,8.83912890625,-0.0019677234813570976,0.006972283124923706,0.002270061057060957
1769661557476116700,8.84911669921875,-0.004293728154152632,0.0036957962438464165,0.0014356926549226046
1769661557486104800,8.859104736328124,-0.004074090626090765,-0.005155276507139206,0.0014245135243982077
1769661557496092700,8.8690927734375,-0.005675982218235731,-0.01204141229391098,0.0016676601953804493
1769661557506080800,8.879080810546874,-0.004847084637731314,-0.013271314091980457,-0.00018974044360220432
1769661557516068600,8.889068603515625,-0.005565871950238943,-0.01668255776166916,-0.0008818961214274168
1769661557526056700,8.899056640625,-0.005669008940458298,-0.013268028385937214,-0.002936149016022682
1769661557536044800,8.909044921875,-0.006943597923964262,-0.008088446222245693,-0.004605418536812067
1769661557546032600,8.91903271484375,-0.006097583100199699,-0.002836022060364485,-0.0049606510438025
1769661557556020700,8.929020751953125,-0.005306890234351158,-0.0004176052752882242,-0.006467999890446663
1769661557566008800,8.9390087890625,-0.005323912017047405,0.0011842584935948253,-0.004237796179950237
1769661557575997000,8.948996826171875,-0.005447749048471451,-0.001241082325577736,-0.0032090169843286276
1769661557585984800,8.95898486328125,-0.004470271524041891,-0.003917093388736248,-0.0033169896341860294
1769661557595972900,8.968972900390625,-0.0034659933298826218,-0.004616172984242439,-0.008430259302258492
1769661557605961000,8.9789609375,-0.005650052800774574,-0.007962854579091072,-0.00781836174428463
1769661557615948800,8.98894873046875,-0.005069216713309288,-0.010987939313054085,-0.008430888876318932
1769661557625936600,8.9989365234375,-0.007433765567839146,-0.01114038284868002,-0.006997629534453154
1769661557635924700,9.0089248046875,-0.007200205698609352,-0.007028196007013321,-0.006021847482770681
1769661557645912800,9.018912841796874,-0.006629006005823612,-0.005669320933520794,-0.007896129041910172
1769661557655900700,9.028900634765625,-0.007866842672228813,-0.007265619933605194,-0.008641015738248825
1769661557665888800,9.038888671875,-0.009278585202991962,-0.011322828009724617,-0.010169238783419132
1769661557675876900,9.048876953125,-0.008417053148150444,-0.01308317668735981,-0.009487468749284744
1769661557685864700,9.05886474609375,-0.009925443679094315,-0.014025529846549034,-0.010372278280556202
1769661557695852800,9.068852783203125,-0.010805618017911911,-0.014205025508999825,-0.011660981923341751
1769661557705841000,9.0788408203125,-0.009225249290466309,-0.013950128108263016,-0.01081356406211853
1769661557715828700,9.088828857421875,-0.007661441341042519,-0.011057136580348015,-0.011595468968153
1769661557725816800,9.09881689453125,-0.00850636512041092,-0.009296324104070663,-0.010654952377080917
1769661557735804700,9.1088046875,-0.006826176308095455,-0.007108005229383707,-0.0089862160384655
1769661557745792800,9.118792724609374,-0.007557747885584831,-0.009770391508936882,-0.007083062548190355
1769661557755780600,9.128780517578125,-0.007674127817153931,-0.010835923254489899,-0.0037527792155742645
1769661557765768700,9.138768798828124,-0.005072872620075941,-0.00781966745853424,-0.0018069176003336906
1769661557775756800,9.1487568359375,-0.0068324231542646885,-0.005293393041938543,-0.00012113666161894798
1769661557785744600,9.15874462890625,-0.005181602202355862,-0.001743309199810028,0.00038470677100121975
1769661557795731700,9.168731689453125,-0.003259332850575447,-0.0024336003698408604,0.0017852631863206625
1769661557805719800,9.1787197265625,-0.005241330247372389,-0.0019288398325443268,0.0007826914079487324
1769661557815707600,9.188707763671875,-0.001932618790306151,-0.0017850291915237904,-0.0034623874817043543
1769661557825695700,9.19869580078125,-0.0013718775007873774,0.001990086166188121,-0.004942789673805237
1769661557835683800,9.208683837890625,-0.0023093102499842644,0.012800656259059906,-0.0019003944471478462
1769661557845672000,9.218671875,-0.003542039543390274,0.02077683061361313,-0.001634020358324051
1769661557855659800,9.22865966796875,-0.002453072927892208,0.023713499307632446,-0.002427375875413418
1769661557865647900,9.23864794921875,-0.00024756311904639006,0.022021830081939697,-0.0006365180015563965
1769661557875635000,9.248635009765625,-0.002005781978368759,0.013767361640930176,0.0003989189863204956
1769661557885623000,9.258623046875,-0.0017298301681876183,0.00894666276872158,0.005885724443942308
1769661557895611000,9.26861083984375,-0.002286164555698633,0.003966284915804863,0.006051639094948769
1769661557905599000,9.278598876953126,-0.0029462664388120174,0.005439965054392815,0.002191388513892889
1769661557915587000,9.288587158203125,-0.0011148103512823582,0.0073619685135781765,0.0028851418755948544
1769661557925575000,9.298574951171876,-0.001301836920902133,0.009310435503721237,0.00453449971973896
1769661557935562800,9.308562744140625,-0.0011875873897224665,0.011499553918838501,0.006013619713485241
1769661557945550800,9.31855078125,0.0022140697110444307,0.014683402143418789,0.006171208806335926
1769661557955539000,9.3285390625,0.0029158126562833786,0.018122607842087746,0.00613552238792181
1769661557965526800,9.33852685546875,0.004340748302638531,0.016586007550358772,0.006653095129877329
1769661557975515000,9.348514892578125,0.005286969244480133,0.016583077609539032,0.006794242653995752
1769661557985503000,9.3585029296875,0.008045277558267117,0.018362510949373245,0.006569095887243748
1769661557995490800,9.36849072265625,0.005072391126304865,0.016495635733008385,0.003984764683991671
1769661558005479000,9.37847900390625,0.004338229540735483,0.00789910089224577,0.004014809615910053
1769661558015467000,9.388467041015625,0.002238060813397169,0.0058426083996891975,0.006460124161094427
1769661558025455000,9.398455078125,0.0026951569598168135,0.019100429490208626,0.010833561420440674
1769661558035443000,9.40844287109375,0.004745258018374443,0.018008001148700714,0.007607141509652138
1769661558045430800,9.4184306640625,0.004662409424781799,0.008506353944540024,0.0017892036121338606
1769661558055419000,9.4284189453125,0.0028341494034975767,-0.0013167161960154772,0.0013700220733880997
1769661558065406700,9.43840673828125,0.0014942643465474248,-0.00362704461440444,0.0004363211337476969
1769661558075394800,9.448394775390625,-0.0005891266046091914,-0.003872587811201811,-0.0010236238595098257
1769661558085383000,9.4583828125,0.001219788915477693,-0.011669211089611053,-0.0007316882256418467
1769661558095371000,9.46837109375,-0.000642559549305588,-0.014379244297742844,-0.001511461567133665
1769661558105358800,9.47835888671875,0.0009025096660479903,-0.011314928531646729,-0.0032645179890096188
1769661558115347000,9.488346923828125,-0.0006857995176687837,-0.0060043190605938435,-0.0012554293498396873
1769661558125335000,9.4983349609375,-0.002252706792205572,-0.003295700531452894,-0.002077383454889059
1769661558135323000,9.508322998046875,-0.002046578098088503,-0.004110361449420452,-0.001327437348663807
1769661558145311000,9.51831103515625,-0.0012918382417410612,-0.005688550416380167,-0.000649396562948823
1769661558155299000,9.528299072265625,-0.00011418841313570738,-0.01441919058561325,-0.0028499667532742023
1769661558165287000,9.538286865234374,0.00028937775641679764,-0.017587097361683846,-0.0011331343557685614
1769661558175274000,9.54827392578125,0.00037992524448782206,-0.013331099413335323,0.0004391958937048912
1769661558185262000,9.558261962890626,0.0015935762785375118,-0.0048069641925394535,-0.0012051458470523357
1769661558195250000,9.56825,0.0010718631092458963,-0.0000660046935081482,-0.004286956042051315
1769661558205237800,9.57823779296875,-0.00012145121581852436,0.0027776083443313837,-0.0067792488262057304
1769661558215225900,9.588225830078125,0.001101738540455699,0.005014663562178612,-0.008821094408631325
1769661558225214000,9.5982138671875,0.0009595741285011172,0.005070746410638094,-0.008611875586211681
1769661558235201800,9.608201904296875,0.0018376182997599244,0.006628961768001318,-0.002470626262947917
1769661558245190000,9.61818994140625,-0.00017781287897378206,0.0013423606287688017,-0.0012061630841344595
1769661558255178000,9.628177978515625,0.0020009190775454044,-0.00004088529385626316,-0.002402721205726266
1769661558265165800,9.638165771484376,0.0011326554231345654,-0.001542301382869482,-0.0038198940455913544
1769661558275154000,9.64815380859375,0.002715372247621417,0.0026963858399540186,-0.006402893923223019
1769661558285142000,9.65814208984375,0.0025140864308923483,0.007117026951164007,-0.005064717028290033
1769661558295130000,9.668130126953125,0.0036019880790263414,0.011270493268966675,-0.002537643536925316
1769661558305118000,9.678117919921876,0.004039277322590351,0.013393530622124672,-0.004821770824491978
1769661558315105800,9.688105712890625,0.003807049710303545,0.010027561336755753,-0.00420445017516613
1769661558325094000,9.698093994140624,0.00474051246419549,0.010096820071339607,-0.002604156732559204
1769661558335081700,9.708081787109375,0.005786868277937174,0.004906585440039635,-0.0012930827215313911
1769661558345069800,9.71806982421875,0.004846676718443632,-0.0015370934270322323,0.0004862204659730196
1769661558355058000,9.728057861328125,0.004309783224016428,-0.005084424279630184,-0.0002083319704979658
1769661558365045800,9.738045654296876,0.004600865766406059,-0.0077445413917303085,0.001438201405107975
1769661558375033900,9.748033935546875,0.004836289212107658,-0.0023465799167752266,0.003524255473166704
1769661558385022000,9.75802197265625,0.005214361473917961,0.0025722328573465347,0.0026797133032232523
1769661558395010000,9.768010009765625,0.007607211824506521,0.009472482837736607,0.0013654433423653245
1769661558404998000,9.777997802734374,0.005579093471169472,0.011529977433383465,0.0009637863840907812
1769661558414986000,9.787986083984375,0.0067791142500936985,0.013267423957586288,0.0006649796850979328
1769661558424974000,9.79797412109375,0.007311455439776182,0.013860492967069149,0.00010198773816227913
1769661558434962000,9.8079619140625,0.006258974317461252,0.014147048816084862,-0.0009755271021276712
1769661558444949800,9.81794970703125,0.006283670198172331,0.01002113614231348,-0.0018482008017599583
1769661558454937900,9.827937744140625,0.006314029451459646,0.006880470551550388,-0.0015422035939991474
1769661558464926000,9.837926025390624,0.005865408107638359,0.005176758859306574,-0.0009486319031566381
1769661558474913800,9.847913818359375,0.0038632433861494064,0.0035631495993584394,0.0018005493329837918
1769661558484902000,9.85790185546875,0.005629451014101505,0.0034069432877004147,0.003493949305266142
1769661558494890000,9.867889892578125,0.0053114695474505424,0.0018990616081282496,0.00527533795684576
1769661558504877800,9.8778779296875,0.00668004434555769,0.0014234315603971481,0.004647304303944111
1769661558514866000,9.887865966796875,0.005443539470434189,0.0025917603634297848,0.003930115140974522
1769661558524854000,9.89785400390625,0.0040396167896687984,0.0038063237443566322,0.0028874410782009363
1769661558534842000,9.907842041015625,0.005262274295091629,0.004976516589522362,0.0023918268270790577
1769661558544830000,9.917829833984374,0.0021553589031100273,0.004665054380893707,0.0012293978361412883
1769661558554817800,9.92781787109375,0.0013822431210428476,0.005204877350479364,-0.000481683062389493
1769661558564804900,9.937804931640626,0.002557470928877592,0.007756544277071953,-0.00009428756311535835
1769661558574793000,9.94779296875,0.001411246252246201,0.011519058607518673,-0.0011204034090042114
1769661558584781000,9.957781005859376,0.0003353777574375272,0.013248139061033726,0.00020894012413918972
1769661558594769000,9.967768798828125,0.0010035648010671139,0.012174618430435658,-0.0001420644111931324
1769661558604756700,9.9777568359375,0.000023012980818748474,0.010417872108519077,0.0016962088411673903
1769661558614744800,9.987744873046875,-0.000668609980493784,0.009409332647919655,0.0011670388048514724
1769661558624733000,9.99773291015625,-0.0024188151583075523,0.009023988619446754,0.004191058687865734
1769661558634720800,10.007720703125,-0.0021847232710570097,0.006264421157538891,0.0032365815714001656
1769661558644708900,10.017708984375,-0.002328581875190139,0.0039330837316811085,0.002112668240442872
1769661558654697000,10.027697021484375,-0.001040943432599306,0.004713123664259911,-0.0000897659920156002
1769661558664685000,10.03768505859375,-0.0026568048633635044,0.00357893668115139,0.0032454233150929213
1769661558674673000,10.0476728515625,-0.0013638401869684458,0.0007703669834882021,0.0005934475921094418
1769661558684661000,10.057660888671874,-0.0012801203411072493,0.0001464353408664465,-0.000664576655253768
1769661558694649000,10.067649169921875,-0.001035109511576593,0.0028117268811911345,-0.003155963961035013
1769661558704637000,10.077636962890624,-0.0018252934096381068,0.012069000862538815,-0.0048150066286325455
1769661558714624800,10.087624755859375,-0.0021091862581670284,0.019155938178300858,-0.0034498705063015223
1769661558724612900,10.09761279296875,-0.0018166500376537442,0.01643292047083378,-0.0028615258634090424
1769661558734600700,10.1076005859375,-0.0030904398299753666,0.014673370867967606,0.0025255163200199604
1769661558744588800,10.1175888671875,-0.0008136789547279477,0.009041603654623032,0.005550597794353962
1769661558754577000,10.127576904296875,-0.0014251407701522112,0.0014958034735172987,0.005689348094165325
1769661558764565000,10.13756494140625,-0.003518240060657263,-0.004411419853568077,0.006124457344412804
1769661558774552800,10.147552734375,-0.006188591942191124,-0.005886011756956577,0.004335878416895866
1769661558784541000,10.157541015625,-0.006179949268698692,-0.0016182500403374434,-0.000385533319786191
1769661558794529000,10.167529052734375,-0.004102949984371662,0.0047163451090455055,-0.0010963310487568378
1769661558804516900,10.177516845703124,-0.003721197135746479,0.000539528438821435,0.0024829532485455275
1769661558814505000,10.1875048828125,-0.0037843140307813883,0.0017019982915371656,0.005652647465467453
1769661558824493000,10.1974931640625,-0.0011547335889190435,0.0043466161005198956,0.006143635138869286
1769661558834481000,10.20748095703125,0.0002442249096930027,0.003411846701055765,0.0045662447810173035
1769661558844468700,10.21746875,-0.0009494280093349516,0.001654020743444562,0.001611040555872023
1769661558854456800,10.227456787109375,-0.000587770773563534,0.0050974879413843155,0.0009849314810708165
1769661558864445000,10.23744482421875,0.0008884684648364782,0.008276011794805527,0.002741013653576374
1769661558874433300,10.247433349609375,0.0017023305408656597,0.012312032282352448,0.006690748035907745
1769661558884421400,10.25742138671875,0.001506054773926735,0.011523712426424026,0.008385908789932728
1769661558894409500,10.267409423828125,0.0008229538798332214,0.012723732739686966,0.007961667142808437
1769661558904397300,10.277397216796874,0.001072540646418929,0.017732635140419006,0.002643601968884468
1769661558914385400,10.287385498046875,0.0029737711884081364,0.018944639712572098,0.0003540823236107826
1769661558924373500,10.29737353515625,0.0029024712275713682,0.015273237600922585,-0.0039442069828510284
1769661558934360300,10.3073603515625,0.0016779496800154448,0.009621476754546165,-0.00329732452519238
1769661558944348400,10.317348388671874,0.0008553719380870461,0.0043099746108055115,0.0004387178923934698
1769661558954336500,10.32733642578125,0.003327051643282175,0.0007802207255735993,0.001546326675452292
1769661558964324400,10.337324462890624,0.00457421038299799,-0.004335831385105848,0.0001448076218366623
1769661558974312200,10.347312255859375,0.005306845996528864,0.00015372573398053646,-0.0007779777515679598
1769661558984300300,10.35730029296875,0.003896437119692564,0.005818692967295647,-0.00020343856886029243
1769661558994288000,10.3672880859375,0.005077548790723085,0.009411829523742199,0.00012120092287659645
1769661559004276200,10.377276123046874,0.006038052961230278,0.008907875046133995,0.0007404007483273745
1769661559014264300,10.387264404296875,0.004420715384185314,0.009146494790911674,-0.002868714975193143
1769661559024252400,10.39725244140625,0.006074804347008467,0.006683602929115295,-0.0037643362302333117
1769661559034240300,10.407240234375,0.005717142019420862,0.002655572025105357,-0.005243189632892609
1769661559044228400,10.417228271484374,0.006147291045635939,0.00006314110942184925,-0.0017684032209217548
1769661559054216400,10.427216552734375,0.0056681884452700615,0.0031848985236138105,-0.0006639903876930475
1769661559064204300,10.437204345703124,0.003426365088671446,0.005300313699990511,-0.00020440691150724888
1769661559074192400,10.4471923828125,0.003712655045092106,0.0046334583312273026,0.0009783030254766345
1769661559084180500,10.457180419921874,0.002095267176628113,0.003277704119682312,-0.001634873915463686
1769661559094168300,10.467168212890625,0.0030263084918260574,0.0015386599116027355,-0.003425316885113716
1769661559104156200,10.47715625,0.0012077564606443048,0.0013644082937389612,-0.005665087606757879
1769661559114144300,10.487144287109375,0.0015292001189664006,0.003664314281195402,-0.007277631666511297
1769661559124132400,10.49713232421875,0.004784842021763325,0.0037817303091287613,-0.00925241969525814
1769661559134120200,10.5071201171875,0.0033821554388850927,0.005540215410292149,-0.006910169962793589
1769661559144108300,10.5171083984375,0.004477876238524914,0.008146964013576508,-0.007416915148496628
1769661559154096400,10.527096435546875,0.004940467420965433,0.012324132025241852,-0.0056214118376374245
1769661559164084500,10.53708447265625,0.004095470067113638,0.014270244166254997,-0.0061869071796536446
1769661559174072300,10.547072265625,0.0030951867811381817,0.011592967435717583,-0.007810103707015514
1769661559184060400,10.557060302734374,0.001820744015276432,0.007290711626410484,-0.009043894708156586
1769661559194048500,10.567048583984375,0.000633240444585681,0.0016565278638154268,-0.007650528568774462
1769661559204036400,10.577036376953124,0.0016754802782088518,-0.006675234995782375,-0.005826848559081554
1769661559214024200,10.587024169921875,0.0021061135921627283,-0.00857140589505434,-0.004121093545109034
1769661559224012300,10.59701220703125,0.0012576793087646365,-0.0017137276008725166,0.0017740745097398758
1769661559234000100,10.607000244140625,-0.0000725695863366127,-0.0034943174105137587,-0.0013913586735725403
1769661559243988200,10.61698828125,0.0009241787483915687,-0.0040018255822360516,-0.0033630537800490856
1769661559253976300,10.626976318359375,0.00025013263802975416,-0.00027340021915733814,-0.0026237601414322853
1769661559263964400,10.63696435546875,0.0019999747164547443,0.005254192277789116,-0.002709565684199333
1769661559273952300,10.6469521484375,0.0011733295395970345,0.007150629069656134,-0.0019865171052515507
1769661559283940400,10.6569404296875,0.0005020191892981529,0.008427790366113186,-0.006171250715851784
1769661559293928400,10.666928466796875,-0.00206553447060287,0.007554273121058941,-0.00813879445195198
1769661559303916300,10.676916259765624,-0.0028806787449866533,0.0023166791070252657,-0.009643755853176117
1769661559313904400,10.686904296875,-0.0029022502712905407,-0.005341506563127041,-0.009174507111310959
1769661559323891500,10.696891357421874,-0.004783556796610355,-0.006796969100832939,-0.011144171468913555
1769661559333879300,10.70687939453125,-0.005007795058190823,-0.004399324767291546,-0.004442060366272926
1769661559343867400,10.716867431640624,-0.005879689007997513,-0.001307906350120902,-0.0003581070341169834
1769661559353855500,10.72685546875,-0.007288501597940922,0.0011949323816224933,-0.0019466823432594538
1769661559363843300,10.73684326171875,-0.008202377706766129,-0.00011077872477471828,-0.006380199454724789
1769661559373831200,10.7468310546875,-0.007624737918376923,-0.002045831410214305,-0.008982374332845211
1769661559383819300,10.7568193359375,-0.008720532059669495,-0.001495308242738247,-0.00980870146304369
1769661559393807400,10.766807373046875,-0.009604968130588531,-0.0012598847970366478,-0.010492600500583649
1769661559403795200,10.776795166015624,-0.010729063302278519,0.0003051490057259798,-0.009559590369462967
1769661559413783300,10.786783203125,-0.008926636539399624,-0.0003766203299164772,-0.011487985961139202
1769661559423771400,10.796771484375,-0.00664779357612133,-0.004033159930258989,-0.01122672762721777
1769661559433759200,10.80675927734375,-0.005448305979371071,-0.004876582883298397,-0.00840031448751688
1769661559443747300,10.816747314453124,-0.003062088508158922,0.00011595431715250015,-0.0027489932253956795
1769661559453735400,10.8267353515625,-0.0032074968330562115,0.005677433684468269,0.0007812930271029472
1769661559463723500,10.8367236328125,-0.005853251554071903,0.001987246796488762,0.0009530253009870648
1769661559473711400,10.84671142578125,-0.005883878096938133,-0.003566775470972061,-0.0005641775205731392
1769661559483699200,10.85669921875,-0.005635260138660669,-0.005258746445178986,-0.0031392399687319994
1769661559493687300,10.866687255859375,-0.004922598134726286,-0.003076019696891308,-0.001559985103085637
1769661559503675100,10.876675048828124,-0.003948898054659367,-0.007687392644584179,0.0027105535846203566
1769661559513663200,10.886663330078125,-0.004577403888106346,-0.017022572457790375,0.004985425621271133
1769661559523651300,10.8966513671875,-0.003682242939248681,-0.019274244084954262,0.0025569426361471415
1769661559533639400,10.906639404296875,-0.0021195001900196075,-0.011104464530944824,-0.002110247267410159
1769661559543627300,10.916627197265624,-0.002702756319195032,0.003437852254137397,-0.0022614081390202045
1769661559553615400,10.926615478515625,-0.0035850617568939924,0.01594671979546547,-0.0017407601699233055
1769661559563603500,10.936603515625,-0.0039471788331866264,0.021059487015008926,-0.0010650630574673414
1769661559573591300,10.94659130859375,-0.0020693843252956867,0.02305685728788376,-0.0003952779807150364
1769661559583579400,10.956579345703124,-0.002146519022062421,0.024213656783103943,0.002550603821873665
1769661559593567500,10.9665673828125,-0.0035755711141973734,0.017356019467115402,0.0074899690225720406
1769661559603555300,10.976555419921874,-0.006758266128599644,0.0031257241498678923,0.00562015688046813
1769661559613543200,10.986543212890625,-0.009572162292897701,-0.00981484167277813,0.004841448739171028
1769661559623531300,10.99653125,-0.009941227734088898,-0.017649173736572266,0.003096706233918667
1769661559633519400,11.006519287109375,-0.011658167466521263,-0.018588203936815262,0.002335841068997979
1769661559643507200,11.016507080078124,-0.013115618377923965,-0.02235690876841545,0.0034252232871949673
1769661559653495300,11.026495361328125,-0.012484715320169926,-0.024591034278273582,0.0017010929295793176
1769661559663483400,11.0364833984375,-0.01013307273387909,-0.023007381707429886,0.0021300907246768475
1769661559673471200,11.04647119140625,-0.009576471522450447,-0.015913255512714386,0.002789489459246397
1769661559683459300,11.056459228515624,-0.009429222904145718,-0.008493557572364807,0.00026092142798006535
1769661559693447400,11.066447509765625,-0.007023323327302933,-0.004577113781124353,-0.005247560795396566
1769661559703435500,11.076435546875,-0.006356807425618172,-0.0006308942101895809,-0.006461958400905132
1769661559713423400,11.08642333984375,-0.0030033548828214407,0.000921995029784739,-0.006695784628391266
1769661559723410400,11.096410400390624,-0.0013817560393363237,0.002563833724707365,-0.0037431379314512014
1769661559733398300,11.106398193359375,-0.0006307446747086942,0.0017465096898376942,0.0028971878346055746
1769661559743386400,11.116386474609374,-0.00010249449405819178,0.0023348811082541943,0.007545788772404194
1769661559753374500,11.12637451171875,0.000899653066881001,0.0014728158712387085,0.008391342125833035
1769661559763362300,11.1363623046875,0.0005013662157580256,-0.0010119620710611343,0.009706827811896801
1769661559773350100,11.14635009765625,-0.001853667083196342,-0.002891354728490114,0.005365076474845409
1769661559783338200,11.156338134765624,-0.0031428318470716476,-0.008161609061062336,0.0033799130469560623
1769661559793326300,11.166326416015625,-0.0031510875560343266,-0.010358184576034546,0.0006842613220214844
1769661559803314200,11.176314208984374,-0.003812229260802269,-0.010506458580493927,0.002494997577741742
1769661559813302300,11.18630224609375,-0.002652156399562955,-0.009905382990837097,0.00459543289616704
1769661559823290400,11.196290283203124,-0.0011360433418303728,-0.0004383949562907219,0.005459096282720566
1769661559833278500,11.206278564453125,-0.0021605612710118294,0.0069659920409321785,0.005256162956357002
1769661559843266300,11.216266357421874,-0.0027869355399161577,0.01196557842195034,0.0018467186018824577
1769661559853254400,11.22625439453125,-0.0032737613655626774,0.014052430167794228,0.000559080159291625
1769661559863242500,11.236242431640624,-0.0044650426134467125,0.01775204949080944,-0.00004518171772360802
1769661559873229800,11.246229736328125,-0.00440245820209384,0.016267869621515274,-0.0012550556566566229
1769661559883218000,11.256218017578124,-0.004910589661449194,0.009877469390630722,0.0003355469089001417
1769661559893205800,11.266205810546875,-0.005044812802225351,0.0022009070962667465,0.001033028936944902
1769661559903193600,11.276193603515624,-0.007069614250212908,-0.0013448253739625216,0.004979567602276802
1769661559913181700,11.286181640625,-0.00562458299100399,-0.005253546871244907,0.007023543585091829
1769661559923169500,11.29616943359375,-0.0041088564321398735,-0.00926245842128992,0.007958999834954739
1769661559933157600,11.30615771484375,-0.006416485644876957,-0.012697403319180012,0.009676738642156124
1769661559943145700,11.316145751953124,-0.004362850449979305,-0.015666412189602852,0.008103827014565468
1769661559953133600,11.326133544921875,-0.005796163808554411,-0.013473032973706722,0.006003125570714474
1769661559963121700,11.33612158203125,-0.004838805645704269,-0.01177462562918663,0.004821055568754673
1769661559973109800,11.34610986328125,-0.005900607444345951,-0.007339930161833763,0.003936086781322956
1769661559983097900,11.356097900390624,-0.005933824460953474,-0.00610724650323391,0.0017788205295801163
1769661559993085700,11.366085693359375,-0.005325558595359325,-0.0024504601024091244,0.003533311188220978
1769661560003073800,11.37607373046875,-0.005662787705659866,-0.0014418268110603094,0.0038197068497538567
1769661560013062000,11.386061767578125,-0.004627084359526634,-0.004530028440058231,0.0049691274762153625
1769661560023049500,11.396049560546874,-0.004754988476634026,-0.0044096847996115685,0.005195708945393562
1769661560033037600,11.40603759765625,-0.004944073036313057,-0.011913406662642956,0.005552839022129774
1769661560043025700,11.416025634765624,-0.006555261090397835,-0.016598422080278397,0.0030795594211667776
1769661560053013800,11.426013671875,-0.008452496491372585,-0.019598472863435745,0.003050797386094928
1769661560063001600,11.436001708984374,-0.009259434416890144,-0.02089117094874382,0.002619365230202675
1769661560072989700,11.44598974609375,-0.009855450130999088,-0.020385703071951866,0.0014728744281455874
1769661560082977800,11.455977783203124,-0.009245803579688072,-0.016290783882141113,0.003458785591647029
1769661560092965600,11.465965576171875,-0.008565098978579044,-0.014298206195235252,0.004798888228833675
1769661560102953700,11.47595361328125,-0.004862240981310606,-0.010341967456042767,0.004529811441898346
1769661560112940800,11.48594091796875,-0.005627367179840803,-0.008312638849020004,0.003938855603337288
1769661560122928600,11.4959287109375,-0.005179738160222769,-0.006101306062191725,0.0026633073575794697
1769661560132916700,11.505916748046875,-0.004394904710352421,-0.007113307248800993,0.0024366723373532295
1769661560142904800,11.51590478515625,-0.004336799494922161,-0.004124552011489868,-0.001604513730853796
1769661560152892700,11.525892578125,-0.0037141521461308002,-0.005842557176947594,-0.00043298932723701
1769661560162880800,11.535880859375,-0.003837917000055313,-0.0070046023465693,0.0012346262810751796
1769661560172868600,11.54586865234375,-0.006068847142159939,-0.007533506024628878,0.0016516773030161858
1769661560182856700,11.555856689453124,-0.005997497588396072,-0.007890371605753899,0.0009080724557861686
1769661560192844500,11.565844482421875,-0.005815870128571987,-0.011735975742340088,0.001412208890542388
1769661560202832600,11.57583251953125,-0.006244300864636898,-0.012412776239216328,0.0011108964681625366
1769661560212820700,11.58582080078125,-0.008293069899082184,-0.013753678649663925,0.0016736224060878158
1769661560222808600,11.59580859375,-0.00862901657819748,-0.014275599271059036,0.001804226660169661
1769661560232796700,11.605796630859375,-0.0064582740887999535,-0.015311302617192268,0.0024215474259108305
1769661560242784800,11.61578466796875,-0.0069174999371171,-0.014466861262917519,0.0006211975123733282
1769661560252772900,11.62577294921875,-0.005619741510599852,-0.011082783341407776,-0.00032342574559152126
1769661560262760700,11.6357607421875,-0.00637535285204649,-0.0066863419488072395,0.00032169721089303493
1769661560272748800,11.645748779296875,-0.002767035737633705,-0.0029906730633229017,-0.0002836391795426607
1769661560282737000,11.65573681640625,-0.001408121082931757,0.0015176209853962064,0.0015388150932267308
1769661560292724700,11.665724853515625,-0.0027069449424743652,0.005698783788830042,-0.0019288868643343449
1769661560302712600,11.675712646484374,-0.0025497458409518003,0.006547562312334776,0.0009441858856007457
1769661560312700700,11.68570068359375,-0.004459764808416367,0.0038889285642653704,-0.0005647612269967794
1769661560322688500,11.6956884765625,-0.0033891741186380386,0.0017346976092085242,0.0012483189348131418
1769661560332676600,11.705676513671875,-0.0024104625917971134,0.0002521158894523978,0.0033117360435426235
1769661560342664700,11.715664794921874,-0.0032881423830986023,-0.00018962169997394085,0.004243031144142151
1769661560352652800,11.72565283203125,-0.0012034198734909296,-0.004205136094242334,0.0063815489411354065
1769661560362640600,11.735640625,-0.0012495422270148993,-0.006093111354857683,0.004870000295341015
1769661560372628700,11.745628662109375,-0.0018386334413662553,-0.005011601373553276,0.0014060267712920904
1769661560382616800,11.755616943359374,-0.00016776612028479576,0.0008059433894231915,-0.003902873955667019
1769661560392604700,11.765604736328125,0.0004990893648937345,0.008212193846702576,-0.0026802164502441883
1769661560402592800,11.7755927734375,0.0004967916756868362,0.014585648663341999,-0.003701726673170924
1769661560412580600,11.78558056640625,-0.0015290749724954367,0.01937214843928814,-0.005653557367622852
1769661560422568700,11.795568603515624,0.00032327231019735336,0.01898452267050743,-0.005048193037509918
1769661560432556500,11.805556640625,0.001036466914229095,0.01338283158838749,0.003004140919074416
1769661560442544600,11.815544677734374,0.0000021437881514430046,0.006203784607350826,0.009393327869474888
