time,seconds_elapsed,z,y,x
1769661548691697400,0.064697509765625,0.007183876819908619,-0.0034967304673045874,-0.02466992661356926
1769661548701685500,0.074685546875,0.007355118170380592,0.0048738508485257626,-0.021802766248583794
1769661548711673600,0.084673583984375,0.007555387914180756,0.00971334706991911,-0.011419900692999363
1769661548721661400,0.094661376953125,0.006194512825459242,0.011351990513503551,-0.004485296085476875
1769661548731649300,0.104649169921875,0.004463990684598684,0.007327155210077763,-0.0024687503464519978
1769661548741636600,0.11463671875,0.0013084110105410218,-0.004240018781274557,-0.0060112872160971165
1769661548751624400,0.12462451171875,-0.004310059826821089,-0.007832623086869717,-0.013461479917168617
1769661548761612300,0.1346123046875,-0.009059540927410126,-0.004459995776414871,-0.016458602622151375
1769661548771600400,0.144600341796875,-0.007623298559337854,-0.006965231616050005,-0.016830645501613617
1769661548781588200,0.154588134765625,-0.0043742419220507145,-0.012107795104384422,-0.01643543131649494
1769661548791576300,0.164576416015625,-0.0025984463281929493,-0.018381936475634575,-0.011389275081455708
1769661548801564400,0.174564453125,0.002495914464816451,-0.02075880765914917,-0.0017129451734945178
1769661548811552300,0.18455224609375,0.008805209770798683,-0.022723155096173286,0.00321922916918993
1769661548821540400,0.194540283203125,0.0086629968136549,-0.01979207992553711,0.003073820611461997
1769661548831528400,0.204528564453125,0.011949869804084301,-0.01738671399652958,0.005286108236759901
1769661548841516500,0.2145166015625,0.009601227939128876,-0.01907915249466896,0.00811891257762909
1769661548851504400,0.22450439453125,0.011344000697135925,-0.018334265798330307,0.00609224708750844
1769661548861492500,0.234492431640625,0.011245463974773884,-0.01744982972741127,0.005000617355108261
1769661548871479600,0.2444794921875,0.009100288152694702,-0.012632437981665134,0.003242664970457554
1769661548881467600,0.254467529296875,0.003439738880842924,-0.00606534956023097,-0.0002247707889182493
1769661548891455500,0.26445556640625,0.00037763622822239995,-0.0016050871927291155,0.0005898901727050543
1769661548901443600,0.274443603515625,-0.003786748740822077,-0.0017148094484582543,0.0013401026371866465
1769661548911431400,0.284431396484375,0.003103115363046527,-0.0057223341427743435,0.010342651978135109
1769661548921419500,0.29441943359375,0.004406199790537357,-0.02327895723283291,0.01882934756577015
1769661548931407400,0.304407470703125,0.005277053453028202,-0.026816166937351227,0.019056515768170357
1769661548941395500,0.3143955078125,0.007155114784836769,-0.02557620033621788,0.019882895052433014
1769661548951383600,0.324383544921875,0.013362943194806576,-0.030005568638443947,0.021345768123865128
1769661548961371400,0.334371337890625,0.014879080466926098,-0.03254169598221779,0.020364394411444664
1769661548971359500,0.344359375,0.010688597336411476,-0.027654796838760376,0.019061574712395668
1769661548981347600,0.35434765625,0.010426009073853493,-0.023321300745010376,0.01685807667672634
1769661548991335700,0.364335693359375,0.010232930071651936,-0.0162961483001709,0.011651063337922096
1769661549001323500,0.374323486328125,0.0084864292293787,-0.00791677925735712,0.010817494243383408
1769661549011311600,0.3843115234375,0.008584965951740742,-0.006072539836168289,0.004535895772278309
1769661549021299700,0.3942998046875,0.014718758873641491,-0.014027934521436691,-0.006704507861286402
1769661549031287600,0.40428759765625,0.015414110384881496,-0.021228589117527008,-0.012104599736630917
1769661549041275400,0.414275390625,0.009838249534368515,-0.01900911144912243,-0.008711998350918293
1769661549051263500,0.424263427734375,0.012981045991182327,-0.02251196652650833,-0.008339955471456051
1769661549061251600,0.43425146484375,0.014036723412573338,-0.019653595983982086,-0.007395331747829914
1769661549071239400,0.444239501953125,0.01690414920449257,-0.01255121175199747,-0.009280583821237087
1769661549081227500,0.4542275390625,0.01889326423406601,-0.012055597268044949,-0.0031707596499472857
1769661549091215600,0.464215576171875,0.024176975712180138,-0.036254942417144775,-0.002671416848897934
1769661549101203500,0.474203369140625,0.030466828495264053,-0.028129639104008675,-0.011684618890285492
1769661549111190500,0.4841904296875,0.02628726325929165,-0.009338374249637127,-0.00663420045748353
1769661549121178600,0.4941787109375,0.02514476701617241,0.005373726598918438,-0.0025904567446559668
1769661549131166500,0.50416650390625,0.027406323701143265,0.005764145869761705,-0.013658287934958935
1769661549141154600,0.514154541015625,0.020176641643047333,-0.012674516066908836,-0.02485155314207077
1769661549151142700,0.524142578125,0.02106373943388462,-0.014126737602055073,-0.028005268424749374
1769661549161130500,0.534130615234375,0.0158921480178833,-0.002432797569781542,-0.03184634819626808
1769661549171118600,0.54411865234375,0.016154734417796135,0.006681871134787798,-0.038432877510786057
1769661549181106700,0.554106689453125,0.02004295028746128,0.011582886800169945,-0.04862319678068161
1769661549191094500,0.564094482421875,0.02340519055724144,0.014988270588219166,-0.04650651663541794
1769661549201082400,0.574082275390625,0.022529544308781624,0.020780911669135094,-0.04447691887617111
1769661549211070500,0.584070556640625,0.020297547802329063,0.02460574358701706,-0.04403829947113991
1769661549221058600,0.59405859375,0.023179886862635612,0.021494640037417412,-0.04157434031367302
1769661549231046400,0.60404638671875,0.021223263815045357,0.01600879430770874,-0.033485520631074905
1769661549241034500,0.614034423828125,0.019093001261353493,0.016462862491607666,-0.03015097789466381
1769661549251022600,0.624022705078125,0.017828797921538353,0.01206864695996046,-0.026157567277550697
1769661549261010400,0.634010498046875,0.019241338595747948,0.002382730133831501,-0.019145464524626732
1769661549270998500,0.64399853515625,0.018967831507325172,-0.002561428351327777,-0.011740013025701046
1769661549280986600,0.653986572265625,0.019157981500029564,-0.012811402790248394,0.0009419600828550756
1769661549290974700,0.663974609375,0.016464726999402046,-0.017061807215213776,0.010058759711682796
1769661549300962600,0.673962646484375,0.013251623138785362,-0.020865334197878838,0.014360031113028526
1769661549310950400,0.683950439453125,0.011684086173772812,-0.028716599568724632,0.019906064495444298
1769661549320938500,0.6939384765625,0.010398845188319683,-0.0346037819981575,0.024777518585324287
1769661549330926300,0.70392626953125,0.009733853861689568,-0.04561542347073555,0.026250777766108513
1769661549340914400,0.71391455078125,0.01140099298208952,-0.05248264968395233,0.02942952699959278
1769661549350902500,0.723902587890625,0.011607919819653034,-0.054612644016742706,0.030649788677692413
1769661549360890600,0.733890625,0.013487579300999641,-0.05235082283616066,0.03319976478815079
1769661549370878500,0.74387841796875,0.01522609032690525,-0.04723462462425232,0.03437342122197151
1769661549380866600,0.753866455078125,0.015422898344695568,-0.04350965842604637,0.035479698330163956
1769661549390854700,0.763854736328125,0.01818033494055271,-0.038367096334695816,0.03726827725768089
1769661549400842500,0.773842529296875,0.02028343454003334,-0.04014209285378456,0.040161002427339554
1769661549410830600,0.78383056640625,0.02221209555864334,-0.04972414672374725,0.04394082725048065
1769661549420818700,0.793818603515625,0.022654445841908455,-0.051771052181720734,0.04585350677371025
1769661549430806500,0.803806640625,0.021915419027209282,-0.04977874085307121,0.04652329161763191
1769661549440794400,0.81379443359375,0.021156683564186096,-0.048839177936315536,0.04476640745997429
1769661549450781700,0.82378173828125,0.018509235233068466,-0.05252525955438614,0.045515820384025574
1769661549460769500,0.83376953125,0.019057581201195717,-0.053884536027908325,0.044380515813827515
1769661549470757400,0.84375732421875,0.020433902740478516,-0.05289570614695549,0.04349314793944359
1769661549480745500,0.853745361328125,0.018069814890623093,-0.04755207151174545,0.04421060532331467
1769661549490733600,0.863733642578125,0.015907859429717064,-0.046907056123018265,0.045091576874256134
1769661549500721400,0.873721435546875,0.01625700108706951,-0.04511447995901108,0.04509291052818298
1769661549510709500,0.88370947265625,0.01665966957807541,-0.03959667682647705,0.043060917407274246
1769661549520697600,0.893697509765625,0.0170852430164814,-0.03550845757126808,0.04152480512857437
1769661549530685400,0.903685546875,0.016052469611167908,-0.03798546642065048,0.04360819607973099
1769661549540673500,0.913673583984375,0.01426575519144535,-0.03748985007405281,0.04304014518857002
1769661549550661600,0.92366162109375,0.013050820678472519,-0.03346847742795944,0.039810262620449066
1769661549560649700,0.933649658203125,0.011659852229058743,-0.02552027441561222,0.02852032519876957
1769661549570637600,0.943637451171875,0.006765228230506182,-0.01624741218984127,0.013970676809549332
1769661549580625400,0.95362548828125,0.0062738750129938126,-0.01173468679189682,0.002174204681068659
1769661549590613500,0.963613525390625,0.004601676017045975,-0.005711415316909552,-0.00119602563790977
1769661549600601300,0.973601318359375,0.003998203668743372,-0.0002085255109705031,0.005045092198997736
1769661549610589400,0.98358935546875,0.00595642626285553,-0.0049308426678180695,0.014215420931577682
1769661549620577500,0.99357763671875,0.0041031320579349995,-0.011235876940190792,0.014448980800807476
1769661549630565600,1.003565673828125,-0.0004924184759147465,-0.01968155987560749,0.008743423968553543
1769661549640553500,1.013553466796875,-0.0041822283528745174,-0.022098377346992493,0.0019174759509041905
1769661549650541600,1.02354150390625,-0.010407899506390095,-0.010980479419231415,-0.006447779480367899
1769661549660529700,1.03352978515625,-0.010751980356872082,0.00039867521263659,-0.010724815540015697
1769661549670517500,1.043517578125,-0.00974690355360508,0.002038117265328765,-0.006913299672305584
1769661549680505600,1.053505615234375,-0.009737315587699413,-0.0014306501252576709,0.005825398489832878
1769661549690493700,1.06349365234375,-0.012175439856946468,-0.0015425028977915645,0.016168583184480667
1769661549700481500,1.0734814453125,-0.016105467453598976,0.00003728425508597866,0.014398113824427128
1769661549710469400,1.083469482421875,-0.021381454542279243,0.006253102328628302,0.0030123014003038406
1769661549720457500,1.09345751953125,-0.02413889206945896,0.004320180043578148,-0.010688064619898796
1769661549730445600,1.103445556640625,-0.023904800415039062,-0.0021694109309464693,-0.019702864810824394
1769661549740433400,1.113433349609375,-0.02292156033217907,0.00040506679215468466,-0.019336147233843803
1769661549750421500,1.12342138671875,-0.02460654266178608,-0.0022540995851159096,-0.016224242746829987
1769661549760409600,1.13340966796875,-0.02328401803970337,-0.008835569024085999,-0.016825051978230476
1769661549770396400,1.143396484375,-0.02665398083627224,-0.005584915168583393,-0.01949513889849186
1769661549780384500,1.153384521484375,-0.028558939695358276,0.00088949577184394,-0.024163126945495605
1769661549790372600,1.16337255859375,-0.030489465221762657,0.004792358260601759,-0.031259119510650635
1769661549800360400,1.1733603515625,-0.028013525530695915,0.0022623552940785885,-0.04290112853050232
1769661549810348500,1.1833486328125,-0.025966087356209755,-0.00436145905405283,-0.05267706140875816
1769661549820336600,1.193336669921875,-0.019593674689531326,-0.010773818008601665,-0.05637912079691887
1769661549830324500,1.203324462890625,-0.013856959529221058,-0.017911888659000397,-0.05267386510968208
1769661549840312600,1.2133125,-0.011516840197145939,-0.03304477035999298,-0.03970852866768837
1769661549850300700,1.22330078125,-0.008315454237163067,-0.04171122610569,-0.022640863433480263
1769661549860288500,1.23328857421875,-0.005979329347610474,-0.04777151718735695,-0.011836419813334942
1769661549870278000,1.24327783203125,-0.004084490239620209,-0.05537563934922218,-0.011590076610445976
1769661549880265700,1.253265625,-0.006340453866869211,-0.05361848697066307,-0.013760287314653397
1769661549890253800,1.26325390625,-0.009950635023415089,-0.052270129323005676,-0.013604758307337761
1769661549900242000,1.273241943359375,-0.013640711084008217,-0.06688901782035828,-0.00666269613429904
1769661549910229800,1.283229736328125,-0.014852449297904968,-0.09366896748542786,-0.0054906392470002174
1769661549920217900,1.2932177734375,-0.016345683485269547,-0.11292894929647446,-0.014945127069950104
1769661549930205700,1.303205810546875,-0.016112124547362328,-0.12074905633926392,-0.02424994483590126
1769661549940193800,1.31319384765625,-0.01774863712489605,-0.12301407009363174,-0.02617834135890007
1769661549950181600,1.323181640625,-0.019402459263801575,-0.11056911945343018,-0.01582636684179306
1769661549960169700,1.333169677734375,-0.017833059653639793,-0.09888955950737,0.0005688511882908642
1769661549970157800,1.34315771484375,-0.012986638583242893,-0.09438775479793549,0.007281881291419268
1769661549980145700,1.353145751953125,-0.0013899037148803473,-0.09296322613954544,0.007369765546172857
1769661549990133800,1.3631337890625,0.0073564499616622925,-0.08422832936048508,-0.000517718493938446
1769661550000121900,1.373121826171875,0.0073292856104671955,-0.07675762474536896,-0.006649380549788475
1769661550010109700,1.383109619140625,0.007622499484568834,-0.0602758564054966,-0.006899185013025999
1769661550020097800,1.393097900390625,0.0085466168820858,-0.04264546558260918,-0.007812116760760546
1769661550030086000,1.4030859375,0.012323245406150818,-0.022599052637815475,-0.013833257369697094
1769661550040074000,1.413073974609375,0.013170396909117699,-0.01501197274774313,-0.026912307366728783
1769661550050061800,1.423061767578125,0.013381585478782654,-0.022815832868218422,-0.03982331231236458
1769661550060049700,1.433049560546875,0.015172561630606651,-0.03519367426633835,-0.041851308196783066
1769661550070037800,1.443037841796875,0.006391853094100952,-0.03538515418767929,-0.037089843302965164
1769661550080024800,1.45302490234375,-0.001868473831564188,-0.024627847597002983,-0.031260982155799866
1769661550090012700,1.4630126953125,-0.009072324261069298,-0.011048655956983566,-0.032215725630521774
1769661550100000800,1.473000732421875,-0.008981777355074883,0.0016189356101676822,-0.03446023911237717
1769661550109988600,1.482988525390625,-0.0017177389236167073,0.00993092730641365,-0.036008600145578384
1769661550119976700,1.492976806640625,0.007318366784602404,0.021437114104628563,-0.03155206888914108
1769661550129964800,1.50296484375,0.013648434542119503,0.03184288367629051,-0.023681361228227615
1769661550139952600,1.51295263671875,0.01612464152276516,0.03461044281721115,-0.013484383001923561
1769661550149940700,1.522940673828125,0.018149709329009056,0.04127500206232071,-0.00472631212323904
1769661550159928800,1.5329287109375,0.02009301818907261,0.051535096019506454,0.0007555388147011399
1769661550169917000,1.5429169921875,0.023128222674131393,0.05700523033738136,-0.0010849718237295747
1769661550179904800,1.55290478515625,0.025961292907595634,0.05476311221718788,-0.014511831104755402
1769661550189892900,1.562892822265625,0.02678580768406391,0.06436141580343246,-0.031094269827008247
1769661550199881000,1.572880859375,0.029884928837418556,0.07360684126615524,-0.04754594713449478
1769661550209868500,1.58286865234375,0.0408632755279541,0.08782492578029633,-0.05438574403524399
1769661550219856600,1.592856689453125,0.052685849368572235,0.10568035393953323,-0.057847585529088974
1769661550229844700,1.6028447265625,0.05415564775466919,0.12512622773647308,-0.06059863045811653
1769661550239832800,1.612832763671875,0.05459586903452873,0.1422458291053772,-0.058398328721523285
1769661550249820700,1.622820556640625,0.046601057052612305,0.1458940953016281,-0.06147800758481026
1769661550259808800,1.632808837890625,0.04970124363899231,0.13040274381637573,-0.07465692609548569
1769661550269796900,1.642796875,0.061164021492004395,0.1041751354932785,-0.07928097248077393
1769661550279784700,1.65278466796875,0.06332943588495255,0.10097188502550125,-0.07457783073186874
1769661550289772800,1.662772705078125,0.06041593849658966,0.10909266769886017,-0.06482639908790588
1769661550299761000,1.672760986328125,0.055817194283008575,0.10134925693273544,-0.05037475749850273
1769661550309749000,1.6827490234375,0.047632765024900436,0.06308069825172424,-0.04318981617689133
1769661550319736800,1.69273681640625,0.04332270473241806,0.035408858209848404,-0.042806051671504974
1769661550329724700,1.702724609375,0.04488172009587288,0.0052384380251169205,-0.04496481269598007
1769661550339712800,1.712712646484375,0.04719094932079315,-0.020956147462129593,-0.044552288949489594
1769661550349700600,1.72270068359375,0.048353683203458786,0.00811997801065445,-0.03728931397199631
1769661550359688700,1.732688720703125,0.04312936216592789,0.0669444128870964,-0.026343457400798798
1769661550369676800,1.7426767578125,0.0404941625893116,0.08571623265743256,-0.0356229767203331
1769661550379663600,1.75266357421875,0.04164385050535202,0.07581513375043869,-0.053582802414894104
1769661550389651700,1.762651611328125,0.04054343327879906,0.05991712957620621,-0.069541797041893
1769661550399639800,1.772639892578125,0.03784804791212082,0.04608094319701195,-0.07996061444282532
1769661550409627600,1.782627685546875,0.03476596996188164,0.05006103590130806,-0.08279315382242203
1769661550419615700,1.79261572265625,0.028928853571414948,0.061461761593818665,-0.08575085550546646
1769661550429603800,1.802603759765625,0.023550333455204964,0.05650508776307106,-0.08688749372959137
1769661550439592000,1.812592041015625,0.0214815903455019,0.037693317979574203,-0.0772806704044342
1769661550449579800,1.822579833984375,0.017070861533284187,0.014829279854893684,-0.06095469743013382
1769661550459567900,1.83256787109375,0.006746585946530104,0.027622040361166,-0.04664446786046028
1769661550469556000,1.842555908203125,-0.001885784324258566,0.04638028144836426,-0.03654230013489723
1769661550479543800,1.852543701171875,-0.009607885964214802,0.03690608590841293,-0.0321480818092823
1769661550489531600,1.86253173828125,-0.01073733251541853,0.034993402659893036,-0.03127776086330414
1769661550499519700,1.872519775390625,-0.007515707053244114,0.029460687190294266,-0.02948465570807457
1769661550509507800,1.8825078125,-0.011529623530805111,0.0236416794359684,-0.03460484743118286
1769661550519495700,1.89249560546875,-0.017555823549628258,0.030219154432415962,-0.03828240931034088
1769661550529483800,1.90248388671875,-0.0203366968780756,0.0184120312333107,-0.033238112926483154
1769661550539472000,1.912471923828125,-0.025662751868367195,0.023732759058475494,-0.04061400517821312
1769661550549459700,1.922459716796875,-0.027049461379647255,0.04009468853473663,-0.04416905716061592
1769661550559447800,1.93244775390625,-0.029857497662305832,0.03410470858216286,-0.05149328336119652
1769661550569436000,1.942435791015625,-0.03467968478798866,0.01565699093043804,-0.06030435115098953
1769661550579423700,1.952423828125,-0.0381910614669323,0.001537975505925715,-0.05919674411416054
1769661550589411800,1.962411865234375,-0.04878538101911545,-0.0008644621120765805,-0.051182229071855545
1769661550599399700,1.972399658203125,-0.05813494324684143,0.015103318728506565,-0.031986162066459656
1769661550609387800,1.9823876953125,-0.06996949762105942,0.031212780624628067,-0.015045794658362865
1769661550619375600,1.992375732421875,-0.07886604964733124,0.03539101406931877,-0.0018471685471013188
1769661550629363700,2.00236376953125,-0.08271032571792603,0.028719263151288033,-0.0076304893009364605
1769661550639351800,2.012351806640625,-0.07683725655078888,0.0023518374655395746,-0.02646995708346367
1769661550649339600,2.022339599609375,-0.06547781080007553,-0.02015826478600502,-0.0450175404548645
1769661550659327700,2.03232763671875,-0.053040049970149994,-0.024235565215349197,-0.05615035444498062
1769661550669315800,2.04231591796875,-0.03856923058629036,-0.022641928866505623,-0.054726894944906235
1769661550679304000,2.052303955078125,-0.029096899554133415,-0.017315074801445007,-0.05402648448944092
1769661550689291800,2.062291748046875,-0.026732278987765312,-0.010390056297183037,-0.049683667719364166
1769661550699278800,2.07227880859375,-0.02251223288476467,0.007119961082935333,-0.04681304469704628
1769661550709266700,2.0822666015625,-0.019687151536345482,0.017499631270766258,-0.04229046404361725
1769661550719254800,2.0922548828125,-0.014641793444752693,0.016206933185458183,-0.040055807679891586
1769661550729243000,2.102242919921875,-0.013198626227676868,0.013159744441509247,-0.042764775454998016
1769661550739231000,2.11223095703125,-0.011502725072205067,0.010083526372909546,-0.045216478407382965
1769661550749218800,2.12221875,-0.012620986439287663,0.003985154442489147,-0.053101036697626114
1769661550759206700,2.13220654296875,-0.01230460312217474,0.000024234765078290366,-0.052627258002758026
1769661550769194800,2.14219482421875,-0.0067513794638216496,-0.005881857592612505,-0.0477193184196949
1769661550779182600,2.1521826171875,-0.0068089039996266365,0.00006178533658385277,-0.04003237187862396
1769661550789170700,2.162170654296875,-0.017183514311909676,0.007316235918551683,-0.026151176542043686
1769661550799158800,2.17215869140625,-0.02093217894434929,0.008450210094451904,-0.01565592549741268
1769661550809147000,2.18214697265625,-0.01900538243353367,0.00119602563790977,-0.01128141675144434
1769661550819134700,2.192134765625,-0.00862997304648161,-0.0012237224727869034,-0.01672864705324173
1769661550829122800,2.202122802734375,-0.009433715604245663,0.003436010330915451,-0.023962590843439102
1769661550839111000,2.21211083984375,-0.011261709034442902,0.013000753708183765,-0.027307255193591118
1769661550849098800,2.2220986328125,-0.01714250072836876,0.012821522541344166,-0.03171718493103981
1769661550859086800,2.2320869140625,-0.01630626805126667,0.00983478780835867,-0.03823074325919151
1769661550869073700,2.24207373046875,-0.00897032581269741,0.006714095361530781,-0.04050907492637634
1769661550879061500,2.2520615234375,-0.001178182428702712,0.006616357248276472,-0.043773580342531204
1769661550889049600,2.262049560546875,0.004220045171678066,-0.00284958234988153,-0.041359689086675644
1769661550899037700,2.27203759765625,0.005930060520768166,-0.017348363995552063,-0.03279443085193634
1769661550909025500,2.282025634765625,0.009461145848035812,-0.0369470976293087,-0.023923175409436226
1769661550919013400,2.292013427734375,0.013704360462725163,-0.052391570061445236,-0.01876596361398697
1769661550929001500,2.30200146484375,0.011352256871759892,-0.06084843724966049,-0.01780456304550171
1769661550938989600,2.311989501953125,0.005212338641285896,-0.06557980924844742,-0.026343457400798798
1769661550948977400,2.321977294921875,0.0017827199772000313,-0.06874816864728928,-0.03947816789150238
1769661550958965500,2.331965576171875,-0.004168645944446325,-0.08239660412073135,-0.047865524888038635
1769661550968953600,2.34195361328125,-0.008841960690915585,-0.0803062915802002,-0.05860871821641922
1769661550978941400,2.35194140625,-0.015215704217553139,-0.0770399197936058,-0.06892260909080505
1769661550988928500,2.361928466796875,-0.018918562680482864,-0.06978999823331833,-0.07043368369340897
1769661550998916600,2.37191650390625,-0.016141684725880623,-0.07621407508850098,-0.06845735758543015
1769661551008904400,2.381904541015625,-0.014435664750635624,-0.07283319532871246,-0.06497926265001297
1769661551018892500,2.391892578125,-0.016695622354745865,-0.06186043843626976,-0.06118825450539589
1769661551028880600,2.401880615234375,-0.013666809536516666,-0.06274434179067612,-0.05698924884200096
1769661551038868500,2.411868408203125,-0.008229168131947517,-0.06398724019527435,-0.051418982446193695
1769661551048856600,2.421856689453125,-0.008559932000935078,-0.05270475521683693,-0.04826446622610092
1769661551058844700,2.4318447265625,-0.0038541266694664955,-0.050032272934913635,-0.039504267275333405
1769661551068832500,2.44183251953125,-0.006153766065835953,-0.044503550976514816,-0.03960173949599266
1769661551078820400,2.4518203125,-0.005532184615731239,-0.03503548353910446,-0.044191695749759674
1769661551088808400,2.461808349609375,-0.008294414728879929,-0.03690209239721298,-0.04580077901482582
1769661551098796500,2.471796630859375,-0.009542372077703476,-0.04009362310171127,-0.04560716450214386
1769661551108784400,2.481784423828125,-0.01158395130187273,-0.03448367491364479,-0.046179212629795074
1769661551118772500,2.4917724609375,-0.01053120382130146,-0.02725345827639103,-0.04617628455162048
1769661551128760600,2.501760498046875,-0.010508833453059196,-0.019390741363167763,-0.04441247135400772
1769661551138748400,2.51174853515625,-0.014728345908224583,-0.01062175165861845,-0.04368649423122406
1769661551148736500,2.521736572265625,-0.014797321520745754,0.00008548746700398624,-0.04549451544880867
1769661551158724600,2.531724609375,-0.014012754894793034,0.003569967346265912,-0.05098355561494827
1769661551168712700,2.541712646484375,-0.010540791787207127,0.01170406024903059,-0.05423207953572273
1769661551178700500,2.551700439453125,-0.006791859865188599,0.029157087206840515,-0.05060245841741562
1769661551188688600,2.561688720703125,0.002216282533481717,0.038108501583337784,-0.039329830557107925
1769661551198676500,2.571676513671875,0.0017547567840665579,0.04031066969037056,-0.03399205580353737
1769661551208664300,2.581664306640625,0.004417917691171169,0.04584578424692154,-0.027890220284461975
1769661551218652400,2.59165234375,0.0037204360123723745,0.0545673705637455,-0.02424302138388157
1769661551228640500,2.601640625,0.0019560917280614376,0.053826212882995605,-0.024658741429448128
1769661551238628600,2.611628662109375,-0.0009126652730628848,0.043716054409742355,-0.02901327610015869
1769661551248616400,2.621616455078125,-0.0017776599852368236,0.03327113762497902,-0.025902437046170235
1769661551258604500,2.6316044921875,-0.008776181377470493,0.017532654106616974,-0.02726863883435726
1769661551268592600,2.641592529296875,-0.00589650496840477,0.008057394064962864,-0.027240408584475517
1769661551278580500,2.65158056640625,-0.007282147649675608,-0.002615490462630987,-0.011721370741724968
1769661551288568600,2.661568603515625,-0.01570039987564087,-0.01531583908945322,0.00024714134633541107
1769661551298555600,2.6715556640625,-0.008157795295119286,-0.021381454542279243,0.0015907060587778687
1769661551308543500,2.68154345703125,-0.0064922538585960865,-0.022060826420783997,0.0008295746520161629
1769661551318531600,2.691531494140625,-0.006838198751211166,-0.008043545298278332,-0.0018604843644425273
1769661551328519700,2.701519775390625,-0.006744721904397011,-0.0019030949333682656,-0.0021845910232514143
1769661551338507500,2.711507568359375,-0.0012463594321161509,0.0034501252230256796,-0.006938599981367588
1769661551348495400,2.721495361328125,0.0002002697146963328,0.01525804866105318,-0.007375890854746103
1769661551358483500,2.7314833984375,0.0049585397355258465,0.038357507437467575,-0.011509383097290993
1769661551368471600,2.741471435546875,0.004735632799565792,0.05218437314033508,-0.01213069912046194
1769661551378459400,2.75145947265625,0.008283229544758797,0.05988730117678642,-0.017469005659222603
1769661551388447500,2.761447509765625,0.010084858164191246,0.06641071289777756,-0.022641662508249283
1769661551398435600,2.771435546875,0.00935275573283434,0.06415262073278427,-0.024983646348118782
1769661551408423400,2.78142333984375,0.010104299522936344,0.0571434460580349,-0.02755705825984478
1769661551418411500,2.79141162109375,0.006868824828416109,0.04827112704515457,-0.028620725497603416
1769661551428399600,2.801399658203125,0.004849350079894066,0.03664243221282959,-0.0303946565836668
1769661551438387700,2.8113876953125,0.0055060856975615025,0.0193763617426157,-0.029520342126488686
1769661551448375600,2.82137548828125,0.006117547396570444,0.00481393001973629,-0.024876320734620094
1769661551458363600,2.83136376953125,0.004049602895975113,-0.0014391721924766898,-0.021395569667220116
1769661551468351500,2.8413515625,0.005353220272809267,-0.00509755639359355,-0.01872015744447708
1769661551478339300,2.85133935546875,0.0023853934835642576,-0.008731706067919731,-0.017977667972445488
1769661551488327400,2.861327392578125,0.0038365498185157776,-0.011661449447274208,-0.014425810426473618
1769661551498315500,2.8713154296875,0.004942294210195541,-0.01161590963602066,-0.014448714442551136
1769661551508303600,2.8813037109375,0.007637679576873779,-0.00364666641689837,-0.013479056768119335
1769661551518291500,2.89129150390625,0.008800681680440903,-0.000461259507574141,-0.013865215703845024
1769661551528279600,2.901279541015625,0.01284549105912447,0.0018658105982467532,-0.01260926853865385
1769661551538267600,2.911267578125,0.01158821303397417,-0.00017363809456583112,-0.012230301275849342
1769661551548255500,2.92125537109375,0.012539493851363659,-0.0008548747282475233,-0.013709686696529388
1769661551558243600,2.93124365234375,0.011747470125555992,0.0018184063956141472,-0.01877794787287712
1769661551568231700,2.941231689453125,0.010230266489088535,0.0019659455865621567,-0.01932709291577339
1769661551578219500,2.951219482421875,0.009969543665647507,-0.0025784724857658148,-0.021807560697197914
1769661551588207400,2.961207275390625,0.010871023871004581,-0.01221378892660141,-0.01757499948143959
1769661551598195500,2.971195556640625,0.012645754031836987,-0.01564900018274784,-0.011576761491596699
1769661551608182500,2.9811826171875,0.00923238042742014,-0.00996288564056158,-0.010392719879746437
1769661551618170600,2.991170654296875,0.010425742715597153,-0.004294879734516144,-0.00731304008513689
1769661551628158500,3.001158447265625,0.011805260553956032,-0.000032490566809428856,-0.0046389601193368435
1769661551638146600,3.011146484375,0.013736851513385773,0.009535448625683784,-0.0046999468468129635
1769661551648134400,3.021134521484375,0.014120612293481827,0.019288742914795876,-0.006841394584625959
1769661551658122500,3.03112255859375,0.014075072482228279,0.01853613369166851,-0.010411362163722515
1769661551668110600,3.041110595703125,0.015680959448218346,0.01483700331300497,-0.011888884007930756
1769661551678098400,3.051098388671875,0.014948323369026184,0.011298460885882378,-0.012541358359158039
1769661551688086500,3.06108642578125,0.01571584679186344,0.0073687005788087845,-0.00897032581269741
1769661551698074600,3.07107470703125,0.016019446775317192,0.007925833575427532,-0.004759068600833416
1769661551708062500,3.0810625,0.014220480807125568,0.004728708881884813,0.00006338323146337643
1769661551718050600,3.091050537109375,0.01326840091496706,0.0015686018159613013,0.001856489572674036
1769661551728038700,3.10103857421875,0.00965715479105711,0.0023928501177579165,-0.0010125337867066264
1769661551738026500,3.111026611328125,0.012948289513587952,0.003355050226673484,-0.0021289309952408075
1769661551748014300,3.121014404296875,0.0146857351064682,0.004099936690181494,0.0020000338554382324
1769661551758002400,3.13100244140625,0.01452780980616808,0.0009744506096467376,0.002103364560753107
1769661551767990500,3.140990478515625,0.017527861520648003,-0.006484530866146088,-0.00008255799184553325
1769661551777978400,3.150978271484375,0.015204519033432007,-0.008540491573512554,-0.0020658141002058983
1769661551787966500,3.160966552734375,0.015106781385838985,-0.014230867847800255,0.004294613376259804
1769661551797954600,3.17095458984375,0.01182017382234335,-0.015381885692477226,0.00890960544347763
1769661551807942700,3.180942626953125,0.005596366710960865,-0.023396935313940048,0.006941529456526041
1769661551817930500,3.190930419921875,0.0012532835826277733,-0.031442612409591675,0.003310841741040349
1769661551827918600,3.200918701171875,-0.0018642127979546785,-0.035172101110219955,-0.0010777813149616122
1769661551837906700,3.21090673828125,-0.004621649626642466,-0.03561711683869362,-0.006881075445562601
1769661551847894500,3.22089453125,-0.00509888818487525,-0.03707892447710037,-0.01501357089728117
1769661551857882600,3.230882568359375,-0.007508782669901848,-0.03145566210150719,-0.020867198705673218
1769661551867870700,3.24087060546875,-0.008008924312889576,-0.024211330339312553,-0.027629762887954712
1769661551877858800,3.25085888671875,-0.007312774192541838,-0.013551495037972927,-0.030160298570990562
1769661551887846700,3.2608466796875,-0.008801214396953583,-0.0004194478678982705,-0.028416460379958153
1769661551897834800,3.270834716796875,-0.012489160522818565,0.001695900922641158,-0.02750326320528984
1769661551907822800,3.28082275390625,-0.01363325398415327,-0.002475142013281584,-0.026133066043257713
1769661551917809700,3.2908095703125,-0.015034609474241734,-0.0009709885343909264,-0.02581961266696453
1769661551927797800,3.3007978515625,-0.015838617458939552,0.0049649314023554325,-0.025309083983302116
1769661551937785900,3.310785888671875,-0.013846040703356266,0.010631072334945202,-0.023211846128106117
1769661551947773700,3.320773681640625,-0.014164821244776249,0.01660454273223877,-0.018940668553113937
1769661551957761800,3.33076171875,-0.01248250249773264,0.0229782871901989,-0.020388362929224968
1769661551967750000,3.34075,-0.007743939757347107,0.03188629448413849,-0.02203046716749668
1769661551977737700,3.35073779296875,-0.007207312621176243,0.04115782305598259,-0.027152525261044502
1769661551987725800,3.360725830078125,-0.00897005945444107,0.04633846879005432,-0.023751668632030487
1769661551997714000,3.3707138671875,-0.005636047571897507,0.04615870490670204,-0.02406485565006733
1769661552007701800,3.38070166015625,-0.006128998938947916,0.0344993881881237,-0.021707426756620407
1769661552017689600,3.390689697265625,-0.004728708881884813,0.021324463188648224,-0.017544105648994446
1769661552027677700,3.400677734375,-0.0013723268639296293,0.0080350236967206,-0.010204434394836426
1769661552037665800,3.410665771484375,-0.0006186523241922259,0.0011792477453127503,-0.003990747034549713
1769661552047653600,3.420653564453125,-0.0008844357798807323,-0.0038301581516861916,-0.00361763802357018
1769661552057641700,3.430641845703125,0.0025984463281929493,-0.015518772415816784,-0.006864031311124563
1769661552067629800,3.4406298828125,0.0010865697404369712,-0.019468773156404495,-0.007349525578320026
1769661552077618000,3.450617919921875,0.002299639629200101,-0.012499013915657997,0.0006519418093375862
1769661552087605800,3.460605712890625,0.002639725338667631,0.0004471447318792343,0.00640809815376997
1769661552097593900,3.47059375,0.0019688750617206097,0.011534150689840317,0.011154649779200554
1769661552107582000,3.48058203125,0.0041675809770822525,0.01824025623500347,0.012899553403258324
1769661552117569800,3.49056982421875,0.004314321093261242,0.021384917199611664,0.007456318475306034
1769661552127557600,3.5005576171875,0.007162838242948055,0.02474076673388481,0.003611512714996934
1769661552137545700,3.510545654296875,0.0117900799959898,0.028854550793766975,0.007791344076395035
1769661552147533800,3.520533935546875,0.012084359303116798,0.029955236241221428,0.011930163018405437
1769661552157521700,3.530521728515625,0.01142922230064869,0.035476233810186386,0.011271828785538673
1769661552167509800,3.540509765625,0.010033459402620792,0.034395791590213776,0.009496832266449928
1769661552177497900,3.550497802734375,0.009749566204845905,0.028748024255037308,0.0062395199202001095
1769661552187485700,3.560485595703125,0.009653426706790924,0.02804947830736637,0.005139900837093592
1769661552197473800,3.570473876953125,0.0121879568323493,0.03099946118891239,0.011884622275829315
1769661552207462000,3.5804619140625,0.00959803257137537,0.033601634204387665,0.02219318598508835
1769661552217449700,3.59044970703125,0.009153816848993301,0.030788538977503777,0.024029968306422234
1769661552227436800,3.600436767578125,0.008942894637584686,0.023095732554793358,0.023122895509004593
1769661552237425000,3.6104248046875,0.011573565192520618,0.01842348277568817,0.019722038879990578
1769661552247412700,3.620412841796875,0.012505938299000263,0.01805543340742588,0.0184027086943388
1769661552257400800,3.63040087890625,0.013558153063058853,0.021094899624586105,0.020651748403906822
1769661552267389000,3.640388916015625,0.012010590173304081,0.02714107371866703,0.02183925174176693
1769661552277376800,3.650376708984375,0.010570619255304337,0.03014831431210041,0.016993097960948944
1769661552287364600,3.660364501953125,0.013347497209906578,0.037327930331230164,0.013764814473688602
1769661552297352700,3.670352783203125,0.012145346030592918,0.03689330443739891,0.013255883939564228
1769661552307340800,3.6803408203125,0.011039601638913155,0.031209584325551987,0.012870525009930134
1769661552317328600,3.69032861328125,0.011442271992564201,0.02395460195839405,0.01630307361483574
1769661552327316700,3.700316650390625,0.00851332675665617,0.01907702162861824,0.016982445493340492
1769661552337304800,3.710304931640625,0.007553523872047663,0.016336895525455475,0.016333166509866714
1769661552347292700,3.720292724609375,0.004966529086232185,0.010526943020522594,0.013652162626385689
1769661552357280800,3.73028076171875,0.003914047963917255,0.010239321738481522,0.007278685458004475
1769661552367268900,3.740268798828125,0.0046181874349713326,0.012571984902024269,0.0020546286832541227
1769661552377257000,3.750257080078125,0.0027153589762747288,0.015989884734153748,-0.000297475082334131
1769661552387244800,3.760244873046875,0.0033340114168822765,0.013806359842419624,-0.002073803450912237
1769661552397233000,3.77023291015625,0.00267674308270216,0.00583738274872303,-0.0009211873984895647
1769661552407220700,3.780220703125,0.002341983839869499,-0.004296211525797844,0.0024647556710988283
1769661552417208600,3.79020849609375,0.0017089504981413484,-0.008490690030157566,0.004496747627854347
1769661552427196700,3.80019677734375,0.0020562265999615192,-0.010577010922133923,0.0037446708884090185
1769661552437184800,3.810184814453125,0.0035864789970219135,-0.013755226507782936,0.0027601001784205437
1769661552447172900,3.8201728515625,-0.00019627496658358723,-0.0151003897190094,0.001957423286512494
1769661552457160700,3.83016064453125,-0.0011616708943620324,-0.01721813529729843,-0.001261539408005774
1769661552467148800,3.840148681640625,0.00038988678716123104,-0.020186228677630424,-0.006938599981367588
1769661552477137000,3.850136962890625,-0.0016277240356430411,-0.027281422168016434,-0.00830000825226307
1769661552487124700,3.860124755859375,-0.0018125474452972412,-0.03388020396232605,-0.005917544011026621
1769661552497112800,3.87011279296875,-0.005053880624473095,-0.03948375955224037,-0.007379353046417236
1769661552507101000,3.880100830078125,-0.0006434197421185672,-0.0439315065741539,-0.008100003935396671
1769661552517088800,3.8900888671875,0.0012303803814575076,-0.04206276312470436,-0.008784170262515545
1769661552527076600,3.90007666015625,-0.00007270430069183931,-0.03670315444469452,-0.010876350104808807
1769661552537064700,3.910064697265625,0.001547030289657414,-0.030133401975035667,-0.017538247630000114
1769661552547051800,3.9200517578125,0.002347576431930065,-0.023095998913049698,-0.020892499014735222
1769661552557039600,3.93003955078125,0.0025270734913647175,-0.012790096923708916,-0.022359633818268776
1769661552567027700,3.94002783203125,0.003980626817792654,-0.000827177835162729,-0.018673818558454514
1769661552577015800,3.950015869140625,0.005058674607425928,0.006826480850577354,-0.01624874398112297
1769661552587003600,3.960003662109375,0.007966846227645874,0.0068296766839921474,-0.017198428511619568
1769661552596991700,3.96999169921875,0.007636880502104759,-0.0010849718237295747,-0.024946894496679306
1769661552606979800,3.979979736328125,0.005572930909693241,-0.006312224548310041,-0.017714815214276314
1769661552616967700,3.9899677734375,0.007211041171103716,-0.006616090890020132,-0.014329138211905956
1769661552626955800,3.999955810546875,0.009346364066004753,-0.01215919479727745,-0.016586700454354286
1769661552636944000,4.00994384765625,0.012263324111700058,-0.013684652745723724,-0.01555019710212946
1769661552646932000,4.019931884765625,0.012286227196455002,-0.01338478084653616,-0.013499829918146133
1769661552656919800,4.029919921875,0.010890464298427105,-0.010333064943552017,-0.014822089113295078
1769661552666908000,4.039907958984375,0.011059309355914593,-0.010332798585295677,-0.01581944338977337
1769661552676895700,4.049895751953125,0.01164733525365591,-0.012311527505517006,-0.017242902889847755
1769661552686883600,4.059883544921875,0.008636897429823875,-0.014260961674153805,-0.016153935343027115
1769661552696871700,4.06987158203125,0.012774118222296238,-0.01973002962768078,-0.016990700736641884
1769661552706859800,4.07985986328125,0.011033742688596249,-0.026706978678703308,-0.0259248074144125
1769661552716847600,4.08984765625,0.009513610042631626,-0.02178359217941761,-0.01563834771513939
1769661552726835700,4.099835693359375,0.011301656253635883,-0.00044474788592197,-0.004817924462258816
1769661552736823800,4.10982373046875,0.012149074114859104,0.016458867117762566,-0.005876265000551939
1769661552746812000,4.11981201171875,0.013345099985599518,0.013630857691168785,-0.00780679052695632
1769661552756799700,4.1297998046875,0.015338475815951824,0.008107461035251617,-0.010497115552425385
1769661552766787800,4.139787841796875,0.014415157958865166,0.00287408335134387,-0.012825250625610352
1769661552776776000,4.14977587890625,0.016384566202759743,0.005508216097950935,-0.016696954146027565
1769661552786763800,4.159763671875,0.015659652650356293,0.011828429996967316,-0.013319001533091068
1769661552796751600,4.169751708984375,0.014797854237258434,0.00884755328297615,-0.014344317838549614
1769661552806739700,4.17973974609375,0.015928633511066437,-0.004126035608351231,-0.010942662134766579
1769661552816727800,4.189727783203125,0.017235711216926575,-0.014761635102331638,-0.00520727876573801
1769661552826715600,4.199715576171875,0.015162440948188305,-0.02117053233087063,-0.0004090615548193455
1769661552836703700,4.209703857421875,0.015166436322033405,-0.02353675104677677,0.00572925852611661
1769661552846691800,4.21969189453125,0.01565219648182392,-0.02280251681804657,0.007814247161149979
1769661552856679700,4.2296796875,0.012673983350396156,-0.019512714818120003,0.004228034522384405
1769661552866668300,4.239668212890625,0.010718158446252346,-0.014450844377279282,0.0051713259890675545
1769661552876655400,4.2496552734375,0.013129916973412037,-0.014366422779858112,0.006113019771873951
1769661552886643500,4.2596435546875,0.01558295451104641,-0.016896691173315048,0.0065678879618644714
1769661552896631300,4.26963134765625,0.016204535961151123,-0.019365176558494568,0.00606375141069293
1769661552906619400,4.279619384765625,0.016105733811855316,-0.01774570718407631,0.010805243626236916
1769661552916607500,4.289607421875,0.014703311957418919,-0.013201289810240269,0.011972506530582905
1769661552926595300,4.29959521484375,0.01284442562609911,-0.004546815063804388,0.011273160576820374
1769661552936583200,4.309583251953125,0.013039369136095047,0.0024234766606241465,0.01576724462211132
1769661552946571300,4.3195712890625,0.014072409830987453,-0.00030546457855962217,0.01577070727944374
1769661552956559400,4.329559326171875,0.008588162250816822,0.0024578312877565622,0.0002508697798475623
1769661552966547200,4.339547119140625,0.004304999951273203,-0.00437956815585494,-0.0021222729701548815
1769661552976535300,4.349535400390625,0.004122573416680098,-0.00037470675306394696,0.003463441040366888
1769661552986523400,4.3595234375,0.005140966270118952,0.005638711154460907,0.0017891116440296173
1769661552996511200,4.36951123046875,0.008037419989705086,0.0073569826781749725,0.0004665858286898583
1769661553006499300,4.379499267578125,0.01014078501611948,0.004357464145869017,-0.001020523370243609
1769661553016487400,4.3894873046875,0.009068329818546772,0.003576625371351838,0.0020072245970368385
1769661553026475500,4.3994755859375,0.007182279136031866,0.008577242493629456,0.002213885774835944
1769661553036463400,4.40946337890625,0.007676561828702688,0.01076715998351574,0.004326571244746447
1769661553046451500,4.419451416015625,0.008354069665074348,0.018879948183894157,0.0003014698449987918
1769661553056439300,4.429439208984375,0.008562861941754818,0.02556767873466015,0.0009475527331233025
1769661553066427100,4.43942724609375,0.009187373332679272,0.0297927837818861,0.0009108011145144701
1769661553076415200,4.449415283203125,0.008294947445392609,0.026677949354052544,0.0014325142838060856
1769661553086403300,4.4594033203125,0.005688512232154608,0.02286936342716217,0.0020218719728291035
1769661553096391200,4.46939111328125,0.0043739755637943745,0.019156916067004204,0.0010365023044869304
1769661553106379300,4.479379150390625,0.006051767151802778,0.017140105366706848,-0.000371777277905494
1769661553116367400,4.489367431640625,0.006764695513993502,0.012773851864039898,0.0008562062866985798
1769661553126355500,4.49935546875,0.00755059439688921,0.0021971079986542463,-0.002229065867140889
1769661553136343300,4.50934326171875,0.0023470439482480288,-0.006102900020778179,-0.003945206757634878
1769661553146331400,4.519331298828125,0.0009297095239162445,-0.011272627860307693,-0.005688512232154608
1769661553156319500,4.529319580078125,-0.0007147924043238163,-0.014356834813952446,-0.006390521302819252
1769661553166307300,4.539307373046875,-0.0067758806981146336,-0.013051353394985199,-0.007221959996968508
1769661553176295200,4.549295166015625,-0.005083441734313965,-0.01218875590711832,-0.015569638460874557
1769661553186283300,4.559283203125,-0.004773716442286968,-0.012930712662637234,-0.01902136206626892
1769661553196270300,4.569270263671875,-0.002954510971903801,0.0012237224727869034,-0.014447382651269436
1769661553206258200,4.579258056640625,0.0005880259559489787,0.019991550594568253,-0.013865215703845024
1769661553216246300,4.589246337890625,0.000711064029019326,0.03154327720403671,-0.013665478676557541
1769661553226234400,4.599234375,0.004304733593016863,0.03514467179775238,-0.010918693616986275
1769661553236222200,4.60922216796875,0.005396629683673382,0.03479766100645065,-0.010427074506878853
1769661553246210300,4.619210205078125,0.005270395893603563,0.032041024416685104,-0.008504272438585758
1769661553256198400,4.629198486328125,0.004059989005327225,0.023074425756931305,-0.009577259421348572
1769661553266186200,4.639186279296875,0.004731105640530586,0.01255121175199747,-0.015140869654715061
1769661553276174300,4.64917431640625,0.005221393425017595,0.0067423246800899506,-0.01733051985502243
1769661553286162400,4.659162353515625,0.004455468617379665,0.00310604483820498,-0.016651680693030357
1769661553296150300,4.669150390625,0.00464694993570447,0.00021012341312598437,-0.015742743387818336
1769661553306138400,4.679138427734375,0.0055092815309762955,0.004042145796120167,-0.015480422414839268
1769661553316126500,4.68912646484375,0.0036732980515807867,0.013074256479740143,-0.014343518763780594
1769661553326114300,4.6991142578125,0.007423827890306711,0.01744423806667328,-0.012340023182332516
1769661553336102100,4.70910205078125,0.008500277064740658,0.01920378766953945,-0.015796273946762085
1769661553346090200,4.71909033203125,0.007110373582690954,0.02298228070139885,-0.020740699023008347
1769661553356078300,4.729078369140625,0.0065071675926446915,0.026822026818990707,-0.024387897923588753
1769661553366066200,4.739066162109375,0.0059809270314872265,0.026436667889356613,-0.03093501180410385
1769661553376054300,4.74905419921875,0.0037742317654192448,0.024536501616239548,-0.03436276689171791
1769661553386042400,4.75904248046875,0.006637396290898323,0.020681576803326607,-0.03345303237438202
1769661553396030500,4.769030517578125,0.005045358557254076,0.017299095168709755,-0.030170951038599014
1769661553406018300,4.779018310546875,0.0024045680183917284,0.025798840448260307,-0.025900838896632195
1769661553416006400,4.78900634765625,0.002484462922438979,0.022495456039905548,-0.027944816276431084
1769661553425994500,4.798994384765625,0.005047755315899849,0.02058809995651245,-0.030818365514278412
1769661553435982300,4.808982421875,0.0038067223504185677,0.021466942504048347,-0.026276877149939537
1769661553445970200,4.81897021484375,0.003677825443446636,0.025439312681555748,-0.023503461852669716
1769661553455958300,4.828958251953125,0.007511445786803961,0.023244868963956833,-0.023397201672196388
1769661553465946400,4.8389462890625,0.00917379092425108,0.020132698118686676,-0.023679230362176895
1769661553475934200,4.848934326171875,0.009729593060910702,0.01810896210372448,-0.022702915593981743
1769661553485922300,4.85892236328125,0.011090201325714588,0.016808008775115013,-0.018188856542110443
1769661553495910400,4.868910400390625,0.009064335376024246,0.020067984238266945,-0.015431420877575874
1769661553505898200,4.878898193359375,0.009265403263270855,0.020924722775816917,-0.013920342549681664
1769661553515886300,4.88888623046875,0.005764412228018045,0.017291106283664703,-0.011078217066824436
1769661553525874400,4.89887451171875,0.004703941289335489,0.011216435581445694,-0.011439342051744461
1769661553535861200,4.908861328125,0.002004827605560422,0.003757187630981207,-0.008271245285868645
1769661553545849300,4.918849365234375,-0.0023521038237959146,-0.0012189288390800357,-0.006506102625280619
1769661553555837400,4.92883740234375,-0.0036165728233754635,-0.0032149681355804205,-0.011654791422188282
1769661553565825300,4.9388251953125,-0.004979312419891357,-0.00765845226123929,-0.021797973662614822
1769661553575813400,4.9488134765625,-0.006807305850088596,-0.006067479960620403,-0.02540149725973606
1769661553585801500,4.958801513671875,-0.008106661960482597,0.005293032620102167,-0.02671150490641594
1769661553595789300,4.968789306640625,-0.009437177330255508,0.015691878274083138,-0.02581748180091381
1769661553605777200,4.978777099609375,-0.007517038378864527,0.01727326214313507,-0.02467072568833828
1769661553615765200,4.98876513671875,-0.00694845337420702,0.013368535786867142,-0.020446419715881348
1769661553625753300,4.99875341796875,-0.006962568499147892,0.010548247955739498,-0.01858486980199814
1769661553635741200,5.0087412109375,-0.01025689858943224,0.007438475266098976,-0.01702106185257435
1769661553645729300,5.018729248046875,-0.009909356012940407,-0.001970206620171666,-0.01877422071993351
1769661553655717400,5.02871728515625,-0.009953032247722149,-0.008959406055510044,-0.014494520612061024
1769661553665705200,5.038705322265625,-0.01221884973347187,-0.012166650965809822,-0.011869975365698338
1769661553675693300,5.048693359375,-0.012095279060304165,-0.0143547048792243,-0.006609965581446886
1769661553685681400,5.058681396484375,-0.009802296757698059,-0.016867930069565773,-0.003090864745900035
1769661553695669500,5.06866943359375,-0.009151420556008816,-0.015467639081180096,-0.0027297399938106537
1769661553705657300,5.0786572265625,-0.007684018462896347,-0.013147760182619095,0.0010365023044869304
1769661553715645400,5.0886455078125,-0.006313289515674114,-0.0065292720682919025,0.004303401801735163
1769661553725633300,5.09863330078125,-0.004738828632980585,0.0007619303651154041,0.007683219853788614
1769661553735621000,5.10862109375,-0.0017960357945412397,0.0070528495125472546,0.012228969484567642
1769661553745609200,5.118609130859375,-0.0015725966077297926,0.010779144242405891,0.014974954538047314
1769661553755597300,5.128597412109375,-0.001389371114782989,0.012428173795342445,0.01498214527964592
1769661553765585400,5.13858544921875,0.0007036071619950235,0.014070545323193073,0.012646553106606007
1769661553775573200,5.1485732421875,0.002115082461386919,0.014297712594270706,0.005976932588964701
1769661553785561300,5.158561279296875,0.00589650496840477,0.010218283161520958,0.0027475832030177116
1769661553795549400,5.168549560546875,0.006006493698805571,0.003728425595909357,-0.00020399813365656883
1769661553805537300,5.178537353515625,0.003768372815102339,-0.002043709857389331,-0.0003400856803636998
1769661553815525400,5.188525390625,0.0016053534345701337,-0.0037151097785681486,0.0014514228096231818
1769661553825513500,5.198513427734375,0.0026999127585440874,-0.008083758875727654,0.004664793144911528
1769661553835501300,5.208501220703125,0.00415319949388504,-0.0048978193663060665,0.0034112429711967707
1769661553845489200,5.2184892578125,0.004028297495096922,0.002186721656471491,0.002629871480166912
1769661553855477200,5.228477294921875,0.005727394018322229,0.01290408056229353,0.003022954100742936
1769661553865464300,5.23846435546875,0.006401440128684044,0.011965849436819553,0.004224838688969612
1769661553875452400,5.248452392578125,0.006365753710269928,0.005078115500509739,0.00412390474230051
1769661553885440500,5.2584404296875,0.00621075788512826,0.001564873498864472,0.0065508438274264336
1769661553895428400,5.268428466796875,0.0073745595291256905,-0.004490089602768421,0.010006029158830643
1769661553905416400,5.27841650390625,0.006394249852746725,-0.010456102900207043,0.010966364294290543
1769661553915404500,5.288404541015625,0.006825149059295654,-0.014536598697304726,0.011522965505719185
1769661553925392600,5.298392578125,0.007215568795800209,-0.013344567269086838,0.01299462839961052
1769661553935380500,5.30838037109375,0.00820839498192072,-0.008174573071300983,0.012447082437574863
1769661553945368600,5.31836865234375,0.006419016979634762,-0.004991030320525169,0.010896323248744011
1769661553955356700,5.328356689453125,0.007065366487950087,-0.00523604080080986,0.009983657859265804
1769661553965344500,5.338344482421875,0.008400408551096916,-0.004788629710674286,0.010839864611625671
1769661553975332600,5.34833251953125,0.0070496536791324615,-0.00413482403382659,0.011087805032730103
1769661553985320400,5.358320556640625,0.0044019389897584915,-0.008658736012876034,0.00759906368330121
1769661553995308500,5.36830859375,0.002984072081744671,-0.013314739800989628,0.000291616132017225
1769661554005296400,5.37829638671875,0.002369148191064596,-0.01715022511780262,-0.0032626385800540447
1769661554015284500,5.388284423828125,0.003632551757618785,-0.01398692186921835,-0.004311125259846449
1769661554025272600,5.3982724609375,0.0008572715451009572,-0.004387824330478907,-0.004478638060390949
1769661554035260400,5.408260498046875,0.0002878876985050738,0.00698014535009861,-0.007567638531327248
1769661554045248500,5.41824853515625,-0.0003968109958805144,0.010928814299404621,-0.008589759469032288
1769661554055236600,5.428236572265625,-0.0002103897277265787,0.009459814056754112,-0.00691942498087883
1769661554065224400,5.438224365234375,-0.0008982842555269599,0.009432117454707623,-0.005275988485664129
1769661554075212500,5.448212646484375,-0.002252235310152173,0.012060657143592834,-0.0034903388004750013
1769661554085200600,5.45820068359375,-0.0019054916920140386,0.007397462613880634,-0.006161755882203579
1769661554095188700,5.468188720703125,-0.0017044231062754989,-0.002049568807706237,-0.00714685907587409
1769661554105176600,5.478176513671875,-0.001802693703211844,-0.007056844420731068,-0.005076517816632986
1769661554115164400,5.488164306640625,-0.003516171593219042,-0.009547432884573936,-0.002284725895151496
1769661554125152500,5.498152587890625,-0.0030192257836461067,-0.009351157583296299,0.002689792774617672
1769661554135140400,5.508140380859375,0.0005467469454742968,-0.011206049472093582,0.0026053704787045717
1769661554145128400,5.51812841796875,0.0008042746339924634,-0.011011638678610325,0.0013401026371866465
1769661554155116500,5.528116455078125,0.00042557314736768603,-0.009074987843632698,0.0003563309437595308
1769661554165104600,5.538104736328125,-0.0005850964807905257,-0.006354834884405136,-0.0016490293201059103
1769661554175092500,5.548092529296875,-0.0022306637838482857,-0.003434146288782358,-0.0028964539524167776
1769661554185080600,5.55808056640625,-0.0013590110465884209,0.0010966897243633866,-0.004065847955644131
1769661554195068700,5.568068603515625,-0.0015672702575102448,0.005363073665648699,-0.004884503781795502
1769661554205055500,5.578055419921875,-0.00046685212873853743,0.001207743538543582,-0.005269596818834543
1769661554215043600,5.588043701171875,0.0012088088551536202,-0.00860201008617878,-0.004941495135426521
1769661554225031700,5.59803173828125,0.0011353056179359555,-0.014701714739203453,-0.000830107310321182
1769661554235019500,5.60801953125,0.0062301987782120705,-0.013799435459077358,0.00065460498444736
1769661554245007600,5.618007568359375,0.0032461269292980433,-0.008595085702836514,-0.003142263740301132
1769661554254995700,5.62799560546875,0.002082591876387596,-0.012646553106606007,-0.0015401060227304697
1769661554264983300,5.6379833984375,0.00013875069271307439,-0.012643889524042606,-0.0014090784825384617
1769661554274971400,5.647971435546875,0.0018245317041873932,-0.007256315089762211,0.0019001654582098126
1769661554284959500,5.65795947265625,0.0011795139871537685,-0.0032200280111283064,-0.002239984693005681
1769661554294947600,5.667947509765625,0.002523611532524228,-0.009162605740129948,-0.004962267819792032
1769661554304935400,5.677935302734375,0.0035116442013531923,-0.014627944678068161,-0.0028016455471515656
1769661554314923500,5.687923583984375,0.0020442423410713673,-0.013666809536516666,-0.00005752427750849165
1769661554324911600,5.69791162109375,0.0037638454232364893,-0.012558668851852417,0.003195260651409626
1769661554334899500,5.7078994140625,0.004259193316102028,-0.01022973470389843,0.00515827676281333
1769661554344887600,5.717887451171875,0.00439075380563736,-0.003340669209137559,0.0014303837670013309
1769661554354875600,5.727875732421875,0.0054395063780248165,-0.0025212145410478115,0.003881557146087289
1769661554364863700,5.73786376953125,0.005519401282072067,-0.002064482541754842,0.006401173770427704
1769661554374851600,5.7478515625,0.002853044541552663,-0.005964415613561869,0.006046174559742212
1769661554384839400,5.75783935546875,0.004177168011665344,-0.013293434865772724,-0.00007190534961409867
1769661554394827500,5.76782763671875,0.0043737092055380344,-0.014319817535579205,-0.004638161510229111
1769661554404815400,5.7778154296875,0.0041127195581793785,-0.011128284968435764,-0.003719104453921318
1769661554414803500,5.787803466796875,0.002049835165962577,-0.0057433731853961945,-0.004476507660001516
1769661554424791600,5.79779150390625,0.004351338837295771,-0.0033507891930639744,-0.00424188282340765
1769661554434779600,5.807779541015625,0.005048820748925209,-0.00022690132027491927,-0.0002814961189869791
1769661554444767500,5.817767578125,0.00583844818174839,0.0022983080707490444,0.0016354472609236836
1769661554454755600,5.827755615234375,0.0019827233627438545,-0.003314836649224162,0.00041012681322172284
1769661554464743700,5.83774365234375,-0.0002926813904196024,-0.013683588244020939,-0.0031246868893504143
1769661554474731500,5.8477314453125,-0.001449025934562087,-0.019391007721424103,-0.005028580781072378
1769661554484719600,5.8577197265625,-0.004061587154865265,-0.01829138956964016,-0.00788348913192749
1769661554494707700,5.867707763671875,-0.007678425870835781,-0.01949114352464676,-0.005750829819589853
1769661554504695300,5.8776953125,-0.007269364316016436,-0.024108532816171646,-0.005271194502711296
1769661554514683400,5.887683349609375,-0.006841394584625959,-0.02732749469578266,-0.002359560690820217
1769661554524671500,5.89767138671875,-0.007733819540590048,-0.025916552171111107,0.00021891183860134333
1769661554534659600,5.90765966796875,-0.007464307826012373,-0.02172154001891613,0.0034461303148418665
1769661554544646400,5.917646484375,-0.00974210910499096,-0.02057877741754055,0.005516471806913614
1769661554554634500,5.927634521484375,-0.00926487147808075,-0.015986423939466476,0.0073045180179178715
1769661554564622600,5.93762255859375,-0.009440906345844269,-0.010119745507836342,0.006615025922656059
1769661554574610400,5.9476103515625,-0.00700810831040144,-0.004757204558700323,0.003466370515525341
1769661554584598500,5.9575986328125,-0.007388407830148935,0.0009350358741357923,0.0024943165481090546
1769661554594586600,5.967586669921875,-0.006491455249488354,0.004804608877748251,0.0015824503498151898
1769661554604574500,5.977574462890625,-0.0073047843761742115,0.005540440324693918,0.001791242160834372
1769661554614562600,5.9875625,-0.005982525181025267,0.004523112904280424,0.004126567859202623
1769661554624550700,5.997550537109375,-0.003468767274171114,0.0003539340978022665,0.007115167565643787
1769661554634538500,6.00753857421875,-0.0025012409314513206,-0.009169263765215874,0.0086616650223732
1769661554644526600,6.017526611328125,-0.004726844374090433,-0.021980132907629013,0.007604124024510384
1769661554654514400,6.027514404296875,-0.005318598821759224,-0.030710509046912193,0.006883738562464714
1769661554664502500,6.03750244140625,-0.005560946650803089,-0.027274763211607933,0.003172357566654682
1769661554674490400,6.047490478515625,-0.00364746549166739,-0.022344985976815224,0.0027483822777867317
1769661554684478500,6.057478515625,-0.0016386429779231548,-0.011348261497914791,0.000824248360004276
1769661554694466600,6.067466552734375,-0.003772101365029812,-0.0004900216590613127,0.004764928016811609
1769661554704454400,6.077454345703125,-0.0035843485966324806,0.0023752732668071985,0.007398527581244707
1769661554714442500,6.0874423828125,-0.004797152243554592,-0.004412591457366943,0.011419367976486683
1769661554724430600,6.0974306640625,-0.006789196282625198,-0.013894244097173214,0.010063553228974342
1769661554734418700,6.107418701171875,-0.008192416280508041,-0.01985599659383297,0.011390605941414833
1769661554744406500,6.117406494140625,-0.009429721161723137,-0.024145549163222313,0.011175156570971012
1769661554754394600,6.12739453125,-0.009412942454218864,-0.02347416616976261,0.011010573245584965
1769661554764382700,6.1373828125,-0.011753861792385578,-0.01942482963204384,0.006610231939703226
1769661554774370300,6.147370361328125,-0.010667824186384678,-0.014082529582083225,0.004023237619549036
1769661554784358400,6.1573583984375,-0.011715511791408062,-0.005862416233867407,0.0027110979426652193
1769661554794346500,6.167346435546875,-0.009561280719935894,0.0028551749419420958,0.0017648768844082952
1769661554804334600,6.17733447265625,-0.0062757390551269054,0.004573712591081858,0.0022889869287610054
1769661554814322400,6.187322509765625,-0.0035947347059845924,0.0021342572290450335,0.0019156117923557758
1769661554824310500,6.197310546875,-0.0035081820096820593,-0.004964132327586412,0.0012708604335784912
1769661554834298600,6.207298583984375,-0.0046541402116417885,-0.00794474221765995,0.00017097493400797248
1769661554844286500,6.217286376953125,-0.003917776048183441,-0.006583068054169416,-0.0008847020799294114
1769661554854274600,6.227274658203125,-0.00387303507886827,-0.004954811185598373,-0.0017963021527975798
1769661554864262700,6.2372626953125,-0.00307675008662045,-0.0017449031583964825,0.0023513049818575382
1769661554874250200,6.247250244140625,-0.0024823325220495462,0.0006141249323263764,-0.0027238810434937477
1769661554884238300,6.25723828125,-0.003486610483378172,-0.0007922904333099723,-0.0032890038564801216
1769661554894226200,6.26722607421875,-0.0027329358272254467,-0.002255164785310626,-0.005929794628173113
1769661554904213200,6.277213134765625,-0.00213638786226511,-0.003754790872335434,-0.003279150230810046
1769661554914201300,6.287201416015625,-0.0022418489679694176,-0.002656236756592989,-0.0031350732315331697
1769661554924189200,6.297189208984375,-0.0008367652189917862,-0.0024546354543417692,-0.0002924150903709233
1769661554934177300,6.30717724609375,0.0012311793398112059,-0.0041007352992892265,-0.002338788006454706
1769661554944165000,6.3171650390625,0.002858903491869569,-0.006564692128449678,-0.00398568669334054
1769661554954153000,6.327153076171875,0.003117230022326112,-0.0026911243330687284,-0.0018602180061861873
1769661554964141000,6.33714111328125,0.003355849301442504,-0.0034469293896108866,-0.0034445326309651136
1769661554974129200,6.347129150390625,0.007619836367666721,-0.0007217166712507606,-0.007831291295588017
1769661554984117200,6.3571171875,0.007613711059093475,0.0023901870008558035,-0.010926417075097561
1769661554994105000,6.36710498046875,0.005658418405801058,0.0031441280152648687,-0.010191651061177254
1769661555004093200,6.37709326171875,0.006369215901941061,0.0025326660834252834,-0.008745022118091583
1769661555014081300,6.387081298828125,0.004757737275213003,0.002296443795785308,-0.007248325273394585
1769661555024069000,6.397069091796875,0.0010697918478399515,0.002026399364694953,-0.01016928069293499
1769661555034057200,6.40705712890625,0.0008660599705763161,0.002320412313565612,-0.009279518388211727
1769661555044045300,6.41704541015625,0.0019014970166608691,0.0013781858142465353,-0.007272826507687569
1769661555054033200,6.427033203125,0.000014647385796706658,0.00013928332191426307,-0.007522364612668753
1769661555064021000,6.43702099609375,-0.000945954816415906,0.0015952334506437182,-0.008376440964639187
1769661555074009000,6.447009033203125,0.0003400856803636998,0.006898385938256979,-0.007573231123387814
1769661555083997200,6.4569970703125,-0.00047697214176878333,0.007337274961173534,-0.007068828213959932
1769661555093985000,6.466985107421875,0.0001448759576305747,0.00580648984760046,-0.0068144965916872025
1769661555103973000,6.47697314453125,-0.003216566052287817,0.004824582487344742,-0.007181480061262846
1769661555113961200,6.486961181640625,-0.006139651406556368,0.0019646140281111,-0.008716526441276073
1769661555123949000,6.496948974609375,-0.002650644164532423,-0.00538491178303957,-0.009649697691202164
1769661555133937200,6.506937255859375,-0.002454369328916073,-0.011933358386158943,-0.008673382923007011
1769661555143925200,6.51692529296875,-0.0005403553950600326,-0.015923039987683296,-0.005530320107936859
1769661555153913300,6.526913330078125,-0.00038482676609419286,-0.021646706387400627,-0.0010404969798400998
1769661555163901200,6.536901123046875,0.0025063008069992065,-0.024871528148651123,-0.00024314661277458072
1769661555173889300,6.54688916015625,0.001752360025420785,-0.02606302499771118,-0.0002788329729810357
1769661555183877000,6.556877197265625,0.0032442628871649504,-0.024270718917250633,0.00019893812714144588
1769661555193865000,6.566864990234375,0.0018996327416971326,-0.0199782345443964,0.0013968279818072915
1769661555203853000,6.57685302734375,-0.0001584580895723775,-0.016528643667697906,0.004050401505082846
1769661555213841200,6.586841064453125,-0.0017832526937127113,-0.013438576832413673,0.0054693338461220264
1769661555223829200,6.596829345703125,0.00006444849714171141,-0.011621235869824886,0.008404137566685677
1769661555233816000,6.606816162109375,-0.00045034053619019687,-0.018212027847766876,0.01022653840482235
1769661555243804200,6.61680419921875,-0.002457298804074526,-0.026019349694252014,0.014075072482228279
1769661555253792000,6.6267919921875,-0.003878627670928836,-0.03075072169303894,0.011700598523020744
1769661555263780000,6.636780029296875,-0.003984888084232807,-0.02418682910501957,0.006951382849365473
1769661555273768200,6.646768310546875,-0.0037974014412611723,-0.014575746841728687,0.005607818253338337
1769661555283756300,6.65675634765625,-0.002877012826502323,0.0006133259739726782,-0.0012740562669932842
1769661555293744000,6.666744140625,-0.003721767570823431,0.012011122889816761,-0.0012650014832615852
1769661555303732200,6.676732177734375,-0.00009667274571256712,0.01426202617585659,-0.002770486520603299
1769661555313720300,6.68672021484375,-0.0009835053933784366,0.010552243329584599,0.0008799084462225437
1769661555323708200,6.696708251953125,-0.002329200739040971,-0.0018112158868461847,-0.0004620584368240088
1769661555333696000,6.706696044921875,-0.001990180229768157,-0.014341921545565128,-0.002344646956771612
1769661555343684000,6.71668408203125,-0.004288754425942898,-0.02117079868912697,-0.007044593803584576
1769661555353672200,6.726672119140625,-0.005363340023905039,-0.020562533289194107,-0.008481369353830814
1769661555363660000,6.736659912109375,-0.00538571085780859,-0.021443506702780724,-0.0065380604937672615
1769661555373648100,6.746648193359375,-0.0033872744534164667,-0.028326179832220078,-0.0029023129027336836
1769661555383636200,6.75663623046875,-0.0019837887957692146,-0.030915038660168648,0.004605670925229788
1769661555393624000,6.7666240234375,-0.003230414353311062,-0.027522170916199684,0.007812915369868279
1769661555403612200,6.776612060546875,-0.00040613205055706203,-0.031156055629253387,0.010193249210715294
1769661555413600300,6.786600341796875,0.0015278555219992995,-0.04043211042881012,0.010307498276233673
1769661555423588000,6.796588134765625,0.004889830015599728,-0.04404681921005249,0.010126669891178608
1769661555433576200,6.806576171875,0.004325772635638714,-0.05667473003268242,0.009798302315175533
1769661555443564300,6.816564208984375,0.004310858901590109,-0.05043094977736473,0.006135124247521162
1769661555453552000,6.82655224609375,0.007443002425134182,-0.03350735828280449,0.002418949268758297
1769661555463540000,6.8365400390625,0.003979029133915901,-0.024693096056580544,-0.007398261222988367
1769661555473528000,6.846528076171875,0.007506652269512415,-0.012004198506474495,-0.009167132899165154
1769661555483516200,6.85651611328125,0.008243548683822155,0.0021944446489214897,-0.005690109916031361
1769661555493504000,6.86650390625,0.011225489899516106,0.010460363700985909,-0.00148151651956141
1769661555503492000,6.8764921875,0.012250540778040886,0.010031861253082752,0.0015150723047554493
1769661555513480200,6.886480224609375,0.01062281709164381,0.004255997482687235,-0.0007395598222501576
1769661555523468300,6.89646826171875,0.008628642186522484,-0.006639793049544096,-0.00768854608759284
1769661555533456100,6.9064560546875,0.006866960786283016,-0.017949705943465233,-0.011540542356669903
1769661555543444200,6.9164443359375,0.008488559164106846,-0.02726064994931221,-0.015850069001317024
1769661555553432300,6.926432373046875,0.00717721926048398,-0.027355458587408066,-0.015585617162287235
1769661555563420200,6.936420166015625,0.00626029260456562,-0.02353302203118801,-0.01104492787271738
1769661555573408000,6.946407958984375,0.008449144661426544,-0.021877335384488106,-0.005901831202208996
1769661555583396000,6.95639599609375,0.012321380898356438,-0.019463445991277695,-0.0019632822368294
1769661555593383200,6.966383056640625,0.014583203941583633,-0.014250840991735458,0.0020066918805241585
1769661555603371300,6.976371337890625,0.016859140247106552,-0.00029827404068782926,0.0044195158407092094
1769661555613359000,6.986359130859375,0.021454958245158195,0.004804875236004591,0.005691441707313061
1769661555623347000,6.996346923828125,0.019817646592855453,0.014190919697284698,0.00538384635001421
1769661555633335000,7.0063349609375,0.02056732587516308,0.026895796880126,0.004804875236004591
1769661555643323100,7.0163232421875,0.021279988810420036,0.029804501682519913,-0.0016700683627277613
1769661555653311200,7.026311279296875,0.020141221582889557,0.02726810611784458,-0.007416370790451765
1769661555663299000,7.036299072265625,0.02069542557001114,0.02305232174694538,-0.005833920557051897
1769661555673287200,7.046287109375,0.016763001680374146,0.021281054243445396,-0.0027286747936159372
1769661555683275300,7.056275146484375,0.01581571437418461,0.017040768638253212,0.0009528790251351893
1769661555693263000,7.06626318359375,0.013574930839240551,0.010786867700517178,0.005983323790132999
1769661555703251200,7.076251220703125,0.011364773847162724,0.004827245604246855,0.008312790654599667
1769661555713239300,7.0862392578125,0.009346896782517433,0.002657302189618349,0.005120193585753441
1769661555723227100,7.09622705078125,0.006376939360052347,0.00577746145427227,0.004219512455165386
1769661555733215000,7.106215087890625,0.007020092569291592,0.013922207057476044,0.0004966795677319169
1769661555743203000,7.116203125,0.006041114684194326,0.022166820243000984,0.0002657834847923368
1769661555753191200,7.126191162109375,0.005401689559221268,0.02437564730644226,0.000651675509288907
1769661555763179000,7.136178955078125,0.007245129905641079,0.023677632212638855,-0.00045619948650710285
1769661555773167000,7.1461669921875,0.008340221829712391,0.022973226383328438,0.0014950985787436366
1769661555783155200,7.1561552734375,0.008078432641923428,0.023687219247221947,0.002373675350099802
1769661555793143000,7.16614306640625,0.008924785070121288,0.021829398348927498,0.0026961842086166143
1769661555803131100,7.176131103515625,0.006607302464544773,0.02226695604622364,0.001466336427256465
1769661555813119200,7.186119140625,0.005045358557254076,0.024441692978143692,0.0008106662426143885
1769661555823107300,7.196107421875,0.004853078629821539,0.024602282792329788,0.001415736391209066
1769661555833095200,7.20609521484375,0.0044259075075387955,0.02315778285264969,0.0008868326549418271
1769661555843083300,7.216083251953125,0.003710582386702299,0.012824985198676586,0.00016484966909047216
1769661555853071000,7.226071044921875,0.006171077024191618,0.0028602350503206253,-0.004324973560869694
1769661555863059000,7.236058837890625,0.0054879761300981045,-0.006386792752891779,-0.002980343531817198
1769661555873046500,7.246046630859375,0.0052296495996415615,-0.013843377120792866,-0.003352653468027711
1769661555883034600,7.25603466796875,0.004797152243554592,-0.018692461773753166,-0.0026905916165560484
1769661555893022500,7.2660224609375,0.0046791741624474525,-0.018979283049702644,-0.0031585090328007936
1769661555903010600,7.276010498046875,0.004854676313698292,-0.01569587178528309,-0.005708752200007439
1769661555912998700,7.28599853515625,0.005192098673433065,-0.0062823970802128315,-0.008889631368219852
1769661555922986800,7.29598681640625,0.007164169568568468,0.0006138586322776973,-0.005932990461587906
1769661555932974600,7.305974609375,0.007330351043492556,0.002691923175007105,-0.007758320774883032
1769661555942961700,7.315961669921875,0.010949320159852505,0.001621332485228777,-0.00490208063274622
1769661555952949800,7.32594970703125,0.012458800338208675,-0.0012450277572497725,-0.0026351979468017817
1769661555962937600,7.3359375,0.012121910229325294,-0.0031531827989965677,0.000330231967382133
1769661555972925700,7.34592578125,0.012144014239311218,-0.005486644338816404,0.002406698651611805
1769661555982913800,7.355913818359375,0.01284415926784277,-0.007308512926101685,0.0027686222456395626
1769661555992901600,7.365901611328125,0.010306433774530888,-0.005873335525393486,0.0032839439809322357
1769661556002889700,7.3758896484375,0.011919243261218071,-0.0009970874525606632,0.006460828706622124
1769661556012877800,7.3858779296875,0.012431901879608631,0.004562261048704386,0.00493217445909977
1769661556022865400,7.395865478515625,0.013198359869420528,0.00808908510953188,0.005263205152004957
1769661556032853500,7.405853515625,0.013128318823873997,0.006454969756305218,0.005100752227008343
1769661556042841600,7.415841552734375,0.013467605225741863,0.0027683558873832226,0.004114051349461079
1769661556052829700,7.42582958984375,0.014242585748434067,0.0011970909545198083,0.0009411611245013773
1769661556062817500,7.435817626953125,0.015490010380744934,0.0018612833227962255,-0.00569916469976306
1769661556072805600,7.4458056640625,0.012677446007728577,0.002926813904196024,-0.006268548313528299
1769661556082793700,7.455793701171875,0.00777722941711545,0.0008018778171390295,-0.0023574302904307842
1769661556092781600,7.465781494140625,0.008349808864295483,-0.002124403603374958,-0.006659500766545534
1769661556102769700,7.475769775390625,0.010296313092112541,-0.004096474498510361,-0.010837201029062271
1769661556112757800,7.4857578125,0.009814281016588211,0.0035153725184500217,-0.010388725437223911
1769661556122745900,7.495745849609375,0.006943127140402794,0.016702014952898026,-0.007734352257102728
1769661556132733700,7.505733642578125,0.006042978726327419,0.019514579325914383,-0.008046741597354412
1769661556142721500,7.515721435546875,0.0062549663707613945,0.01631479151546955,-0.009051285684108734
1769661556152709600,7.525709716796875,0.007794806268066168,0.01543461624532938,-0.00833755824714899
1769661556162697500,7.535697509765625,0.006048304960131645,0.014987205155193806,-0.008673915639519691
1769661556172685600,7.545685546875,0.005137770436704159,0.00974184274673462,-0.011832424439489841
1769661556182673700,7.555673583984375,0.003463707398623228,0.004168912302702665,-0.013889983296394348
1769661556192661800,7.565661865234375,0.0015270565636456013,-0.000180029688635841,-0.019030949100852013
1769661556202649600,7.575649658203125,0.0032290827948600054,-0.0037470676470547915,-0.022834742441773415
1769661556212637700,7.5856376953125,0.0024405207950621843,-0.008423312567174435,-0.019351061433553696
1769661556222625800,7.595625732421875,-0.0010186590952798724,-0.01636832021176815,-0.016057796776294708
1769661556232613600,7.605613525390625,0.0012892362428829074,-0.020892232656478882,-0.010904313065111637
1769661556242601700,7.615601806640625,-0.0007893609581515193,-0.020952686667442322,-0.01104732509702444
1769661556252589800,7.62558984375,-0.0034911378752440214,-0.020447485148906708,-0.011590342968702316
1769661556262577400,7.635577392578125,-0.0006295712664723396,-0.014664962887763977,-0.011671303771436214
1769661556272565500,7.6455654296875,-0.0019795275293290615,-0.005772667936980724,-0.013965616934001446
1769661556282553600,7.6555537109375,0.001253017340786755,0.0006876281695440412,-0.010625479742884636
1769661556292541700,7.665541748046875,0.002129463478922844,0.007958590984344482,-0.010248376056551933
1769661556302529500,7.675529541015625,0.0041276332922279835,0.014790929853916168,-0.011372230015695095
1769661556312516600,7.6855166015625,0.002621083054691553,0.02137026935815811,-0.013129650615155697
1769661556322504700,7.695504638671875,0.00321922916918993,0.029134182259440422,-0.015421566553413868
1769661556332492500,7.705492431640625,0.0017813884187489748,0.03133182227611542,-0.017737451940774918
1769661556342480600,7.715480712890625,0.0035172367934137583,0.02737702988088131,-0.014638064429163933
1769661556352468700,7.72546875,-0.00007590009045088664,0.021864019334316254,-0.011904862709343433
1769661556362456600,7.73545654296875,-0.0005850964807905257,0.013620737008750439,-0.011089934967458248
1769661556372444700,7.745444580078125,0.00016431703988928348,0.00392762990668416,-0.010841462761163712
1769661556382432800,7.755432861328125,0.00019867181254085153,-0.003603257006034255,-0.010759437456727028
1769661556392420900,7.7654208984375,-0.0006149238906800747,-0.0015129417879506946,-0.010880344547331333
1769661556402408700,7.77540869140625,-0.00010040117194876075,0.003891411004588008,-0.00848802737891674
1769661556412396500,7.785396484375,-0.0024165522772818804,0.009030246175825596,-0.010192982852458954
1769661556422384600,7.795384521484375,-0.00044314999831840396,0.013914483599364758,-0.013227920979261398
1769661556432372500,7.80537255859375,-0.00061279337387532,0.01696034148335457,-0.01798858866095543
1769661556442360600,7.815360595703125,0.0005840312223881483,0.021030982956290245,-0.018624285236001015
1769661556452348700,7.8253486328125,-0.0001917476038215682,0.026137061417102814,-0.01786634884774685
1769661556462336500,7.83533642578125,-0.0012538161827251315,0.024702949449419975,-0.014844193123281002
1769661556472324600,7.84532470703125,-0.0023209447972476482,0.023253124207258224,-0.012958675622940063
1769661556482312700,7.855312744140625,-0.0027214842848479748,0.015381885692477226,-0.012071044184267521
1769661556492300800,7.86530078125,-0.0014138722326606512,0.012518455274403095,-0.010549047030508518
1769661556502288600,7.87528857421875,-0.0017422399250790477,0.014670555479824543,-0.012783173471689224
1769661556512276700,7.88527685546875,-0.0017230651574209332,0.014900386333465576,-0.009592439979314804
1769661556522264800,7.895264892578125,-0.0006197175825946033,0.017354754731059074,-0.00800519622862339
1769661556532252700,7.905252685546875,-0.00023382554354611784,0.01878354139626026,-0.00954050850123167
1769661556542240500,7.915240478515625,-0.0004926847759634256,0.022313028573989868,-0.01357306633144617
1769661556552228600,7.925228515625,0.0005121259018778801,0.023611053824424744,-0.015535017475485802
1769661556562216700,7.935216796875,-0.000054861116950633004,0.023391874507069588,-0.014650048688054085
1769661556572204500,7.94520458984375,-0.0006050702068023384,0.01696699857711792,-0.013575197197496891
1769661556582192600,7.955192626953125,0.0006239786162041128,0.011522166430950165,-0.010300042107701302
1769661556592180700,7.9651806640625,0.0005941512063145638,0.003631486324593425,-0.007533283904194832
1769661556602168600,7.97516845703125,0.001023452845402062,0.0008426241693086922,-0.004458131734281778
1769661556612156700,7.98515673828125,-0.0008064051507972181,-0.0010066748363897204,-0.002935868687927723
1769661556622144800,7.995144775390625,0.0004894890007562935,-0.0046213832683861256,-0.002198972040787339
1769661556632132900,8.0051328125,0.0008964200387708843,-0.007817708887159824,-0.002246376359835267
1769661556642120700,8.01512060546875,0.0013973605819046497,-0.008262190967798233,-0.0024027039762586355
1769661556652108500,8.025108642578125,0.0020764668006449938,-0.0025473134592175484,-0.0013278521364554763
1769661556662096600,8.0350966796875,0.0019795275293290615,0.004589425399899483,0.0004628573951777071
1769661556672084500,8.04508447265625,0.00044341632747091353,0.014976819045841694,0.0029465213883668184
1769661556682071800,8.05507177734375,0.003062102710828185,0.023297065868973732,0.004733236040920019
1769661556692059600,8.0650595703125,0.005928196478635073,0.02918425016105175,0.008099472150206566
1769661556702047500,8.075047607421874,0.004534830804914236,0.03009052388370037,0.007542338687926531
1769661556712035600,8.08503564453125,0.005817675497382879,0.02623346820473671,0.009410279802978039
1769661556722023700,8.095023681640624,0.00603498937562108,0.025436384603381157,0.010743724182248116
1769661556732011500,8.105011474609375,0.0028309402987360954,0.0241391584277153,0.007759119849652052
1769661556741999600,8.11499951171875,0.0024495755787938833,0.018755577504634857,0.007537811063230038
1769661556751987700,8.12498779296875,-0.0019177423091605306,0.013514743186533451,0.006188121158629656
1769661556761975800,8.134975830078124,-0.0014056164072826505,0.007093862164765596,0.004204598721116781
1769661556771963600,8.144963623046875,-0.0012767193838953972,0.002168345730751753,-0.00008974852971732616
1769661556781951700,8.15495166015625,-0.0032890038564801216,-0.0035779569298028946,-0.0004090615548193455
1769661556791939800,8.16493994140625,-0.0035577169619500637,-0.004347610287368298,-0.00029348034877330065
1769661556801927700,8.174927734375,-0.002770486520603299,-0.0051598744466900826,-0.0007896272582001984
1769661556811915500,8.18491552734375,-0.004066647030413151,-0.010616691783070564,-0.0041310954838991165
1769661556821903600,8.194903564453124,-0.005614209920167923,-0.015896407887339592,-0.00956793874502182
1769661556831891500,8.204891357421875,-0.006385461427271366,-0.017916416749358177,-0.013425261713564396
1769661556841879600,8.214879638671874,-0.007435013074427843,-0.014358432963490486,-0.015024489723145962
1769661556851867600,8.22486767578125,-0.008146343752741814,-0.013336844742298126,-0.014946458861231804
1769661556861855700,8.234855712890624,-0.007951666601002216,-0.009661948308348656,-0.015742743387818336
1769661556871844900,8.244844970703125,-0.0070581757463514805,-0.004594219382852316,-0.016083627939224243
1769661556881833000,8.2548330078125,-0.005546831991523504,0.0039020637050271034,-0.01588122919201851
1769661556891820500,8.264820556640625,-0.0037987329997122288,0.010018013417720795,-0.01683623716235161
1769661556901808600,8.27480859375,-0.004230697639286518,0.010246512480080128,-0.016475113108754158
1769661556911796700,8.284796630859375,-0.005203550215810537,0.009505354799330235,-0.016942230984568596
1769661556921784800,8.294784912109375,-0.005856025032699108,0.0064714811742305756,-0.020781178027391434
1769661556931772700,8.304772705078125,-0.004095675423741341,0.001204547705128789,-0.022432871162891388
1769661556941760800,8.3147607421875,-0.004160656593739986,0.0018698053900152445,-0.021312478929758072
1769661556951748900,8.324748779296876,-0.0033577135764062405,-0.004247475415468216,-0.025015870109200478
1769661556961736700,8.33473681640625,-0.004701810888946056,-0.011027351021766663,-0.021814484149217606
1769661556971724800,8.344724853515626,-0.005652293097227812,-0.01842108555138111,-0.018860772252082825
1769661556981713000,8.354712890625,-0.004854942671954632,-0.016532104462385178,-0.014192517846822739
1769661556991701000,8.364700927734376,-0.00899828877300024,-0.015331818722188473,-0.008796154521405697
1769661557001688800,8.374688720703125,-0.00890800729393959,-0.019350795075297356,-0.008923454210162163
1769661557011676700,8.3846767578125,-0.00911786500364542,-0.02515302412211895,-0.01107235811650753
1769661557021664800,8.394664794921875,-0.010521084070205688,-0.021687451750040054,-0.01155918464064598
1769661557031652600,8.404652587890626,-0.009183111600577831,-0.016273777931928635,-0.013860688544809818
1769661557041640700,8.414640625,-0.012325641699135303,-0.015303854830563068,-0.01330009289085865
1769661557051627800,8.424627685546875,-0.008163654245436192,-0.016100140288472176,-0.012193283066153526
1769661557061615600,8.43461572265625,-0.005758286919444799,-0.016469255089759827,-0.010335728526115417
1769661557071603700,8.444603759765625,-0.005742041394114494,-0.012740296311676502,-0.012661466374993324
1769661557081591800,8.454591796875,-0.006572415120899677,-0.012439358979463577,-0.011217767372727394
1769661557091579600,8.46457958984375,-0.006419816054403782,-0.010584999807178974,-0.006450708955526352
1769661557101567700,8.474567626953124,-0.007571633439511061,-0.002671949565410614,-0.007505320478230715
1769661557111555800,8.484555908203125,-0.0054573495872318745,-0.0001483380765421316,-0.005674663465470076
1769661557121544000,8.4945439453125,-0.0034615767654031515,0.0003683151735458523,-0.006473345682024956
1769661557131531800,8.50453173828125,-0.0018666095566004515,-0.000874582096002996,-0.004064250271767378
1769661557141520000,8.514519775390625,-0.0014532869681715965,-0.0012860405258834362,-0.0032234902027994394
1769661557151508000,8.524508056640625,0.00101146858651191,0.00239151855930686,0.001431182725355029
1769661557161495800,8.534495849609375,0.0008042746339924634,-0.0010599381057545543,0.0015840481501072645
1769661557171483600,8.544483642578125,0.0010809770319610834,-0.010696586221456528,-0.0016365124611184
1769661557181471700,8.5544716796875,-0.0002719087351579219,-0.02249891683459282,-0.005863481666892767
1769661557191459800,8.5644599609375,-0.0011598066193982959,-0.03152064234018326,-0.004798483569175005
1769661557201447700,8.57444775390625,-0.0023182816803455353,-0.034557975828647614,-0.0028671592008322477
1769661557211435800,8.584435791015625,-0.001999235013499856,-0.03561578318476677,0.002945722546428442
1769661557221423900,8.594423828125,-0.00002450108149787411,-0.03175713121891022,0.007784153334796429
1769661557231411700,8.60441162109375,-0.003209375310689211,-0.024873126298189163,0.008567389100790024
1769661557241399800,8.61439990234375,-0.001924666459672153,-0.014220214448869228,0.00971627701073885
1769661557251388000,8.624387939453126,-0.0006796387024223804,-0.0073194317519664764,0.006638195365667343
1769661557261375700,8.634375732421875,0.0005379585199989378,0.00221947836689651,0.0055215316824615
1769661557271363800,8.64436376953125,-0.00054142065346241,0.00851652305573225,0.006988933775573969
1769661557281351700,8.6543515625,0.001847701147198677,0.010105364955961704,0.003805390791967511
1769661557291339800,8.66433984375,0.0030360035598278046,0.009260343387722969,0.001773132593370974
1769661557301327600,8.67432763671875,0.0015686018159613013,0.008889098651707172,-0.001091629732400179
1769661557311315700,8.684315673828126,0.0010719223646447062,0.004920190200209618,-0.0025217472575604916
1769661557321303800,8.6943037109375,0.0005976133397780359,0.0004572647449094802,-0.0029707562644034624
1769661557331291600,8.704291748046876,-0.0022977753542363644,-0.005284510552883148,-0.002496180823072791
1769661557341279700,8.71427978515625,-0.0046578687615692616,-0.012289423495531082,-0.0008354336023330688
1769661557351267800,8.724267822265626,-0.0029111013282090425,-0.01991858147084713,0.001615207176655531
1769661557361256000,8.734255859375,-0.004689560271799564,-0.02816452644765377,0.0037920749746263027
1769661557371243800,8.744243896484376,-0.004588626325130463,-0.028294222429394722,0.003334543900564313
1769661557381231900,8.75423193359375,-0.004993959795683622,-0.02882365882396698,-0.0019390475936233997
1769661557391220000,8.764219970703126,-0.003367300843819976,-0.027234017848968506,-0.004020308144390583
1769661557401207800,8.774207763671875,-0.0028549085836857557,-0.021985992789268494,-0.003983822651207447
1769661557411195000,8.78419482421875,-0.000838895735796541,-0.01459039468318224,-0.007562578655779362
1769661557421183700,8.794183837890625,0.0004996090428903699,-0.006397712044417858,-0.00580915343016386
1769661557431170800,8.8041708984375,0.0015081481542438269,-0.0008641957538202405,-0.0044115264900028706
1769661557441158700,8.81415869140625,-0.0005334311863407493,0.0025885924696922302,-0.003433347214013338
1769661557451146800,8.824146728515625,-0.0004524710529949516,0.005089034326374531,-0.00004474110755836591
1769661557461134600,8.834134521484375,-0.0015664712991565466,0.005599029827862978,-0.000604004948399961
1769661557471122700,8.844122802734375,-0.000483363721286878,0.0027499801944941282,-0.000985103310085833
1769661557481110800,8.85411083984375,-0.00030866035376675427,-0.0030091057997196913,-0.0020988371688872576
1769661557491099000,8.864098876953125,-0.0017262609908357263,-0.011332549154758453,-0.0018351842882111669
1769661557501086700,8.874086669921875,-0.005262938793748617,-0.015061507001519203,-0.0027230822015553713
1769661557511074800,8.88407470703125,-0.0031222901307046413,-0.017073258757591248,-0.003876763628795743
1769661557521063000,8.89406298828125,-0.005760150961577892,-0.0160071961581707,-0.004114051349461079
1769661557531050800,8.90405078125,-0.00663473317399621,-0.013581056147813797,-0.005567338317632675
1769661557541038800,8.914038818359375,-0.004551608581095934,-0.007583351340144873,-0.008215053007006645
1769661557551027000,8.92402685546875,-0.0041191112250089645,-0.002389388158917427,-0.006967894732952118
1769661557561014800,8.934014892578125,-0.0037771612405776978,-0.0004673847579397261,-0.007386809680610895
1769661557571002600,8.944002685546875,-0.003973436541855335,-0.0018777948571369052,-0.005645368713885546
1769661557580990700,8.95399072265625,-0.004101268015801907,-0.005119394510984421,-0.006846188101917505
1769661557590978800,8.963978759765626,-0.0025600967928767204,-0.006068544927984476,-0.008259261026978493
1769661557600966700,8.973966552734375,-0.0028360001742839813,-0.0075426045805215836,-0.00933091714978218
1769661557610954800,8.983954833984376,-0.0028674255590885878,-0.012166917324066162,-0.008552742190659046
1769661557620942800,8.99394287109375,-0.004117513541132212,-0.01296400185674429,-0.010280867107212543
1769661557630930700,9.0039306640625,-0.004315652418881655,-0.010097641497850418,-0.010439591482281685
1769661557640918800,9.013918701171875,-0.0059870523400604725,-0.009341835975646973,-0.010761567391455173
1769661557650907000,9.023906982421876,-0.006225138902664185,-0.00902864895761013,-0.011402590200304985
1769661557660895000,9.03389501953125,-0.00678307143971324,-0.010873686522245407,-0.013380786404013634
1769661557670882800,9.0438828125,-0.006713562645018101,-0.013370400294661522,-0.013029249384999275
1769661557680870700,9.05387060546875,-0.007407848723232746,-0.015076953917741776,-0.012650547549128532
1769661557690858800,9.063858642578126,-0.007309312000870705,-0.01673716865479946,-0.014649515971541405
1769661557700846600,9.0738466796875,-0.008971123956143856,-0.016329172998666763,-0.013221795670688152
1769661557710834700,9.083834716796876,-0.008826248347759247,-0.015082013793289661,-0.01392726693302393
1769661557720822800,9.09382275390625,-0.006176136899739504,-0.012179967015981674,-0.012576512061059475
1769661557730811000,9.103810791015626,-0.007256048731505871,-0.010096043348312378,-0.012624715454876423
1769661557740798700,9.113798828125,-0.0051963599398732185,-0.011386877857148647,-0.011268100701272488
1769661557750786800,9.123786865234376,-0.004608067683875561,-0.012320315465331078,-0.008473645895719528
1769661557760775000,9.13377490234375,-0.005314338020980358,-0.012019378133118153,-0.005080245900899172
1769661557770762800,9.1437626953125,-0.004279966000467539,-0.011318966746330261,-0.0033755565527826548
1769661557780750800,9.153750732421875,-0.0028069717809557915,-0.0038482677191495895,-0.0036575854755938053
1769661557790739000,9.163739013671876,-0.0019294602097943425,-0.004049070179462433,-0.001190166687592864
1769661557800725800,9.173725830078125,-0.0029047098942101,-0.004391286056488752,-0.001734516816213727
1769661557810713900,9.1837138671875,-0.0008143946761265397,-0.005410211626440287,-0.0035292210523039103
1769661557820702000,9.193701904296875,0.00038695731200277805,-0.003841343568637967,-0.007960987277328968
1769661557830689800,9.203689697265625,-0.00017257283616345376,0.0052235242910683155,-0.007290669716894627
1769661557840677600,9.213677734375,-0.00222001108340919,0.01561411377042532,-0.003662378992885351
1769661557850665700,9.223665771484375,-0.0011342403013259172,0.021348165348172188,-0.004549211822450161
1769661557860653800,9.23365380859375,-0.000013582121027866378,0.020593425258994102,-0.004436559975147247
1769661557870641700,9.2436416015625,0.003581685246899724,0.01648470014333725,-0.0022865901701152325
1769661557880628700,9.253628662109374,0.0014807175612077117,0.008577508851885796,0.0007771103992126882
1769661557890616800,9.263616943359375,-0.001315068919211626,0.0015808524331077933,0.0031198931392282248
1769661557900605000,9.27360498046875,-0.0006239786162041128,-0.00016831177345011383,-0.00040027310024015605
1769661557910592800,9.2835927734375,-0.0008431567694060504,0.00321843009442091,-0.00017230652156285942
1769661557920580900,9.293580810546874,0.0008735168376006186,0.008321046829223633,0.0014207963831722736
1769661557930569000,9.30356884765625,0.0006897587445564568,0.008347145281732082,0.002532133599743247
1769661557940557000,9.31355712890625,0.0016463662032037973,0.01142815686762333,0.0027113643009215593
1769661557950545000,9.323544921875,0.003436010330915451,0.013116600923240185,0.0031249532476067543
1769661557960533000,9.333532958984375,0.00583791546523571,0.01642424613237381,0.003991812001913786
1769661557970521000,9.34352099609375,0.0065468489192426205,0.013244698755443096,0.0036876790691167116
1769661557980509000,9.353509033203125,0.007446997333317995,0.01558002457022667,0.0028075044974684715
1769661557990496800,9.363496826171875,0.008955944329500198,0.015853798016905785,0.003608050523325801
1769661558000484900,9.37348486328125,0.004737230949103832,0.01079752016812563,-0.0016375777777284384
1769661558010473000,9.383472900390625,0.0037795582320541143,0.003049852093681693,0.0025273398496210575
1769661558020460800,9.393460693359375,0.003427488263696432,0.008775915019214153,0.0065226140432059765
1769661558030449000,9.403448974609375,0.0038506644777953625,0.01619894430041313,0.008304801769554615
1769661558040437000,9.41343701171875,0.007287473883479834,0.009974070824682713,0.0009339706157334149
1769661558050424800,9.4234248046875,0.005061870440840721,0.0009275790071114898,-0.0028011128306388855
1769661558060413000,9.433412841796875,0.003513508476316929,-0.005561479367315769,-0.0024612934794276953
1769661558070401000,9.443401123046876,0.0009531453251838684,-0.0046416232362389565,-0.002540922025218606
1769661558080388900,9.453388916015625,0.002993126632645726,-0.009661415591835976,-0.003823234001174569
1769661558090377000,9.463376953125,0.002921487670391798,-0.01763199083507061,-0.005026716738939285
1769661558100364800,9.47336474609375,0.002254632068797946,-0.016870858147740364,-0.005346029531210661
1769661558110353000,9.483352783203125,0.0017920411191880703,-0.010356234386563301,-0.0048767803236842155
1769661558120340700,9.4933408203125,-0.0002426139690214768,-0.00691889226436615,-0.004673581570386887
1769661558130328800,9.503328857421875,-0.00014514227223116904,-0.00583791546523571,-0.0033366745337843895
1769661558140317000,9.51331689453125,-0.00036218989407643676,-0.007919974625110626,-0.0027148264925926924
1769661558150304800,9.5233046875,0.0017028251895681024,-0.013289174064993858,-0.0029262814205139875
1769661558160292900,9.53329296875,0.002980609890073538,-0.019343337044119835,-0.004490888677537441
1769661558170281000,9.543281005859376,0.0031153657473623753,-0.020017117261886597,-0.0027316042687743902
1769661558180267800,9.553267822265624,0.0038008634001016617,-0.00911546777933836,-0.0036242958158254623
1769661558190255900,9.563255859375,0.0015725966077297926,-0.004709533881396055,-0.005254416726529598
1769661558200244000,9.573243896484374,0.0032719597220420837,-0.0008146609761752188,-0.007056844420731068
1769661558210232000,9.583232177734375,0.0031941954512149096,0.0021110877860337496,-0.010944526642560959
1769661558220220000,9.593219970703124,0.004248807206749916,0.002537726191803813,-0.010664362460374832
1769661558230208000,9.6032080078125,0.0032234902027994394,0.00267807487398386,-0.00800492987036705
1769661558240196000,9.613196044921875,0.0028732845094054937,0.0018247979460284114,-0.004608334042131901
1769661558250184000,9.623183837890625,0.0025648903101682663,-0.002231196267530322,-0.004610464442521334
1769661558260171800,9.633171875,0.0017499631503596902,-0.003022687742486596,-0.0071039823815226555
1769661558270160000,9.643159912109375,0.00375958438962698,-0.0025545042008161545,-0.00771677540615201
1769661558280147700,9.653147705078124,0.004622715059667826,0.0022274679504334927,-0.008885104209184647
1769661558290135800,9.6631357421875,0.003710582386702299,0.008015582337975502,-0.006443518213927746
1769661558300124000,9.6731240234375,0.0059508332051336765,0.010003898292779922,-0.0065050371922552586
1769661558310112000,9.683112060546875,0.0068331388756632805,0.011316570453345776,-0.005240302067250013
1769661558320099800,9.693099853515625,0.005562544334679842,0.008291485719382763,-0.007469367701560259
1769661558330088000,9.703087890625,0.00694845337420702,0.005311674904078245,-0.005350556690245867
1769661558340076000,9.713075927734375,0.006530869752168655,-0.0005731122801080346,-0.0018804579740390182
1769661558350063900,9.72306396484375,0.006984139792621136,-0.004530036821961403,-0.002525741932913661
1769661558360052000,9.733052001953125,0.006627542432397604,-0.008711466565728188,0.00020479709201026708
1769661558370040000,9.7430400390625,0.006382265593856573,-0.005566805601119995,-0.001056476030498743
1769661558380028000,9.75302783203125,0.00700970645993948,-0.002941993996500969,-0.002436259761452675
1769661558390015700,9.763015625,0.006987601984292269,0.0038272286765277386,-0.00041199102997779846
1769661558400003800,9.77300390625,0.006640858482569456,0.00974450632929802,-0.0001608549355296418
1769661558409992000,9.782991943359375,0.008498147130012512,0.010940532200038433,-0.002528671408072114
1769661558419979800,9.792979736328125,0.008235825225710869,0.012625779956579208,-0.004605138208717108
1769661558429968000,9.8029677734375,0.0081527354195714,0.012113654054701328,-0.004985437728464603
1769661558439956000,9.8129560546875,0.00893623661249876,0.010241452604532242,-0.0034562505315989256
1769661558449944000,9.822944091796876,0.007949003018438816,0.007417436223477125,-0.004403270315378904
1769661558459932000,9.832931884765625,0.00567013630643487,0.0033782199025154114,-0.002667954657226801
1769661558469920000,9.842919921875,0.008645952679216862,0.002666090615093708,-0.00101120222825557
1769661558479908000,9.852908203125,0.00902784988284111,-0.0002623213513288647,0.0017827199772000313
1769661558489896000,9.86289599609375,0.008809204213321209,0.0009856359101831913,0.002338521648198366
1769661558499883800,9.8728837890625,0.0075971996411681175,-0.00014514227223116904,0.0019438412273302674
1769661558509871900,9.882871826171876,0.007164968643337488,-0.00018722022650763392,-0.00006125270738266408
1769661558519859700,9.892859619140625,0.006622482556849718,0.002055427758023143,0.00012543488992378116
1769661558529847800,9.902847900390626,0.006363356951624155,0.0018287927377969027,0.0002860235108528286
1769661558539836000,9.9128359375,0.0054576159454882145,0.0027923244051635265,-0.00011691277177305892
1769661558549824000,9.922823974609376,0.004453337751328945,0.0028067054226994514,-0.001121723442338407
1769661558559810800,9.932810791015624,0.004054662771522999,0.004570783115923405,-0.0032684975303709507
1769661558569799000,9.942798828125,0.002901514060795307,0.007692540530115366,-0.0035116442013531923
1769661558579787000,9.952787109375,0.0033430662006139755,0.011150655336678028,-0.0026844663079828024
1769661558589774800,9.96277490234375,0.002891926560550928,0.011037737131118774,-0.0030360035598278046
1769661558599763000,9.972762939453125,0.0024676851462572813,0.009779660031199455,-0.0016437029698863626
1769661558609751000,9.9827509765625,0.0013616742799058557,0.00854581780731678,-0.001371794263832271
1769661558619739000,9.99273876953125,-0.0014021543320268393,0.00663340138271451,-0.00016484966909047216
1769661558629727000,10.00272705078125,0.00022397184511646628,0.00296303303912282,0.0002490055630914867
1769661558639715000,10.012715087890625,-0.0011906992876902223,0.0021731394808739424,-0.0016128103015944362
1769661558649703000,10.022702880859375,0.00033342777169309556,0.0008189220097847283,-0.0018005631864070892
1769661558659690800,10.032690673828125,-0.00006764429417671636,0.0031547807157039642,-0.0008918926469050348
1769661558669678800,10.042678955078125,-0.0008767126128077507,-0.00013688647595699877,0.0008415589109063148
1769661558679667000,10.0526669921875,-0.0006671218434348702,-0.00031798143754713237,-0.001300155185163021
1769661558689654800,10.06265478515625,0.0010668623726814985,-0.002493251347914338,-0.004729507956653833
1769661558699643000,10.072642822265625,-0.00007776429993100464,0.005693838465958834,-0.008466455154120922
1769661558709631000,10.082630859375,-0.0010333064710721374,0.01245054416358471,-0.008305334486067295
1769661558719618800,10.092618896484375,0.00005193164179218002,0.016152072697877884,-0.0052203284576535225
1769661558729607000,10.10260693359375,-0.001487375469878316,0.01510225422680378,-0.0026080335956066847
1769661558739595000,10.112594970703125,-0.0008162588928826153,0.012504606507718563,0.0015640745405107737
1769661558749583000,10.1225830078125,0.000254331884207204,0.002438656520098448,0.0031585090328007936
1769661558759571000,10.132571044921875,0.0005589975044131279,-0.0034961977507919073,0.004111388232558966
1769661558769558800,10.142558837890626,-0.0020450414158403873,-0.00788482092320919,0.001970472978428006
1769661558779547000,10.152546875,-0.003677559085190296,-0.0043625240214169025,-0.00207673292607069
1769661558789534700,10.16253466796875,-0.004545216914266348,0.0008226504432968795,-0.002855974016711116
1769661558799522800,10.172522705078125,-0.003757720347493887,0.0004261057765688747,-0.0026551715563982725
1769661558809511000,10.182510986328126,-0.0004982774262316525,0.00038748994120396674,0.0006181196658872068
1769661558819499000,10.1924990234375,-0.001383778522722423,0.001288171042688191,0.003992611076682806
1769661558829486800,10.20248681640625,0.00005619269722956233,0.001984054921194911,0.0026232136879116297
1769661558839475000,10.212474853515625,0.001889246515929699,-0.00023702133330516517,0.0009534116834402084
1769661558849463000,10.222463134765626,0.0003230414295103401,0.00038828887045383453,-0.00101173494476825
1769661558859451000,10.232450927734375,0.0021228056866675615,0.004619252867996693,0.0005704491049982607
1769661558869439000,10.24243896484375,0.002317216480150819,0.009081379510462284,0.002767024328932166
1769661558879427300,10.25242724609375,0.0037404096219688654,0.00905341561883688,0.003552390495315194
1769661558889415200,10.262415283203126,0.0028767467010766268,0.008914132602512836,0.004503405187278986
1769661558899403300,10.2724033203125,0.0036072516813874245,0.011596201919019222,0.004055195488035679
1769661558909391400,10.282391357421876,0.002823749789968133,0.017043698579072952,0.0004724447790067643
1769661558919379200,10.292379150390625,0.004290086217224598,0.014683871529996395,-0.004625644534826279
1769661558929367300,10.3023671875,0.004682635888457298,0.00902811624109745,-0.005946572404354811
1769661558939355400,10.31235546875,0.002359294332563877,0.005568137392401695,-0.00449754623696208
1769661558949342200,10.32234228515625,0.0027928571216762066,0.0011462245602160692,-0.0023033679462969303
1769661558959330300,10.332330322265625,0.0036165728233754635,-0.003721234854310751,-0.002832271857187152
1769661558969318400,10.342318359375,0.004259193316102028,-0.005673864856362343,-0.0030423952266573906
1769661558979306200,10.35230615234375,0.006450974848121405,0.0007960188668221235,-0.0028511802665889263
1769661558989294300,10.36229443359375,0.007713047321885824,0.005657885689288378,-0.0008966863388195634
1769661558999282400,10.372282470703125,0.00603525573387742,0.008526909165084362,-0.0015688681742176414
1769661559009270500,10.3822705078125,0.007078415714204311,0.008068046532571316,-0.0039044604636728764
1769661559019258400,10.39225830078125,0.008250739425420761,0.0068302094005048275,-0.007420365698635578
1769661559029246200,10.40224609375,0.006760966964066029,0.0028655612841248512,-0.007276022341102362
1769661559039234300,10.412234375,0.007249657064676285,-0.00061279337387532,-0.006059224251657724
1769661559049222100,10.42222216796875,0.0057194046676158905,-0.0007411577389575541,-0.0051960935816168785
1769661559059210200,10.432210205078125,0.0057678744196891785,0.00304638990201056,-0.003314570290967822
1769661559069198300,10.4421982421875,0.005027781706303358,0.003897003596648574,-0.002007490722462535
1769661559079186200,10.452186279296875,0.005489840172231197,0.0016192019684240222,-0.004217648413032293
1769661559089174300,10.46217431640625,0.004978779703378677,-0.0022620889358222485,-0.00589650496840477
1769661559099162400,10.472162353515625,0.003373958868905902,-0.0002913498319685459,-0.007050452753901482
1769661559109150500,10.482150390625,0.0037031255196779966,0.0008247809601016343,-0.009069661609828472
1769661559119138300,10.49213818359375,0.0037292244378477335,0.0003126551164314151,-0.011802330613136292
1769661559129126400,10.50212646484375,0.004859736189246178,0.0020234698895365,-0.011836419813334942
1769661559139114500,10.512114501953125,0.006542321294546127,0.003998470026999712,-0.011205516755580902
1769661559149102300,10.522102294921876,0.00717695290222764,0.007399060297757387,-0.008534898981451988
1769661559159090200,10.532090087890625,0.005386243108659983,0.011167965829372406,-0.009032110683619976
1769661559169078300,10.542078369140626,0.005057875532656908,0.010177535936236382,-0.0101375887170434
1769661559179066400,10.55206640625,0.004426706116646528,0.006158293690532446,-0.0072837453335523605
1769661559189054200,10.56205419921875,0.004471980035305023,0.0037409423384815454,-0.011786618269979954
1769661559199042300,10.572042236328125,0.0010897654574364424,-0.004483431577682495,-0.010037720203399658
1769661559209030400,10.582030517578126,0.004018709994852543,-0.0122468126937747,-0.007357514929026365
1769661559219018200,10.592018310546875,0.0036192359402775764,-0.006168946158140898,-0.0056994310580194
1769661559229006300,10.60200634765625,0.001181111903861165,-0.0041396175511181355,-0.0022072279825806618
1769661559238994400,10.611994384765625,0.002359827049076557,-0.00535588338971138,-0.0037499971222132444
1769661559248982500,10.621982421875,0.0028328043408691883,-0.004282629117369652,-0.0054794540628790855
1769661559258970400,10.631970458984375,0.0023369237314909697,0.0018287927377969027,-0.0073540532030165195
1769661559268958200,10.641958251953126,0.003175020683556795,0.004343882203102112,-0.006131662055850029
1769661559278946300,10.6519462890625,0.00173717993311584,0.005909021943807602,-0.007682953495532274
1769661559288934100,10.66193408203125,0.0006458165589720011,0.004294613376259804,-0.011233479715883732
1769661559298922200,10.671922119140625,-0.0012591425329446793,0.0025896579027175903,-0.009937052614986897
1769661559308910300,10.681910400390626,-0.004356665071099997,-0.004216849338263273,-0.012087555602192879
1769661559318898200,10.691898193359375,-0.0008964200387708843,-0.00760998297482729,-0.013277722522616386
1769661559328885200,10.70188525390625,-0.00310604483820498,-0.007421431131660938,-0.01167583093047142
1769661559338873300,10.711873291015625,-0.004504470620304346,-0.006902647204697132,-0.0036671727430075407
1769661559348861200,10.721861083984376,-0.003510579001158476,-0.0020423782989382744,-0.001511343871243298
1769661559358849300,10.731849365234375,-0.004923386033624411,-0.0013707289472222328,-0.006508233025670052
1769661559368837400,10.74183740234375,-0.006750314496457577,-0.004732437431812286,-0.010749583132565022
1769661559378825500,10.751825439453125,-0.00652660895138979,-0.005369731690734625,-0.014134727418422699
1769661559388813300,10.761813232421876,-0.007741010282188654,-0.005571066867560148,-0.014385330490767956
1769661559398801400,10.771801513671875,-0.007640875410288572,-0.0023899206425994635,-0.012173841707408428
1769661559408789500,10.78178955078125,-0.00759879732504487,-0.002621615771204233,-0.013791978359222412
1769661559418777300,10.79177734375,-0.005422195885330439,-0.003820837242528796,-0.013175190426409245
1769661559428765200,10.80176513671875,-0.005035238806158304,-0.007701063062995672,-0.010966897010803223
1769661559438753300,10.811753173828125,-0.004381965380162001,-0.004579837899655104,-0.007869641296565533
1769661559448741400,10.821741455078126,-0.0024927188642323017,0.001722798915579915,-0.003602990647777915
1769661559458729200,10.831729248046875,-0.003894074121490121,0.0020823257509618998,-0.0006410228670574725
1769661559468717300,10.84171728515625,-0.004228567238897085,-0.003367300843819976,-0.003485811408609152
1769661559478705400,10.851705322265625,-0.0033894050866365433,-0.008897621184587479,-0.005783320404589176
1769661559488693200,10.861693359375,-0.003165433183312416,-0.006487460341304541,-0.004028297495096922
1769661559498681300,10.871681396484375,-0.00481366366147995,-0.007292267866432667,-0.002382730133831501
1769661559508669400,10.88166943359375,-0.0021654162555933,-0.01381035428494215,0.0019318570848554373
1769661559518657300,10.8916572265625,-0.0027632960118353367,-0.022296782582998276,0.0004828310920856893
1769661559528645400,10.901645263671876,-0.000651675509288907,-0.018977418541908264,-0.0026317357551306486
1769661559538633500,10.911633544921875,-0.0009006810723803937,-0.006719954311847687,-0.004132693167775869
1769661559548621300,10.921621337890626,-0.0016311861108988523,0.006209426559507847,-0.004508465528488159
1769661559558609200,10.931609130859375,-0.0012689962750300765,0.017854364588856697,-0.005005144979804754
1769661559568597200,10.94159716796875,-0.0001984054979402572,0.021571071818470955,-0.005146558862179518
1769661559578585300,10.95158544921875,0.0010279801208525896,0.023327693343162537,-0.003285009181126952
1769661559588573200,10.9615732421875,-0.0008990831556729972,0.01829405315220356,0.0007874967413954437
1769661559598561300,10.971561279296875,-0.00316063966602087,0.00800226628780365,0.004099670331925154
1769661559608549400,10.98154931640625,-0.005549228750169277,-0.005922603886574507,0.003567570587620139
1769661559618537500,10.991537353515625,-0.008470184169709682,-0.014963236637413502,-0.000892691605258733
1769661559628525300,11.001525390625,-0.009941846132278442,-0.020867465063929558,-0.001442900625988841
1769661559638513400,11.011513427734375,-0.011204717680811882,-0.022705579176545143,-0.0005528722540475428
1769661559648501500,11.02150146484375,-0.011409514583647251,-0.02688993699848652,-0.0011638014111667871
1769661559658489300,11.0314892578125,-0.01005236804485321,-0.026089390739798546,0.0014857775531709194
1769661559668477200,11.041477294921876,-0.006962834391742945,-0.02149224281311035,0.0002537992550060153
1769661559678465300,11.05146533203125,-0.008286692202091217,-0.012072641402482986,-0.0006769755273126066
1769661559688453400,11.061453369140626,-0.005083708092570305,-0.008242749609053135,-0.005044559482485056
1769661559698441200,11.071441162109375,-0.006145510356873274,-0.004325772635638714,-0.008706139400601387
1769661559708428300,11.08142822265625,-0.002389654517173767,-0.002055694116279483,-0.009334912523627281
1769661559718416100,11.091416015625,-0.0005342300864867866,-0.0007555388147011399,-0.008841162547469139
1769661559728404200,11.101404296875,0.0010266485624015331,-0.000003728425554072601,-0.002784601179882884
1769661559738392300,11.111392333984375,0.0023904533591121435,0.00018748654110822827,0.0019094864837825298
1769661559748380400,11.12138037109375,0.001448759576305747,0.0010871023405343294,0.006127933505922556
1769661559758368300,11.1313681640625,0.002523611532524228,-0.001549959764815867,0.00620995881035924
1769661559768356400,11.1413564453125,0.002079928759485483,-0.0041492050513625145,0.005142563953995705
1769661559778344400,11.151344482421875,-0.0019827233627438545,-0.007531153038144112,0.0011550129856914282
1769661559788332300,11.161332275390626,-0.002548911375924945,-0.012338158674538136,-0.0015020228456705809
1769661559798320400,11.1713203125,-0.0009675264009274542,-0.014386662282049656,0.00018642126815393567
1769661559808308500,11.18130859375,-0.00029587719473056495,-0.012161857448518276,-0.000474575295811519
1769661559818296300,11.19129638671875,0.0003664509567897767,-0.006405168678611517,0.001306014135479927
1769661559828284200,11.2012841796875,0.0015624766238033772,0.0010634001810103655,0.002246642718091607
1769661559838272300,11.211272216796875,0.000290018244413659,0.006994792725890875,0.001273523666895926
1769661559848260400,11.22126025390625,0.00009853696246864274,0.010906177572906017,-0.002773149637505412
1769661559858248200,11.231248291015625,-0.0004953479510731995,0.013175456784665585,-0.003013899317011237
1769661559868236300,11.241236328125,-0.004652542527765036,0.01581731252372265,-0.004208593629300594
1769661559878223600,11.2512236328125,-0.0028461201582103968,0.011563179083168507,-0.00347435986623168
1769661559888211700,11.261211669921876,-0.003710582386702299,0.0036661075428128242,-0.0017422399250790477
1769661559898199800,11.27119970703125,-0.0036432044580578804,-0.0023377228062599897,0.00020879182557109743
1769661559908187600,11.281187744140626,-0.004280232358723879,-0.003695935010910034,0.0029973878990858793
1769661559918175700,11.29117578125,-0.00373055599629879,-0.00887924525886774,0.004550276789814234
1769661559928163800,11.301163818359376,-0.0070919981226325035,-0.015166969038546085,0.004530835896730423
1769661559938151700,11.311151611328125,-0.0037268276792019606,-0.01810736395418644,0.006272543221712112
1769661559948139800,11.321139892578126,-0.0036815537605434656,-0.015839949250221252,0.0041215079836547375
1769661559958127600,11.331127685546875,-0.005712214391678572,-0.015500130131840706,0.0027720844373106956
1769661559968115700,11.34111572265625,-0.00376064982265234,-0.012152803130447865,0.00040027310024015605
1769661559978103600,11.351103515625,-0.005626194179058075,-0.007187871728092432,-0.0011893677292391658
1769661559988091600,11.361091552734376,-0.0028959212359040976,-0.0065772091038525105,0.0007459514308720827
1769661559998079700,11.371079833984375,-0.0037705034483224154,-0.004049602895975113,0.0012863067677244544
1769661560008067600,11.381067626953126,-0.0038088529836386442,-0.004084756597876549,0.0025904567446559668
1769661560018055700,11.3910556640625,-0.0037979339249432087,-0.007408647798001766,0.0015393070643767715
1769661560028043800,11.401043701171876,-0.005891711451113224,-0.010773018933832645,0.001582716591656208
1769661560038031600,11.411031494140625,-0.006292783189564943,-0.016577111557126045,-0.0005627259379252791
1769661560048019700,11.421019775390626,-0.006844324059784412,-0.020004067569971085,-0.001064998097717762
1769661560058007800,11.4310078125,-0.007694937754422426,-0.022418756037950516,-0.0013214604696258903
1769661560067996000,11.440995849609376,-0.007077350746840239,-0.02353036031126976,-0.0010615360224619508
1769661560077983700,11.450983642578125,-0.0070131681859493256,-0.021587850525975227,-0.0007605988066643476
1769661560087971600,11.4609716796875,-0.006104497704654932,-0.01595073752105236,-0.0008492820779792964
1769661560097959700,11.470959716796875,-0.007614510133862495,-0.015263108536601067,0.002301770029589534
1769661560107946800,11.48094677734375,-0.005576925817877054,-0.01306173950433731,0.0020865867845714092
1769661560117934600,11.4909345703125,-0.002682868391275406,-0.009547698311507702,0.0008056062506511807
1769661560127922700,11.500922607421876,-0.0019776634871959686,-0.009209477342665195,-0.0001781654718797654
1769661560137910500,11.51091064453125,-0.0028458540327847004,-0.007001450285315514,-0.0035246936604380608
1769661560147898600,11.520898681640626,-0.001883121207356453,-0.007577758282423019,-0.005234443116933107
1769661560157886700,11.53088671875,-0.0017797905020415783,-0.00959936436265707,-0.0023273364640772343
1769661560167874600,11.54087451171875,-0.002251702593639493,-0.010613761842250824,-0.0015954998089000583
1769661560177862700,11.550862548828125,-0.0037619813811033964,-0.008770322427153587,-0.00036938043194822967
1769661560187850800,11.560850830078126,-0.00472444761544466,-0.011630024760961533,-0.00045540055725723505
1769661560197838800,11.5708388671875,-0.0046847667545080185,-0.014988004229962826,-0.0025094966404139996
1769661560207826700,11.58082666015625,-0.005151352379471064,-0.015440475195646286,-0.002311357529833913
1769661560217814800,11.590814697265625,-0.007000651676207781,-0.015470835380256176,0.00019254654762335122
1769661560227803000,11.600802978515626,-0.008214520290493965,-0.01696220599114895,-0.0009614011505618691
1769661560237790500,11.61079052734375,-0.004643754102289677,-0.017784323543310165,-0.0014764565275982022
1769661560247778600,11.620778564453126,-0.005404885392636061,-0.014450045302510262,-0.00048389637959189713
1769661560257766700,11.6307666015625,-0.003933488857001066,-0.010963168926537037,-0.0007755124825052917
1769661560267754800,11.640754638671876,-0.0021076255943626165,-0.00535508431494236,-0.0036586506757885218
1769661560277742600,11.65074267578125,-0.0012423646403476596,-0.002240251051262021,-0.0014804512029513717
1769661560287730700,11.660730712890626,-0.002147839404642582,0.0007270429632626474,-0.004030960611999035
1769661560297718800,11.67071875,-0.001008805469609797,0.0030093719251453876,-0.004483165219426155
1769661560307706600,11.68070654296875,-0.0022029669489711523,0.002270611235871911,-0.0027867318131029606
1769661560317694700,11.69069482421875,-0.0027409254107624292,0.0004932174342684448,-0.0031212246976792812
1769661560327682800,11.700682861328126,-0.0021760689560323954,-0.003209908027201891,0.0013872405979782343
1769661560337671000,11.7106708984375,-0.001811748486943543,-0.001669003046117723,0.0010040117194876075
1769661560347658800,11.72065869140625,-0.0010634001810103655,-0.0038543930277228355,0.0026458504144102335
1769661560357646600,11.730646484375,0.0008269115351140499,-0.0073079802095890045,0.004715392831712961
1769661560367634700,11.740634765625,-0.0006708502769470215,-0.00896819494664669,0.0012221246724948287
1769661560377622500,11.75062255859375,0.0009920274605974555,-0.00475374236702919,-0.004935103934258223
1769661560387610600,11.760610595703126,0.002241050126031041,0.001954493811354041,-0.0073170349933207035
1769661560397598700,11.7705986328125,0.002377936616539955,0.010323744267225266,-0.005471197888255119
1769661560407586600,11.780586669921876,0.0012895026011392474,0.016176041215658188,-0.008264853619039059
1769661560417574700,11.79057470703125,0.00036618465674109757,0.017606157809495926,-0.00993412360548973
1769661560427562800,11.800562744140626,0.0008788431296125054,0.014474546536803246,-0.0038655782118439674
1769661560437550800,11.81055078125,0.00390312890522182,0.008807606063783169,0.004458664450794458
