time,seconds_elapsed,z,y,x
1769657579936093200,0.06209326171875,-0.34893798828125,0.87518310546875,0.3465728759765625
1769657579946081300,0.072081298828125,-0.298431396484375,0.8652801513671875,0.34423828125
1769657579956069000,0.082069091796875,-0.28424072265625,0.853302001953125,0.356231689453125
1769657579966057000,0.092056884765625,-0.2967071533203125,0.8520660400390625,0.3569793701171875
1769657579976045000,0.102045166015625,-0.2878265380859375,0.8574981689453125,0.3510894775390625
1769657579986034200,0.1120341796875,-0.29754638671875,0.8620147705078125,0.3466949462890625
1769657579996022300,0.122022216796875,-0.332550048828125,0.8684234619140625,0.3505096435546875
1769657580006010000,0.132010009765625,-0.3402252197265625,0.8712310791015625,0.3482513427734375
1769657580015998200,0.141998291015625,-0.3368072509765625,0.87921142578125,0.3430633544921875
1769657580025986300,0.151986328125,-0.3344879150390625,0.8830413818359375,0.3443145751953125
1769657580035974100,0.16197412109375,-0.335540771484375,0.884063720703125,0.350311279296875
1769657580045962000,0.1719619140625,-0.330352783203125,0.8863067626953125,0.3518829345703125
1769657580055950000,0.1819501953125,-0.3265380859375,0.88629150390625,0.357208251953125
1769657580065938000,0.19193798828125,-0.3260345458984375,0.883758544921875,0.3585205078125
1769657580075926000,0.201926025390625,-0.33416748046875,0.879608154296875,0.3578948974609375
1769657580085914000,0.2119140625,-0.3357696533203125,0.8737640380859375,0.3549957275390625
1769657580095902200,0.221902099609375,-0.3309173583984375,0.873016357421875,0.3589935302734375
1769657580105890000,0.23189013671875,-0.3266754150390625,0.8720855712890625,0.3484649658203125
1769657580115878100,0.241878173828125,-0.32171630859375,0.8707427978515625,0.352813720703125
1769657580125866200,0.2518662109375,-0.3212127685546875,0.876129150390625,0.35394287109375
1769657580135854000,0.26185400390625,-0.3258209228515625,0.876800537109375,0.348876953125
1769657580145842200,0.27184228515625,-0.320587158203125,0.8782958984375,0.3645172119140625
1769657580155830300,0.281830322265625,-0.3121185302734375,0.8755340576171875,0.3717803955078125
1769657580165818000,0.291818115234375,-0.3065948486328125,0.87371826171875,0.3640899658203125
1769657580175806000,0.301805908203125,-0.307952880859375,0.8738250732421875,0.3514404296875
1769657580185794000,0.3117939453125,-0.3138275146484375,0.875762939453125,0.3482666015625
1769657580195783200,0.321783203125,-0.3209075927734375,0.881744384765625,0.3494873046875
1769657580205771300,0.331771240234375,-0.3274993896484375,0.884613037109375,0.35101318359375
1769657580215759000,0.341759033203125,-0.3265228271484375,0.88287353515625,0.34930419921875
1769657580225747200,0.351747314453125,-0.3189239501953125,0.8711090087890625,0.346343994140625
1769657580235735300,0.3617353515625,-0.3055267333984375,0.870208740234375,0.3476715087890625
1769657580245723100,0.37172314453125,-0.2949981689453125,0.870208740234375,0.3450775146484375
1769657580255711000,0.3817109375,-0.303497314453125,0.8730926513671875,0.341461181640625
1769657580265699000,0.391698974609375,-0.3197174072265625,0.8764801025390625,0.339599609375
1769657580275687200,0.401687255859375,-0.3249664306640625,0.8762359619140625,0.3372802734375
1769657580285675000,0.411675048828125,-0.324127197265625,0.878814697265625,0.342132568359375
1769657580295663000,0.4216630859375,-0.3177947998046875,0.873992919921875,0.343536376953125
1769657580305651200,0.431651123046875,-0.3146209716796875,0.8741302490234375,0.3433990478515625
1769657580315639000,0.44163916015625,-0.3198089599609375,0.8807525634765625,0.343536376953125
1769657580325627100,0.451627197265625,-0.3281097412109375,0.881378173828125,0.343841552734375
1769657580335615200,0.461615234375,-0.3324737548828125,0.8840179443359375,0.3466949462890625
1769657580345603300,0.471603271484375,-0.331787109375,0.880615234375,0.3475341796875
1769657580355591200,0.481591064453125,-0.3271942138671875,0.8746490478515625,0.351715087890625
1769657580365579000,0.4915791015625,-0.32843017578125,0.8754730224609375,0.3476715087890625
1769657580375567000,0.501567138671875,-0.3310089111328125,0.8820343017578125,0.3401947021484375
1769657580385555000,0.511554931640625,-0.328155517578125,0.8773651123046875,0.33782958984375
1769657580395544000,0.5215439453125,-0.3173980712890625,0.8770294189453125,0.3589019775390625
1769657580405532200,0.5315322265625,-0.3024444580078125,0.871429443359375,0.3546142578125
1769657580415520300,0.541520263671875,-0.2972869873046875,0.87255859375,0.3487548828125
1769657580425508000,0.551508056640625,-0.3036956787109375,0.875335693359375,0.347900390625
1769657580435496200,0.56149609375,-0.3192291259765625,0.8780059814453125,0.342681884765625
1769657580445484300,0.571484375,-0.329193115234375,0.8776092529296875,0.3382415771484375
1769657580455471900,0.581471923828125,-0.331817626953125,0.8796844482421875,0.3409271240234375
1769657580465460000,0.5914599609375,-0.325042724609375,0.880462646484375,0.341644287109375
1769657580475448000,0.601447998046875,-0.3173065185546875,0.880767822265625,0.3417510986328125
1769657580485436200,0.611436279296875,-0.3172760009765625,0.8794097900390625,0.34326171875
1769657580495424000,0.621424072265625,-0.3184661865234375,0.8759002685546875,0.34442138671875
1769657580505412000,0.631412109375,-0.3176422119140625,0.8745574951171875,0.345916748046875
1769657580515400200,0.641400146484375,-0.3147430419921875,0.870391845703125,0.3443145751953125
1769657580525388000,0.651387939453125,-0.313446044921875,0.869415283203125,0.344451904296875
1769657580535376100,0.661376220703125,-0.3145751953125,0.875274658203125,0.345947265625
1769657580545364200,0.6713642578125,-0.3174896240234375,0.8837432861328125,0.341552734375
1769657580555352300,0.681352294921875,-0.3190765380859375,0.88421630859375,0.339508056640625
1769657580565340200,0.691340087890625,-0.3238983154296875,0.8809356689453125,0.341827392578125
1769657580575328000,0.701327880859375,-0.3233489990234375,0.874267578125,0.3406219482421875
1769657580585316000,0.711316162109375,-0.319671630859375,0.8735198974609375,0.340911865234375
1769657580595304000,0.721303955078125,-0.3157958984375,0.87713623046875,0.3442840576171875
1769657580605292000,0.7312919921875,-0.3150787353515625,0.87762451171875,0.3452606201171875
1769657580615280000,0.741280029296875,-0.3187713623046875,0.881683349609375,0.3451995849609375
1769657580625269200,0.751269287109375,-0.318450927734375,0.88104248046875,0.3424072265625
1769657580635257000,0.761257080078125,-0.3207550048828125,0.875457763671875,0.3435211181640625
1769657580645245200,0.7712451171875,-0.3170166015625,0.8710784912109375,0.3425445556640625
1769657580655233000,0.78123291015625,-0.314239501953125,0.87249755859375,0.34326171875
1769657580665221000,0.79122119140625,-0.3136749267578125,0.8753662109375,0.3471832275390625
1769657580675209000,0.801208984375,-0.314483642578125,0.880126953125,0.3515625
1769657580685197000,0.811197021484375,-0.315887451171875,0.8802947998046875,0.3488311767578125
1769657580695185200,0.82118505859375,-0.3172454833984375,0.87933349609375,0.345855712890625
1769657580705173000,0.831173095703125,-0.3210296630859375,0.8786468505859375,0.342803955078125
1769657580715161000,0.8411611328125,-0.325653076171875,0.876434326171875,0.340667724609375
1769657580725149200,0.851149169921875,-0.3234405517578125,0.8784332275390625,0.341094970703125
1769657580735137300,0.86113720703125,-0.3162689208984375,0.8769683837890625,0.3424072265625
1769657580745125000,0.871125,-0.3154449462890625,0.8762969970703125,0.3452911376953125
1769657580755113200,0.88111328125,-0.318023681640625,0.8805694580078125,0.3448638916015625
1769657580765101300,0.891101318359375,-0.3162078857421875,0.8777923583984375,0.3434906005859375
1769657580775089200,0.901089111328125,-0.31072998046875,0.873199462890625,0.344207763671875
1769657580785077000,0.911076904296875,-0.3035736083984375,0.868377685546875,0.3481292724609375
1769657580795065000,0.921065185546875,-0.30224609375,0.8709259033203125,0.350555419921875
1769657580805053000,0.931052978515625,-0.3110504150390625,0.8685150146484375,0.343170166015625
1769657580815041000,0.941041015625,-0.3191375732421875,0.873138427734375,0.343017578125
1769657580825029000,0.951029052734375,-0.3212127685546875,0.8794403076171875,0.3441162109375
1769657580835017200,0.961017333984375,-0.320892333984375,0.882598876953125,0.3459930419921875
1769657580845006300,0.97100634765625,-0.3207244873046875,0.884857177734375,0.3476409912109375
1769657580854994200,0.980994140625,-0.315887451171875,0.882904052734375,0.3515625
1769657580864982000,0.99098193359375,-0.30255126953125,0.882720947265625,0.3464202880859375
1769657580874970000,1.00097021484375,-0.3025360107421875,0.8825531005859375,0.34661865234375
1769657580884958000,1.0109580078125,-0.318115234375,0.8769989013671875,0.344635009765625
1769657580894946000,1.020946044921875,-0.32623291015625,0.872283935546875,0.3385772705078125
1769657580904933400,1.030933349609375,-0.3240966796875,0.869293212890625,0.339630126953125
1769657580914921500,1.04092138671875,-0.315887451171875,0.8763885498046875,0.34454345703125
1769657580924909600,1.05090966796875,-0.306396484375,0.880401611328125,0.34942626953125
1769657580934897400,1.0608974609375,-0.30609130859375,0.8836517333984375,0.353118896484375
1769657580944885500,1.070885498046875,-0.3123016357421875,0.88360595703125,0.3493194580078125
1769657580954873600,1.08087353515625,-0.3120880126953125,0.880279541015625,0.345367431640625
1769657580964861400,1.090861328125,-0.30914306640625,0.881103515625,0.3448486328125
1769657580974849500,1.100849609375,-0.30487060546875,0.8772735595703125,0.343353271484375
1769657580984837600,1.110837646484375,-0.30255126953125,0.8760528564453125,0.3406524658203125
1769657580994825700,1.12082568359375,-0.30126953125,0.8790435791015625,0.3419952392578125
1769657581004813300,1.130813232421875,-0.3042755126953125,0.8846588134765625,0.344696044921875
1769657581014801400,1.140801513671875,-0.30499267578125,0.8824310302734375,0.342803955078125
1769657581024789500,1.15078955078125,-0.310821533203125,0.883697509765625,0.3490142822265625
1769657581034777300,1.16077734375,-0.3092498779296875,0.881378173828125,0.3463287353515625
1769657581044765400,1.170765380859375,-0.30609130859375,0.876251220703125,0.3462982177734375
1769657581054753500,1.18075341796875,-0.308746337890625,0.87615966796875,0.3501434326171875
1769657581064742700,1.19074267578125,-0.3132476806640625,0.8780517578125,0.35223388671875
1769657581074730500,1.20073046875,-0.313995361328125,0.87994384765625,0.3485870361328125
1769657581084718600,1.210718505859375,-0.3091888427734375,0.887451171875,0.3485107421875
1769657581094706400,1.22070654296875,-0.3003387451171875,0.8868865966796875,0.3465423583984375
1769657581104694500,1.230694580078125,-0.299896240234375,0.8809661865234375,0.3436279296875
1769657581114682400,1.240682373046875,-0.3041229248046875,0.88165283203125,0.343231201171875
1769657581124670500,1.25067041015625,-0.3047637939453125,0.8782501220703125,0.3426361083984375
1769657581134658600,1.260658447265625,-0.304443359375,0.8793182373046875,0.3438873291015625
1769657581144646400,1.270646484375,-0.304840087890625,0.8871307373046875,0.344970703125
1769657581154634500,1.280634521484375,-0.3031768798828125,0.8915557861328125,0.350555419921875
1769657581164622600,1.29062255859375,-0.3028106689453125,0.8864288330078125,0.347900390625
1769657581174610400,1.3006103515625,-0.3081207275390625,0.8824310302734375,0.3441009521484375
1769657581184598500,1.3105986328125,-0.3082275390625,0.8794097900390625,0.337615966796875
1769657581194586600,1.320586669921875,-0.3001708984375,0.8782196044921875,0.3324737548828125
1769657581204574500,1.330574462890625,-0.2946014404296875,0.8796844482421875,0.33233642578125
1769657581214562300,1.340562255859375,-0.2930755615234375,0.8805694580078125,0.33575439453125
1769657581224550400,1.35055029296875,-0.2943878173828125,0.8764801025390625,0.334747314453125
1769657581234538500,1.36053857421875,-0.29449462890625,0.873138427734375,0.328216552734375
1769657581244526300,1.3705263671875,-0.2977142333984375,0.8578033447265625,0.3240203857421875
1769657581254514400,1.380514404296875,-0.297332763671875,0.8300628662109375,0.318878173828125
1769657581264502500,1.39050244140625,-0.2952423095703125,0.839874267578125,0.3219757080078125
1769657581274490600,1.40049072265625,-0.286651611328125,0.8509368896484375,0.3258056640625
1769657581284478500,1.410478515625,-0.2767791748046875,0.8669281005859375,0.3289794921875
1769657581294467300,1.42046728515625,-0.275970458984375,0.8805389404296875,0.339202880859375
1769657581304455400,1.430455322265625,-0.2842864990234375,0.903167724609375,0.3463897705078125
1769657581314443500,1.440443603515625,-0.291717529296875,0.910797119140625,0.349395751953125
1769657581324431400,1.450431396484375,-0.2908477783203125,0.8916168212890625,0.3428802490234375
1769657581334419500,1.46041943359375,-0.2893829345703125,0.88494873046875,0.345703125
1769657581344407600,1.470407470703125,-0.2623291015625,0.9021453857421875,0.3488006591796875
1769657581354395400,1.4803955078125,-0.2117462158203125,0.9155120849609375,0.328521728515625
1769657581364383500,1.490383544921875,-0.18853759765625,0.9080963134765625,0.3004608154296875
1769657581374371600,1.50037158203125,-0.183685302734375,0.9095001220703125,0.309967041015625
1769657581384359700,1.510359619140625,-0.1976165771484375,0.9040374755859375,0.33343505859375
1769657581394347500,1.520347412109375,-0.2086029052734375,0.896484375,0.3409576416015625
1769657581404335600,1.530335693359375,-0.2084503173828125,0.8944549560546875,0.343475341796875
1769657581414323500,1.540323486328125,-0.2099761962890625,0.90203857421875,0.344146728515625
1769657581424311300,1.550311279296875,-0.2176361083984375,0.9189605712890625,0.3511962890625
1769657581434299400,1.56029931640625,-0.2297821044921875,0.9422607421875,0.35784912109375
1769657581444287500,1.57028759765625,-0.247283935546875,0.96185302734375,0.3504486083984375
1769657581454275300,1.580275390625,-0.2443389892578125,0.9501800537109375,0.338531494140625
1769657581464263400,1.590263427734375,-0.229949951171875,0.9284515380859375,0.34881591796875
1769657581474251500,1.60025146484375,-0.203033447265625,0.921905517578125,0.3592987060546875
1769657581484239600,1.610239501953125,-0.1733245849609375,0.9183197021484375,0.3679656982421875
1769657581494227500,1.6202275390625,-0.146728515625,0.9281005859375,0.3783721923828125
1769657581504215600,1.630215576171875,-0.1274566650390625,0.9338531494140625,0.3848724365234375
1769657581514203600,1.64020361328125,-0.11151123046875,0.9336090087890625,0.389923095703125
1769657581524192500,1.650192626953125,-0.1105194091796875,0.9351043701171875,0.3897247314453125
1769657581534180400,1.660180419921875,-0.109954833984375,0.9389801025390625,0.3783721923828125
1769657581544168400,1.67016845703125,-0.1142730712890625,0.9384765625,0.37921142578125
1769657581554156500,1.680156494140625,-0.12530517578125,0.9453887939453125,0.3828277587890625
1769657581564144400,1.690144287109375,-0.096893310546875,0.932525634765625,0.3716278076171875
1769657581574132500,1.700132568359375,-0.0757293701171875,0.9101409912109375,0.3365325927734375
1769657581584120600,1.71012060546875,-0.120849609375,0.9117279052734375,0.361480712890625
1769657581594108700,1.720108642578125,-0.186004638671875,0.927581787109375,0.35125732421875
1769657581604096500,1.730096435546875,-0.258209228515625,0.90277099609375,0.3378753662109375
1769657581614084600,1.740084716796875,-0.298553466796875,0.896759033203125,0.34674072265625
1769657581624072400,1.750072509765625,-0.277130126953125,0.8918304443359375,0.3438873291015625
1769657581634060300,1.760060302734375,-0.231597900390625,0.8924407958984375,0.3494873046875
1769657581644048400,1.77004833984375,-0.194580078125,0.89910888671875,0.346710205078125
1769657581654036500,1.780036376953125,-0.173797607421875,0.9173736572265625,0.3466949462890625
1769657581664024600,1.790024658203125,-0.158782958984375,0.9379425048828125,0.35028076171875
1769657581674012400,1.800012451171875,-0.1487884521484375,0.9407958984375,0.341522216796875
1769657581684000500,1.81000048828125,-0.1390380859375,0.935150146484375,0.3441619873046875
1769657581693988600,1.819988525390625,-0.11944580078125,0.927215576171875,0.34075927734375
1769657581703976400,1.8299765625,-0.111541748046875,0.9175262451171875,0.32891845703125
1769657581713964500,1.839964599609375,-0.1126861572265625,0.91876220703125,0.3275146484375
1769657581723952600,1.84995263671875,-0.12994384765625,0.919677734375,0.3188018798828125
1769657581733940500,1.8599404296875,-0.152801513671875,0.930572509765625,0.31634521484375
1769657581743928300,1.86992822265625,-0.1689605712890625,0.9288177490234375,0.31683349609375
1769657581753917400,1.87991748046875,-0.17730712890625,0.919036865234375,0.311370849609375
1769657581763905500,1.889905517578125,-0.180206298828125,0.9106292724609375,0.3106231689453125
1769657581773893600,1.8998935546875,-0.183135986328125,0.906982421875,0.3066558837890625
1769657581783881500,1.909881591796875,-0.185546875,0.91021728515625,0.309112548828125
1769657581793869600,1.91986962890625,-0.1832427978515625,0.912078857421875,0.3217620849609375
1769657581803857700,1.929857666015625,-0.1729736328125,0.908294677734375,0.3330841064453125
1769657581813845500,1.939845458984375,-0.161834716796875,0.908111572265625,0.332977294921875
1769657581823833300,1.949833251953125,-0.159576416015625,0.911468505859375,0.3304290771484375
1769657581833821400,1.959821533203125,-0.163848876953125,0.9096832275390625,0.32879638671875
1769657581843809500,1.9698095703125,-0.163330078125,0.9155731201171875,0.332244873046875
1769657581853797400,1.97979736328125,-0.1569061279296875,0.936309814453125,0.3402557373046875
1769657581863785500,1.989785400390625,-0.148101806640625,0.9512786865234375,0.3469390869140625
1769657581873773600,1.999773681640625,-0.1409149169921875,0.9400787353515625,0.3548583984375
1769657581883761400,2.009761474609375,-0.1321563720703125,0.9315032958984375,0.35693359375
1769657581893749500,2.01974951171875,-0.129913330078125,0.9322052001953125,0.3466644287109375
1769657581903737300,2.0297373046875,-0.1392364501953125,0.9334869384765625,0.338226318359375
1769657581913725400,2.039725341796875,-0.1509552001953125,0.932830810546875,0.33270263671875
1769657581923713500,2.049713623046875,-0.15283203125,0.9342803955078125,0.3306427001953125
1769657581933701600,2.05970166015625,-0.14642333984375,0.93585205078125,0.334014892578125
1769657581943689500,2.069689453125,-0.1461944580078125,0.920745849609375,0.341827392578125
1769657581953677300,2.07967724609375,-0.1403961181640625,0.915252685546875,0.34454345703125
1769657581963665400,2.08966552734375,-0.1320037841796875,0.9143218994140625,0.3380279541015625
1769657581973653200,2.0996533203125,-0.1287841796875,0.911651611328125,0.3275604248046875
1769657581983642400,2.109642333984375,-0.1251220703125,0.9228668212890625,0.32928466796875
1769657581993630500,2.11963037109375,-0.1276092529296875,0.9299468994140625,0.3250579833984375
1769657582003618600,2.12961865234375,-0.125244140625,0.931640625,0.3209381103515625
1769657582013606400,2.1396064453125,-0.1266021728515625,0.9403076171875,0.3139495849609375
1769657582023594500,2.149594482421875,-0.1260528564453125,0.9491119384765625,0.314971923828125
1769657582033582300,2.159582275390625,-0.1251678466796875,0.945343017578125,0.3201904296875
1769657582043570400,2.1695703125,-0.1263275146484375,0.93603515625,0.3255157470703125
1769657582053558300,2.179558349609375,-0.128997802734375,0.925048828125,0.3232421875
1769657582063546400,2.18954638671875,-0.13275146484375,0.920806884765625,0.32122802734375
1769657582073534500,2.199534423828125,-0.1347503662109375,0.92120361328125,0.3209075927734375
1769657582083522300,2.209522216796875,-0.135986328125,0.9161224365234375,0.321685791015625
1769657582093510400,2.219510498046875,-0.1313934326171875,0.9075927734375,0.3207244873046875
1769657582103498500,2.22949853515625,-0.117156982421875,0.9140777587890625,0.32305908203125
1769657582113486300,2.239486328125,-0.103759765625,0.917999267578125,0.3267364501953125
1769657582123474400,2.249474365234375,-0.1005706787109375,0.9195404052734375,0.3247528076171875
1769657582133462500,2.259462646484375,-0.1059112548828125,0.9256591796875,0.3251190185546875
1769657582143450600,2.26945068359375,-0.1181488037109375,0.9270477294921875,0.3265380859375
1769657582153438200,2.279438232421875,-0.1220550537109375,0.9263763427734375,0.3186798095703125
1769657582163426300,2.28942626953125,-0.1220245361328125,0.9220123291015625,0.316162109375
1769657582173414400,2.299414306640625,-0.122161865234375,0.92193603515625,0.32122802734375
1769657582183402200,2.30940234375,-0.1190032958984375,0.9300689697265625,0.3274688720703125
1769657582193390300,2.319390380859375,-0.113006591796875,0.9344329833984375,0.3314208984375
1769657582203378400,2.32937841796875,-0.1049957275390625,0.9381561279296875,0.33599853515625
1769657582213366500,2.339366455078125,-0.0999298095703125,0.9385833740234375,0.3372802734375
1769657582223355400,2.34935546875,-0.1016082763671875,0.9298553466796875,0.325164794921875
1769657582233343500,2.359343505859375,-0.10345458984375,0.9303741455078125,0.318267822265625
1769657582243331300,2.369331298828125,-0.0990447998046875,0.9463653564453125,0.3040618896484375
1769657582253319400,2.3793193359375,-0.1039276123046875,0.943817138671875,0.2780609130859375
1769657582263307300,2.389307373046875,-0.091949462890625,0.9453582763671875,0.2959442138671875
1769657582273295400,2.39929541015625,-0.0867156982421875,0.9476318359375,0.3096160888671875
1769657582283283500,2.409283447265625,-0.077362060546875,0.9549560546875,0.3117218017578125
1769657582293271300,2.419271240234375,-0.0565948486328125,0.9520111083984375,0.302032470703125
1769657582303259400,2.42925927734375,-0.0340576171875,0.9465179443359375,0.2949981689453125
1769657582313247500,2.43924755859375,-0.0213470458984375,0.978668212890625,0.3029937744140625
1769657582323235600,2.449235595703125,-0.0422515869140625,0.9878082275390625,0.287261962890625
1769657582333223400,2.459223388671875,-0.06317138671875,0.97344970703125,0.2653350830078125
1769657582343211500,2.46921142578125,-0.0465087890625,0.9673309326171875,0.2835845947265625
1769657582353199400,2.479199462890625,-0.01153564453125,0.968414306640625,0.295501708984375
1769657582363187200,2.489187255859375,0.0116729736328125,0.958099365234375,0.302032470703125
1769657582373175300,2.49917529296875,0.0344696044921875,0.952301025390625,0.314178466796875
1769657582383163400,2.509163330078125,0.0622711181640625,0.947540283203125,0.3184967041015625
1769657582393151500,2.5191513671875,0.0651397705078125,0.93585205078125,0.3238372802734375
1769657582403139300,2.529139404296875,0.0632781982421875,0.9194183349609375,0.323394775390625
1769657582413127400,2.53912744140625,0.074127197265625,0.908416748046875,0.3155975341796875
1769657582423115500,2.549115478515625,0.0825653076171875,0.89923095703125,0.305694580078125
1769657582433103400,2.559103271484375,0.0699462890625,0.8994293212890625,0.3154144287109375
1769657582443091500,2.569091552734375,0.0655517578125,0.9057464599609375,0.3152923583984375
1769657582453079600,2.57907958984375,0.0764007568359375,0.9165802001953125,0.317474365234375
1769657582463068400,2.589068359375,0.0827178955078125,0.9256134033203125,0.31634521484375
1769657582473056300,2.59905615234375,0.0930328369140625,0.945404052734375,0.3151702880859375
1769657582483044400,2.60904443359375,0.0981903076171875,0.9512481689453125,0.3173065185546875
1769657582493032400,2.619032470703125,0.0953521728515625,0.954437255859375,0.3166961669921875
1769657582503020300,2.629020263671875,0.092437744140625,0.9508056640625,0.3248443603515625
1769657582513008400,2.63900830078125,0.088836669921875,0.9303436279296875,0.3170318603515625
1769657582522996500,2.64899658203125,0.100189208984375,0.932159423828125,0.3173980712890625
1769657582532984600,2.658984619140625,0.10943603515625,0.9358367919921875,0.3274688720703125
1769657582542972400,2.668972412109375,0.1271820068359375,0.9427032470703125,0.346435546875
1769657582552960500,2.67896044921875,0.1435089111328125,0.9443206787109375,0.3460540771484375
1769657582562948400,2.6889482421875,0.1450347900390625,0.9261932373046875,0.337860107421875
1769657582572936200,2.698936279296875,0.14459228515625,0.92138671875,0.33990478515625
1769657582582924300,2.70892431640625,0.1471405029296875,0.9276123046875,0.3520050048828125
1769657582592912400,2.718912353515625,0.1572418212890625,0.92633056640625,0.36090087890625
1769657582602900500,2.728900390625,0.1651153564453125,0.9195098876953125,0.3555450439453125
1769657582612888300,2.738888427734375,0.15570068359375,0.917510986328125,0.3564605712890625
1769657582622876400,2.74887646484375,0.1431884765625,0.91558837890625,0.3651275634765625
1769657582632864500,2.758864501953125,0.1414642333984375,0.91485595703125,0.359771728515625
1769657582642852400,2.768852294921875,0.138580322265625,0.9150390625,0.3541412353515625
1769657582652840400,2.77884033203125,0.1414031982421875,0.924652099609375,0.3543701171875
1769657582662828500,2.78882861328125,0.14068603515625,0.927947998046875,0.356536865234375
1769657582672816600,2.798816650390625,0.1403350830078125,0.9355621337890625,0.35223388671875
1769657582682804200,2.80880419921875,0.1424560546875,0.9342498779296875,0.3504486083984375
1769657582692793300,2.81879345703125,0.14190673828125,0.93182373046875,0.3458709716796875
1769657582702781400,2.828781494140625,0.1426239013671875,0.928375244140625,0.3437347412109375
1769657582712769500,2.83876953125,0.1406402587890625,0.9282379150390625,0.3434600830078125
1769657582722757400,2.84875732421875,0.1486968994140625,0.9290008544921875,0.331298828125
1769657582732745500,2.858745361328125,0.1680145263671875,0.9305419921875,0.32537841796875
1769657582742733600,2.868733642578125,0.171600341796875,0.9329986572265625,0.3200531005859375
1769657582752721400,2.878721435546875,0.16131591796875,0.9104766845703125,0.3213043212890625
1769657582762709500,2.88870947265625,0.1735076904296875,0.92364501953125,0.3159637451171875
1769657582772697300,2.898697265625,0.1902618408203125,0.9474639892578125,0.3157196044921875
1769657582782685400,2.908685546875,0.1925811767578125,0.9379425048828125,0.31610107421875
1769657582792673300,2.91867333984375,0.19354248046875,0.929595947265625,0.316436767578125
1769657582802661400,2.928661376953125,0.189605712890625,0.9286041259765625,0.3205718994140625
1769657582812649500,2.9386494140625,0.188232421875,0.927337646484375,0.323150634765625
1769657582822637300,2.94863720703125,0.1917877197265625,0.92523193359375,0.3265380859375
1769657582832625400,2.95862548828125,0.198150634765625,0.9249725341796875,0.32623291015625
1769657582842613500,2.968613525390625,0.2053985595703125,0.9236907958984375,0.3244171142578125
1769657582852601300,2.978601318359375,0.2123260498046875,0.922760009765625,0.3245849609375
1769657582862589400,2.98858935546875,0.217193603515625,0.9244384765625,0.32208251953125
1769657582872577500,2.99857763671875,0.2234649658203125,0.9308013916015625,0.3186187744140625
1769657582882565400,3.0085654296875,0.224365234375,0.9344635009765625,0.3174285888671875
1769657582892553200,3.01855322265625,0.2218170166015625,0.93408203125,0.310943603515625
1769657582902541300,3.028541259765625,0.2183074951171875,0.9314727783203125,0.3074188232421875
1769657582912528600,3.038528564453125,0.2166748046875,0.9283447265625,0.304718017578125
1769657582922517800,3.048517822265625,0.2196197509765625,0.9235992431640625,0.2998809814453125
1769657582932505900,3.058505859375,0.2183837890625,0.9225921630859375,0.293853759765625
1769657582942493700,3.06849365234375,0.21600341796875,0.923583984375,0.2903594970703125
1769657582952481800,3.078481689453125,0.2113037109375,0.9269256591796875,0.2913818359375
1769657582962470000,3.088469970703125,0.2070770263671875,0.931671142578125,0.294189453125
1769657582972458000,3.0984580078125,0.2030792236328125,0.9334259033203125,0.2991485595703125
1769657582982445800,3.10844580078125,0.203704833984375,0.9361419677734375,0.302459716796875
1769657582992433700,3.11843359375,0.209014892578125,0.93670654296875,0.3070068359375
1769657583002421800,3.128421875,0.2120208740234375,0.935577392578125,0.305755615234375
1769657583012409600,3.13840966796875,0.2177276611328125,0.9348297119140625,0.306427001953125
1769657583022397700,3.148397705078125,0.2208709716796875,0.9330902099609375,0.30548095703125
1769657583032385800,3.1583857421875,0.2186431884765625,0.935333251953125,0.3074188232421875
1769657583042374000,3.168373779296875,0.2172698974609375,0.930755615234375,0.302459716796875
1769657583052361700,3.17836181640625,0.2247772216796875,0.9316864013671875,0.30377197265625
1769657583062349800,3.188349853515625,0.2241973876953125,0.9326629638671875,0.2985687255859375
1769657583072338000,3.198337890625,0.225189208984375,0.932159423828125,0.300201416015625
1769657583082325800,3.20832568359375,0.230377197265625,0.9307861328125,0.3003387451171875
1769657583092313900,3.21831396484375,0.2287750244140625,0.9294891357421875,0.3002471923828125
1769657583102302000,3.228302001953125,0.2259521484375,0.929351806640625,0.30145263671875
1769657583112289800,3.238289794921875,0.2244415283203125,0.930450439453125,0.3048248291015625
1769657583122277600,3.248277587890625,0.2268218994140625,0.9289398193359375,0.3036651611328125
1769657583132265700,3.258265625,0.2298583984375,0.927490234375,0.3011932373046875
1769657583142253800,3.26825390625,0.2318115234375,0.926788330078125,0.302398681640625
1769657583152242700,3.27824267578125,0.2341461181640625,0.92498779296875,0.3019561767578125
1769657583162230800,3.288230712890625,0.235260009765625,0.9247283935546875,0.3007049560546875
1769657583172219000,3.298218994140625,0.2346649169921875,0.92608642578125,0.30010986328125
1769657583182207000,3.30820703125,0.23187255859375,0.9233551025390625,0.3000946044921875
1769657583192194800,3.31819482421875,0.2295379638671875,0.9226531982421875,0.3016357421875
1769657583202182700,3.3281826171875,0.2292938232421875,0.922393798828125,0.30084228515625
1769657583212170800,3.338170654296875,0.2270660400390625,0.9221649169921875,0.301605224609375
1769657583222158600,3.34815869140625,0.225830078125,0.920623779296875,0.303863525390625
1769657583232146700,3.358146728515625,0.2247314453125,0.9183349609375,0.303680419921875
1769657583242134800,3.368134765625,0.2239532470703125,0.9188232421875,0.3014068603515625
1769657583252123000,3.378122802734375,0.2257232666015625,0.9213409423828125,0.300140380859375
1769657583262110700,3.38811083984375,0.2251434326171875,0.9234466552734375,0.3001708984375
1769657583272098800,3.398098876953125,0.226348876953125,0.923553466796875,0.3026580810546875
1769657583282087000,3.4080869140625,0.2277679443359375,0.922698974609375,0.30596923828125
1769657583292074800,3.41807470703125,0.22735595703125,0.9191741943359375,0.308380126953125
1769657583302062800,3.428062744140625,0.227874755859375,0.91583251953125,0.3077392578125
1769657583312051000,3.438051025390625,0.2314453125,0.91522216796875,0.306732177734375
1769657583322038800,3.448038818359375,0.2339324951171875,0.914764404296875,0.308929443359375
1769657583332026600,3.458026611328125,0.23358154296875,0.9172210693359375,0.3123321533203125
1769657583342014700,3.4680146484375,0.229278564453125,0.920654296875,0.3165435791015625
1769657583352002800,3.4780029296875,0.2301025390625,0.916717529296875,0.313751220703125
1769657583361990700,3.48799072265625,0.2363433837890625,0.9248199462890625,0.3165740966796875
1769657583371978800,3.497978759765625,0.2404022216796875,0.9229888916015625,0.3137359619140625
1769657583381968000,3.5079677734375,0.2400054931640625,0.916534423828125,0.3157958984375
1769657583391956000,3.5179560546875,0.2390289306640625,0.9131622314453125,0.3127288818359375
1769657583401943800,3.52794384765625,0.246978759765625,0.9132080078125,0.3107147216796875
1769657583411931600,3.537931640625,0.2470245361328125,0.912567138671875,0.309783935546875
1769657583421919700,3.547919677734375,0.238555908203125,0.915069580078125,0.30859375
1769657583431907800,3.557907958984375,0.2335357666015625,0.918914794921875,0.309173583984375
1769657583441895700,3.567895751953125,0.2308349609375,0.9164886474609375,0.3106842041015625
1769657583451883800,3.5778837890625,0.2339019775390625,0.9105987548828125,0.311614990234375
1769657583461871900,3.587871826171875,0.2370758056640625,0.90447998046875,0.3091888427734375
1769657583471859700,3.597859619140625,0.23614501953125,0.901031494140625,0.308990478515625
1769657583481847800,3.607847900390625,0.2355804443359375,0.9010162353515625,0.3101959228515625
1769657583491836000,3.6178359375,0.237548828125,0.9033966064453125,0.3055267333984375
1769657583501823700,3.62782373046875,0.2371826171875,0.908905029296875,0.3027496337890625
1769657583511811800,3.637811767578125,0.2406005859375,0.910675048828125,0.3023223876953125
1769657583521799700,3.647799560546875,0.2413330078125,0.9123077392578125,0.30181884765625
1769657583531787800,3.657787841796875,0.2415771484375,0.9141082763671875,0.30224609375
1769657583541775600,3.667775634765625,0.24267578125,0.91265869140625,0.3004302978515625
1769657583551763700,3.677763671875,0.2499847412109375,0.9144134521484375,0.2986907958984375
1769657583561751800,3.687751708984375,0.245635986328125,0.9181060791015625,0.2934417724609375
1769657583571739600,3.69773974609375,0.24169921875,0.918609619140625,0.2943878173828125
1769657583581727700,3.707727783203125,0.2413787841796875,0.9171142578125,0.28839111328125
1769657583591715800,3.7177158203125,0.2486572265625,0.918365478515625,0.290924072265625
1769657583601704000,3.727703857421875,0.2504119873046875,0.9169769287109375,0.2875823974609375
1769657583611692500,3.737692626953125,0.250885009765625,0.9178466796875,0.2874603271484375
1769657583621680600,3.7476806640625,0.2510986328125,0.919189453125,0.2873077392578125
1769657583631668700,3.757668701171875,0.251739501953125,0.9205780029296875,0.2847137451171875
1769657583641656800,3.76765673828125,0.25225830078125,0.9197998046875,0.2823486328125
1769657583651644700,3.777644775390625,0.2554779052734375,0.9177398681640625,0.28143310546875
1769657583661632800,3.7876328125,0.2594451904296875,0.910888671875,0.281005859375
1769657583671620900,3.797620849609375,0.261627197265625,0.90789794921875,0.279937744140625
1769657583681608700,3.807608642578125,0.2587738037109375,0.9085235595703125,0.2801971435546875
1769657583691596800,3.8175966796875,0.2555694580078125,0.9092864990234375,0.2786102294921875
1769657583701585000,3.8275849609375,0.257110595703125,0.9115447998046875,0.276641845703125
1769657583711573000,3.837572998046875,0.25970458984375,0.91448974609375,0.273651123046875
1769657583721560800,3.847560791015625,0.2659912109375,0.9195404052734375,0.27337646484375
1769657583731548700,3.857548583984375,0.2689666748046875,0.922027587890625,0.2708892822265625
1769657583741536800,3.867536865234375,0.2725067138671875,0.9261627197265625,0.2710113525390625
1769657583751524600,3.877524658203125,0.2707672119140625,0.9271697998046875,0.2721099853515625
1769657583761512700,3.8875126953125,0.2687835693359375,0.927154541015625,0.2752685546875
1769657583771500800,3.897500732421875,0.26666259765625,0.92352294921875,0.276458740234375
1769657583781489000,3.907489013671875,0.268402099609375,0.9178619384765625,0.277801513671875
1769657583791476700,3.917476806640625,0.27178955078125,0.9140167236328125,0.27935791015625
1769657583801464800,3.92746484375,0.2700042724609375,0.9079742431640625,0.2799072265625
1769657583811453000,3.937452880859375,0.26800537109375,0.9064483642578125,0.2808990478515625
1769657583821440800,3.947440673828125,0.2718658447265625,0.908538818359375,0.27508544921875
1769657583831428900,3.957428955078125,0.2776947021484375,0.9068603515625,0.267669677734375
1769657583841417700,3.967417724609375,0.277801513671875,0.9077911376953125,0.2624969482421875
1769657583851405800,3.97740576171875,0.2826690673828125,0.9109039306640625,0.255615234375
1769657583861393700,3.9873935546875,0.28997802734375,0.91375732421875,0.24993896484375
1769657583871381800,3.9973818359375,0.293121337890625,0.920501708984375,0.2481536865234375
1769657583881369900,4.007369873046875,0.2918243408203125,0.9226531982421875,0.248992919921875
1769657583891357700,4.017357666015625,0.2932281494140625,0.924652099609375,0.251434326171875
1769657583901345800,4.027345703125,0.29144287109375,0.928009033203125,0.2504119873046875
1769657583911335400,4.03733544921875,0.2942047119140625,0.9282684326171875,0.2489776611328125
1769657583921323300,4.0473232421875,0.296173095703125,0.9272918701171875,0.243255615234375
1769657583931311400,4.057311279296875,0.2972259521484375,0.9234771728515625,0.2378387451171875
1769657583941299500,4.067299560546875,0.2960357666015625,0.9206695556640625,0.2320709228515625
1769657583951287300,4.077287353515625,0.2933807373046875,0.9185333251953125,0.2267608642578125
1769657583961275400,4.087275390625,0.2947235107421875,0.9156494140625,0.21575927734375
1769657583971263500,4.097263427734375,0.294952392578125,0.9209442138671875,0.2153472900390625
1769657583981251600,4.10725146484375,0.2925262451171875,0.922760009765625,0.2136077880859375
1769657583991239400,4.117239501953125,0.29510498046875,0.92327880859375,0.206878662109375
1769657584001227300,4.127227294921875,0.2994537353515625,0.924530029296875,0.1967010498046875
1769657584011215400,4.13721533203125,0.2957916259765625,0.927764892578125,0.19525146484375
1769657584021203200,4.147203125,0.289581298828125,0.9281463623046875,0.1895294189453125
1769657584031191300,4.15719140625,0.2825927734375,0.9297332763671875,0.186126708984375
1769657584041179400,4.167179443359375,0.279510498046875,0.9299774169921875,0.180755615234375
1769657584051167200,4.177167236328125,0.2804718017578125,0.926605224609375,0.1691741943359375
1769657584061156400,4.18715625,0.2796478271484375,0.9266204833984375,0.1636962890625
1769657584071144400,4.19714453125,0.275726318359375,0.9275360107421875,0.161651611328125
1769657584081132300,4.20713232421875,0.2681884765625,0.9329986572265625,0.1530609130859375
1769657584091120000,4.2171201171875,0.2603912353515625,0.93475341796875,0.148193359375
1769657584101108200,4.227108154296875,0.2447662353515625,0.9420928955078125,0.147979736328125
1769657584111096300,4.237096435546875,0.2334442138671875,0.9585723876953125,0.1533203125
1769657584121084400,4.24708447265625,0.223297119140625,0.9766845703125,0.1682281494140625
1769657584131072300,4.257072265625,0.2096405029296875,0.967010498046875,0.2138519287109375
1769657584141060400,4.267060302734375,0.19183349609375,0.97528076171875,0.1728363037109375
1769657584151048400,4.27704833984375,0.2257537841796875,1.0547332763671875,0.1806793212890625
1769657584161036300,4.287036376953125,0.2348480224609375,1.0842742919921875,0.2122650146484375
1769657584171024400,4.2970244140625,0.226287841796875,1.068695068359375,0.2025909423828125
1769657584181012500,4.307012451171875,0.21478271484375,1.0378875732421875,0.2092132568359375
1769657584191000600,4.31700048828125,0.2198028564453125,1.0148773193359375,0.20794677734375
1769657584200988400,4.326988525390625,0.2397308349609375,0.990753173828125,0.195404052734375
1769657584210976300,4.336976318359375,0.2557373046875,0.97100830078125,0.1798248291015625
1769657584220964400,4.34696435546875,0.2639007568359375,0.9434967041015625,0.1522369384765625
1769657584230952200,4.3569521484375,0.2548828125,0.92156982421875,0.1348876953125
1769657584240940300,4.366940185546875,0.254669189453125,0.9100494384765625,0.10943603515625
1769657584250928400,4.376928466796875,0.268524169921875,0.9010772705078125,0.0918731689453125
1769657584260916500,4.38691650390625,0.2755126953125,0.9061737060546875,0.07830810546875
1769657584270904300,4.396904296875,0.2811279296875,0.9145965576171875,0.067291259765625
1769657584280892400,4.406892333984375,0.2813873291015625,0.935791015625,0.0581817626953125
1769657584290881300,4.41688134765625,0.2724761962890625,0.9559478759765625,0.0574798583984375
1769657584300869400,4.426869384765625,0.2530059814453125,0.9769744873046875,0.058746337890625
1769657584310857200,4.436857177734375,0.2369537353515625,0.9854278564453125,0.06463623046875
1769657584320845300,4.44684521484375,0.2203216552734375,0.984375,0.0760650634765625
1769657584330833400,4.45683349609375,0.2127685546875,0.98089599609375,0.086090087890625
1769657584340821200,4.4668212890625,0.2017822265625,0.96575927734375,0.0966796875
1769657584350809300,4.476809326171875,0.1868896484375,0.9540863037109375,0.1111602783203125
1769657584360797400,4.48679736328125,0.1869964599609375,0.941925048828125,0.1208648681640625
1769657584370785500,4.49678564453125,0.2017364501953125,0.9323272705078125,0.1183013916015625
1769657584380773400,4.5067734375,0.2193450927734375,0.9290924072265625,0.1154022216796875
1769657584390761500,4.516761474609375,0.2333221435546875,0.9268646240234375,0.11322021484375
1769657584400749600,4.52674951171875,0.2470245361328125,0.9259796142578125,0.1070709228515625
1769657584410737200,4.536737060546875,0.265045166015625,0.9267578125,0.098724365234375
1769657584420725200,4.546725341796875,0.2821502685546875,0.9269866943359375,0.0895843505859375
1769657584430713300,4.55671337890625,0.3012237548828125,0.9281463623046875,0.0780792236328125
1769657584440701200,4.566701171875,0.320343017578125,0.933074951171875,0.0714263916015625
1769657584450689300,4.576689208984375,0.333892822265625,0.9442901611328125,0.0794525146484375
1769657584460677400,4.586677490234375,0.35693359375,0.936859130859375,0.091827392578125
1769657584470665500,4.59666552734375,0.3594207763671875,0.9257965087890625,0.106658935546875
1769657584480653300,4.6066533203125,0.3568572998046875,0.9094085693359375,0.1176300048828125
1769657584490641400,4.616641357421875,0.3690643310546875,0.899932861328125,0.1395721435546875
1769657584500629500,4.62662939453125,0.369598388671875,0.8979034423828125,0.154388427734375
1769657584510618400,4.636618408203125,0.36663818359375,0.8868865966796875,0.18072509765625
1769657584520606200,4.646606201171875,0.373809814453125,0.8794097900390625,0.2035064697265625
1769657584530594300,4.65659423828125,0.390625,0.8595733642578125,0.219696044921875
1769657584540582400,4.66658251953125,0.4142608642578125,0.839141845703125,0.2289581298828125
1769657584550570200,4.6765703125,0.441650390625,0.8215789794921875,0.2329864501953125
1769657584560558300,4.686558349609375,0.476654052734375,0.806427001953125,0.235565185546875
1769657584570546400,4.69654638671875,0.5,0.7998809814453125,0.227508544921875
1769657584580534500,4.706534423828125,0.530029296875,0.8016357421875,0.20806884765625
1769657584590522400,4.7165224609375,0.5603485107421875,0.79925537109375,0.1934814453125
1769657584600510500,4.726510498046875,0.57574462890625,0.8041229248046875,0.1840667724609375
1769657584610498300,4.736498291015625,0.580291748046875,0.8196258544921875,0.179779052734375
1769657584620486100,4.746486083984375,0.5755767822265625,0.83489990234375,0.181182861328125
1769657584630474200,4.75647412109375,0.5631866455078125,0.8409423828125,0.185455322265625
1769657584640462300,4.76646240234375,0.55938720703125,0.8519287109375,0.194976806640625
1769657584650450400,4.776450439453125,0.5613250732421875,0.8548583984375,0.194671630859375
1769657584660438300,4.786438232421875,0.5498199462890625,0.8353118896484375,0.2042388916015625
1769657584670426400,4.79642626953125,0.5583343505859375,0.8486480712890625,0.18536376953125
1769657584680414500,4.80641455078125,0.576873779296875,0.856170654296875,0.200531005859375
1769657584690402300,4.81640234375,0.5739898681640625,0.846038818359375,0.200714111328125
1769657584700390400,4.826390380859375,0.571624755859375,0.8350677490234375,0.1973419189453125
1769657584710378500,4.83637841796875,0.5692901611328125,0.81695556640625,0.1894989013671875
1769657584720366600,4.84636669921875,0.5801849365234375,0.801239013671875,0.187774658203125
1769657584730354400,4.8563544921875,0.60174560546875,0.789398193359375,0.17669677734375
1769657584740343300,4.86634326171875,0.618804931640625,0.786529541015625,0.17169189453125
1769657584750331400,4.876331298828125,0.6263885498046875,0.7825775146484375,0.1719818115234375
1769657584760319500,4.886319580078125,0.6381988525390625,0.786407470703125,0.17181396484375
1769657584770307300,4.896307373046875,0.6464996337890625,0.7923736572265625,0.1636505126953125
1769657584780295400,4.90629541015625,0.65179443359375,0.7989044189453125,0.1591033935546875
1769657584790283500,4.916283447265625,0.658782958984375,0.808746337890625,0.1631317138671875
1769657584800271400,4.926271240234375,0.654144287109375,0.8133697509765625,0.1611785888671875
1769657584810259500,4.936259521484375,0.6451568603515625,0.818695068359375,0.160369873046875
1769657584820247300,4.946247314453125,0.6279754638671875,0.8228759765625,0.154998779296875
1769657584830235100,4.956235107421875,0.6117401123046875,0.824005126953125,0.1563720703125
1769657584840223200,4.96622314453125,0.595794677734375,0.825531005859375,0.1558685302734375
1769657584850211300,4.97621142578125,0.58154296875,0.8303680419921875,0.158935546875
1769657584860199400,4.986199462890625,0.5677490234375,0.8253021240234375,0.1594085693359375
1769657584870187300,4.996187255859375,0.564910888671875,0.8248748779296875,0.1658935546875
1769657584880175400,5.00617529296875,0.5779266357421875,0.8231353759765625,0.167633056640625
1769657584890163500,5.01616357421875,0.591552734375,0.816131591796875,0.15948486328125
1769657584900151300,5.0261513671875,0.60040283203125,0.810699462890625,0.1563720703125
1769657584910139100,5.03613916015625,0.60955810546875,0.8062744140625,0.1494598388671875
1769657584920127200,5.046127197265625,0.6274261474609375,0.80328369140625,0.1381988525390625
1769657584930115300,5.056115234375,0.64324951171875,0.80352783203125,0.1302642822265625
1769657584940103200,5.066103271484375,0.6508026123046875,0.805511474609375,0.124114990234375
1769657584950092000,5.076092041015625,0.650848388671875,0.8023681640625,0.13238525390625
1769657584960080100,5.086080078125,0.637298583984375,0.7997894287109375,0.141845703125
1769657584970068200,5.096068115234375,0.623382568359375,0.7967529296875,0.149017333984375
1769657584980056000,5.10605615234375,0.615509033203125,0.794921875,0.15087890625
1769657584990044200,5.116044189453125,0.612823486328125,0.792236328125,0.1467742919921875
1769657585000032300,5.1260322265625,0.609100341796875,0.79632568359375,0.1447601318359375
1769657585010020000,5.13602001953125,0.60302734375,0.80072021484375,0.143768310546875
1769657585020008200,5.14600830078125,0.59588623046875,0.8008880615234375,0.1406402587890625
1769657585029996000,5.15599609375,0.5962066650390625,0.8021087646484375,0.13787841796875
1769657585039984000,5.165984130859375,0.6011962890625,0.7978973388671875,0.137115478515625
1769657585049972000,5.175971923828125,0.6120147705078125,0.78985595703125,0.1383209228515625
1769657585059960000,5.1859599609375,0.624420166015625,0.783416748046875,0.138092041015625
1769657585069948200,5.1959482421875,0.627593994140625,0.7765655517578125,0.1439361572265625
1769657585079936000,5.20593603515625,0.6255645751953125,0.767425537109375,0.14251708984375
1769657585089924000,5.215924072265625,0.6340789794921875,0.7661590576171875,0.14410400390625
1769657585099912200,5.225912109375,0.6383209228515625,0.768890380859375,0.140106201171875
1769657585109900000,5.235900146484375,0.637603759765625,0.7695465087890625,0.1432647705078125
1769657585119888100,5.24588818359375,0.629150390625,0.7763214111328125,0.1459503173828125
1769657585129876200,5.255876220703125,0.6266326904296875,0.7850494384765625,0.1500701904296875
1769657585139864300,5.2658642578125,0.6183013916015625,0.790252685546875,0.1510467529296875
1769657585149852200,5.27585205078125,0.612335205078125,0.798858642578125,0.1580047607421875
1769657585159840000,5.285840087890625,0.603485107421875,0.80792236328125,0.164581298828125
1769657585169828000,5.295828125,0.59906005859375,0.8118743896484375,0.1670074462890625
1769657585179817200,5.305817138671875,0.600372314453125,0.80877685546875,0.1646881103515625
1769657585189805000,5.31580517578125,0.592529296875,0.80181884765625,0.1581268310546875
1769657585199793200,5.325793212890625,0.5885772705078125,0.7958984375,0.1624298095703125
1769657585209781200,5.33578125,0.590362548828125,0.790618896484375,0.169464111328125
1769657585219769000,5.34576904296875,0.5941314697265625,0.78826904296875,0.1633758544921875
1769657585229757200,5.355757080078125,0.5988922119140625,0.7899169921875,0.1622772216796875
1769657585239745000,5.3657451171875,0.6058197021484375,0.8009490966796875,0.166015625
1769657585249733000,5.375733154296875,0.61376953125,0.81402587890625,0.1695556640625
1769657585259721000,5.385720947265625,0.610382080078125,0.8216705322265625,0.17108154296875
1769657585269709000,5.395708984375,0.600128173828125,0.82623291015625,0.17901611328125
1769657585279697200,5.405697265625,0.5920257568359375,0.82000732421875,0.18353271484375
1769657585289685000,5.41568505859375,0.593475341796875,0.8140869140625,0.1853790283203125
1769657585299673000,5.425673095703125,0.5983734130859375,0.8049468994140625,0.1865386962890625
1769657585309661200,5.4356611328125,0.601043701171875,0.8028717041015625,0.1847076416015625
1769657585319649300,5.445649169921875,0.6056365966796875,0.8018646240234375,0.1796722412109375
1769657585329637000,5.45563720703125,0.6040191650390625,0.8116455078125,0.1752471923828125
1769657585339625200,5.465625244140625,0.600860595703125,0.8144989013671875,0.163330078125
1769657585349613300,5.47561328125,0.5991668701171875,0.81903076171875,0.1619720458984375
1769657585359601000,5.485600830078125,0.5953216552734375,0.8191375732421875,0.157318115234375
1769657585369589000,5.495589111328125,0.5938262939453125,0.8192138671875,0.153076171875
1769657585379577000,5.5055771484375,0.5863800048828125,0.8190765380859375,0.1532135009765625
1769657585389565200,5.515565185546875,0.5796966552734375,0.8220672607421875,0.153594970703125
1769657585399554000,5.525553955078125,0.5786590576171875,0.82965087890625,0.1579742431640625
1769657585409542100,5.535542236328125,0.5767974853515625,0.84027099609375,0.1613616943359375
1769657585419530200,5.5455302734375,0.570892333984375,0.847259521484375,0.1656646728515625
1769657585429518300,5.555518310546875,0.565948486328125,0.8510284423828125,0.169708251953125
1769657585439506200,5.565506103515625,0.564178466796875,0.8506317138671875,0.1761322021484375
1769657585449494000,5.575493896484375,0.561309814453125,0.8487396240234375,0.184906005859375
1769657585459482000,5.585482177734375,0.5549163818359375,0.8382415771484375,0.19268798828125
1769657585469470000,5.595469970703125,0.5478515625,0.8308258056640625,0.1993560791015625
1769657585479458000,5.6054580078125,0.544342041015625,0.829071044921875,0.206634521484375
1769657585489446100,5.615446044921875,0.5428924560546875,0.823974609375,0.216522216796875
1769657585499434000,5.62543408203125,0.5356597900390625,0.81317138671875,0.2227630615234375
1769657585509422000,5.635422119140625,0.54681396484375,0.8034210205078125,0.2312774658203125
1769657585519410200,5.64541015625,0.5283203125,0.7932891845703125,0.2464599609375
1769657585529398300,5.655398193359375,0.525665283203125,0.7921600341796875,0.258056640625
1769657585539386000,5.66538623046875,0.5517120361328125,0.7884063720703125,0.258819580078125
1769657585549374200,5.675374267578125,0.56890869140625,0.7914886474609375,0.2618408203125
1769657585559362000,5.685362060546875,0.5703582763671875,0.787841796875,0.2621917724609375
1769657585569350000,5.695349853515625,0.5725250244140625,0.7879791259765625,0.2656097412109375
1769657585579338000,5.705337890625,0.5798492431640625,0.7950592041015625,0.26666259765625
1769657585589326000,5.715326171875,0.5810394287109375,0.8072662353515625,0.264862060546875
1769657585599314200,5.725314208984375,0.5706634521484375,0.820892333984375,0.266387939453125
1769657585609302000,5.735302001953125,0.549713134765625,0.8277130126953125,0.2665252685546875
1769657585619291100,5.745291015625,0.5323333740234375,0.8373565673828125,0.266021728515625
1769657585629279200,5.755279296875,0.5166168212890625,0.84710693359375,0.2699127197265625
1769657585639267300,5.765267333984375,0.4954681396484375,0.8514404296875,0.268798828125
1769657585649255000,5.7752548828125,0.467071533203125,0.85302734375,0.2773895263671875
1769657585659243000,5.785242919921875,0.4449005126953125,0.8482208251953125,0.28155517578125
1769657585669231000,5.795231201171875,0.42437744140625,0.844940185546875,0.276458740234375
1769657585679219000,5.805218994140625,0.405242919921875,0.84716796875,0.2850189208984375
1769657585689207000,5.81520703125,0.393951416015625,0.85186767578125,0.288330078125
1769657585699195100,5.825195068359375,0.384735107421875,0.858551025390625,0.293792724609375
1769657585709183200,5.835183349609375,0.371795654296875,0.8637847900390625,0.2972412109375
1769657585719171000,5.845171142578125,0.360992431640625,0.866912841796875,0.2936553955078125
1769657585729159200,5.8551591796875,0.3471832275390625,0.8776092529296875,0.296783447265625
1769657585739147300,5.865147216796875,0.33740234375,0.88568115234375,0.2917938232421875
1769657585749135000,5.875135009765625,0.3368682861328125,0.894134521484375,0.283203125
1769657585759123200,5.885123291015625,0.333038330078125,0.8946380615234375,0.276763916015625
1769657585769111000,5.895111083984375,0.326324462890625,0.8923187255859375,0.2632293701171875
1769657585779099100,5.90509912109375,0.326690673828125,0.8931732177734375,0.251007080078125
1769657585789087000,5.9150869140625,0.33038330078125,0.8973388671875,0.245880126953125
1769657585799075000,5.925074951171875,0.32342529296875,0.8931732177734375,0.2401123046875
1769657585809063200,5.935063232421875,0.3077545166015625,0.889434814453125,0.2344512939453125
1769657585819051000,5.945051025390625,0.2957305908203125,0.8893585205078125,0.23321533203125
1769657585829039000,5.9550390625,0.286712646484375,0.8964385986328125,0.229034423828125
1769657585839028200,5.9650283203125,0.274383544921875,0.9159088134765625,0.2303314208984375
1769657585849016000,5.97501611328125,0.258056640625,0.933502197265625,0.2408294677734375
1769657585859004000,5.98500390625,0.2445526123046875,0.946929931640625,0.2470550537109375
1769657585868992000,5.994991943359375,0.2270965576171875,0.954925537109375,0.251495361328125
1769657585878980000,6.00497998046875,0.2107086181640625,0.95623779296875,0.25921630859375
1769657585888968200,6.01496826171875,0.186798095703125,0.94268798828125,0.2635650634765625
1769657585898956000,6.0249560546875,0.17010498046875,0.92816162109375,0.259368896484375
1769657585908943400,6.034943359375,0.1731719970703125,0.924285888671875,0.2496490478515625
1769657585918931500,6.044931396484375,0.18701171875,0.9206085205078125,0.23681640625
1769657585928919600,6.05491943359375,0.1952362060546875,0.917877197265625,0.236358642578125
1769657585938907600,6.06490771484375,0.197845458984375,0.9232330322265625,0.2336273193359375
1769657585948895500,6.0748955078125,0.1901702880859375,0.9302215576171875,0.2440338134765625
1769657585958883600,6.084883544921875,0.18072509765625,0.939910888671875,0.2562103271484375
1769657585968871700,6.09487158203125,0.1761627197265625,0.94549560546875,0.2631988525390625
1769657585978859500,6.104859619140625,0.1806182861328125,0.94573974609375,0.269317626953125
1769657585988847600,6.11484765625,0.1869354248046875,0.937591552734375,0.27056884765625
1769657585998835500,6.12483544921875,0.1949920654296875,0.92840576171875,0.2693328857421875
1769657586008823600,6.134823486328125,0.1961212158203125,0.9157867431640625,0.267578125
1769657586018811400,6.144811279296875,0.19598388671875,0.9059295654296875,0.2589263916015625
1769657586028799500,6.154799560546875,0.1996307373046875,0.9003143310546875,0.2529296875
1769657586038787600,6.16478759765625,0.205535888671875,0.898223876953125,0.24200439453125
1769657586048775400,6.174775390625,0.211090087890625,0.90106201171875,0.23199462890625
1769657586058764500,6.1847646484375,0.213104248046875,0.909027099609375,0.2227783203125
1769657586068752600,6.194752685546875,0.200836181640625,0.91607666015625,0.2195892333984375
1769657586078740500,6.204740478515625,0.1888427734375,0.9168243408203125,0.220245361328125
1769657586088728300,6.214728271484375,0.176849365234375,0.9199981689453125,0.2244415283203125
1769657586098716400,6.22471630859375,0.16766357421875,0.9180145263671875,0.2285614013671875
1769657586108704500,6.23470458984375,0.1603546142578125,0.915618896484375,0.2285614013671875
1769657586118692600,6.244692626953125,0.153472900390625,0.914581298828125,0.22625732421875
1769657586128680400,6.254680419921875,0.141448974609375,0.916656494140625,0.2272186279296875
1769657586138668500,6.26466845703125,0.1350250244140625,0.926422119140625,0.2286834716796875
1769657586148656600,6.27465673828125,0.1266937255859375,0.9318084716796875,0.2301025390625
1769657586158644500,6.28464453125,0.115631103515625,0.9312286376953125,0.2385101318359375
1769657586168632600,6.294632568359375,0.109039306640625,0.9242401123046875,0.2444000244140625
1769657586178620700,6.30462060546875,0.1102142333984375,0.918975830078125,0.25091552734375
1769657586188608800,6.31460888671875,0.1136016845703125,0.9115142822265625,0.2596435546875
1769657586198596400,6.324596435546875,0.1207275390625,0.9045257568359375,0.26318359375
1769657586208584400,6.33458447265625,0.1254425048828125,0.9008331298828125,0.264984130859375
1769657586218572500,6.344572509765625,0.12548828125,0.8997344970703125,0.2672576904296875
1769657586228560400,6.354560302734375,0.126800537109375,0.905181884765625,0.2702789306640625
1769657586238548500,6.364548583984375,0.123291015625,0.9085845947265625,0.273162841796875
1769657586248536600,6.37453662109375,0.122711181640625,0.910675048828125,0.27496337890625
1769657586258524400,6.3845244140625,0.123260498046875,0.91143798828125,0.2732086181640625
1769657586268512500,6.394512451171875,0.12689208984375,0.9196929931640625,0.27569580078125
1769657586278501600,6.404501708984375,0.1329345703125,0.9262237548828125,0.282501220703125
1769657586288489500,6.414489501953125,0.119964599609375,0.92572021484375,0.2860260009765625
1769657586298477300,6.424477294921875,0.101531982421875,0.9263153076171875,0.3022918701171875
1769657586308465400,6.43446533203125,0.088623046875,0.92547607421875,0.3157806396484375
1769657586318453500,6.44445361328125,0.081695556640625,0.9241943359375,0.330535888671875
1769657586328441600,6.454441650390625,0.0820770263671875,0.9234466552734375,0.345855712890625
1769657586338429400,6.464429443359375,0.092681884765625,0.923431396484375,0.35565185546875
1769657586348417500,6.47441748046875,0.104522705078125,0.921661376953125,0.3616485595703125
1769657586358405600,6.484405517578125,0.1165924072265625,0.9195556640625,0.358551025390625
1769657586368393500,6.4943935546875,0.123321533203125,0.9252471923828125,0.363922119140625
1769657586378381600,6.504381591796875,0.12689208984375,0.933685302734375,0.3678741455078125
1769657586388369700,6.51436962890625,0.1301116943359375,0.9471893310546875,0.368438720703125
1769657586398357500,6.524357421875,0.137298583984375,0.9694976806640625,0.3673553466796875
1769657586408345300,6.534345458984375,0.1529998779296875,1.005523681640625,0.3556976318359375
1769657586418333400,6.54433349609375,0.1795196533203125,1.0422210693359375,0.35296630859375
1769657586428321500,6.554321533203125,0.209442138671875,1.0717010498046875,0.3585052490234375
1769657586438309400,6.564309326171875,0.23529052734375,1.1042327880859375,0.3642578125
1769657586448297500,6.57429736328125,0.243804931640625,1.13311767578125,0.3657989501953125
1769657586458285600,6.58428564453125,0.2239837646484375,1.1350250244140625,0.3602142333984375
1769657586468273700,6.594273681640625,0.18927001953125,1.1071319580078125,0.347869873046875
1769657586478261500,6.604261474609375,0.170166015625,1.0688018798828125,0.3255462646484375
1769657586488250400,6.61425048828125,0.1733245849609375,1.035400390625,0.3289642333984375
1769657586498238500,6.624238525390625,0.185638427734375,1.0060882568359375,0.32525634765625
1769657586508226600,6.6342265625,0.20855712890625,0.99334716796875,0.3287353515625
1769657586518214400,6.64421435546875,0.2339630126953125,0.9871673583984375,0.338348388671875
1769657586528202500,6.654202392578125,0.2581787109375,0.9815826416015625,0.33929443359375
1769657586538190600,6.664190673828125,0.2783050537109375,0.96954345703125,0.3422393798828125
1769657586548178400,6.674178466796875,0.2901458740234375,0.9488677978515625,0.3397979736328125
1769657586558166500,6.68416650390625,0.290802001953125,0.9113922119140625,0.326629638671875
1769657586568154600,6.694154541015625,0.2862548828125,0.874755859375,0.3135528564453125
1769657586578142700,6.704142822265625,0.2819976806640625,0.8397064208984375,0.2988739013671875
1769657586588130600,6.714130615234375,0.2798004150390625,0.8011932373046875,0.282379150390625
1769657586598118700,6.72411865234375,0.2779388427734375,0.7640533447265625,0.277923583984375
1769657586608106500,6.7341064453125,0.285186767578125,0.73162841796875,0.274169921875
1769657586618094300,6.74409423828125,0.303314208984375,0.71099853515625,0.27215576171875
1769657586628082400,6.75408251953125,0.3239288330078125,0.707366943359375,0.2753448486328125
1769657586638070500,6.764070556640625,0.34698486328125,0.7155609130859375,0.27606201171875
1769657586648058400,6.774058349609375,0.379119873046875,0.74407958984375,0.278472900390625
1769657586658046500,6.78404638671875,0.4119110107421875,0.792327880859375,0.2849578857421875
1769657586668034600,6.79403466796875,0.4284820556640625,0.8399810791015625,0.289794921875
1769657586678022700,6.804022705078125,0.4405670166015625,0.8842926025390625,0.3016357421875
1769657586688010500,6.814010498046875,0.4266815185546875,0.924468994140625,0.3032989501953125
1769657586697999400,6.823999267578125,0.4016876220703125,0.9499053955078125,0.303558349609375
1769657586707987500,6.833987548828125,0.3725433349609375,0.9559326171875,0.2781829833984375
1769657586717975600,6.8439755859375,0.3730316162109375,0.9966583251953125,0.339019775390625
1769657586727963400,6.85396337890625,0.3488616943359375,1.0081329345703125,0.347686767578125
1769657586737951500,6.863951416015625,0.3078460693359375,1.0081024169921875,0.3295745849609375
1769657586747939600,6.873939697265625,0.2736663818359375,0.9960784912109375,0.3500823974609375
1769657586757927400,6.883927490234375,0.2412567138671875,0.96112060546875,0.350128173828125
1769657586767915500,6.89391552734375,0.22503662109375,0.9219512939453125,0.3568267822265625
1769657586777903600,6.903903564453125,0.2191925048828125,0.8825836181640625,0.367279052734375
1769657586787891700,6.9138916015625,0.217864990234375,0.845123291015625,0.3822784423828125
1769657586797879600,6.923879638671875,0.2138824462890625,0.8144073486328125,0.3987579345703125
1769657586807867600,6.93386767578125,0.2061004638671875,0.7935943603515625,0.4152679443359375
1769657586817855500,6.94385546875,0.2166290283203125,0.78009033203125,0.411895751953125
1769657586827843300,6.95384326171875,0.24053955078125,0.783172607421875,0.4218597412109375
1769657586837831400,6.96383154296875,0.270751953125,0.7939605712890625,0.4317169189453125
1769657586847819500,6.973819580078125,0.2969207763671875,0.80029296875,0.4369964599609375
1769657586857807600,6.9838076171875,0.32330322265625,0.817901611328125,0.4263763427734375
1769657586867795500,6.99379541015625,0.343902587890625,0.8369598388671875,0.4192657470703125
1769657586877783600,7.003783447265625,0.3497467041015625,0.82952880859375,0.4215087890625
1769657586887771600,7.013771728515625,0.3392791748046875,0.8164215087890625,0.4127349853515625
1769657586897759500,7.023759521484375,0.32037353515625,0.8123779296875,0.410064697265625
1769657586907747300,7.033747314453125,0.3119964599609375,0.821685791015625,0.409820556640625
1769657586917735400,7.0437353515625,0.2956085205078125,0.83697509765625,0.40869140625
1769657586927724300,7.053724365234375,0.2708282470703125,0.8480072021484375,0.41705322265625
1769657586937712400,7.06371240234375,0.250274658203125,0.845367431640625,0.422515869140625
1769657586947700200,7.0737001953125,0.2401123046875,0.836700439453125,0.426971435546875
1769657586957688300,7.083688232421875,0.22418212890625,0.837432861328125,0.427978515625
1769657586967676400,7.093676513671875,0.2052154541015625,0.8313446044921875,0.4190216064453125
1769657586977664500,7.10366455078125,0.2026519775390625,0.8375244140625,0.4167327880859375
1769657586987652400,7.11365234375,0.204559326171875,0.8473358154296875,0.4053955078125
1769657586997640400,7.123640380859375,0.1985015869140625,0.846221923828125,0.3953094482421875
1769657587007628500,7.133628662109375,0.2004547119140625,0.8486785888671875,0.391021728515625
1769657587017616400,7.143616455078125,0.2121734619140625,0.848724365234375,0.391387939453125
1769657587027604200,7.153604248046875,0.2266845703125,0.83734130859375,0.3939208984375
1769657587037592300,7.16359228515625,0.23980712890625,0.8278656005859375,0.3997344970703125
1769657587047580200,7.173580078125,0.254974365234375,0.832000732421875,0.4148101806640625
1769657587057568300,7.183568359375,0.2733001708984375,0.8427276611328125,0.4317779541015625
1769657587067556400,7.193556396484375,0.294769287109375,0.860015869140625,0.4462127685546875
1769657587077544400,7.20354443359375,0.3141632080078125,0.874420166015625,0.4631805419921875
1769657587087532300,7.2135322265625,0.3311614990234375,0.8805694580078125,0.4706878662109375
1769657587097520400,7.223520263671875,0.33941650390625,0.8850555419921875,0.4736328125
1769657587107508500,7.233508544921875,0.33319091796875,0.8842315673828125,0.4761962890625
1769657587117496300,7.243496337890625,0.320159912109375,0.88067626953125,0.473541259765625
1769657587127485200,7.253485107421875,0.3126068115234375,0.885986328125,0.468231201171875
1769657587137473300,7.263473388671875,0.2995758056640625,0.8832855224609375,0.461700439453125
1769657587147461400,7.27346142578125,0.28448486328125,0.885345458984375,0.4483489990234375
1769657587157449200,7.28344921875,0.2859649658203125,0.8980255126953125,0.42559814453125
1769657587167437300,7.293437255859375,0.300933837890625,0.9151153564453125,0.406982421875
1769657587177425400,7.30342529296875,0.307373046875,0.943634033203125,0.39093017578125
1769657587187413500,7.31341357421875,0.3049163818359375,0.9701385498046875,0.3910675048828125
1769657587197401300,7.3234013671875,0.3102569580078125,0.9962615966796875,0.4049072265625
1769657587207389400,7.333389404296875,0.3038330078125,1.01702880859375,0.4202117919921875
1769657587217377500,7.34337744140625,0.3004302978515625,1.042938232421875,0.4227447509765625
1769657587227365400,7.353365478515625,0.286529541015625,1.066497802734375,0.4154205322265625
1769657587237353200,7.363353271484375,0.2701263427734375,1.0813446044921875,0.4276580810546875
1769657587247341300,7.37334130859375,0.2850189208984375,1.0987091064453125,0.42657470703125
1769657587257329400,7.383329345703125,0.287567138671875,1.122314453125,0.40838623046875
1769657587267317200,7.393317138671875,0.2734375,1.1182098388671875,0.3819427490234375
1769657587277305300,7.403305419921875,0.3045806884765625,1.155487060546875,0.37969970703125
1769657587287293400,7.41329345703125,0.3346099853515625,1.148834228515625,0.3580322265625
1769657587297281300,7.42328125,0.3144073486328125,1.0807647705078125,0.3116607666015625
1769657587307269400,7.433269287109375,0.281005859375,0.9832763671875,0.270721435546875
1769657587317257500,7.443257568359375,0.2632598876953125,0.9193572998046875,0.22308349609375
1769657587327245600,7.45324560546875,0.2625579833984375,0.892547607421875,0.1561431884765625
1769657587337234200,7.463234130859375,0.2472991943359375,0.865386962890625,0.099395751953125
1769657587347222300,7.47322216796875,0.2168731689453125,0.85430908203125,0.054107666015625
1769657587357210400,7.48321044921875,0.1880340576171875,0.85113525390625,0.0197296142578125
1769657587367198500,7.493198486328125,0.1532440185546875,0.85272216796875,-0.000946044921875
1769657587377186300,7.503186279296875,0.13116455078125,0.85638427734375,-0.0061798095703125
1769657587387174400,7.51317431640625,0.1092071533203125,0.862823486328125,0.0069427490234375
1769657587397162500,7.52316259765625,0.0889434814453125,0.8793182373046875,0.0500335693359375
1769657587407150300,7.533150390625,0.0787506103515625,0.91473388671875,0.116455078125
1769657587417138400,7.543138427734375,0.0745849609375,0.9532470703125,0.1929779052734375
1769657587427126500,7.55312646484375,0.0728302001953125,0.9736175537109375,0.2472991943359375
1769657587437114400,7.5631142578125,0.090606689453125,0.987213134765625,0.287872314453125
1769657587447102200,7.573102294921875,0.122894287109375,0.9730682373046875,0.3013153076171875
1769657587457090300,7.58309033203125,0.1601715087890625,0.942901611328125,0.2762451171875
1769657587467078400,7.593078369140625,0.2050018310546875,0.918304443359375,0.2408599853515625
1769657587477066200,7.603066162109375,0.23699951171875,0.9010772705078125,0.2158355712890625
1769657587487054300,7.613054443359375,0.2515869140625,0.8931427001953125,0.187286376953125
1769657587497042400,7.62304248046875,0.2567138671875,0.8992767333984375,0.1646728515625
1769657587507030300,7.6330302734375,0.2730255126953125,0.914642333984375,0.1452178955078125
1769657587517018400,7.643018310546875,0.2670440673828125,0.9380645751953125,0.1434478759765625
1769657587527006500,7.65300634765625,0.2332611083984375,0.95904541015625,0.1533966064453125
1769657587536995300,7.662995361328125,0.1757049560546875,0.980133056640625,0.1648712158203125
1769657587546983200,7.672983154296875,0.1130218505859375,0.9957733154296875,0.1757049560546875
1769657587556971300,7.68297119140625,0.05279541015625,1.003570556640625,0.19268798828125
1769657587566959400,7.69295947265625,0.0183868408203125,0.99407958984375,0.2061004638671875
1769657587576947500,7.702947509765625,0.023223876953125,0.9659881591796875,0.2071075439453125
1769657587586935300,7.712935302734375,0.05511474609375,0.931976318359375,0.19354248046875
1769657587596923400,7.72292333984375,0.0892333984375,0.90716552734375,0.1975555419921875
1769657587606911500,7.732911376953125,0.1064605712890625,0.892364501953125,0.204132080078125
1769657587616899300,7.7428994140625,0.1197052001953125,0.8831787109375,0.2166900634765625
1769657587626887400,7.752887451171875,0.1419525146484375,0.8851776123046875,0.2325592041015625
1769657587636875300,7.762875244140625,0.148651123046875,0.86700439453125,0.23028564453125
1769657587646863400,7.77286328125,0.142364501953125,0.845123291015625,0.2211456298828125
1769657587656851200,7.782851318359375,0.1374664306640625,0.85137939453125,0.24371337890625
1769657587666839300,7.79283935546875,0.129241943359375,0.851470947265625,0.2553863525390625
1769657587676827400,7.802827392578125,0.1224365234375,0.857879638671875,0.2577056884765625
1769657587686815200,7.812815185546875,0.1081390380859375,0.86383056640625,0.28314208984375
1769657587696803300,7.82280322265625,0.0921478271484375,0.8609771728515625,0.2906646728515625
1769657587706791400,7.83279150390625,0.079010009765625,0.8589935302734375,0.30224609375
1769657587716779500,7.842779541015625,0.067230224609375,0.8529510498046875,0.29913330078125
1769657587726767400,7.852767333984375,0.065765380859375,0.8507232666015625,0.292266845703125
1769657587736755500,7.86275537109375,0.0691986083984375,0.852203369140625,0.2931976318359375
1769657587746744300,7.872744384765625,0.08251953125,0.8563385009765625,0.279937744140625
1769657587756732400,7.882732421875,0.104522705078125,0.8600311279296875,0.2687225341796875
1769657587766720300,7.89272021484375,0.1189727783203125,0.8639373779296875,0.258941650390625
1769657587776708400,7.902708251953125,0.130950927734375,0.8679962158203125,0.2517852783203125
1769657587786696400,7.912696533203125,0.1352386474609375,0.8794708251953125,0.2553253173828125
1769657587796684300,7.922684326171875,0.120086669921875,0.8965301513671875,0.25872802734375
1769657587806672400,7.93267236328125,0.1024169921875,0.9136962890625,0.2776336669921875
1769657587816660500,7.942660400390625,0.0876922607421875,0.9217681884765625,0.296722412109375
1769657587826648600,7.952648681640625,0.083984375,0.92724609375,0.3169403076171875
1769657587836636400,7.962636474609375,0.088836669921875,0.9323577880859375,0.3216552734375
1769657587846624300,7.972624267578125,0.0892486572265625,0.9327850341796875,0.323516845703125
1769657587856612400,7.9826123046875,0.0912322998046875,0.931976318359375,0.33135986328125
1769657587866600200,7.99260009765625,0.0900115966796875,0.935302734375,0.348724365234375
1769657587876588300,8.00258837890625,0.081573486328125,0.93792724609375,0.368988037109375
1769657587886576400,8.012576416015625,0.0809783935546875,0.9438323974609375,0.379974365234375
1769657587896564200,8.022564208984376,0.082672119140625,0.952484130859375,0.3840789794921875
1769657587906552300,8.03255224609375,0.0843353271484375,0.9639434814453125,0.3834228515625
1769657587916540000,8.042539794921876,0.108245849609375,0.984130859375,0.3734283447265625
1769657587926528000,8.052528076171875,0.153106689453125,1.022216796875,0.3655548095703125
1769657587936516000,8.06251611328125,0.202606201171875,1.0562286376953125,0.36285400390625
1769657587946504000,8.07250390625,0.2372894287109375,1.07574462890625,0.3542633056640625
1769657587956492800,8.082492919921876,0.2762451171875,1.1085662841796875,0.3502960205078125
1769657587966481000,8.09248095703125,0.3186492919921875,1.1466217041015625,0.3369140625
1769657587976469000,8.102468994140626,0.3160400390625,1.1260223388671875,0.286468505859375
1769657587986456800,8.112456787109375,0.3231353759765625,1.1669921875,0.25390625
1769657587996445000,8.12244482421875,0.314666748046875,1.1986236572265625,0.3003082275390625
1769657588006433000,8.13243310546875,0.272186279296875,1.181182861328125,0.332916259765625
1769657588016421000,8.142421142578126,0.2169342041015625,1.164459228515625,0.376190185546875
1769657588026409000,8.152408935546875,0.1717681884765625,1.14312744140625,0.405303955078125
1769657588036397000,8.16239697265625,0.164306640625,1.128143310546875,0.40863037109375
1769657588046385200,8.17238525390625,0.200775146484375,1.1048126220703125,0.37664794921875
1769657588056373000,8.182373046875,0.2695770263671875,1.0657196044921875,0.329742431640625
1769657588066360800,8.19236083984375,0.3461151123046875,1.0103607177734375,0.31195068359375
1769657588076349000,8.202348876953126,0.3815765380859375,0.9180755615234375,0.2621917724609375
1769657588086337000,8.2123369140625,0.393402099609375,0.8399200439453125,0.2167816162109375
1769657588096324900,8.222324951171874,0.4159393310546875,0.78228759765625,0.2225189208984375
1769657588106313000,8.23231298828125,0.4466552734375,0.7443389892578125,0.2151947021484375
1769657588116301000,8.242301025390624,0.4920196533203125,0.71673583984375,0.216949462890625
1769657588126289000,8.252288818359375,0.52960205078125,0.7077178955078125,0.21868896484375
1769657588136277000,8.262277099609374,0.56268310546875,0.7150115966796875,0.219635009765625
1769657588146265000,8.27226513671875,0.5872650146484375,0.743072509765625,0.2271270751953125
1769657588156254000,8.28225390625,0.5862884521484375,0.78753662109375,0.22967529296875
1769657588166241800,8.29224169921875,0.5634002685546875,0.851104736328125,0.26190185546875
1769657588176230000,8.30222998046875,0.51531982421875,0.9130706787109375,0.2878875732421875
1769657588186218000,8.312218017578125,0.4573211669921875,0.937652587890625,0.266693115234375
1769657588196206000,8.3222060546875,0.410247802734375,0.95965576171875,0.24847412109375
1769657588206194000,8.33219384765625,0.362152099609375,0.985595703125,0.26202392578125
1769657588216182000,8.34218212890625,0.33135986328125,0.9828948974609375,0.267913818359375
1769657588226170000,8.352170166015625,0.297027587890625,0.9589385986328125,0.2711181640625
1769657588236158000,8.362157958984374,0.255584716796875,0.926422119140625,0.2719268798828125
1769657588246146000,8.37214599609375,0.2439727783203125,0.8988800048828125,0.2749786376953125
1769657588256134100,8.382134033203124,0.2504119873046875,0.8710174560546875,0.2851715087890625
1769657588266122000,8.3921220703125,0.2568817138671875,0.8385467529296875,0.288482666015625
1769657588276109800,8.40210986328125,0.2742919921875,0.816497802734375,0.2889251708984375
1769657588286098000,8.412097900390625,0.290618896484375,0.80340576171875,0.29443359375
1769657588296086000,8.4220859375,0.32550048828125,0.7995758056640625,0.2877960205078125
1769657588306073900,8.432073974609375,0.371795654296875,0.8055419921875,0.2798004150390625
1769657588316062000,8.44206201171875,0.4064788818359375,0.817779541015625,0.277069091796875
1769657588326050000,8.452050048828125,0.423004150390625,0.82501220703125,0.276031494140625
1769657588336038000,8.462037841796874,0.42205810546875,0.8299407958984375,0.275421142578125
1769657588346026000,8.47202587890625,0.4110565185546875,0.833709716796875,0.2785797119140625
1769657588356014000,8.48201416015625,0.400634765625,0.8401641845703125,0.2817230224609375
1769657588366003000,8.4920029296875,0.39068603515625,0.840301513671875,0.279998779296875
1769657588375990800,8.50199072265625,0.371551513671875,0.84490966796875,0.279632568359375
1769657588385979000,8.511978759765626,0.3507232666015625,0.850921630859375,0.2788848876953125
1769657588395967000,8.521967041015625,0.3417510986328125,0.861114501953125,0.2822265625
1769657588405955000,8.531955078125,0.33599853515625,0.871734619140625,0.284820556640625
1769657588415943000,8.54194287109375,0.342193603515625,0.879302978515625,0.2816009521484375
1769657588425931000,8.551930908203126,0.3576202392578125,0.892486572265625,0.2809906005859375
1769657588435919000,8.561919189453125,0.3608551025390625,0.89495849609375,0.272857666015625
1769657588445907000,8.571906982421876,0.36505126953125,0.8981781005859375,0.2682342529296875
1769657588455895000,8.58189501953125,0.3665771484375,0.9034881591796875,0.2667388916015625
1769657588465883100,8.591883056640626,0.3696746826171875,0.9055328369140625,0.270111083984375
1769657588475871000,8.60187109375,0.38287353515625,0.911590576171875,0.274139404296875
1769657588485858800,8.61185888671875,0.397491455078125,0.9161529541015625,0.27667236328125
1769657588495847000,8.621846923828125,0.4119415283203125,0.9185943603515625,0.27996826171875
1769657588505835000,8.6318349609375,0.4286041259765625,0.9182891845703125,0.2768402099609375
1769657588515822800,8.64182275390625,0.42718505859375,0.9165496826171875,0.280181884765625
1769657588525811000,8.65181103515625,0.429443359375,0.8990478515625,0.2651824951171875
1769657588535799000,8.661799072265625,0.4329986572265625,0.89208984375,0.253631591796875
1769657588545787100,8.671787109375,0.4334259033203125,0.86871337890625,0.2552337646484375
1769657588555775000,8.68177490234375,0.438232421875,0.8415679931640625,0.2595672607421875
1769657588565763800,8.691763916015624,0.45001220703125,0.8149871826171875,0.2613067626953125
1769657588575752000,8.701751953125,0.46026611328125,0.79132080078125,0.2630157470703125
1769657588585740000,8.711739990234374,0.4723663330078125,0.7751922607421875,0.26446533203125
1769657588595728000,8.721727783203125,0.4770660400390625,0.7740020751953125,0.2664947509765625
1769657588605716000,8.731716064453124,0.4838104248046875,0.789947509765625,0.2647247314453125
1769657588615704000,8.7417041015625,0.4971771240234375,0.8183746337890625,0.2589263916015625
1769657588625692000,8.75169189453125,0.50286865234375,0.859161376953125,0.249053955078125
1769657588635680000,8.761679931640625,0.4994354248046875,0.8905181884765625,0.245880126953125
1769657588645668000,8.771668212890624,0.4752197265625,0.9062957763671875,0.2324371337890625
1769657588655656200,8.78165625,0.4292449951171875,0.9239959716796875,0.2171478271484375
1769657588665644000,8.79164404296875,0.395843505859375,0.948577880859375,0.2138671875
1769657588675631900,8.8016318359375,0.3878173828125,0.9643402099609375,0.1938629150390625
1769657588685620000,8.811619873046874,0.36248779296875,0.970916748046875,0.173980712890625
1769657588695607800,8.82160791015625,0.3265838623046875,0.96380615234375,0.149261474609375
1769657588705596000,8.831595947265624,0.2796173095703125,0.9514617919921875,0.1298980712890625
1769657588715584000,8.841583984375,0.23565673828125,0.985443115234375,0.1336212158203125
1769657588725571800,8.85157177734375,0.217620849609375,1.0736236572265625,0.17877197265625
1769657588735560000,8.861559814453125,0.2075042724609375,1.1316070556640625,0.2247314453125
1769657588745548000,8.871548095703124,0.167022705078125,1.1286773681640625,0.2186737060546875
1769657588755536100,8.8815361328125,0.133514404296875,1.1086578369140625,0.2059783935546875
1769657588765525000,8.89152490234375,0.1248931884765625,1.07232666015625,0.2017822265625
1769657588775512800,8.901512939453125,0.1551055908203125,1.02349853515625,0.1699066162109375
1769657588785501000,8.9115009765625,0.1932525634765625,0.9796142578125,0.136962890625
1769657588795489000,8.921489013671875,0.2335662841796875,0.9603271484375,0.1194000244140625
1769657588805476900,8.931476806640624,0.2523956298828125,0.956451416015625,0.1119842529296875
1769657588815465000,8.94146484375,0.267974853515625,0.962982177734375,0.0998992919921875
1769657588825453000,8.951453125,0.288787841796875,0.9796142578125,0.100677490234375
1769657588835441000,8.96144091796875,0.30731201171875,0.9985809326171875,0.1175689697265625
1769657588845429000,8.971428955078125,0.317962646484375,1.0110015869140625,0.139190673828125
1769657588855417000,8.9814169921875,0.304046630859375,1.003173828125,0.164825439453125
1769657588865405200,8.9914052734375,0.2747344970703125,0.9864654541015625,0.1631622314453125
1769657588875393000,9.00139306640625,0.2423553466796875,0.96697998046875,0.1488800048828125
1769657588885380900,9.011380859375,0.2053070068359375,0.9499664306640625,0.145263671875
1769657588895369000,9.021368896484375,0.1739654541015625,0.9421844482421875,0.1463470458984375
1769657588905356800,9.031356689453125,0.1611175537109375,0.9420013427734375,0.1439208984375
1769657588915345400,9.041345458984376,0.1506195068359375,0.9387359619140625,0.1590118408203125
1769657588925333500,9.05133349609375,0.1539154052734375,0.9305267333984375,0.1613006591796875
1769657588935321600,9.061321533203126,0.1591339111328125,0.9296875,0.1639556884765625
1769657588945309400,9.071309326171875,0.1671142578125,0.916778564453125,0.1612548828125
1769657588955297500,9.081297607421876,0.1809234619140625,0.9048614501953125,0.15625
1769657588965285600,9.09128564453125,0.19036865234375,0.9004974365234375,0.146331787109375
1769657588975274500,9.1012744140625,0.1918792724609375,0.8949127197265625,0.1377105712890625
1769657588985262300,9.111262451171875,0.194793701171875,0.89453125,0.1358489990234375
1769657588995250400,9.12125048828125,0.1889495849609375,0.9011688232421875,0.1361236572265625
1769657589005238500,9.131238525390625,0.182220458984375,0.9088897705078125,0.13995361328125
1769657589015226600,9.1412265625,0.169921875,0.91522216796875,0.1544342041015625
1769657589025214500,9.15121435546875,0.166717529296875,0.9300079345703125,0.162841796875
1769657589035202600,9.16120263671875,0.17218017578125,0.947509765625,0.16839599609375
1769657589045190700,9.171190673828125,0.1741943359375,0.9635009765625,0.1714019775390625
1769657589055178500,9.181178466796876,0.16607666015625,0.969268798828125,0.1671905517578125
1769657589065166600,9.19116650390625,0.154296875,0.9656829833984375,0.1609954833984375
1769657589075154400,9.201154541015624,0.1497344970703125,0.9606170654296875,0.15338134765625
1769657589085142300,9.211142333984375,0.1526031494140625,0.9626922607421875,0.149017333984375
1769657589095130400,9.22113037109375,0.145172119140625,0.9508819580078125,0.1411590576171875
1769657589105118500,9.231118408203125,0.1446990966796875,0.9419403076171875,0.138519287109375
1769657589115106600,9.2411064453125,0.1470947265625,0.9367218017578125,0.1334686279296875
1769657589125094400,9.251094482421875,0.1427154541015625,0.9383697509765625,0.128021240234375
1769657589135082500,9.26108251953125,0.1232757568359375,0.9422760009765625,0.1357879638671875
1769657589145070600,9.271070556640625,0.1192779541015625,0.9456024169921875,0.143829345703125
1769657589155058400,9.281058349609374,0.1193695068359375,0.94354248046875,0.1468353271484375
1769657589165046500,9.291046630859375,0.1182403564453125,0.9395294189453125,0.1495208740234375
1769657589175034600,9.30103466796875,0.1213226318359375,0.9378509521484375,0.1533203125
1769657589185023500,9.3110234375,0.1181488037109375,0.9379730224609375,0.158111572265625
1769657589195011300,9.32101123046875,0.1082000732421875,0.9378204345703125,0.1672515869140625
1769657589204999400,9.33099951171875,0.0943145751953125,0.936553955078125,0.177337646484375
1769657589214987500,9.340987548828124,0.087921142578125,0.9350433349609375,0.1884918212890625
1769657589224975600,9.3509755859375,0.0908050537109375,0.9340057373046875,0.1944580078125
1769657589234963500,9.36096337890625,0.07501220703125,0.9429931640625,0.2132720947265625
1769657589244951600,9.37095166015625,0.073150634765625,0.9408111572265625,0.221954345703125
1769657589254939600,9.380939697265624,0.0803070068359375,0.94305419921875,0.2335357666015625
1769657589264927500,9.390927490234375,0.0805816650390625,0.945648193359375,0.235321044921875
1769657589274915600,9.40091552734375,0.0865020751953125,0.954345703125,0.239227294921875
1769657589284903400,9.4109033203125,0.093963623046875,0.9637298583984375,0.2389373779296875
1769657589294891500,9.4208916015625,0.10723876953125,0.976470947265625,0.24334716796875
1769657589304879400,9.43087939453125,0.1123199462890625,0.9871978759765625,0.2505035400390625
1769657589314867500,9.440867431640624,0.1147003173828125,1.0054931640625,0.268829345703125
1769657589324855600,9.45085546875,0.125030517578125,1.0351715087890625,0.298126220703125
1769657589334843400,9.460843505859375,0.135955810546875,1.0699310302734375,0.32598876953125
1769657589344831500,9.47083154296875,0.1654052734375,1.1006011962890625,0.3544464111328125
1769657589354819600,9.480819580078125,0.181915283203125,1.0941009521484375,0.3826904296875
1769657589364807400,9.490807373046875,0.1748199462890625,1.03741455078125,0.3915863037109375
1769657589374795500,9.50079541015625,0.172149658203125,0.980438232421875,0.346588134765625
1769657589384784400,9.510784423828126,0.2007904052734375,0.942779541015625,0.310333251953125
1769657589394772500,9.5207724609375,0.212615966796875,0.8880767822265625,0.2949066162109375
1769657589404760600,9.530760498046876,0.206268310546875,0.821990966796875,0.2879180908203125
1769657589414748400,9.54074853515625,0.2400054931640625,0.787841796875,0.292144775390625
1769657589424736500,9.550736572265626,0.30596923828125,0.802886962890625,0.340850830078125
1769657589434724600,9.560724609375,0.3535614013671875,0.840606689453125,0.3815460205078125
1769657589444712400,9.57071240234375,0.38916015625,0.8804473876953125,0.4021148681640625
1769657589454700500,9.580700439453125,0.427337646484375,0.93511962890625,0.4303131103515625
1769657589464688600,9.590688720703126,0.4295501708984375,0.946563720703125,0.44024658203125
1769657589474676500,9.600676513671875,0.459381103515625,0.9324493408203125,0.4962615966796875
1769657589484664300,9.610664306640626,0.5047607421875,0.945648193359375,0.4282989501953125
1769657589494652400,9.62065234375,0.4915313720703125,0.9370880126953125,0.4159393310546875
1769657589504640500,9.630640625,0.4413604736328125,0.9221954345703125,0.4269866943359375
1769657589514628400,9.64062841796875,0.4271392822265625,0.9247894287109375,0.4210968017578125
1769657589524616400,9.650616455078126,0.43487548828125,0.9318389892578125,0.4170074462890625
1769657589534604500,9.6606044921875,0.4354400634765625,0.915069580078125,0.3967132568359375
1769657589544592400,9.67059228515625,0.426483154296875,0.883453369140625,0.381591796875
1769657589554580500,9.68058056640625,0.4111785888671875,0.8557891845703125,0.3778533935546875
1769657589564568600,9.690568603515626,0.3990325927734375,0.8311767578125,0.3660736083984375
1769657589574556700,9.700556640625,0.391387939453125,0.80584716796875,0.3631439208984375
1769657589584544500,9.71054443359375,0.3654327392578125,0.782440185546875,0.36614990234375
1769657589594533400,9.720533447265625,0.336517333984375,0.7642669677734375,0.3642578125
1769657589604521500,9.730521484375,0.303070068359375,0.7507781982421875,0.3714599609375
1769657589614509600,9.740509521484375,0.28271484375,0.743560791015625,0.382293701171875
1769657589624497400,9.750497314453124,0.2667236328125,0.7459869384765625,0.390411376953125
1769657589634485500,9.760485595703125,0.252838134765625,0.745391845703125,0.414794921875
1769657589644473600,9.7704736328125,0.242218017578125,0.7429962158203125,0.438873291015625
1769657589654461400,9.78046142578125,0.245697021484375,0.7430419921875,0.4592437744140625
1769657589664449500,9.790449462890624,0.2586669921875,0.7487335205078125,0.48681640625
1769657589674437600,9.800437744140625,0.273193359375,0.7555999755859375,0.504669189453125
1769657589684425500,9.810425537109374,0.291961669921875,0.7594146728515625,0.5074462890625
1769657589694413300,9.820413330078125,0.317413330078125,0.762786865234375,0.4867401123046875
1769657589704401400,9.8304013671875,0.333953857421875,0.7667694091796875,0.46002197265625
1769657589714389500,9.840389404296875,0.3341064453125,0.7820587158203125,0.4536590576171875
1769657589724377300,9.85037744140625,0.334869384765625,0.8094329833984375,0.4312286376953125
1769657589734365400,9.860365478515625,0.3178253173828125,0.836700439453125,0.4309844970703125
1769657589744353500,9.870353515625,0.2907562255859375,0.8594818115234375,0.418121337890625
1769657589754341600,9.880341552734375,0.2877197265625,0.87725830078125,0.4029693603515625
1769657589764329500,9.89032958984375,0.2884521484375,0.8925933837890625,0.401611328125
1769657589774317600,9.900317626953125,0.277862548828125,0.8950347900390625,0.4022979736328125
1769657589784305700,9.9103056640625,0.2711334228515625,0.8997039794921875,0.4034881591796875
1769657589794294500,9.92029443359375,0.2687225341796875,0.90576171875,0.4117889404296875
1769657589804282400,9.930282470703125,0.26629638671875,0.90728759765625,0.425537109375
1769657589814270500,9.9402705078125,0.2666168212890625,0.895904541015625,0.44000244140625
1769657589824258600,9.950258544921875,0.2717437744140625,0.8778839111328125,0.4458465576171875
1769657589834246400,9.960246337890625,0.274749755859375,0.8547821044921875,0.453125
1769657589844234500,9.970234375,0.2927703857421875,0.8345794677734375,0.4599151611328125
1769657589854222600,9.98022265625,0.308441162109375,0.8180694580078125,0.473175048828125
1769657589864210400,9.99021044921875,0.3141632080078125,0.8082122802734375,0.47821044921875
1769657589874198500,10.000198486328125,0.3155670166015625,0.8080291748046875,0.4980926513671875
1769657589884186600,10.0101865234375,0.3109283447265625,0.8074798583984375,0.49627685546875
1769657589894174500,10.020174560546875,0.3102264404296875,0.8080596923828125,0.4867401123046875
1769657589904162300,10.030162353515625,0.3134765625,0.82275390625,0.4655609130859375
1769657589914150000,10.04014990234375,0.3055877685546875,0.843994140625,0.4565582275390625
1769657589924137700,10.0501376953125,0.2862091064453125,0.8639373779296875,0.45440673828125
1769657589934125800,10.060125732421875,0.262939453125,0.8689727783203125,0.4370269775390625
1769657589944114000,10.070114013671875,0.259002685546875,0.8885498046875,0.4230194091796875
1769657589954101800,10.080101806640625,0.256195068359375,0.9007720947265625,0.4224700927734375
1769657589964089900,10.09008984375,0.2630157470703125,0.90704345703125,0.424163818359375
1769657589974078000,10.100077880859375,0.262481689453125,0.9109039306640625,0.4398040771484375
1769657589984065800,10.110065673828124,0.26080322265625,0.907073974609375,0.451202392578125
1769657589994054000,10.120053955078125,0.2688751220703125,0.9005126953125,0.4553070068359375
1769657590004042800,10.130042724609375,0.269134521484375,0.8905792236328125,0.461761474609375
1769657590014030800,10.14003076171875,0.2663116455078125,0.8829803466796875,0.4675445556640625
1769657590024018700,10.150018798828125,0.2521209716796875,0.8759918212890625,0.474853515625
1769657590034006800,10.1600068359375,0.24127197265625,0.8751068115234375,0.474395751953125
1769657590043995000,10.169994873046875,0.2439422607421875,0.8865203857421875,0.473663330078125
1769657590053983000,10.17998291015625,0.2557220458984375,0.9119415283203125,0.4756622314453125
1769657590063970800,10.189970703125,0.2813873291015625,0.9551239013671875,0.4794464111328125
1769657590073959000,10.199958984375,0.3115997314453125,0.9912109375,0.4763336181640625
1769657590083947000,10.209947021484375,0.3254241943359375,1.0234375,0.4748687744140625
1769657590093934800,10.219934814453126,0.3258819580078125,1.053955078125,0.4781494140625
1769657590103923000,10.2299228515625,0.33721923828125,1.086669921875,0.469268798828125
1769657590113911000,10.2399111328125,0.3532867431640625,1.1153411865234375,0.4505462646484375
1769657590123898600,10.249898681640625,0.3478240966796875,1.1240386962890625,0.42718505859375
1769657590133886700,10.25988671875,0.3204193115234375,1.101287841796875,0.3931884765625
1769657590143874800,10.269874755859375,0.2840423583984375,1.0642547607421875,0.3497161865234375
1769657590153863000,10.27986279296875,0.2719879150390625,1.024688720703125,0.300079345703125
1769657590163850800,10.289850830078125,0.2890472412109375,0.998077392578125,0.248077392578125
1769657590173838800,10.2998388671875,0.30267333984375,0.9683837890625,0.2093048095703125
1769657590183827000,10.309826904296875,0.3035430908203125,0.927154541015625,0.189056396484375
1769657590193814800,10.319814697265626,0.310638427734375,0.89044189453125,0.1674957275390625
1769657590203804000,10.329803955078125,0.2877349853515625,0.8426971435546875,0.1591949462890625
1769657590213791700,10.339791748046874,0.294525146484375,0.8233642578125,0.12579345703125
1769657590223779800,10.34977978515625,0.310699462890625,0.8043670654296875,0.0926513671875
1769657590233767700,10.359767578125,0.323272705078125,0.79547119140625,0.0579833984375
1769657590243755800,10.369755859375,0.3167877197265625,0.807159423828125,0.0377960205078125
1769657590253743900,10.379743896484374,0.2914581298828125,0.829498291015625,0.0348968505859375
1769657590263732000,10.38973193359375,0.2740325927734375,0.86822509765625,0.0374755859375
1769657590273719800,10.3997197265625,0.2470550537109375,0.91998291015625,0.0634613037109375
1769657590283708000,10.4097080078125,0.2086944580078125,0.974853515625,0.11688232421875
1769657590293696000,10.419696044921874,0.158172607421875,1.018341064453125,0.161041259765625
1769657590303683800,10.429683837890625,0.115936279296875,1.0394439697265625,0.2183837890625
1769657590313672000,10.439671875,0.1149139404296875,1.043792724609375,0.2669677734375
1769657590323659800,10.44965966796875,0.145599365234375,1.0330963134765625,0.2880706787109375
1769657590333648000,10.45964794921875,0.19342041015625,1.0160064697265625,0.2772064208984375
1769657590343635700,10.4696357421875,0.2418670654296875,0.999359130859375,0.2623748779296875
1769657590353623800,10.479623779296874,0.2680511474609375,0.977783203125,0.2502899169921875
1769657590363612000,10.48961181640625,0.28173828125,0.953460693359375,0.2418975830078125
1769657590373599700,10.499599853515624,0.278839111328125,0.924835205078125,0.2183380126953125
1769657590383587800,10.509587890625,0.2667694091796875,0.8930511474609375,0.203369140625
1769657590393576000,10.519575927734374,0.2574462890625,0.874420166015625,0.2003173828125
1769657590403565000,10.52956494140625,0.2512969970703125,0.860748291015625,0.2056732177734375
1769657590413552600,10.539552734375,0.2372894287109375,0.849884033203125,0.195343017578125
1769657590423540700,10.549540771484375,0.2122344970703125,0.849578857421875,0.1910400390625
1769657590433528800,10.55952880859375,0.18048095703125,0.847320556640625,0.209747314453125
1769657590443517000,10.569516845703125,0.1506195068359375,0.834991455078125,0.2133636474609375
1769657590453504800,10.5795048828125,0.1393280029296875,0.836517333984375,0.2100830078125
1769657590463492900,10.589492919921875,0.1224365234375,0.8578033447265625,0.2185516357421875
1769657590473481000,10.59948095703125,0.1150970458984375,0.8722686767578125,0.2208709716796875
1769657590483468800,10.60946875,0.1080322265625,0.8686676025390625,0.2220458984375
1769657590493457000,10.619456787109375,0.0958099365234375,0.8416595458984375,0.20269775390625
1769657590503445000,10.629445068359376,0.0959320068359375,0.8305206298828125,0.2066192626953125
1769657590513433000,10.63943310546875,0.10052490234375,0.829254150390625,0.2119598388671875
1769657590523421000,10.6494208984375,0.1078338623046875,0.830169677734375,0.214508056640625
1769657590533408800,10.65940869140625,0.1155853271484375,0.836029052734375,0.2317352294921875
1769657590543396900,10.66939697265625,0.1194305419921875,0.8401031494140625,0.2425689697265625
1769657590553384700,10.679384765625,0.11358642578125,0.8348388671875,0.2595672607421875
1769657590563372800,10.689372802734376,0.09832763671875,0.8152618408203125,0.2726593017578125
1769657590573361000,10.69936083984375,0.1040496826171875,0.8118438720703125,0.2797698974609375
1769657590583348700,10.7093486328125,0.119354248046875,0.81494140625,0.281585693359375
1769657590593336800,10.7193369140625,0.13079833984375,0.8192901611328125,0.281494140625
1769657590603325000,10.729324951171876,0.1446990966796875,0.8266754150390625,0.27801513671875
1769657590613313800,10.739313720703125,0.1627655029296875,0.843658447265625,0.27337646484375
1769657590623301600,10.749301513671876,0.168731689453125,0.872528076171875,0.276702880859375
1769657590633289700,10.759289794921875,0.1544342041015625,0.9047088623046875,0.29541015625
1769657590643277800,10.76927783203125,0.1332855224609375,0.93695068359375,0.31573486328125
1769657590653266000,10.779265869140625,0.12445068359375,0.9649810791015625,0.3383941650390625
1769657590663253800,10.789253662109376,0.1221466064453125,0.9846649169921875,0.3607330322265625
1769657590673241900,10.799241943359375,0.1158599853515625,0.9908447265625,0.36859130859375
1769657590683230000,10.80922998046875,0.1143646240234375,0.9991302490234375,0.36981201171875
1769657590693217800,10.8192177734375,0.11712646484375,1.014251708984375,0.3724517822265625
1769657590703206000,10.829205810546876,0.106903076171875,1.0261077880859375,0.3753662109375
1769657590713194000,10.839194091796875,0.0810394287109375,1.036102294921875,0.385162353515625
1769657590723182000,10.84918212890625,0.0671844482421875,1.0580596923828125,0.4000396728515625
1769657590733170000,10.859169921875,0.071746826171875,1.09002685546875,0.4029998779296875
1769657590743157800,10.86915771484375,0.089080810546875,1.12298583984375,0.4104766845703125
1769657590753145900,10.879145751953125,0.1215972900390625,1.150054931640625,0.429901123046875
1769657590763133700,10.8891337890625,0.1837310791015625,1.179046630859375,0.4534454345703125
1769657590773121800,10.899121826171875,0.2475738525390625,1.2042236328125,0.4787445068359375
1769657590783110000,10.90910986328125,0.26824951171875,1.174530029296875,0.4160003662109375
1769657590793098000,10.919097900390625,0.3318023681640625,1.1943511962890625,0.3754425048828125
1769657590803085800,10.9290859375,0.393585205078125,1.227935791015625,0.3627166748046875
1769657590813074000,10.939073974609375,0.3789215087890625,1.1608123779296875,0.3561553955078125
1769657590823062800,10.949062744140624,0.3222198486328125,1.0419464111328125,0.3381805419921875
1769657590833051000,10.95905078125,0.2879638671875,0.95428466796875,0.3306427001953125
1769657590843038700,10.969038818359374,0.2646484375,0.886199951171875,0.3448333740234375
1769657590853026800,10.97902685546875,0.254150390625,0.8272857666015625,0.3428802490234375
1769657590863015000,10.989014892578124,0.264404296875,0.7727813720703125,0.3344573974609375
1769657590873002800,10.999002685546875,0.301239013671875,0.714691162109375,0.319976806640625
1769657590882990800,11.008990966796874,0.3316192626953125,0.6781005859375,0.3410186767578125
1769657590892979000,11.01897900390625,0.375885009765625,0.6653594970703125,0.3327484130859375
1769657590902967000,11.028967041015624,0.4554901123046875,0.6708831787109375,0.31884765625
1769657590912955100,11.038955078125,0.5319366455078125,0.712127685546875,0.33221435546875
1769657590922943200,11.048943115234374,0.58428955078125,0.7650146484375,0.35711669921875
1769657590932931000,11.05893115234375,0.6086273193359375,0.79931640625,0.3501739501953125
1769657590942919000,11.0689189453125,0.5975799560546875,0.83831787109375,0.3529052734375
1769657590952907000,11.078906982421875,0.576812744140625,0.8872833251953125,0.3588409423828125
1769657590962894800,11.088894775390624,0.53338623046875,0.9356231689453125,0.3524169921875
1769657590972883000,11.098883056640625,0.4910888671875,0.965423583984375,0.3371124267578125
1769657590982871000,11.10887109375,0.4337615966796875,0.9795684814453125,0.344024658203125
1769657590992859100,11.118859130859375,0.3707122802734375,0.9936676025390625,0.3536224365234375
1769657591002847000,11.128846923828124,0.3351287841796875,0.98138427734375,0.3704833984375
1769657591012835000,11.1388349609375,0.2994537353515625,0.9663543701171875,0.3813934326171875
1769657591022824000,11.148823974609375,0.269256591796875,0.941558837890625,0.3940277099609375
1769657591032812000,11.15881201171875,0.2455291748046875,0.9160003662109375,0.3817901611328125
1769657591042799900,11.1687998046875,0.2305908203125,0.8964996337890625,0.3790435791015625
1769657591052788000,11.1787880859375,0.21710205078125,0.8760833740234375,0.373382568359375
1769657591062776000,11.188776123046875,0.2092742919921875,0.8523101806640625,0.371734619140625
1769657591072764000,11.198763916015626,0.2211761474609375,0.8217315673828125,0.363983154296875
1769657591082752000,11.208751953125,0.2514190673828125,0.79119873046875,0.349639892578125
1769657591092740000,11.218739990234376,0.269195556640625,0.7575531005859375,0.3403778076171875
1769657591102728200,11.228728271484375,0.288482666015625,0.7320098876953125,0.3353118896484375
1769657591112716000,11.238716064453126,0.315338134765625,0.7154693603515625,0.3209686279296875
1769657591122704100,11.2487041015625,0.334197998046875,0.710296630859375,0.309814453125
1769657591132692200,11.258692138671876,0.333221435546875,0.7074432373046875,0.3136749267578125
1769657591142679800,11.2686796875,0.3213348388671875,0.7055206298828125,0.3287811279296875
1769657591152668000,11.27866796875,0.3080596923828125,0.717620849609375,0.3406219482421875
1769657591162656000,11.288656005859375,0.2966156005859375,0.7314910888671875,0.34954833984375
1769657591172644000,11.29864404296875,0.2768096923828125,0.7403106689453125,0.344024658203125
1769657591182632000,11.3086318359375,0.2556915283203125,0.7484283447265625,0.352081298828125
1769657591192620000,11.3186201171875,0.2418365478515625,0.75238037109375,0.3619842529296875
1769657591202608000,11.328608154296875,0.2446441650390625,0.758941650390625,0.3695068359375
1769657591212596000,11.338595947265626,0.2581634521484375,0.7752838134765625,0.3773193359375
1769657591222584000,11.348583984375,0.2620391845703125,0.7905731201171875,0.3817291259765625
1769657591232573000,11.358572998046874,0.2603302001953125,0.8087615966796875,0.38983154296875
1769657591242561000,11.36856103515625,0.2523040771484375,0.816497802734375,0.3897247314453125
1769657591252548900,11.378548828125,0.2562255859375,0.81817626953125,0.3908233642578125
1769657591262537000,11.388536865234375,0.26953125,0.815948486328125,0.39154052734375
1769657591272525000,11.398525146484374,0.2808685302734375,0.8159637451171875,0.4000396728515625
1769657591282513200,11.40851318359375,0.2817840576171875,0.827850341796875,0.4154815673828125
1769657591292501000,11.4185009765625,0.275360107421875,0.852691650390625,0.436798095703125
1769657591302489000,11.428489013671875,0.2680816650390625,0.8788299560546875,0.4601593017578125
1769657591312477200,11.438477294921874,0.254974365234375,0.895843505859375,0.4730224609375
1769657591322465000,11.448465087890625,0.24853515625,0.9058685302734375,0.47894287109375
1769657591332453000,11.458453125,0.251617431640625,0.90667724609375,0.47296142578125
1769657591342441000,11.46844091796875,0.256805419921875,0.9005889892578125,0.4573516845703125
1769657591352428800,11.4784287109375,0.260528564453125,0.8938446044921875,0.4473876953125
1769657591362417000,11.4884169921875,0.2620849609375,0.89007568359375,0.447113037109375
1769657591372405000,11.498405029296874,0.2559051513671875,0.8857269287109375,0.4473876953125
1769657591382393000,11.50839306640625,0.244293212890625,0.8831024169921875,0.447845458984375
1769657591392381000,11.518380859375,0.2367401123046875,0.8863525390625,0.4519805908203125
1769657591402369000,11.528369140625,0.2389068603515625,0.89599609375,0.4536285400390625
1769657591412357000,11.538357177734374,0.2600250244140625,0.922332763671875,0.4478759765625
1769657591422345000,11.548344970703125,0.2942962646484375,0.963348388671875,0.4328155517578125
1769657591432333800,11.558333740234374,0.33062744140625,1.0128173828125,0.4297027587890625
1769657591442322000,11.568322021484375,0.3443756103515625,1.0634613037109375,0.4406585693359375
1769657591452310000,11.57831005859375,0.3538055419921875,1.1103057861328125,0.46343994140625
1769657591462297900,11.5882978515625,0.3644256591796875,1.1345672607421875,0.47552490234375
1769657591472286000,11.598285888671874,0.357177734375,1.14373779296875,0.4793853759765625
1769657591482274000,11.608274169921875,0.332916259765625,1.1100616455078125,0.47564697265625
1769657591492262100,11.61826220703125,0.2940826416015625,1.048370361328125,0.44342041015625
1769657591502250000,11.62825,0.2844696044921875,1.0328369140625,0.3821258544921875
1769657591512238000,11.638238037109375,0.327850341796875,1.0465545654296875,0.289947509765625
1769657591522226200,11.64822607421875,0.36962890625,1.0410919189453125,0.209869384765625
1769657591532214000,11.658214111328125,0.3732452392578125,1.006988525390625,0.123260498046875
1769657591542202000,11.6682021484375,0.37017822265625,0.956451416015625,0.0256195068359375
1769657591552190000,11.67818994140625,0.3729095458984375,0.9018707275390625,-0.0316619873046875
1769657591562178000,11.688177978515625,0.364288330078125,0.8719940185546875,-0.07745361328125
1769657591572166000,11.698165771484375,0.3341827392578125,0.8808746337890625,-0.090240478515625
1769657591582154000,11.708154052734375,0.34130859375,0.9286651611328125,-0.060516357421875
1769657591592142000,11.71814208984375,0.33563232421875,1.00732421875,-0.007843017578125
1769657591602130000,11.7281298828125,0.2921600341796875,1.112579345703125,0.0853424072265625
1769657591612118000,11.738117919921875,0.2327728271484375,1.16448974609375,0.16650390625
1769657591622106000,11.748106201171876,0.1883544921875,1.1802520751953125,0.20220947265625
1769657591632095000,11.758094970703125,0.1697540283203125,1.199798583984375,0.24700927734375
1769657591642082800,11.768082763671876,0.1562042236328125,1.194061279296875,0.29718017578125
1769657591652071000,11.77807080078125,0.139617919921875,1.14556884765625,0.3268890380859375
1769657591662059000,11.78805908203125,0.1686553955078125,1.087249755859375,0.3140411376953125
1769657591672047000,11.798047119140625,0.2431488037109375,1.0329132080078125,0.292388916015625
1769657591682035000,11.808034912109376,0.292205810546875,0.99810791015625,0.2753448486328125
1769657591692023000,11.81802294921875,0.2992095947265625,0.9659576416015625,0.2547607421875
1769657591702011100,11.82801123046875,0.3111724853515625,0.929840087890625,0.2398223876953125
1769657591711999000,11.8379990234375,0.3153533935546875,0.89483642578125,0.2228240966796875
1769657591721987000,11.847987060546876,0.314910888671875,0.861724853515625,0.213775634765625
1769657591731975200,11.85797509765625,0.312713623046875,0.83587646484375,0.1992034912109375
1769657591741963000,11.867962890625,0.2925567626953125,0.8131256103515625,0.1884002685546875
1769657591751951000,11.877951171875,0.27435302734375,0.8019256591796875,0.197265625
1769657591761939000,11.88793896484375,0.25872802734375,0.8036956787109375,0.1902313232421875
1769657591771927000,11.897927001953125,0.2322998046875,0.80828857421875,0.1766510009765625
1769657591781915000,11.907914794921876,0.1910552978515625,0.8114166259765625,0.1841278076171875
1769657591791903000,11.917903076171875,0.1516571044921875,0.8094940185546875,0.1649627685546875
1769657591801891000,11.92789111328125,0.1082000732421875,0.804901123046875,0.1522369384765625
1769657591811879000,11.93787890625,0.081024169921875,0.791046142578125,0.1513519287109375
1769657591821867000,11.947866943359376,0.0828857421875,0.78106689453125,0.132354736328125
1769657591831855000,11.957855224609375,0.0977630615234375,0.7775115966796875,0.11810302734375
1769657591841844000,11.967843994140624,0.1023712158203125,0.7713623046875,0.1251373291015625
1769657591851831800,11.977831787109375,0.1009521484375,0.770477294921875,0.1419219970703125
1769657591861820000,11.98781982421875,0.1063690185546875,0.7740020751953125,0.16552734375
1769657591871808000,11.99780810546875,0.119384765625,0.7772369384765625,0.1921539306640625
1769657591881796000,12.007796142578124,0.123138427734375,0.7754058837890625,0.219818115234375
1769657591891784000,12.017783935546875,0.1243133544921875,0.769317626953125,0.2434539794921875
1769657591901772000,12.02777197265625,0.1288909912109375,0.7646331787109375,0.2618255615234375
1769657591911760100,12.037760009765625,0.1412506103515625,0.7656707763671875,0.2740325927734375
1769657591921748200,12.047748291015624,0.152801513671875,0.7746124267578125,0.2831878662109375
1769657591931736000,12.057736083984375,0.16961669921875,0.790618896484375,0.28472900390625
1769657591941724200,12.06772412109375,0.186859130859375,0.809783935546875,0.2821044921875
1769657591951712300,12.077712158203125,0.2038116455078125,0.8392181396484375,0.2866058349609375
1769657591961700000,12.0877001953125,0.2169036865234375,0.8828125,0.29681396484375
1769657591971688000,12.09768798828125,0.214874267578125,0.9287872314453125,0.310302734375
1769657591981676000,12.107676025390624,0.19207763671875,0.9673919677734375,0.323760986328125
1769657591991664000,12.1176640625,0.1636505126953125,1.0047454833984375,0.3422393798828125
1769657592001652000,12.12765185546875,0.1300048828125,1.0399322509765625,0.3674774169921875
1769657592011640000,12.13764013671875,0.10675048828125,1.06573486328125,0.3720245361328125
1769657592021628200,12.147628173828124,0.0769805908203125,1.074432373046875,0.3748321533203125
1769657592031616300,12.1576162109375,0.0510101318359375,1.073822021484375,0.37176513671875
1769657592041604000,12.16760400390625,0.045867919921875,1.06915283203125,0.3748016357421875
1769657592051593000,12.177593017578126,0.0566558837890625,1.062347412109375,0.3804168701171875
1769657592061581000,12.1875810546875,0.06781005859375,1.05889892578125,0.3809356689453125
1769657592071569200,12.197569091796876,0.090545654296875,1.0952606201171875,0.3997955322265625
1769657592081557000,12.207556884765625,0.1327667236328125,1.150970458984375,0.40911865234375
1769657592091545000,12.217545166015626,0.1905517578125,1.1915740966796875,0.4300537109375
1769657592101533200,12.227533203125,0.2386016845703125,1.21240234375,0.45123291015625
1769657592111521000,12.23752099609375,0.297882080078125,1.2555389404296875,0.4651336669921875
1769657592121509000,12.247509033203125,0.3688812255859375,1.272613525390625,0.4435882568359375
1769657592131497200,12.257497314453126,0.39215087890625,1.2220458984375,0.39483642578125
1769657592141485300,12.2674853515625,0.3860931396484375,1.1371917724609375,0.339752197265625
1769657592151473200,12.27747314453125,0.3757476806640625,1.0343170166015625,0.274749755859375
1769657592161461000,12.2874609375,0.346923828125,0.9398651123046875,0.2537078857421875
1769657592171449000,12.297448974609376,0.302001953125,0.8636016845703125,0.273834228515625
1769657592181437000,12.30743701171875,0.2549896240234375,0.802581787109375,0.2913055419921875
1769657592191425000,12.317425048828126,0.219512939453125,0.7458648681640625,0.3009185791015625
1769657592201413000,12.3274130859375,0.2109222412109375,0.70538330078125,0.3117523193359375
1769657592211401200,12.337401123046876,0.236358642578125,0.683349609375,0.319732666015625
1769657592221389000,12.34738916015625,0.2802276611328125,0.6800079345703125,0.3112640380859375
1769657592231377200,12.357377197265626,0.3596343994140625,0.710540771484375,0.29107666015625
1769657592241365200,12.367365234375,0.4750518798828125,0.7871246337890625,0.2704620361328125
1769657592251353000,12.37735302734375,0.5891571044921875,0.8798370361328125,0.2517852783203125
1769657592261342000,12.387342041015625,0.64764404296875,0.948150634765625,0.2507781982421875
1769657592271330000,12.397330078125,0.613525390625,0.979705810546875,0.23828125
1769657592281318100,12.407318115234375,0.535675048828125,1.0197296142578125,0.239776611328125
1769657592291306000,12.417305908203126,0.4705963134765625,1.0533599853515625,0.2343292236328125
1769657592301294000,12.427294189453125,0.4154510498046875,1.059844970703125,0.23699951171875
1769657592311282200,12.4372822265625,0.35089111328125,1.056610107421875,0.2546539306640625
1769657592321270300,12.447270263671875,0.2957305908203125,1.0265655517578125,0.25726318359375
1769657592331258000,12.457258056640624,0.2498931884765625,0.9857177734375,0.25146484375
1769657592341246200,12.46724609375,0.2228240966796875,0.9505615234375,0.2479705810546875
1769657592351234300,12.477234375,0.2011260986328125,0.90936279296875,0.2472076416015625
1769657592361222100,12.48722216796875,0.1839752197265625,0.874053955078125,0.250030517578125
1769657592371210000,12.4972099609375,0.1658477783203125,0.8434600830078125,0.24786376953125
1769657592381198000,12.507197998046875,0.1728363037109375,0.83599853515625,0.2501983642578125
1769657592391186000,12.51718603515625,0.2041473388671875,0.830718994140625,0.2491455078125
1769657592401174000,12.527174072265625,0.2360382080078125,0.805633544921875,0.25909423828125
1769657592411162000,12.537162109375,0.2782440185546875,0.775238037109375,0.256805419921875
1769657592421150200,12.547150146484375,0.318023681640625,0.75335693359375,0.258026123046875
1769657592431138000,12.557137939453124,0.349639892578125,0.7619781494140625,0.259185791015625
1769657592441126100,12.567126220703125,0.3733978271484375,0.767608642578125,0.2662200927734375
1769657592451115000,12.577114990234374,0.4007568359375,0.763702392578125,0.265625
1769657592461103000,12.58710302734375,0.423431396484375,0.7552032470703125,0.250335693359375
1769657592471091000,12.597091064453124,0.43841552734375,0.7660980224609375,0.2457122802734375
1769657592481079000,12.6070791015625,0.410003662109375,0.786163330078125,0.256805419921875
1769657592491067100,12.617067138671874,0.3702239990234375,0.8111419677734375,0.261322021484375
1769657592501055000,12.627054931640625,0.3356781005859375,0.838226318359375,0.274078369140625
1769657592511043000,12.63704296875,0.3029022216796875,0.8745269775390625,0.294036865234375
1769657592521031200,12.64703125,0.27764892578125,0.9084625244140625,0.309844970703125
1769657592531019300,12.657019287109375,0.264892578125,0.9413909912109375,0.3193511962890625
1769657592541007000,12.667007080078125,0.2646026611328125,0.9645233154296875,0.3222503662109375
1769657592550995200,12.6769951171875,0.2886505126953125,0.9815521240234375,0.3216400146484375
1769657592560983300,12.6869833984375,0.3325347900390625,0.9871368408203125,0.3106536865234375
1769657592570971100,12.69697119140625,0.37469482421875,0.9786376953125,0.296722412109375
1769657592580959000,12.706958984375,0.4006195068359375,0.96270751953125,0.2904510498046875
1769657592590947000,12.716947021484375,0.4156341552734375,0.9463348388671875,0.2854766845703125
1769657592600935200,12.72693505859375,0.4217987060546875,0.939605712890625,0.287109375
1769657592610923000,12.736923095703125,0.413299560546875,0.926422119140625,0.2913818359375
1769657592620911000,12.7469111328125,0.4016571044921875,0.9134368896484375,0.3017425537109375
1769657592630899200,12.756899169921875,0.37969970703125,0.9073028564453125,0.3182373046875
1769657592640887000,12.766886962890625,0.3656463623046875,0.88946533203125,0.3485565185546875
1769657592650875100,12.776875244140625,0.370361328125,0.8638458251953125,0.3676910400390625
1769657592660864000,12.786864013671876,0.3861083984375,0.8360137939453125,0.36907958984375
1769657592670852000,12.79685205078125,0.4047393798828125,0.81695556640625,0.3705902099609375
1769657592680840000,12.80683984375,0.4213104248046875,0.804168701171875,0.367889404296875
1769657592690828000,12.816828125,0.4388427734375,0.7926177978515625,0.3564300537109375
1769657592700816100,12.826816162109376,0.463470458984375,0.794158935546875,0.3447265625
1769657592710804200,12.83680419921875,0.47998046875,0.8048858642578125,0.340484619140625
1769657592720792000,12.8467919921875,0.4806976318359375,0.83026123046875,0.34527587890625
1769657592730780200,12.8567802734375,0.45947265625,0.8519439697265625,0.334686279296875
1769657592740768300,12.866768310546876,0.42657470703125,0.861419677734375,0.3222503662109375
1769657592750756000,12.876756103515625,0.382659912109375,0.8683319091796875,0.300994873046875
1769657592760744200,12.886744140625,0.351348876953125,0.876678466796875,0.2765960693359375
1769657592770732300,12.896732177734375,0.3309783935546875,0.8944854736328125,0.262054443359375
1769657592780719900,12.906719970703126,0.300018310546875,0.91058349609375,0.2615203857421875
1769657592790708000,12.9167080078125,0.2740325927734375,0.9084014892578125,0.2503509521484375
1769657592800696000,12.926696044921876,0.2574310302734375,0.8994598388671875,0.23724365234375
1769657592810684200,12.93668408203125,0.2664947509765625,0.903228759765625,0.2191009521484375
1769657592820672000,12.946672119140626,0.2819061279296875,0.9273223876953125,0.2176055908203125
1769657592830660000,12.95666015625,0.302520751953125,0.9609375,0.22320556640625
1769657592840648200,12.966648193359376,0.3168487548828125,0.985687255859375,0.221588134765625
1769657592850636000,12.976635986328125,0.28118896484375,0.990264892578125,0.2142486572265625
1769657592860625200,12.986625244140624,0.231781005859375,0.9847259521484375,0.2079010009765625
1769657592870613000,12.996613037109375,0.205810546875,0.974761962890625,0.1927337646484375
1769657592880601000,13.00660107421875,0.20947265625,0.9677886962890625,0.17144775390625
1769657592890589000,13.0165888671875,0.2180938720703125,0.959014892578125,0.1632232666015625
1769657592900577000,13.026576904296874,0.2267608642578125,0.9640960693359375,0.1603851318359375
1769657592910565000,13.036565185546875,0.2319488525390625,0.9815216064453125,0.166778564453125
1769657592920553000,13.046552978515624,0.2301025390625,0.994720458984375,0.174163818359375
1769657592930540800,13.056540771484375,0.219696044921875,1.017669677734375,0.1786651611328125
1769657592940529000,13.06652880859375,0.2206878662109375,1.044219970703125,0.18408203125
1769657592950517000,13.07651708984375,0.2093658447265625,1.0750885009765625,0.1927490234375
1769657592960504800,13.0865048828125,0.1693115234375,1.08758544921875,0.221954345703125
1769657592970493000,13.096492919921875,0.151702880859375,1.0818939208984375,0.2469329833984375
1769657592980481000,13.10648095703125,0.165863037109375,1.0560455322265625,0.244171142578125
1769657592990468900,13.11646875,0.190948486328125,1.0107879638671875,0.247161865234375
1769657593000456700,13.126456787109374,0.2108306884765625,0.9542083740234375,0.2469940185546875
1769657593010444800,13.13644482421875,0.2150726318359375,0.9202880859375,0.2366485595703125
1769657593020433000,13.146432861328124,0.2150115966796875,0.9050140380859375,0.2366790771484375
