time,seconds_elapsed,z,y,x
1769657579936093200,0.06209326171875,0.002147573046386242,0.06878332793712616,0.036318328231573105
1769657579946081300,0.072081298828125,-0.00586641114205122,0.005116731394082308,0.010913633741438389
1769657579956069000,0.082069091796875,0.0012772521004080772,-0.003777693957090378,-0.018548117950558662
1769657579966057000,0.092056884765625,0.008561263792216778,0.003725496120750904,-0.04416852816939354
1769657579976045000,0.102045166015625,0.013025254011154175,-0.016377374529838562,-0.07712381333112717
1769657579986034200,0.1120341796875,0.009375925175845623,-0.01979714073240757,-0.08659215271472931
1769657579996022300,0.122022216796875,0.006018477492034435,0.003428020980209112,-0.07541299611330032
1769657580006010000,0.132010009765625,0.0015036207623779774,0.027542944997549057,-0.05754238739609718
1769657580015998200,0.141998291015625,-0.005537510849535465,0.029152026399970055,-0.04920909181237221
1769657580025986300,0.151986328125,-0.010921090841293335,0.01648763008415699,-0.04042625054717064
1769657580035974100,0.16197412109375,-0.01411475334316492,0.019876502454280853,-0.036138031631708145
1769657580045962000,0.1719619140625,-0.015442606061697006,0.003404052462428808,-0.03634921833872795
1769657580055950000,0.1819501953125,-0.0060110208578407764,-0.018143849447369576,-0.04338449239730835
1769657580065938000,0.19193798828125,0.002008556155487895,-0.0240014735609293,-0.04182201623916626
1769657580075926000,0.201926025390625,0.006201436743140221,-0.019359583035111427,-0.03238962963223457
1769657580085914000,0.2119140625,0.005771868862211704,-0.008731439709663391,-0.019707124680280685
1769657580095902200,0.221902099609375,0.029274266213178635,0.00392869533970952,-0.014781342819333076
1769657580105890000,0.23189013671875,0.01404870767146349,0.015839682891964912,-0.010421748273074627
1769657580115878100,0.241878173828125,0.024261929094791412,0.00242187874391675,-0.016439693048596382
1769657580125866200,0.2518662109375,0.03262851759791374,-0.0010290454374626279,-0.007407582364976406
1769657580135854000,0.26185400390625,0.020713267847895622,0.004983839578926563,0.0005997438565827906
1769657580145842200,0.27184228515625,0.00660384027287364,-0.009785785339772701,0.0026969832833856344
1769657580155830300,0.281830322265625,0.0030056436080485582,-0.026932548731565475,-0.006077866069972515
1769657580165818000,0.291818115234375,0.00401711231097579,-0.032390695065259933,-0.015456453897058964
1769657580175806000,0.301805908203125,0.0029561088886111975,-0.03633670136332512,-0.032104674726724625
1769657580185794000,0.3117939453125,0.0011688614031299949,-0.035645611584186554,-0.03995806723833084
1769657580195783200,0.321783203125,-0.0056770602241158485,-0.037219807505607605,-0.03641526401042938
1769657580205771300,0.331771240234375,-0.009316270239651203,-0.031992554664611816,-0.029932066798210144
1769657580215759000,0.341759033203125,-0.00881186779588461,-0.017475929111242294,-0.019001919776201248
1769657580225747200,0.351747314453125,-0.013598100282251835,-0.004547347314655781,-0.012840963900089264
1769657580235735300,0.3617353515625,-0.012600746937096119,-0.02666250243782997,-0.025465678423643112
1769657580245723100,0.37172314453125,-0.012135492637753487,-0.04338635504245758,-0.04145316779613495
1769657580255711000,0.3817109375,-0.011239338666200638,-0.03922543302178383,-0.038007304072380066
1769657580265699000,0.391698974609375,-0.01116157416254282,-0.024448085576295853,-0.030233003199100494
1769657580275687200,0.401687255859375,-0.01800030656158924,-0.019962789490818977,-0.01446788851171732
1769657580285675000,0.411675048828125,-0.018873022869229317,-0.015037539415061474,-0.009740245528519154
1769657580295663000,0.4216630859375,-0.015451660379767418,-0.016290290281176567,-0.014939268119633198
1769657580305651200,0.431651123046875,-0.011088604107499123,-0.02016039565205574,-0.020670657977461815
1769657580315639000,0.44163916015625,-0.00583605095744133,-0.018850918859243393,-0.018250908702611923
1769657580325627100,0.451627197265625,-0.006128466222435236,-0.016715331003069878,-0.007503456436097622
1769657580335615200,0.461615234375,0.0036450685001909733,-0.0187784805893898,-0.0026349315885454416
1769657580345603300,0.471603271484375,-0.0013193299528211355,-0.01176158431917429,-0.0032858080230653286
1769657580355591200,0.481591064453125,0.004437092691659927,-0.018909774720668793,-0.009887784719467163
1769657580365579000,0.4915791015625,0.028653748333454132,-0.005918875336647034,0.00039787625428289175
1769657580375567000,0.501567138671875,0.016473781317472458,0.015142734162509441,0.02364780567586422
1769657580385555000,0.511554931640625,0.0004522047529462725,0.02833816409111023,0.03598463162779808
1769657580395544000,0.5215439453125,-0.007799599785357714,0.013217534869909286,0.030410902574658394
1769657580405532200,0.5315322265625,-0.009302421472966671,-0.005407548509538174,0.009305884130299091
1769657580415520300,0.541520263671875,-0.011500861495733261,-0.020618459209799767,-0.011457984335720539
1769657580425508000,0.551508056640625,-0.009414540603756905,-0.027349332347512245,-0.01930765062570572
1769657580435496200,0.56149609375,-0.0110457269474864,-0.018940135836601257,-0.019121496006846428
1769657580445484300,0.571484375,-0.011895009316504002,-0.005863215308636427,-0.010301639325916767
1769657580455471900,0.581471923828125,-0.012891829945147038,0.0030064424499869347,-0.0015502260066568851
1769657580465460000,0.5914599609375,-0.011316037736833096,0.0001174454009742476,-0.0005581985460594296
1769657580475448000,0.601447998046875,-0.012539493851363659,-0.0034269557800143957,-0.0011257182341068983
1769657580485436200,0.611436279296875,-0.011740545742213726,0.0007339671719819307,0.00026019083452410996
1769657580495424000,0.621424072265625,-0.012808472849428654,0.0037526602391153574,0.003084473079070449
1769657580505412000,0.631412109375,-0.010493920184671879,0.004706870764493942,0.0019086875254288316
1769657580515400200,0.641400146484375,-0.008233162574470043,0.001749164192005992,-0.00040666470886208117
1769657580525388000,0.651387939453125,-0.007792143151164055,-0.007873902097344398,-0.008794024586677551
1769657580535376100,0.661376220703125,-0.004328435752540827,-0.006243781186640263,-0.006806773599237204
1769657580545364200,0.6713642578125,-0.008251804858446121,-0.003989415243268013,-0.008255266584455967
1769657580555352300,0.681352294921875,-0.009708287194371223,-0.006530071143060923,-0.007474960293620825
1769657580565340200,0.691340087890625,-0.008637430146336555,0.003725229762494564,-0.0027987160719931126
1769657580575328000,0.701327880859375,-0.008705873973667622,0.007193464320152998,-0.0012988236267119646
1769657580585316000,0.711316162109375,-0.008625712245702744,-0.0003757720405701548,-0.002097239252179861
1769657580595304000,0.721303955078125,-0.007967911660671234,-0.00905474741011858,-0.011772503145039082
1769657580605292000,0.7312919921875,-0.008468319661915302,-0.016039153560996056,-0.01690760999917984
1769657580615280000,0.741280029296875,0.0021787320729345083,-0.014427408576011658,-0.018851717934012413
1769657580625269200,0.751269287109375,-0.007809453643858433,0.0026162895374000072,-0.008889098651707172
1769657580635257000,0.761257080078125,-0.006138852797448635,0.004461327567696571,-0.005812615156173706
1769657580645245200,0.7712451171875,-0.00857111718505621,0.004613926634192467,-0.0070429956540465355
1769657580655233000,0.78123291015625,-0.009249158203601837,-0.001469798618927598,-0.012144813314080238
1769657580665221000,0.79122119140625,-0.009404953569173813,-0.01028885692358017,-0.016983244568109512
1769657580675209000,0.801208984375,-0.007492803502827883,-0.011299259960651398,-0.01828473061323166
1769657580685197000,0.811197021484375,-0.007203850895166397,-0.010373012162744999,-0.019532155245542526
1769657580695185200,0.82118505859375,-0.005275988485664129,-0.007409180514514446,-0.02292395755648613
1769657580705173000,0.831173095703125,-0.004776645917445421,0.000005326322025211994,-0.02745000086724758
1769657580715161000,0.8411611328125,-0.005910619627684355,0.0020634171087294817,-0.023196665570139885
1769657580725149200,0.851149169921875,-0.005140699911862612,-0.00012729909212794155,-0.01635740138590336
1769657580735137300,0.86113720703125,0.0019441075855866075,-0.001975266495719552,-0.019225092604756355
1769657580745125000,0.871125,0.002797118155285716,-0.01062388252466917,-0.019418172538280487
1769657580755113200,0.88111328125,0.003765976056456566,-0.009583651088178158,-0.01224441546946764
1769657580765101300,0.891101318359375,0.006346312817186117,-0.002204298507422209,-0.006448578089475632
1769657580775089200,0.901089111328125,-0.00007483482477255166,-0.0018064221367239952,-0.00794580765068531
1769657580785077000,0.911076904296875,0.0007930893916636705,-0.00950801745057106,-0.02967320755124092
1769657580795065000,0.921065185546875,-0.003005377249792218,-0.017654627561569214,-0.044076912105083466
1769657580805053000,0.931052978515625,-0.0026226809713989496,-0.01672358624637127,-0.05098728463053703
1769657580815041000,0.941041015625,-0.002725212834775448,-0.011012171395123005,-0.0522213913500309
1769657580825029000,0.951029052734375,-0.0018527611391618848,-0.011085407808423042,-0.053710632026195526
1769657580835017200,0.961017333984375,-0.0026732811238616705,-0.0024027039762586355,-0.04963945969939232
1769657580845006300,0.97100634765625,-0.000538491178303957,0.0051508196629583836,-0.040159404277801514
1769657580854994200,0.980994140625,-0.0002772350562736392,0.013834322802722454,-0.04808523878455162
1769657580864982000,0.99098193359375,0.00030866035376675427,-0.020118584856390953,-0.057566624134778976
1769657580874970000,1.00097021484375,0.0015371765475720167,-0.028251344338059425,-0.05670509114861488
1769657580884958000,1.0109580078125,0.006315686274319887,-0.02274046652019024,-0.046847134828567505
1769657580894946000,1.020946044921875,0.00765925133600831,-0.010399111546576023,-0.04102732613682747
1769657580904933400,1.030933349609375,0.010688863694667816,-0.0025712819769978523,-0.03622005507349968
1769657580914921500,1.04092138671875,0.008852880448102951,-0.013177854008972645,-0.03929360955953598
1769657580924909600,1.05090966796875,0.009061938151717186,-0.028861476108431816,-0.051542554050683975
1769657580934897400,1.0608974609375,0.007730890065431595,-0.028066787868738174,-0.05362141504883766
1769657580944885500,1.070885498046875,0.002359560690820217,-0.02474076673388481,-0.045954976230859756
1769657580954873600,1.08087353515625,0.0003043993201572448,-0.01643117144703865,-0.0360911600291729
1769657580964861400,1.090861328125,0.0012402341235429049,-0.015783756971359253,-0.03952370584011078
1769657580974849500,1.100849609375,0.001942243310622871,-0.017771273851394653,-0.04850628226995468
1769657580984837600,1.110837646484375,0.0033779535442590714,-0.01901976391673088,-0.06464450806379318
1769657580994825700,1.12082568359375,0.0020298613235354424,-0.02183738723397255,-0.06982089579105377
1769657581004813300,1.130813232421875,-0.005369198974221945,-0.030493993312120438,-0.06643308699131012
1769657581014801400,1.140801513671875,-0.006434996146708727,-0.026627348735928535,-0.0656445249915123
1769657581024789500,1.15078955078125,-0.005870139691978693,-0.02659432590007782,-0.06421680003404617
1769657581034777300,1.16077734375,-0.005032575689256191,-0.029457757249474525,-0.06589698791503906
1769657581044765400,1.170765380859375,-0.006107160821557045,-0.03371109068393707,-0.06952821463346481
1769657581054753500,1.18075341796875,-0.0023782027419656515,-0.03717240318655968,-0.0688544288277626
1769657581064742700,1.19074267578125,-0.0014679343439638615,-0.031078023836016655,-0.06362052261829376
1769657581074730500,1.20073046875,-0.004353735595941544,-0.027767715975642204,-0.05512929707765579
1769657581084718600,1.210718505859375,-0.003896470880135894,-0.03747200965881348,-0.0580715574324131
1769657581094706400,1.22070654296875,-0.006425675004720688,-0.05013240873813629,-0.07194742560386658
1769657581104694500,1.230694580078125,-0.0036165728233754635,-0.05816956236958504,-0.08271032571792603
1769657581114682400,1.240682373046875,-0.0014588796766474843,-0.05872909352183342,-0.09021458029747009
1769657581124670500,1.25067041015625,-0.0012689962750300765,-0.05932670831680298,-0.09628499299287796
1769657581134658600,1.260658447265625,0.0017084177816286683,-0.05528828874230385,-0.09499495476484299
1769657581144646400,1.270646484375,-0.001925199176184833,-0.057076867669820786,-0.08702677488327026
1769657581154634500,1.280634521484375,-0.0009158611064776778,-0.06659553945064545,-0.09150328487157822
1769657581164622600,1.29062255859375,-0.00848536379635334,-0.059963732957839966,-0.09508230537176132
1769657581174610400,1.3006103515625,-0.007531952112913132,-0.04175383970141411,-0.09132884442806244
1769657581184598500,1.3105986328125,-0.007382282521575689,-0.03283357992768288,-0.08461076021194458
1769657581194586600,1.320586669921875,-0.0067481836304068565,-0.03395503759384155,-0.08883639425039291
1769657581204574500,1.330574462890625,-0.006512760184705257,-0.03913062438368797,-0.10133621096611023
1769657581214562300,1.340562255859375,-0.005540173966437578,-0.0344085730612278,-0.12813054025173187
1769657581224550400,1.35055029296875,-0.003933222498744726,-0.007269897032529116,-0.16720044612884521
1769657581234538500,1.36053857421875,0.003397394670173526,0.03488767519593239,-0.21353092789649963
1769657581244526300,1.3705263671875,0.0057159424759447575,0.08514152467250824,-0.2503454089164734
1769657581254514400,1.380514404296875,0.009355152025818825,0.12978382408618927,-0.29692915081977844
1769657581264502500,1.39050244140625,0.015206383541226387,0.16916319727897644,-0.3534925580024719
1769657581274490600,1.40049072265625,-0.0013603427214547992,0.18859654664993286,-0.4268759489059448
1769657581284478500,1.410478515625,-0.014769891276955605,0.2107740193605423,-0.5096267461776733
1769657581294467300,1.42046728515625,-0.026142654940485954,0.2553960680961609,-0.5873149037361145
1769657581304455400,1.430455322265625,-0.04500475898385048,0.3197963833808899,-0.6504126191139221
1769657581314443500,1.440443603515625,-0.07287340611219406,0.38300490379333496,-0.7060737609863281
1769657581324431400,1.450431396484375,-0.13115322589874268,0.4078628420829773,-0.7030092477798462
1769657581334419500,1.46041943359375,-0.15686151385307312,0.35649871826171875,-0.5405141115188599
1769657581344407600,1.470407470703125,-0.09440426528453827,0.2859606444835663,-0.44188445806503296
1769657581354395400,1.4803955078125,-0.052687712013721466,0.22356171905994415,-0.4012387692928314
1769657581364383500,1.490383544921875,-0.05714930593967438,0.19017420709133148,-0.3974677324295044
1769657581374371600,1.50037158203125,-0.06389056891202927,0.1696167290210724,-0.41371673345565796
1769657581384359700,1.510359619140625,-0.06438112258911133,0.13843829929828644,-0.4331780672073364
1769657581394347500,1.520347412109375,-0.06394302845001221,0.0886092260479927,-0.4551723003387451
1769657581404335600,1.530335693359375,-0.05026476830244064,0.04933452606201172,-0.4978918135166168
1769657581414323500,1.540323486328125,-0.03644775599241257,0.04813956469297409,-0.5522682070732117
1769657581424311300,1.550311279296875,-0.014620487578213215,0.10187096893787384,-0.6032166481018066
1769657581434299400,1.56029931640625,0.018615495413541794,0.19837993383407593,-0.6091509461402893
1769657581444287500,1.57028759765625,0.03814685344696045,0.2903040051460266,-0.5740528702735901
1769657581454275300,1.580275390625,0.03911864012479782,0.33819934725761414,-0.5119969844818115
1769657581464263400,1.590263427734375,0.02581721544265747,0.3355098366737366,-0.4600216746330261
1769657581474251500,1.60025146484375,0.015450328588485718,0.27380678057670593,-0.4137766659259796
1769657581484239600,1.610239501953125,0.008893626742064953,0.1509876549243927,-0.3519287407398224
1769657581494227500,1.6202275390625,0.010358631610870361,0.046170424669981,-0.2816378176212311
1769657581504215600,1.630215576171875,0.011545069515705109,-0.0073687005788087845,-0.24236896634101868
1769657581514203600,1.64020361328125,0.027899274602532387,-0.04452672228217125,-0.18302041292190552
1769657581524192500,1.650192626953125,0.04481620714068413,-0.13066959381103516,-0.09170222282409668
1769657581534180400,1.660180419921875,0.06183779984712601,-0.25067803263664246,0.010084858164191246
1769657581544168400,1.67016845703125,0.07689850777387619,-0.3530488610267639,0.12034425139427185
1769657581554156500,1.680156494140625,0.10350482165813446,-0.46854937076568604,0.20760193467140198
1769657581564144400,1.690144287109375,0.08422140032052994,-0.6709858179092407,0.18544656038284302
1769657581574132500,1.700132568359375,0.04111654311418533,-0.7898882627487183,0.10076842457056046
1769657581584120600,1.71012060546875,0.04204678535461426,-0.7856128215789795,0.030435403808951378
1769657581594108700,1.720108642578125,0.03327300027012825,-0.7086232304573059,-0.026614833623170853
1769657581604096500,1.730096435546875,0.030892401933670044,-0.5045211911201477,-0.054064832627773285
1769657581614084600,1.740084716796875,0.019998209550976753,-0.26762905716896057,-0.10099265724420547
1769657581624072400,1.750072509765625,0.0023880566004663706,-0.10648196935653687,-0.19060003757476807
1769657581634060300,1.760060302734375,-0.010789263993501663,-0.005988916382193565,-0.2919570207595825
1769657581644048400,1.77004833984375,-0.028963208198547363,0.05042508989572525,-0.3497611880302429
1769657581654036500,1.780036376953125,-0.031209317967295647,0.05662120133638382,-0.3595954477787018
1769657581664024600,1.790024658203125,-0.0350237637758255,0.03116937167942524,-0.33006179332733154
1769657581674012400,1.800012451171875,-0.04848018288612366,-0.02798023633658886,-0.27944841980934143
1769657581684000500,1.81000048828125,-0.05694850534200668,-0.12536591291427612,-0.23196585476398468
1769657581693988600,1.819988525390625,-0.07193411141633987,-0.24670672416687012,-0.19580385088920593
1769657581703976400,1.8299765625,-0.074017234146595,-0.3134301006793976,-0.17480696737766266
1769657581713964500,1.839964599609375,-0.06616970151662827,-0.29375386238098145,-0.15068458020687103
1769657581723952600,1.84995263671875,-0.053216349333524704,-0.26175543665885925,-0.11942652612924576
1769657581733940500,1.8599404296875,-0.04637682065367699,-0.22134757041931152,-0.0881146788597107
1769657581743928300,1.86992822265625,-0.044018588960170746,-0.2037704437971115,-0.06189931929111481
1769657581753917400,1.87991748046875,-0.043665189296007156,-0.18795712292194366,-0.054960187524557114
1769657581763905500,1.889905517578125,-0.03045457787811756,-0.16846518218517303,-0.06662216782569885
1769657581773893600,1.8998935546875,-0.020118052139878273,-0.1407584547996521,-0.0834173932671547
1769657581783881500,1.909881591796875,-0.017171530053019524,-0.09404847025871277,-0.10655999928712845
1769657581793869600,1.91986962890625,-0.019054384902119637,-0.04879496991634369,-0.13274872303009033
1769657581803857700,1.929857666015625,-0.019473299384117126,-0.03200320526957512,-0.16043414175510406
1769657581813845500,1.939845458984375,-0.010940798558294773,-0.032164327800273895,-0.17725972831249237
1769657581823833300,1.949833251953125,0.0005992112564854324,-0.029868416488170624,-0.1828790009021759
1769657581833821400,1.959821533203125,0.013623134233057499,-0.03008892573416233,-0.1689666509628296
1769657581843809500,1.9698095703125,0.02257348597049713,-0.037336718291044235,-0.15293441712856293
1769657581853797400,1.97979736328125,0.02839462272822857,-0.05313645675778389,-0.14598064124584198
1769657581863785500,1.989785400390625,0.009984190575778484,-0.08131962269544601,-0.14602351188659668
1769657581873773600,1.999773681640625,0.0014729943359270692,-0.10719169676303864,-0.15708868205547333
1769657581883761400,2.009761474609375,0.004089017398655415,-0.129729226231575,-0.17030994594097137
1769657581893749500,2.01974951171875,0.005817142780870199,-0.14295874536037445,-0.17891542613506317
1769657581903737300,2.0297373046875,0.006712497677654028,-0.1355767399072647,-0.1753142923116684
1769657581913725400,2.039725341796875,0.010033725760877132,-0.11707495898008347,-0.16565127670764923
1769657581923713500,2.049713623046875,0.00797456968575716,-0.10218575596809387,-0.16928063333034515
1769657581933701600,2.05970166015625,-0.005245628301054239,-0.08770374953746796,-0.18778693675994873
1769657581943689500,2.069689453125,-0.011788216419517994,-0.07953424006700516,-0.20138904452323914
1769657581953677300,2.07967724609375,-0.009042763151228428,-0.0881146788597107,-0.21124166250228882
1769657581963665400,2.08966552734375,0.0032690302468836308,-0.1200752779841423,-0.20680378377437592
1769657581973653200,2.0996533203125,0.007317834068089724,-0.12837794423103333,-0.1992073804140091
1769657581983642400,2.109642333984375,0.017056748270988464,-0.1263749748468399,-0.18200361728668213
1769657581993630500,2.11963037109375,0.02948864921927452,-0.12248596549034119,-0.160697802901268
1769657582003618600,2.12961865234375,0.03460191935300827,-0.12757287919521332,-0.1370084583759308
1769657582013606400,2.1396064453125,0.03232491761445999,-0.12242791056632996,-0.12508681416511536
1769657582023594500,2.149594482421875,0.019952936097979546,-0.12039565294981003,-0.12476243823766708
1769657582033582300,2.159582275390625,0.007744738832116127,-0.11661422997713089,-0.13675731420516968
1769657582043570400,2.1695703125,0.008285094052553177,-0.10622843354940414,-0.14951705932617188
1769657582053558300,2.179558349609375,0.011503790505230427,-0.0909259095788002,-0.1578703224658966
1769657582063546400,2.18954638671875,0.014339524321258068,-0.07398314774036407,-0.1565515249967575
1769657582073534500,2.199534423828125,0.018216554075479507,-0.06028757616877556,-0.15150617063045502
1769657582083522300,2.209522216796875,0.022784408181905746,-0.0389213003218174,-0.13917545974254608
1769657582093510400,2.219510498046875,0.02317802421748638,-0.0191316157579422,-0.13795307278633118
1769657582103498500,2.22949853515625,0.013409015722572803,-0.02575862593948841,-0.14675934612751007
1769657582113486300,2.239486328125,-0.004996622912585735,-0.03838334232568741,-0.1717994511127472
1769657582123474400,2.249474365234375,-0.016978183761239052,-0.03056909516453743,-0.19896210730075836
1769657582133462500,2.259462646484375,-0.0334722064435482,-0.01529027335345745,-0.2183626890182495
1769657582143450600,2.26945068359375,-0.041908301413059235,0.002071140334010124,-0.21827587485313416
1769657582153438200,2.279438232421875,-0.05114387720823288,0.013500096276402473,-0.21593016386032104
1769657582163426300,2.28942626953125,-0.061051636934280396,0.02966361865401268,-0.2146153599023819
1769657582173414400,2.299414306640625,-0.06453371793031693,0.055392153561115265,-0.2223489135503769
1769657582183402200,2.30940234375,-0.07014313340187073,0.08680892735719681,-0.23950020968914032
1769657582193390300,2.319390380859375,-0.08476521819829941,0.1079336553812027,-0.267558217048645
1769657582203378400,2.32937841796875,-0.09707168489694595,0.12635527551174164,-0.3125970661640167
1769657582213366500,2.339366455078125,-0.10750648379325867,0.14020638167858124,-0.36086124181747437
1769657582223355400,2.34935546875,-0.10657677799463272,0.17517633736133575,-0.4240016043186188
1769657582233343500,2.359343505859375,-0.05837862193584442,0.21884100139141083,-0.5050386786460876
1769657582243331300,2.369331298828125,-0.02256016992032528,0.24957148730754852,-0.5574070811271667
1769657582253319400,2.3793193359375,-0.03749198094010353,0.2806130349636078,-0.5863471031188965
1769657582263307300,2.389307373046875,-0.05838740989565849,0.3286692202091217,-0.6211732625961304
1769657582273295400,2.39929541015625,-0.06740567088127136,0.42569777369499207,-0.6311745047569275
1769657582283283500,2.409283447265625,-0.05626620352268219,0.5104659199714661,-0.6485106348991394
1769657582293271300,2.419271240234375,-0.07101425528526306,0.5435045957565308,-0.6654805541038513
1769657582303259400,2.42925927734375,-0.052438173443078995,0.6017111539840698,-0.714446485042572
1769657582313247500,2.43924755859375,-0.00629012007266283,0.6513809561729431,-0.7507672309875488
1769657582323235600,2.449235595703125,0.02545502595603466,0.6881315112113953,-0.7211512327194214
1769657582333223400,2.459223388671875,0.03194168582558632,0.7023136615753174,-0.656395673751831
1769657582343211500,2.46921142578125,0.024602282792329788,0.6817314028739929,-0.6092958450317383
1769657582353199400,2.479199462890625,0.0034498588647693396,0.6459854245185852,-0.584223747253418
1769657582363187200,2.489187255859375,-0.008441155776381493,0.608198344707489,-0.5527920722961426
1769657582373175300,2.49917529296875,-0.006424875929951668,0.5446843504905701,-0.5146942138671875
1769657582383163400,2.509163330078125,-0.004084490239620209,0.493318110704422,-0.4923982322216034
1769657582393151500,2.5191513671875,0.00996288564056158,0.5125735402107239,-0.47706082463264465
1769657582403139300,2.529139404296875,0.017552096396684647,0.5429823398590088,-0.47491300106048584
1769657582413127400,2.53912744140625,-0.0026202842127531767,0.5555407404899597,-0.47936445474624634
1769657582423115500,2.549115478515625,-0.02075454592704773,0.6342227458953857,-0.5361078977584839
1769657582433103400,2.559103271484375,-0.03538462147116661,0.6614988446235657,-0.5326697826385498
1769657582443091500,2.569091552734375,-0.020906081423163414,0.6406050324440002,-0.5127456188201904
1769657582453079600,2.57907958984375,0.006053098943084478,0.5945429801940918,-0.4967850148677826
1769657582463068400,2.589068359375,0.010448645800352097,0.5240679979324341,-0.4818316102027893
1769657582473056300,2.59905615234375,0.0030482541769742966,0.4432213604450226,-0.47008946537971497
1769657582483044400,2.60904443359375,-0.014995994046330452,0.3612876236438751,-0.44552260637283325
1769657582493032400,2.619032470703125,-0.030160032212734222,0.30702120065689087,-0.40257540345191956
1769657582503020300,2.629020263671875,-0.03230760619044304,0.26684820652008057,-0.35062485933303833
1769657582513008400,2.63900830078125,-0.036438699811697006,0.23123881220817566,-0.29394587874412537
1769657582522996500,2.64899658203125,-0.034086596220731735,0.2154952734708786,-0.2386980652809143
1769657582532984600,2.658984619140625,-0.014532070606946945,0.20145295560359955,-0.20087984204292297
1769657582542972400,2.668972412109375,0.017074856907129288,0.16959889233112335,-0.1950850635766983
1769657582552960500,2.67896044921875,0.04025234654545784,0.12077169120311737,-0.19802945852279663
1769657582562948400,2.6889482421875,0.04512939602136612,0.0994805172085762,-0.20419999957084656
1769657582572936200,2.698936279296875,0.03447222337126732,0.08024157583713531,-0.21757332980632782
1769657582582924300,2.70892431640625,0.0261802040040493,0.07782422751188278,-0.243411585688591
1769657582592912400,2.718912353515625,0.024648621678352356,0.03375263884663582,-0.2824364900588989
1769657582602900500,2.728900390625,0.016042882576584816,-0.017775002866983414,-0.3217617869377136
1769657582612888300,2.738888427734375,0.004790494218468666,-0.044388238340616226,-0.34927278757095337
1769657582622876400,2.74887646484375,-0.007735950406640768,-0.07197299599647522,-0.3697652816772461
1769657582632864500,2.758864501953125,-0.01751028373837471,-0.10119346529245377,-0.38723134994506836
1769657582642852400,2.768852294921875,-0.03670288622379303,-0.1171303540468216,-0.40349847078323364
1769657582652840400,2.77884033203125,-0.04658081755042076,-0.13987746834754944,-0.4163748323917389
1769657582662828500,2.78882861328125,-0.053880542516708374,-0.16387414932250977,-0.42671164870262146
1769657582672816600,2.798816650390625,-0.059233762323856354,-0.1868135631084442,-0.4324723184108734
1769657582682804200,2.80880419921875,-0.06622615456581116,-0.2019863873720169,-0.4346068501472473
1769657582692793300,2.81879345703125,-0.0654250755906105,-0.20829541981220245,-0.4392005205154419
1769657582702781400,2.828781494140625,-0.06199519336223602,-0.19312870502471924,-0.43602046370506287
1769657582712769500,2.83876953125,-0.055938899517059326,-0.1618719846010208,-0.4285596013069153
1769657582722757400,2.84875732421875,-0.056415870785713196,-0.1838558465242386,-0.4247422218322754
1769657582732745500,2.858745361328125,-0.05313219502568245,-0.2157735675573349,-0.42168864607810974
1769657582742733600,2.868733642578125,-0.048707883805036545,-0.21410270035266876,-0.40973585844039917
1769657582752721400,2.878721435546875,-0.045096371322870255,-0.19882601499557495,-0.39201757311820984
1769657582762709500,2.88870947265625,-0.04770200699567795,-0.19457827508449554,-0.40025871992111206
1769657582772697300,2.898697265625,-0.049360889941453934,-0.20865653455257416,-0.3983425796031952
1769657582782685400,2.908685546875,-0.04880029708147049,-0.2283618003129959,-0.39679154753685
1769657582792673300,2.91867333984375,-0.04476747289299965,-0.24636077880859375,-0.3899456262588501
1769657582802661400,2.928661376953125,-0.043055858463048935,-0.24364568293094635,-0.3761448562145233
1769657582812649500,2.9386494140625,-0.04450621455907822,-0.23813267052173615,-0.35457512736320496
1769657582822637300,2.94863720703125,-0.04765327274799347,-0.23752839863300323,-0.3338855504989624
1769657582832625400,2.95862548828125,-0.053170278668403625,-0.25266873836517334,-0.3129462003707886
1769657582842613500,2.968613525390625,-0.06129984185099602,-0.2748432755470276,-0.29796138405799866
1769657582852601300,2.978601318359375,-0.06807305663824081,-0.2975296974182129,-0.2841305136680603
1769657582862589400,2.98858935546875,-0.0741645097732544,-0.3187175393104553,-0.27329331636428833
1769657582872577500,2.99857763671875,-0.07829347252845764,-0.3272196650505066,-0.26026779413223267
1769657582882565400,3.0085654296875,-0.0787091925740242,-0.3279041051864624,-0.2410038262605667
1769657582892553200,3.01855322265625,-0.07824154198169708,-0.3202991783618927,-0.21495358645915985
1769657582902541300,3.028541259765625,-0.08029430359601974,-0.3014757037162781,-0.1942720115184784
1769657582912528600,3.038528564453125,-0.07957099378108978,-0.28619980812072754,-0.18029920756816864
1769657582922517800,3.048517822265625,-0.08026820421218872,-0.27801722288131714,-0.1802257001399994
1769657582932505900,3.058505859375,-0.08408638089895248,-0.2763354480266571,-0.18273253738880157
1769657582942493700,3.06849365234375,-0.08211777359247208,-0.2770731449127197,-0.18525880575180054
1769657582952481800,3.078481689453125,-0.07884155213832855,-0.27051296830177307,-0.18456505239009857
1769657582962470000,3.088469970703125,-0.07372774928808212,-0.25660088658332825,-0.1787756085395813
1769657582972458000,3.0984580078125,-0.07007841765880585,-0.2345893383026123,-0.16945481300354004
1769657582982445800,3.10844580078125,-0.06613800674676895,-0.2147732824087143,-0.16556952893733978
1769657582992433700,3.11843359375,-0.06351692229509354,-0.19826515018939972,-0.15876780450344086
1769657583002421800,3.128421875,-0.060814082622528076,-0.18203291296958923,-0.1571456789970398
1769657583012409600,3.13840966796875,-0.05707979574799538,-0.1697099357843399,-0.16123336553573608
1769657583022397700,3.148397705078125,-0.05391223356127739,-0.15191097557544708,-0.1608690470457077
1769657583032385800,3.1583857421875,-0.04988819733262062,-0.12136530876159668,-0.15751107037067413
1769657583042374000,3.168373779296875,-0.04953452944755554,-0.111953966319561,-0.15328969061374664
1769657583052361700,3.17836181640625,-0.04632701724767685,-0.10925618559122086,-0.1473660171031952
1769657583062349800,3.188349853515625,-0.04476694017648697,-0.0992157980799675,-0.14006257057189941
1769657583072338000,3.198337890625,-0.04332111030817032,-0.09474515169858932,-0.13131462037563324
1769657583082325800,3.20832568359375,-0.03862542286515236,-0.09678593277931213,-0.12304016947746277
1769657583092313900,3.21831396484375,-0.035408325493335724,-0.10117562115192413,-0.10865457355976105
1769657583102302000,3.228302001953125,-0.03051876090466976,-0.09870526939630508,-0.08924705535173416
1769657583112289800,3.238289794921875,-0.026026807725429535,-0.09139223396778107,-0.07163769751787186
1769657583122277600,3.248277587890625,-0.0205159280449152,-0.08214414119720459,-0.05959648638963699
1769657583132265700,3.258265625,-0.01804185099899769,-0.07307340949773788,-0.052927929908037186
1769657583142253800,3.26825390625,-0.01774890348315239,-0.06324075162410736,-0.04788283631205559
1769657583152242700,3.27824267578125,-0.018617359921336174,-0.0545324832201004,-0.04445215314626694
1769657583162230800,3.288230712890625,-0.019389145076274872,-0.051175303757190704,-0.04409528896212578
1769657583172219000,3.298218994140625,-0.016568589955568314,-0.04796193167567253,-0.036383841186761856
1769657583182207000,3.30820703125,-0.017181117087602615,-0.04805993661284447,-0.02863484062254429
1769657583192194800,3.31819482421875,-0.015000787563621998,-0.049492452293634415,-0.020433636382222176
1769657583202182700,3.3281826171875,-0.013543771579861641,-0.048100683838129044,-0.015323828905820847
1769657583212170800,3.338170654296875,-0.012063587084412575,-0.04278155043721199,-0.017225591465830803
1769657583222158600,3.34815869140625,-0.00956873781979084,-0.03448660299181938,-0.020314326509833336
1769657583232146700,3.358146728515625,-0.008303736336529255,-0.023990288376808167,-0.02515249140560627
1769657583242134800,3.368134765625,-0.003406715579330921,-0.01595419831573963,-0.026105370372533798
1769657583252123000,3.378122802734375,0.0004474110610317439,-0.010959440842270851,-0.02672748453915119
1769657583262110700,3.38811083984375,0.003919374197721481,-0.004554538056254387,-0.02744041197001934
1769657583272098800,3.398098876953125,0.009428922086954117,0.003766775131225586,-0.025616412982344627
1769657583282087000,3.4080869140625,0.009132778272032738,0.012476909905672073,-0.024524250999093056
1769657583292074800,3.41807470703125,0.009784986265003681,0.018877817317843437,-0.02496393956243992
1769657583302062800,3.428062744140625,0.008048338815569878,0.021455224603414536,-0.02911447547376156
1769657583312051000,3.438051025390625,0.009138903580605984,0.02359267696738243,-0.03513215482234955
1769657583322038800,3.448038818359375,0.00947952177375555,0.03322639688849449,-0.0391085185110569
1769657583332026600,3.458026611328125,0.014394918456673622,0.043252132833004,-0.039142876863479614
1769657583342014700,3.4680146484375,0.015634354203939438,0.059243083000183105,-0.028716865926980972
1769657583352002800,3.4780029296875,0.014740063808858395,0.058041732758283615,-0.022400647401809692
1769657583361990700,3.48799072265625,0.015150989405810833,0.04105742275714874,-0.014883075840771198
1769657583371978800,3.497978759765625,0.013313142582774162,0.027946945279836655,-0.015836220234632492
1769657583381968000,3.5079677734375,0.0076360818929970264,0.027637753635644913,-0.016328906640410423
1769657583391956000,3.5179560546875,0.0020061591640114784,0.027652665972709656,-0.027117637917399406
1769657583401943800,3.52794384765625,-0.0031489215325564146,0.021024592220783234,-0.04164651408791542
1769657583411931600,3.537931640625,-0.0015387744642794132,0.013243633322417736,-0.04716245085000992
1769657583421919700,3.547919677734375,-0.0007478156476281583,0.015332084149122238,-0.04151415452361107
1769657583431907800,3.557907958984375,-0.0014048174489289522,0.019120164215564728,-0.03238909691572189
1769657583441895700,3.567895751953125,0.0018807243322953582,0.027178624644875526,-0.025354092940688133
1769657583451883800,3.5778837890625,-0.0007890945998951793,0.032114528119564056,-0.030973894521594048
1769657583461871900,3.587871826171875,-0.005120992194861174,0.033602166920900345,-0.04372271150350571
1769657583471859700,3.597859619140625,-0.011195662431418896,0.03928242623806,-0.057552509009838104
1769657583481847800,3.607847900390625,-0.01501090731471777,0.04228433966636658,-0.06790661066770554
1769657583491836000,3.6178359375,-0.019234148785471916,0.038235802203416824,-0.07488436251878738
1769657583501823700,3.62782373046875,-0.024163126945495605,0.037829671055078506,-0.07942904531955719
1769657583511811800,3.637811767578125,-0.027029752731323242,0.0394294299185276,-0.08001147955656052
1769657583521799700,3.647799560546875,-0.030602118000388145,0.04838031530380249,-0.07758773863315582
1769657583531787800,3.657787841796875,-0.02961301989853382,0.0699433982372284,-0.07956486940383911
1769657583541775600,3.667775634765625,-0.03606506064534187,0.0734419897198677,-0.0825132504105568
1769657583551763700,3.677763671875,-0.03086310811340809,0.07210960984230042,-0.0825263038277626
1769657583561751800,3.687751708984375,-0.02895255573093891,0.076911561191082,-0.07842077314853668
1769657583571739600,3.69773974609375,-0.030526483431458473,0.08617722988128662,-0.06779635697603226
1769657583581727700,3.707727783203125,-0.03172623738646507,0.09772896021604538,-0.06497500836849213
1769657583591715800,3.7177158203125,-0.037154823541641235,0.10740901529788971,-0.06884963810443878
1769657583601704000,3.727703857421875,-0.044648427516222,0.11401098966598511,-0.07539115846157074
1769657583611692500,3.737692626953125,-0.0522909015417099,0.12856197357177734,-0.08394256979227066
1769657583621680600,3.7476806640625,-0.05788780003786087,0.13541029393672943,-0.08845502883195877
1769657583631668700,3.757668701171875,-0.0607600212097168,0.14687280356884003,-0.08358224481344223
1769657583641656800,3.76765673828125,-0.06436487287282944,0.1629479080438614,-0.08234120905399323
1769657583651644700,3.777644775390625,-0.06858571618795395,0.17801767587661743,-0.08360461890697479
1769657583661632800,3.7876328125,-0.07576773315668106,0.18300603330135345,-0.0852334052324295
1769657583671620900,3.797620849609375,-0.08532022684812546,0.19340461492538452,-0.09234564006328583
1769657583681608700,3.807608642578125,-0.09423728287220001,0.20853349566459656,-0.09449880570173264
1769657583691596800,3.8175966796875,-0.10044511407613754,0.22884489595890045,-0.09086812287569046
1769657583701585000,3.8275849609375,-0.10373864322900772,0.2550099194049835,-0.08258143067359924
1769657583711573000,3.837572998046875,-0.1047663614153862,0.272195041179657,-0.07762954384088516
1769657583721560800,3.847560791015625,-0.10679275542497635,0.2825009226799011,-0.07030665129423141
1769657583731548700,3.857548583984375,-0.11077764630317688,0.28185778856277466,-0.06496994197368622
1769657583741536800,3.867536865234375,-0.12050138413906097,0.2795645296573639,-0.0592779703438282
1769657583751524600,3.877524658203125,-0.12974174320697784,0.2804950475692749,-0.05107889696955681
1769657583761512700,3.8875126953125,-0.1362273395061493,0.2885143458843231,-0.04487932473421097
1769657583771500800,3.897500732421875,-0.1435060352087021,0.3019353449344635,-0.037101827561855316
1769657583781489000,3.907489013671875,-0.15149684250354767,0.3119669556617737,-0.035054389387369156
1769657583791476700,3.917476806640625,-0.16151165962219238,0.3251709043979645,-0.041851576417684555
1769657583801464800,3.92746484375,-0.17109425365924835,0.3337577283382416,-0.04366385564208031
1769657583811453000,3.937452880859375,-0.17905497550964355,0.34510332345962524,-0.052928462624549866
1769657583821440800,3.947440673828125,-0.18734300136566162,0.34941259026527405,-0.06244500353932381
1769657583831428900,3.957428955078125,-0.19166050851345062,0.35482120513916016,-0.06915616989135742
1769657583841417700,3.967417724609375,-0.1939830482006073,0.3609677851200104,-0.07345131039619446
1769657583851405800,3.97740576171875,-0.1942211389541626,0.3656299114227295,-0.07740823924541473
1769657583861393700,3.9873935546875,-0.19220378994941711,0.37285932898521423,-0.0867769718170166
1769657583871381800,3.9973818359375,-0.19156889617443085,0.3819604218006134,-0.09277867525815964
1769657583881369900,4.007369873046875,-0.19474764168262482,0.37686020135879517,-0.09380239248275757
1769657583891357700,4.017357666015625,-0.19689229130744934,0.3690930902957916,-0.08754502981901169
1769657583901345800,4.027345703125,-0.1999589204788208,0.36768639087677,-0.08235958963632584
1769657583911335400,4.03733544921875,-0.20547938346862793,0.3704478442668915,-0.07368513941764832
1769657583921323300,4.0473232421875,-0.21059133112430573,0.36703765392303467,-0.0632157176733017
1769657583931311400,4.057311279296875,-0.2160894274711609,0.35853925347328186,-0.054429154843091965
1769657583941299500,4.067299560546875,-0.21920984983444214,0.35113486647605896,-0.0448116809129715
1769657583951287300,4.077287353515625,-0.2291668802499771,0.34602025151252747,-0.03393719345331192
1769657583961275400,4.087275390625,-0.2384842038154602,0.34624210000038147,-0.027185548096895218
1769657583971263500,4.097263427734375,-0.25102290511131287,0.35094764828681946,-0.02076892741024494
1769657583981251600,4.10725146484375,-0.26041001081466675,0.35264381766319275,-0.023316241800785065
1769657583991239400,4.117239501953125,-0.27029168605804443,0.346500962972641,-0.03393639624118805
1769657584001227300,4.127227294921875,-0.27896666526794434,0.3247855305671692,-0.05439506471157074
1769657584011215400,4.13721533203125,-0.28070011734962463,0.3133014440536499,-0.0748223066329956
1769657584021203200,4.147203125,-0.28485730290412903,0.31593984365463257,-0.08742119371891022
1769657584031191300,4.15719140625,-0.2783975303173065,0.3242901861667633,-0.09986720979213715
1769657584041179400,4.167179443359375,-0.266362726688385,0.3378811180591583,-0.1123715490102768
1769657584051167200,4.177167236328125,-0.2567630708217621,0.3522275388240814,-0.12831829488277435
1769657584061156400,4.18715625,-0.2386581152677536,0.36932238936424255,-0.14247804880142212
1769657584071144400,4.19714453125,-0.21584947407245636,0.3733384311199188,-0.1559736132621765
1769657584081132300,4.20713232421875,-0.1972784548997879,0.3582034111022949,-0.16552957892417908
1769657584091120000,4.2171201171875,-0.170298770070076,0.3178192377090454,-0.16325390338897705
1769657584101108200,4.227108154296875,-0.14119520783424377,0.2701726257801056,-0.1531541347503662
1769657584111096300,4.237096435546875,-0.10460683703422546,0.22618892788887024,-0.14420750737190247
1769657584121084400,4.24708447265625,-0.048122256994247437,0.20628713071346283,-0.12859126925468445
1769657584131072300,4.257072265625,0.015897206962108612,0.24101394414901733,-0.08908140659332275
1769657584141060400,4.267060302734375,0.003997404593974352,0.2652215361595154,-0.09023428708314896
1769657584151048400,4.27704833984375,0.01643330231308937,0.2556123435497284,-0.11696097254753113
1769657584161036300,4.287036376953125,0.03471430391073227,0.22242268919944763,-0.14067615568637848
1769657584171024400,4.2970244140625,0.02918531559407711,0.1923084557056427,-0.14513428509235382
1769657584181012500,4.307012451171875,0.02737836167216301,0.20826399326324463,-0.14935193955898285
1769657584191000600,4.31700048828125,0.01896064169704914,0.23680774867534637,-0.18063555657863617
1769657584200988400,4.326988525390625,0.020002469420433044,0.2547270953655243,-0.22016991674900055
1769657584210976300,4.336976318359375,0.01594035141170025,0.23770231008529663,-0.2527744770050049
1769657584220964400,4.34696435546875,-0.0006543386843986809,0.2149735540151596,-0.2718474864959717
1769657584230952200,4.3569521484375,-0.004249872639775276,0.1841392070055008,-0.25290921330451965
1769657584240940300,4.366940185546875,-0.01942775957286358,0.11708800494670868,-0.2263236790895462
1769657584250928400,4.376928466796875,-0.035536956042051315,0.04040068760514259,-0.2003818303346634
1769657584260916500,4.38691650390625,-0.04496028274297714,-0.03181412070989609,-0.17728875577449799
1769657584270904300,4.396904296875,-0.04500582441687584,-0.10519938915967941,-0.1557760089635849
1769657584280892400,4.406892333984375,-0.04378476366400719,-0.19501635432243347,-0.12525752186775208
1769657584290881300,4.41688134765625,-0.02798129990696907,-0.2502681612968445,-0.08280486613512039
1769657584300869400,4.426869384765625,-0.012439092621207237,-0.29842904210090637,-0.03452149033546448
1769657584310857200,4.436857177734375,0.006733536254614592,-0.3365905284881592,0.0028330706991255283
1769657584320845300,4.44684521484375,0.02256922423839569,-0.3659055531024933,0.024652348831295967
1769657584330833400,4.45683349609375,0.031208785250782967,-0.39987629652023315,0.022041918709874153
1769657584340821200,4.4668212890625,0.03930399566888809,-0.4181748628616333,0.016336895525455475
1769657584350809300,4.476809326171875,0.0431986041367054,-0.4154965281486511,0.005143096670508385
1769657584360797400,4.48679736328125,0.045213017612695694,-0.3929978907108307,-0.022097045555710793
1769657584370785500,4.49678564453125,0.0422382690012455,-0.3688738942146301,-0.06875456124544144
1769657584380773400,4.5067734375,0.038537539541721344,-0.33481499552726746,-0.12702612578868866
1769657584390761500,4.516761474609375,0.030610639601945877,-0.29189735651016235,-0.18981920182704926
1769657584400749600,4.52674951171875,0.01836116425693035,-0.2406003624200821,-0.24837279319763184
1769657584410737200,4.536737060546875,0.004788097459822893,-0.1796688288450241,-0.3081951141357422
1769657584420725200,4.546725341796875,-0.01185000129044056,-0.13574984669685364,-0.36300137639045715
1769657584430713300,4.55671337890625,-0.035237882286310196,-0.09690417349338531,-0.4128866493701935
1769657584440701200,4.566701171875,-0.04833397641777992,-0.02911633998155594,-0.46235963702201843
1769657584450689300,4.576689208984375,-0.07855366170406342,0.027228690683841705,-0.5031696557998657
1769657584460677400,4.586677490234375,-0.09879714995622635,0.09780432283878326,-0.5378365516662598
1769657584470665500,4.59666552734375,-0.10711633414030075,0.16336175799369812,-0.541034460067749
1769657584480653300,4.6066533203125,-0.0965409204363823,0.19170445203781128,-0.5421128273010254
1769657584490641400,4.616641357421875,-0.07419433444738388,0.20867465436458588,-0.5275399684906006
1769657584500629500,4.62662939453125,-0.05323952063918114,0.2354319542646408,-0.49924150109291077
1769657584510618400,4.636618408203125,-0.03590233996510506,0.27112630009651184,-0.4534255564212799
1769657584520606200,4.646606201171875,-0.034028008580207825,0.30542808771133423,-0.4176981747150421
1769657584530594300,4.65659423828125,-0.04116607829928398,0.3334549367427826,-0.4003516733646393
1769657584540582400,4.66658251953125,-0.05317293852567673,0.3422689139842987,-0.4044955372810364
1769657584550570200,4.6765703125,-0.07837549597024918,0.335857093334198,-0.43301960825920105
1769657584560558300,4.686558349609375,-0.11019148677587509,0.3238065540790558,-0.46962714195251465
1769657584570546400,4.69654638671875,-0.13610191643238068,0.31676357984542847,-0.5075036883354187
1769657584580534500,4.706534423828125,-0.1766730397939682,0.26516056060791016,-0.5597924590110779
1769657584590522400,4.7165224609375,-0.22096939384937286,0.20542000234127045,-0.6134634017944336
1769657584600510500,4.726510498046875,-0.25896525382995605,0.14676041901111603,-0.650109589099884
1769657584610498300,4.736498291015625,-0.2914164066314697,0.12234215438365936,-0.670738697052002
1769657584620486100,4.746486083984375,-0.31763121485710144,0.12311340868473053,-0.6726186275482178
1769657584630474200,4.75647412109375,-0.3147006928920746,0.12680108845233917,-0.6526811122894287
1769657584640462300,4.76646240234375,-0.29357171058654785,0.13074415922164917,-0.6278674006462097
1769657584650450400,4.776450439453125,-0.25636014342308044,0.1577366292476654,-0.6035431623458862
1769657584660438300,4.786438232421875,-0.25111690163612366,0.1703387051820755,-0.5684552192687988
1769657584670426400,4.79642626953125,-0.22558945417404175,0.12787620723247528,-0.5576627254486084
1769657584680414500,4.80641455078125,-0.20252087712287903,0.10067521035671234,-0.5420816540718079
1769657584690402300,4.81640234375,-0.18522977828979492,0.07911985367536545,-0.5183512568473816
1769657584700390400,4.826390380859375,-0.18059827387332916,0.07659783959388733,-0.47434094548225403
1769657584710378500,4.83637841796875,-0.17061008512973785,0.07335517555475235,-0.42788955569267273
1769657584720366600,4.84636669921875,-0.1587853878736496,0.04752517491579056,-0.39015334844589233
1769657584730354400,4.8563544921875,-0.15313762426376343,0.020017649978399277,-0.3749861419200897
1769657584740343300,4.86634326171875,-0.1450037956237793,-0.0011089402250945568,-0.3732795715332031
1769657584750331400,4.876331298828125,-0.13454103469848633,-0.016807476058602333,-0.3772144019603729
1769657584760319500,4.886319580078125,-0.13307948410511017,-0.021529527381062508,-0.39208468794822693
1769657584770307300,4.896307373046875,-0.1370726376771927,-0.020797690376639366,-0.4121287167072296
1769657584780295400,4.90629541015625,-0.1350710093975067,-0.03062582015991211,-0.4304400682449341
1769657584790283500,4.916283447265625,-0.13594238460063934,-0.06367218494415283,-0.4455527067184448
1769657584800271400,4.926271240234375,-0.13833683729171753,-0.09902644902467728,-0.4481886923313141
1769657584810259500,4.936259521484375,-0.13963192701339722,-0.13654586672782898,-0.4410892426967621
1769657584820247300,4.946247314453125,-0.13867345452308655,-0.1611393541097641,-0.42451053857803345
1769657584830235100,4.956235107421875,-0.13803163170814514,-0.18947245180606842,-0.39046868681907654
1769657584840223200,4.96622314453125,-0.12868766486644745,-0.20174510776996613,-0.35043978691101074
1769657584850211300,4.97621142578125,-0.1193210706114769,-0.1931377649307251,-0.3005598187446594
1769657584860199400,4.986199462890625,-0.10688916593790054,-0.1692662537097931,-0.24774987995624542
1769657584870187300,4.996187255859375,-0.08108633011579514,-0.1355290710926056,-0.21163661777973175
1769657584880175400,5.00617529296875,-0.06637103110551834,-0.09712734818458557,-0.20180529356002808
1769657584890163500,5.01616357421875,-0.05537377670407295,-0.061764296144247055,-0.19625473022460938
1769657584900151300,5.0261513671875,-0.04692995920777321,-0.0435677170753479,-0.18857604265213013
1769657584910139100,5.03613916015625,-0.04217035695910454,-0.03099892847239971,-0.18602579832077026
1769657584920127200,5.046127197265625,-0.049901511520147324,-0.047569651156663895,-0.1931809037923813
1769657584930115300,5.056115234375,-0.058039866387844086,-0.08614074438810349,-0.19138461351394653
1769657584940103200,5.066103271484375,-0.06727943569421768,-0.13483211398124695,-0.19358757138252258
1769657584950092000,5.076092041015625,-0.07294850796461105,-0.1781740039587021,-0.17660459876060486
1769657584960080100,5.086080078125,-0.07660822570323944,-0.20146387815475464,-0.1519959270954132
1769657584970068200,5.096068115234375,-0.07576959580183029,-0.218978151679039,-0.12925200164318085
1769657584980056000,5.10605615234375,-0.07579383254051208,-0.22749494016170502,-0.11499103158712387
1769657584990044200,5.116044189453125,-0.07995449006557465,-0.22134943306446075,-0.11126686632633209
1769657585000032300,5.1260322265625,-0.08201976865530014,-0.20036771893501282,-0.10827454179525375
1769657585010020000,5.13602001953125,-0.08762918412685394,-0.17603734135627747,-0.08201391249895096
1769657585020008200,5.14600830078125,-0.09371983259916306,-0.15222574770450592,-0.04036713019013405
1769657585029996000,5.15599609375,-0.09763840585947037,-0.15043318271636963,0.006295979022979736
1769657585039984000,5.165984130859375,-0.10795629024505615,-0.1551363170146942,0.041676074266433716
1769657585049972000,5.175971923828125,-0.12231472879648209,-0.18253065645694733,0.06282263994216919
1769657585059960000,5.1859599609375,-0.14583256840705872,-0.2111726999282837,0.07263478636741638
1769657585069948200,5.1959482421875,-0.1665239930152893,-0.23912283778190613,0.08365494757890701
1769657585079936000,5.20593603515625,-0.1894194632768631,-0.26708123087882996,0.09385059773921967
1769657585089924000,5.215924072265625,-0.209190234541893,-0.2896406054496765,0.09869621694087982
1769657585099912200,5.225912109375,-0.2384706288576126,-0.30666646361351013,0.09683439880609512
1769657585109900000,5.235900146484375,-0.26451340317726135,-0.31688952445983887,0.09941393882036209
1769657585119888100,5.24588818359375,-0.2858376204967499,-0.3334365487098694,0.10793152451515198
1769657585129876200,5.255876220703125,-0.2963584363460541,-0.3615797758102417,0.13280625641345978
1769657585139864300,5.2658642578125,-0.29329392313957214,-0.39324823021888733,0.1560167670249939
1769657585149852200,5.27585205078125,-0.2832831144332886,-0.4177767336368561,0.18676482141017914
1769657585159840000,5.285840087890625,-0.2799738645553589,-0.4418027102947235,0.21409498155117035
1769657585169828000,5.295828125,-0.28159359097480774,-0.4631447494029999,0.23128008842468262
1769657585179817200,5.305817138671875,-0.28973567485809326,-0.5067428350448608,0.2463245540857315
1769657585189805000,5.31580517578125,-0.2979121208190918,-0.542668879032135,0.25404080748558044
1769657585199793200,5.325793212890625,-0.29595574736595154,-0.5614516139030457,0.2517656683921814
1769657585209781200,5.33578125,-0.29717549681663513,-0.5653587579727173,0.24217775464057922
1769657585219769000,5.34576904296875,-0.2987179756164551,-0.5650993585586548,0.2219795286655426
1769657585229757200,5.355757080078125,-0.2961200773715973,-0.5778734683990479,0.2014116793870926
1769657585239745000,5.3657451171875,-0.2934547960758209,-0.6007769107818604,0.18181267380714417
1769657585249733000,5.375733154296875,-0.2843201458454132,-0.6463521122932434,0.1679898053407669
1769657585259721000,5.385720947265625,-0.2798321843147278,-0.69734126329422,0.16984869539737701
1769657585269709000,5.395708984375,-0.27018141746520996,-0.7510716319084167,0.1906818002462387
1769657585279697200,5.405697265625,-0.2656013071537018,-0.8006945848464966,0.2019680142402649
1769657585289685000,5.41568505859375,-0.2637690603733063,-0.853499710559845,0.19726566970348358
1769657585299673000,5.425673095703125,-0.2739633619785309,-0.8895890116691589,0.17569699883460999
1769657585309661200,5.4356611328125,-0.29142332077026367,-0.9167766571044922,0.14768213033676147
1769657585319649300,5.445649169921875,-0.2990783154964447,-0.9275486469268799,0.12022920697927475
1769657585329637000,5.45563720703125,-0.305856317281723,-0.9599228501319885,0.11942200362682343
1769657585339625200,5.465625244140625,-0.31374886631965637,-0.9955213069915771,0.12730255722999573
1769657585349613300,5.47561328125,-0.307949036359787,-1.0118438005447388,0.14084100723266602
1769657585359601000,5.485600830078125,-0.30390316247940063,-1.0293644666671753,0.14732180535793304
1769657585369589000,5.495589111328125,-0.30232471227645874,-1.0489962100982666,0.1517128348350525
1769657585379577000,5.5055771484375,-0.3019481301307678,-1.0660465955734253,0.14929521083831787
1769657585389565200,5.515565185546875,-0.30284908413887024,-1.081847906112671,0.14402881264686584
1769657585399554000,5.525553955078125,-0.30586403608322144,-1.0938867330551147,0.1310000866651535
1769657585409542100,5.535542236328125,-0.3064286410808563,-1.1000168323516846,0.12701253592967987
1769657585419530200,5.5455302734375,-0.3036344647407532,-1.1060901880264282,0.12966930866241455
1769657585429518300,5.555518310546875,-0.3005177676677704,-1.115095615386963,0.13940289616584778
1769657585439506200,5.565506103515625,-0.2913341224193573,-1.133226990699768,0.14780651032924652
1769657585449494000,5.575493896484375,-0.2813914716243744,-1.1597394943237305,0.15261298418045044
1769657585459482000,5.585482177734375,-0.2757501006126404,-1.1921755075454712,0.1610642522573471
1769657585469470000,5.595469970703125,-0.2695190906524658,-1.2297226190567017,0.16642174124717712
1769657585479458000,5.6054580078125,-0.26225584745407104,-1.2731518745422363,0.166879802942276
1769657585489446100,5.615446044921875,-0.25007614493370056,-1.31256902217865,0.16118276119232178
1769657585499434000,5.62543408203125,-0.24037718772888184,-1.354191780090332,0.14486584067344666
1769657585509422000,5.635422119140625,-0.22390446066856384,-1.425536036491394,0.13863590359687805
1769657585519410200,5.64541015625,-0.20495633780956268,-1.350719928741455,0.1292663812637329
1769657585529398300,5.655398193359375,-0.20482558012008667,-1.328458547592163,0.11418675631284714
1769657585539386000,5.66538623046875,-0.2046775072813034,-1.3256350755691528,0.07913876324892044
1769657585549374200,5.675374267578125,-0.20207400619983673,-1.3491864204406738,0.044852424412965775
1769657585559362000,5.685362060546875,-0.20990502834320068,-1.3344542980194092,0.015176556073129177
1769657585569350000,5.695349853515625,-0.21769477427005768,-1.3133482933044434,-0.01044518407434225
1769657585579338000,5.705337890625,-0.23149287700653076,-1.3242137432098389,-0.02905641868710518
1769657585589326000,5.715326171875,-0.24449948966503143,-1.3650181293487549,-0.036010198295116425
1769657585599314200,5.725314208984375,-0.2546914219856262,-1.4122802019119263,-0.01841922104358673
1769657585609302000,5.735302001953125,-0.2700123190879822,-1.4597760438919067,0.009119728580117226
1769657585619291100,5.745291015625,-0.27879780530929565,-1.5020465850830078,0.03323625028133392
1769657585629279200,5.755279296875,-0.29420313239097595,-1.5391765832901,0.04806632921099663
1769657585639267300,5.765267333984375,-0.31178000569343567,-1.5659743547439575,0.06376565992832184
1769657585649255000,5.7752548828125,-0.31853750348091125,-1.595686435699463,0.08018511533737183
1769657585659243000,5.785242919921875,-0.32647743821144104,-1.6318061351776123,0.08647523820400238
1769657585669231000,5.795231201171875,-0.3328109681606293,-1.6439703702926636,0.08465123921632767
1769657585679219000,5.805218994140625,-0.32842740416526794,-1.6581839323043823,0.07469581067562103
1769657585689207000,5.81520703125,-0.32456421852111816,-1.6746656894683838,0.06067293509840965
1769657585699195100,5.825195068359375,-0.31905999779701233,-1.674357295036316,0.042005505412817
1769657585709183200,5.835183349609375,-0.31836092472076416,-1.6758241653442383,0.018742527812719345
1769657585719171000,5.845171142578125,-0.3224531412124634,-1.6761025190353394,-0.004450408276170492
1769657585729159200,5.8551591796875,-0.3228243887424469,-1.6684964895248413,-0.019994746893644333
1769657585739147300,5.865147216796875,-0.3275544345378876,-1.6698142290115356,-0.0344647653400898
1769657585749135000,5.875135009765625,-0.32686707377433777,-1.673616647720337,-0.043828971683979034
1769657585759123200,5.885123291015625,-0.3300114572048187,-1.6681241989135742,-0.044442299753427505
1769657585769111000,5.895111083984375,-0.3383391797542572,-1.6666970252990723,-0.041847847402095795
1769657585779099100,5.90509912109375,-0.34797927737236023,-1.6609938144683838,-0.055991895496845245
1769657585789087000,5.9150869140625,-0.358980268239975,-1.6411207914352417,-0.07693659514188766
1769657585799075000,5.925074951171875,-0.37776726484298706,-1.6232086420059204,-0.08781027793884277
1769657585809063200,5.935063232421875,-0.3927302360534668,-1.6125645637512207,-0.0841662734746933
1769657585819051000,5.945051025390625,-0.4120176434516907,-1.6201108694076538,-0.07174395769834518
1769657585829039000,5.9550390625,-0.4305838644504547,-1.655967354774475,-0.05642759054899216
1769657585839028200,5.9650283203125,-0.44398677349090576,-1.6816474199295044,-0.04857925325632095
1769657585849016000,5.97501611328125,-0.45841044187545776,-1.705211877822876,-0.04935210198163986
1769657585859004000,5.98500390625,-0.472963809967041,-1.7068002223968506,-0.0557309053838253
1769657585868992000,5.994991943359375,-0.47415053844451904,-1.6867096424102783,-0.06948134303092957
1769657585878980000,6.00497998046875,-0.46203526854515076,-1.630028486251831,-0.08254574239253998
1769657585888968200,6.01496826171875,-0.4453817307949066,-1.5377765893936157,-0.0846531018614769
1769657585898956000,6.0249560546875,-0.43369871377944946,-1.44316565990448,-0.08940231800079346
1769657585908943400,6.034943359375,-0.42627382278442383,-1.3880603313446045,-0.10428912192583084
1769657585918931500,6.044931396484375,-0.4131907820701599,-1.3792394399642944,-0.12659043073654175
1769657585928919600,6.05491943359375,-0.4057618975639343,-1.3884422779083252,-0.1485239565372467
1769657585938907600,6.06490771484375,-0.39331507682800293,-1.3891232013702393,-0.15450835227966309
1769657585948895500,6.0748955078125,-0.37721624970436096,-1.3751354217529297,-0.14330069720745087
1769657585958883600,6.084883544921875,-0.3587253987789154,-1.3352344036102295,-0.12420476973056793
1769657585968871700,6.09487158203125,-0.3413325548171997,-1.296405553817749,-0.10753125697374344
1769657585978859500,6.104859619140625,-0.3287901282310486,-1.2737630605697632,-0.10009251534938812
1769657585988847600,6.11484765625,-0.3227735161781311,-1.2651740312576294,-0.10280494391918182
1769657585998835500,6.12483544921875,-0.32518821954727173,-1.2796560525894165,-0.11004314571619034
1769657586008823600,6.134823486328125,-0.34125852584838867,-1.2867587804794312,-0.10902395844459534
1769657586018811400,6.144811279296875,-0.35796186327934265,-1.2831403017044067,-0.10652857273817062
1769657586028799500,6.154799560546875,-0.3778109550476074,-1.2737350463867188,-0.10754963010549545
1769657586038787600,6.16478759765625,-0.38978105783462524,-1.2749910354614258,-0.11335372179746628
1769657586048775400,6.174775390625,-0.4010203778743744,-1.3054392337799072,-0.1226699948310852
1769657586058764500,6.1847646484375,-0.3910604417324066,-1.2949711084365845,-0.14244848489761353
1769657586068752600,6.194752685546875,-0.3798367977142334,-1.2683988809585571,-0.15960244834423065
1769657586078740500,6.204740478515625,-0.36897164583206177,-1.2388556003570557,-0.17158879339694977
1769657586088728300,6.214728271484375,-0.34725436568260193,-1.1813782453536987,-0.1843746304512024
1769657586098716400,6.22471630859375,-0.3337537348270416,-1.115398645401001,-0.19465869665145874
1769657586108704500,6.23470458984375,-0.32480230927467346,-1.0524508953094482,-0.21189387142658234
1769657586118692600,6.244692626953125,-0.31595131754875183,-0.9771721363067627,-0.2297024428844452
1769657586128680400,6.254680419921875,-0.3056435286998749,-0.9064190983772278,-0.24191568791866302
1769657586138668500,6.26466845703125,-0.2926819324493408,-0.8550523519515991,-0.24952061474323273
1769657586148656600,6.27465673828125,-0.27191275358200073,-0.8110041618347168,-0.23901018500328064
1769657586158644500,6.28464453125,-0.24812725186347961,-0.770708441734314,-0.2133498340845108
1769657586168632600,6.294632568359375,-0.22533990442752838,-0.7347363233566284,-0.1915971338748932
1769657586178620700,6.30462060546875,-0.19747765362262726,-0.6836225390434265,-0.1846364289522171
1769657586188608800,6.31460888671875,-0.17721019685268402,-0.6347721815109253,-0.18958111107349396
1769657586198596400,6.324596435546875,-0.16008260846138,-0.606108546257019,-0.20299385488033295
1769657586208584400,6.33458447265625,-0.14544188976287842,-0.5912830233573914,-0.21606652438640594
1769657586218572500,6.344572509765625,-0.13542813062667847,-0.5779216885566711,-0.22017870843410492
1769657586228560400,6.354560302734375,-0.12578588724136353,-0.5690573453903198,-0.21356235444545746
1769657586238548500,6.364548583984375,-0.10814671218395233,-0.557837724685669,-0.2026902586221695
1769657586248536600,6.37453662109375,-0.09276668727397919,-0.541023313999176,-0.19058965146541595
1769657586258524400,6.3845244140625,-0.07201293855905533,-0.529597282409668,-0.1813839077949524
1769657586268512500,6.394512451171875,-0.04370034113526344,-0.5307517647743225,-0.18494641780853271
1769657586278501600,6.404501708984375,-0.014025005511939526,-0.5271402597427368,-0.18572619557380676
1769657586288489500,6.414489501953125,0.016760338097810745,-0.519728422164917,-0.1706758737564087
1769657586298477300,6.424477294921875,0.05783214047551155,-0.5266994833946228,-0.13636423647403717
1769657586308465400,6.43446533203125,0.10184992849826813,-0.5063439011573792,-0.09989383816719055
1769657586318453500,6.44445361328125,0.1438376009464264,-0.47590234875679016,-0.07173250615596771
1769657586328441600,6.454441650390625,0.18189284205436707,-0.4283880889415741,-0.06112833321094513
1769657586338429400,6.464429443359375,0.21758106350898743,-0.37827327847480774,-0.0698310136795044
1769657586348417500,6.47441748046875,0.2451423853635788,-0.3433685600757599,-0.08991923928260803
1769657586358405600,6.484405517578125,0.2648995816707611,-0.3138948082923889,-0.11722995340824127
1769657586368393500,6.4943935546875,0.280861496925354,-0.30054011940956116,-0.1402077078819275
1769657586378381600,6.504381591796875,0.2946667969226837,-0.30993202328681946,-0.15536881983280182
1769657586388369700,6.51436962890625,0.2978183627128601,-0.32233649492263794,-0.17085430026054382
1769657586398357500,6.524357421875,0.28343144059181213,-0.3297928273677826,-0.1863459050655365
1769657586408345300,6.534345458984375,0.2511430084705353,-0.3004660904407501,-0.21035990118980408
1769657586418333400,6.54433349609375,0.22462964057922363,-0.228225439786911,-0.24445980787277222
1769657586428321500,6.554321533203125,0.21413706243038177,-0.13270825147628784,-0.2905822992324829
1769657586438309400,6.564309326171875,0.20083323121070862,-0.025606825947761536,-0.3462367653846741
1769657586448297500,6.57429736328125,0.18515147268772125,0.059793293476104736,-0.3795848786830902
1769657586458285600,6.58428564453125,0.17055362462997437,0.1329820156097412,-0.3558310866355896
1769657586468273700,6.594273681640625,0.1642640382051468,0.21735548973083496,-0.2828066647052765
1769657586478261500,6.604261474609375,0.17341120541095734,0.2645706832408905,-0.17932315170764923
1769657586488250400,6.61425048828125,0.20807278156280518,0.271554559469223,-0.06820541620254517
1769657586498238500,6.624238525390625,0.24846786260604858,0.2204412966966629,0.032113462686538696
1769657586508226600,6.6342265625,0.2777216136455536,0.14978815615177155,0.10148002207279205
1769657586518214400,6.64421435546875,0.2752797603607178,0.07640742510557175,0.13473038375377655
1769657586528202500,6.654202392578125,0.24738210439682007,0.019351327791810036,0.13357190787792206
1769657586538190600,6.664190673828125,0.21239881217479706,-0.010302438400685787,0.10426701605319977
1769657586548178400,6.674178466796875,0.17773963510990143,-0.00493217445909977,0.07349605858325958
1769657586558166500,6.68416650390625,0.1517341285943985,0.00544456671923399,0.04857179522514343
1769657586568154600,6.694154541015625,0.14194968342781067,0.0025779400020837784,0.03299203887581825
1769657586578142700,6.704142822265625,0.12782028317451477,-0.010313623584806919,0.023634223267436028
1769657586588130600,6.714130615234375,0.109048992395401,-0.017551563680171967,0.012822055257856846
1769657586598118700,6.72411865234375,0.08335933834314346,-0.028603682294487953,-0.001570998691022396
1769657586608106500,6.7341064453125,0.05488082394003868,-0.042387671768665314,-0.02821752242743969
1769657586618094300,6.74409423828125,0.03417980670928955,-0.061708372086286545,-0.06946243345737457
1769657586628082400,6.75408251953125,0.01155518926680088,-0.07457010447978973,-0.11517132818698883
1769657586638070500,6.764070556640625,-0.0000428768944402691,-0.07725377380847931,-0.16430053114891052
1769657586648058400,6.774058349609375,-0.011783156543970108,-0.0678432285785675,-0.2276238352060318
1769657586658046500,6.78404638671875,-0.01798272877931595,-0.006730074528604746,-0.3026925027370453
1769657586668034600,6.79403466796875,-0.032173383980989456,0.01095438003540039,-0.35160836577415466
1769657586678022700,6.804022705078125,-0.04061267524957657,0.031633295118808746,-0.3717905879020691
1769657586688010500,6.814010498046875,-0.04474882781505585,0.08188128471374512,-0.3424995541572571
1769657586697999400,6.823999267578125,-0.07470699399709702,0.10618209838867188,-0.2819720208644867
1769657586707987500,6.833987548828125,-0.07408381253480911,0.0928812026977539,-0.2137783318758011
1769657586717975600,6.8439755859375,-0.023240340873599052,0.05754238739609718,-0.16870805621147156
1769657586727963400,6.85396337890625,-0.0012993563432246447,0.0549873523414135,-0.11587493866682053
1769657586737951500,6.863951416015625,0.012978915125131607,0.07190109044313431,-0.05247918516397476
1769657586747939600,6.873939697265625,0.031032217666506767,0.0924588292837143,0.03075205348432064
1769657586757927400,6.883927490234375,0.0356362909078598,0.10674082487821579,0.10712166130542755
1769657586767915500,6.89391552734375,0.037389982491731644,0.12595979869365692,0.16165733337402344
1769657586777903600,6.903903564453125,0.03777267783880234,0.16020804643630981,0.19502940773963928
1769657586787891700,6.9138916015625,0.04189418628811836,0.1468283236026764,0.22053609788417816
1769657586797879600,6.923879638671875,0.0538690909743309,0.15144358575344086,0.2348676323890686
1769657586807867600,6.93386767578125,0.057679805904626846,0.19817247986793518,0.23420211672782898
1769657586817855500,6.94385546875,0.04773157089948654,0.2853659689426422,0.2058945745229721
1769657586827843300,6.95384326171875,0.04213679954409599,0.35022884607315063,0.15642130374908447
1769657586837831400,6.96383154296875,0.03600673750042915,0.3846696615219116,0.09685491025447845
1769657586847819500,6.973819580078125,0.021094899624586105,0.39990371465682983,0.030603183433413506
1769657586857807600,6.9838076171875,-0.006970824208110571,0.381396621465683,-0.03424718603491783
1769657586867795500,6.99379541015625,-0.03230387717485428,0.3503153920173645,-0.08990618586540222
1769657586877783600,7.003783447265625,-0.04996702820062637,0.31480029225349426,-0.12491397559642792
1769657586887771600,7.013771728515625,-0.05173403397202492,0.28982701897621155,-0.11722462624311447
1769657586897759500,7.023759521484375,-0.04995344579219818,0.2639133930206299,-0.07669850438833237
1769657586907747300,7.033747314453125,-0.04156075790524483,0.2232155054807663,-0.015507320873439312
1769657586917735400,7.0437353515625,-0.031801871955394745,0.1870945245027542,0.05861537531018257
1769657586927724300,7.053724365234375,-0.027030019089579582,0.17315687239170074,0.12321354448795319
1769657586937712400,7.06371240234375,-0.024448351934552193,0.16811764240264893,0.1688060611486435
1769657586947700200,7.0737001953125,-0.025594308972358704,0.12524527311325073,0.18278498947620392
1769657586957688300,7.083688232421875,-0.037463217973709106,0.1274341195821762,0.18523643910884857
1769657586967676400,7.093676513671875,-0.0343550443649292,0.1475718766450882,0.18698559701442719
1769657586977664500,7.10366455078125,-0.01896277256309986,0.1797202229499817,0.184251070022583
1769657586987652400,7.11365234375,0.0026770094409585,0.2317884862422943,0.1860167384147644
1769657586997640400,7.123640380859375,0.01811428926885128,0.28557077050209045,0.2026074379682541
1769657587007628500,7.133628662109375,0.034262899309396744,0.32910650968551636,0.21927429735660553
1769657587017616400,7.143616455078125,0.0497710183262825,0.37217170000076294,0.23043374717235565
1769657587027604200,7.153604248046875,0.06011766567826271,0.4198864996433258,0.23530758917331696
1769657587037592300,7.16359228515625,0.06779742240905762,0.4532119631767273,0.24230104684829712
1769657587047580200,7.173580078125,0.07300683110952377,0.4798731207847595,0.2503073215484619
1769657587057568300,7.183568359375,0.07202545553445816,0.4980204403400421,0.2596254348754883
1769657587067556400,7.193556396484375,0.06361839175224304,0.4937966763973236,0.26098525524139404
1769657587077544400,7.20354443359375,0.05266294628381729,0.476813942193985,0.2509501874446869
1769657587087532300,7.2135322265625,0.04053304344415665,0.4564748704433441,0.2259167581796646
1769657587097520400,7.223520263671875,0.029823409393429756,0.43824952840805054,0.20012909173965454
1769657587107508500,7.233508544921875,0.02478683926165104,0.429248571395874,0.19488772749900818
1769657587117496300,7.243496337890625,0.031023696064949036,0.39967310428619385,0.20615370571613312
1769657587127485200,7.253485107421875,0.0421338714659214,0.34872177243232727,0.2428390085697174
1769657587137473300,7.263473388671875,0.0515899583697319,0.2951373755931854,0.29635071754455566
1769657587147461400,7.27346142578125,0.05339078605175018,0.25268232822418213,0.35283955931663513
1769657587157449200,7.28344921875,0.052201151847839355,0.23247185349464417,0.3965747654438019
1769657587167437300,7.293437255859375,0.040834780782461166,0.21617038547992706,0.42998412251472473
1769657587177425400,7.30342529296875,0.016161393374204636,0.21016602218151093,0.45930394530296326
1769657587187413500,7.31341357421875,0.0012769857421517372,0.18193252384662628,0.4713049530982971
1769657587197401300,7.3234013671875,-0.003640807466581464,0.1224857047200203,0.46379536390304565
1769657587207389400,7.333389404296875,-0.022788137197494507,0.07244890183210373,0.4360377788543701
1769657587217377500,7.34337744140625,-0.06528127193450928,-0.011049721390008926,0.3929581940174103
1769657587227365400,7.353365478515625,-0.1030142679810524,-0.027595141902565956,0.3585187494754791
1769657587237353200,7.363353271484375,-0.13148824870586395,-0.02936614491045475,0.31233686208724976
1769657587247341300,7.37334130859375,-0.15338343381881714,-0.07325530797243118,0.24726411700248718
1769657587257329400,7.383329345703125,-0.2020774632692337,-0.13805720210075378,0.20284418761730194
1769657587267317200,7.393317138671875,-0.21654775738716125,-0.15585164725780487,0.1223168596625328
1769657587277305300,7.403305419921875,-0.21968655288219452,-0.10354450345039368,-0.004289553500711918
1769657587287293400,7.41329345703125,-0.20465433597564697,-0.042100582271814346,-0.1047796756029129
1769657587297281300,7.42328125,-0.2163488119840622,0.03398726135492325,-0.1579882949590683
1769657587307269400,7.433269287109375,-0.19806994497776031,0.08941803127527237,-0.160941481590271
1769657587317257500,7.443257568359375,-0.18852730095386505,0.09486739337444305,-0.14946778118610382
1769657587327245600,7.45324560546875,-0.20105907320976257,0.11332841962575912,-0.12780669331550598
1769657587337234200,7.463234130859375,-0.22070202231407166,0.109190933406353,-0.07850173115730286
1769657587347222300,7.47322216796875,-0.24208639562129974,0.1411573886871338,-0.012444951571524143
1769657587357210400,7.48321044921875,-0.2651786804199219,0.19753038883209229,0.07094341516494751
1769657587367198500,7.493198486328125,-0.2628507912158966,0.19584965705871582,0.17845655977725983
1769657587377186300,7.503186279296875,-0.22364135086536407,0.20927013456821442,0.27795013785362244
1769657587387174400,7.51317431640625,-0.15176290273666382,0.26438185572624207,0.35414156317710876
1769657587397162500,7.52316259765625,-0.0813068374991417,0.2921101450920105,0.4188574552536011
1769657587407150300,7.533150390625,-0.013527260161936283,0.38524356484413147,0.4445156753063202
1769657587417138400,7.543138427734375,0.04910389706492424,0.5348309278488159,0.42976680397987366
1769657587427126500,7.55312646484375,0.09847970306873322,0.6832006573677063,0.37763676047325134
1769657587437114400,7.5631142578125,0.1210465282201767,0.8281826376914978,0.2891694903373718
1769657587447102200,7.573102294921875,0.1137515977025032,0.9134098887443542,0.1874881386756897
1769657587457090300,7.58309033203125,0.0779629722237587,0.8774407505989075,0.0936705619096756
1769657587467078400,7.593078369140625,0.03394917771220207,0.7793937921524048,0.01836436055600643
1769657587477066200,7.603066162109375,-0.009399627335369587,0.6676739454269409,-0.018388861790299416
1769657587487054300,7.613054443359375,-0.04452405869960785,0.5298745036125183,-0.01501410361379385
1769657587497042400,7.62304248046875,-0.08512714505195618,0.37690654397010803,0.007351655978709459
1769657587507030300,7.6330302734375,-0.10767906159162521,0.2267623096704483,0.02327682636678219
1769657587517018400,7.643018310546875,-0.10952755808830261,0.12675102055072784,0.030773624777793884
1769657587527006500,7.65300634765625,-0.09113949537277222,0.0887029692530632,0.054672565311193466
1769657587536995300,7.662995361328125,-0.06587249040603638,0.10703377425670624,0.11243706196546555
1769657587546983200,7.672983154296875,-0.029319273307919502,0.17421014606952667,0.20360292494297028
1769657587556971300,7.68297119140625,0.02117452770471573,0.27555355429649353,0.32195672392845154
1769657587566959400,7.69295947265625,0.07995102554559708,0.35520949959754944,0.4156949520111084
1769657587576947500,7.702947509765625,0.12678590416908264,0.4076268970966339,0.45359331369400024
1769657587586935300,7.712935302734375,0.16842789947986603,0.4354364275932312,0.43224063515663147
1769657587596923400,7.72292333984375,0.1910858005285263,0.4579864740371704,0.372201532125473
1769657587606911500,7.732911376953125,0.2012936919927597,0.49584704637527466,0.3027801215648651
1769657587616899300,7.7428994140625,0.1956413984298706,0.5336282253265381,0.23131471872329712
1769657587626887400,7.752887451171875,0.17908400297164917,0.5386996865272522,0.17434437572956085
1769657587636875300,7.762875244140625,0.15708602964878082,0.4876652657985687,0.14271587133407593
1769657587646863400,7.77286328125,0.1533205807209015,0.3837980031967163,0.12853960692882538
1769657587656851200,7.782851318359375,0.151303231716156,0.335292249917984,0.1113763228058815
1769657587666839300,7.79283935546875,0.14455212652683258,0.28503838181495667,0.09492358565330505
1769657587676827400,7.802827392578125,0.15644846856594086,0.2545321583747864,0.0712755098938942
1769657587686815200,7.812815185546875,0.1741342544555664,0.24253034591674805,0.05510293319821358
1769657587696803300,7.82280322265625,0.199605792760849,0.24641190469264984,0.035224832594394684
1769657587706791400,7.83279150390625,0.21983622014522552,0.2651863992214203,0.024116521701216698
1769657587716779500,7.842779541015625,0.2298470437526703,0.2836194634437561,0.013169864192605019
1769657587726767400,7.852767333984375,0.2405683994293213,0.26989486813545227,0.0017539578257128596
1769657587736755500,7.86275537109375,0.23962537944316864,0.246230810880661,-0.016101738438010216
1769657587746744300,7.872744384765625,0.22312895953655243,0.20747356116771698,-0.0453546978533268
1769657587756732400,7.882732421875,0.20074854791164398,0.18593977391719818,-0.09423408657312393
1769657587766720300,7.89272021484375,0.18714512884616852,0.1792224794626236,-0.14966513216495514
1769657587776708400,7.902708251953125,0.18301641941070557,0.13937440514564514,-0.19724862277507782
1769657587786696400,7.912696533203125,0.18926499783992767,0.09653506428003311,-0.22584670782089233
1769657587796684300,7.922684326171875,0.20416457951068878,0.07157192379236221,-0.23195786774158478
1769657587806672400,7.93267236328125,0.22670051455497742,0.06987921893596649,-0.22196036577224731
1769657587816660500,7.942660400390625,0.25451192259788513,0.094301737844944,-0.21055111289024353
1769657587826648600,7.952648681640625,0.2808239459991455,0.11834155768156052,-0.20723281800746918
1769657587836636400,7.962636474609375,0.2958955764770508,0.1538500189781189,-0.21582549810409546
1769657587846624300,7.972624267578125,0.31589990854263306,0.1818867176771164,-0.2246277779340744
1769657587856612400,7.9826123046875,0.34312912821769714,0.194114089012146,-0.22525522112846375
1769657587866600200,7.99260009765625,0.38215774297714233,0.21486011147499084,-0.21067868173122406
1769657587876588300,8.00258837890625,0.420622318983078,0.22840441763401031,-0.18009626865386963
1769657587886576400,8.012576416015625,0.4552921652793884,0.21424704790115356,-0.14460298418998718
1769657587896564200,8.022564208984376,0.46830329298973083,0.17947494983673096,-0.10781115293502808
1769657587906552300,8.03255224609375,0.45468947291374207,0.14491485059261322,-0.08746939152479172
1769657587916540000,8.042539794921876,0.41934746503829956,0.11032570898532867,-0.09810099750757217
1769657587926528000,8.052528076171875,0.36891067028045654,0.12985733151435852,-0.14881956577301025
1769657587936516000,8.06251611328125,0.30749017000198364,0.22576282918453217,-0.22200164198875427
1769657587946504000,8.07250390625,0.265694797039032,0.38637885451316833,-0.30199235677719116
1769657587956492800,8.082492919921876,0.25933489203453064,0.538041353225708,-0.392791748046875
1769657587966481000,8.09248095703125,0.27425286173820496,0.6206704378128052,-0.4469181001186371
1769657587976469000,8.102468994140626,0.17646478116512299,0.6260353922843933,-0.4639844298362732
1769657587986456800,8.112456787109375,0.15522953867912292,0.5417511463165283,-0.4710239768028259
1769657587996445000,8.12244482421875,0.15947434306144714,0.4335940480232239,-0.4137316644191742
1769657588006433000,8.13243310546875,0.18361563980579376,0.35243502259254456,-0.2888147532939911
1769657588016421000,8.142421142578126,0.22478944063186646,0.30327174067497253,-0.09731563180685043
1769657588026409000,8.152408935546875,0.2524876296520233,0.29958805441856384,0.12180020660161972
1769657588036397000,8.16239697265625,0.24830888211727142,0.31192195415496826,0.31367430090904236
1769657588046385200,8.17238525390625,0.21743005514144897,0.3309057652950287,0.4251217246055603
1769657588056373000,8.182373046875,0.20194511115550995,0.3385500907897949,0.42947840690612793
1769657588066360800,8.19236083984375,0.1881355494260788,0.36950188875198364,0.3701910972595215
1769657588076349000,8.202348876953126,0.14236700534820557,0.3875772953033447,0.3096718490123749
1769657588086337000,8.2123369140625,0.10838959366083145,0.40707269310951233,0.2578994631767273
1769657588096324900,8.222324951171874,0.07428381592035294,0.44313642382621765,0.20345644652843475
1769657588106313000,8.23231298828125,0.02520895004272461,0.44123199582099915,0.14252705872058868
1769657588116301000,8.242301025390624,-0.007539142854511738,0.4133998155593872,0.06154432147741318
1769657588126289000,8.252288818359375,-0.03285568580031395,0.3600529730319977,-0.02894722856581211
1769657588136277000,8.262277099609374,-0.04958406463265419,0.27648404240608215,-0.12619735300540924
1769657588146265000,8.27226513671875,-0.06765707582235336,0.16989822685718536,-0.2086181938648224
1769657588156254000,8.28225390625,-0.08726619929075241,0.03171958029270172,-0.2462579756975174
1769657588166241800,8.29224169921875,-0.07113942503929138,-0.022838469594717026,-0.25777482986450195
1769657588176230000,8.30222998046875,-0.06458432227373123,-0.04362204670906067,-0.21247072517871857
1769657588186218000,8.312218017578125,-0.08817779272794724,-0.05522357299923897,-0.13189198076725006
1769657588196206000,8.3222060546875,-0.07049014419317245,-0.01823253370821476,-0.01333071943372488
1769657588206194000,8.33219384765625,-0.02732323296368122,0.032945167273283005,0.11671250313520432
1769657588216182000,8.34218212890625,0.029592780396342278,0.08328690379858017,0.23814812302589417
1769657588226170000,8.352170166015625,0.07869561016559601,0.1820928454399109,0.35709235072135925
1769657588236158000,8.362157958984374,0.11373268812894821,0.306009978055954,0.4561941623687744
1769657588246146000,8.37214599609375,0.1442413330078125,0.40984609723091125,0.5082240700721741
1769657588256134100,8.382134033203124,0.16689364612102509,0.49838608503341675,0.5195435881614685
1769657588266122000,8.3921220703125,0.18071039021015167,0.5602715611457825,0.5100592374801636
1769657588276109800,8.40210986328125,0.20089848339557648,0.6745989322662354,0.4689064919948578
1769657588286098000,8.412097900390625,0.19679109752178192,0.7960465550422668,0.4081483483314514
1769657588296086000,8.4220859375,0.18725484609603882,0.8908111453056335,0.3316144049167633
1769657588306073900,8.432073974609375,0.1757984608411789,0.9431393146514893,0.25551271438598633
1769657588316062000,8.44206201171875,0.1765422821044922,0.9653593897819519,0.19569413363933563
1769657588326050000,8.452050048828125,0.17312757670879364,0.973190426826477,0.1710071712732315
1769657588336038000,8.462037841796874,0.16128796339035034,0.9788358211517334,0.17560963332653046
1769657588346026000,8.47202587890625,0.14933036267757416,0.9803119897842407,0.1925036758184433
1769657588356014000,8.48201416015625,0.12732680141925812,0.9613966345787048,0.2143692821264267
1769657588366003000,8.4920029296875,0.12209741026163101,0.9449523687362671,0.23891404271125793
1769657588375990800,8.50199072265625,0.12577763199806213,0.9491226673126221,0.27314072847366333
1769657588385979000,8.511978759765626,0.12984907627105713,0.9857680201530457,0.31157201528549194
1769657588395967000,8.521967041015625,0.14170414209365845,1.0454387664794922,0.3545261323451996
1769657588405955000,8.531955078125,0.1541898399591446,1.1255301237106323,0.3869471848011017
1769657588415943000,8.54194287109375,0.16741162538528442,1.2277222871780396,0.3990531265735626
1769657588425931000,8.551930908203126,0.18404920399188995,1.3146220445632935,0.3990059792995453
1769657588435919000,8.561919189453125,0.20209823548793793,1.3877702951431274,0.40605828166007996
1769657588445907000,8.571906982421876,0.21753738820552826,1.4362907409667969,0.4233350157737732
1769657588455895000,8.58189501953125,0.24162673950195312,1.4542829990386963,0.4524308443069458
1769657588465883100,8.591883056640626,0.263904869556427,1.4883291721343994,0.48138341307640076
1769657588475871000,8.60187109375,0.291582852602005,1.5104427337646484,0.5039337277412415
1769657588485858800,8.61185888671875,0.3175068497657776,1.5467705726623535,0.5118297338485718
1769657588495847000,8.621846923828125,0.3370608389377594,1.583109974861145,0.510611891746521
1769657588505835000,8.6318349609375,0.36822009086608887,1.6591938734054565,0.5051521062850952
1769657588515822800,8.64182275390625,0.39059942960739136,1.6855753660202026,0.5436758399009705
1769657588525811000,8.65181103515625,0.41623130440711975,1.7310816049575806,0.6065373420715332
1769657588535799000,8.661799072265625,0.4476054608821869,1.7644097805023193,0.6916985511779785
1769657588545787100,8.671787109375,0.47762036323547363,1.8237383365631104,0.774375855922699
1769657588555775000,8.68177490234375,0.4929356575012207,1.8977736234664917,0.8349071145057678
1769657588565763800,8.691763916015624,0.48953667283058167,1.934823751449585,0.8701567053794861
1769657588575752000,8.701751953125,0.47848668694496155,1.9485089778900146,0.875387966632843
1769657588585740000,8.711739990234374,0.45807409286499023,1.9306766986846924,0.8747208714485168
1769657588595728000,8.721727783203125,0.43636345863342285,1.9095871448516846,0.8693239688873291
1769657588605716000,8.731716064453124,0.4028678238391876,1.8853003978729248,0.8513001799583435
1769657588615704000,8.7417041015625,0.3565109670162201,1.8578499555587769,0.8208967447280884
1769657588625692000,8.75169189453125,0.31984803080558777,1.850353717803955,0.7862125635147095
1769657588635680000,8.761679931640625,0.30432766675949097,1.8331594467163086,0.762859046459198
1769657588645668000,8.771668212890624,0.2879739999771118,1.8381496667861938,0.7784486413002014
1769657588655656200,8.78165625,0.26920750737190247,1.8750821352005005,0.8286579847335815
1769657588665644000,8.79164404296875,0.2501392662525177,1.8982977867126465,0.8552728295326233
1769657588675631900,8.8016318359375,0.2278725802898407,1.842537522315979,0.8472498059272766
1769657588685620000,8.811619873046874,0.18471099436283112,1.7961748838424683,0.8092206716537476
1769657588695607800,8.82160791015625,0.128624826669693,1.7302861213684082,0.7563265562057495
1769657588705596000,8.831595947265624,0.0782090499997139,1.6761478185653687,0.7140126824378967
1769657588715584000,8.841583984375,0.07863941788673401,1.7386164665222168,0.6586759090423584
1769657588725571800,8.85157177734375,0.13015960156917572,1.8436083793640137,0.5812509059906006
1769657588735560000,8.861559814453125,0.19352738559246063,1.934737205505371,0.5114883184432983
1769657588745548000,8.871548095703124,0.24462492763996124,2.088663339614868,0.4621548652648926
1769657588755536100,8.8815361328125,0.3166104257106781,2.2481472492218018,0.437284916639328
1769657588765525000,8.89152490234375,0.39326101541519165,2.3416740894317627,0.4117337465286255
1769657588775512800,8.901512939453125,0.4560399651527405,2.4251208305358887,0.3691346347332001
1769657588785501000,8.9115009765625,0.5007379055023193,2.4559154510498047,0.3216744363307953
1769657588795489000,8.921489013671875,0.5324212908744812,2.427180051803589,0.30210766196250916
1769657588805476900,8.931476806640624,0.5414643287658691,2.3547704219818115,0.3312325179576874
1769657588815465000,8.94146484375,0.5347430109977722,2.207803964614868,0.4104863405227661
1769657588825453000,8.951453125,0.5338844060897827,2.013085126876831,0.5238310098648071
1769657588835441000,8.96144091796875,0.5272478461265564,1.8353811502456665,0.6255805492401123
1769657588845429000,8.971428955078125,0.5279631614685059,1.7512720823287964,0.7121785283088684
1769657588855417000,8.9814169921875,0.528541624546051,1.7154821157455444,0.7749452590942383
1769657588865405200,8.9914052734375,0.5292806029319763,1.7191135883331299,0.8194634318351746
1769657588875393000,9.00139306640625,0.537589967250824,1.6946903467178345,0.8577900528907776
1769657588885380900,9.011380859375,0.5646495223045349,1.6737256050109863,0.8941041231155396
1769657588895369000,9.021368896484375,0.5818452835083008,1.6408467292785645,0.9217568039894104
1769657588905356800,9.031356689453125,0.5942233800888062,1.6657094955444336,0.9321125149726868
1769657588915345400,9.041345458984376,0.6058728694915771,1.688033938407898,0.9255635142326355
1769657588925333500,9.05133349609375,0.606850266456604,1.7109917402267456,0.8988687992095947
1769657588935321600,9.061321533203126,0.6047269105911255,1.7316336631774902,0.8524760007858276
1769657588945309400,9.071309326171875,0.6048979163169861,1.7440184354782104,0.7946633100509644
1769657588955297500,9.081297607421876,0.5980111956596375,1.7183583974838257,0.7320734262466431
1769657588965285600,9.09128564453125,0.5916656851768494,1.6863939762115479,0.680897057056427
1769657588975274500,9.1012744140625,0.5906643867492676,1.6423519849777222,0.6499348878860474
1769657588985262300,9.111262451171875,0.5956287384033203,1.5950249433517456,0.6359556913375854
1769657588995250400,9.12125048828125,0.5957688093185425,1.5750157833099365,0.635996401309967
1769657589005238500,9.131238525390625,0.5923927426338196,1.5674116611480713,0.6414907574653625
1769657589015226600,9.1412265625,0.5909889936447144,1.5549737215042114,0.6551322937011719
1769657589025214500,9.15121435546875,0.5811363458633423,1.5243089199066162,0.6590945720672607
1769657589035202600,9.16120263671875,0.5640415549278259,1.494492769241333,0.6374291777610779
1769657589045190700,9.171190673828125,0.5410784482955933,1.4731371402740479,0.6035354137420654
1769657589055178500,9.181178466796876,0.5122119188308716,1.4637396335601807,0.5673888921737671
1769657589065166600,9.19116650390625,0.4957074820995331,1.45122492313385,0.5377808809280396
1769657589075154400,9.201154541015624,0.48982003331184387,1.4418119192123413,0.5041877627372742
1769657589085142300,9.211142333984375,0.4972105622291565,1.4405221939086914,0.4721353054046631
1769657589095130400,9.22113037109375,0.5175246596336365,1.4578779935836792,0.44330206513404846
1769657589105118500,9.231118408203125,0.5467522740364075,1.4992262125015259,0.41383180022239685
1769657589115106600,9.2411064453125,0.5672759413719177,1.551215410232544,0.3842281103134155
1769657589125094400,9.251094482421875,0.5800188779830933,1.5818665027618408,0.3756953179836273
1769657589135082500,9.26108251953125,0.5831648707389832,1.6045851707458496,0.38764145970344543
1769657589145070600,9.271070556640625,0.5817848443984985,1.589666724205017,0.4070015847682953
1769657589155058400,9.281058349609374,0.5774825215339661,1.5635690689086914,0.4313487410545349
1769657589165046500,9.291046630859375,0.573154091835022,1.5297313928604126,0.4501866102218628
1769657589175034600,9.30103466796875,0.5660796761512756,1.4952776432037354,0.46558821201324463
1769657589185023500,9.3110234375,0.5623956918716431,1.4738441705703735,0.4789426326751709
1769657589195011300,9.32101123046875,0.5620052814483643,1.4547663927078247,0.4915686547756195
1769657589204999400,9.33099951171875,0.5653627514839172,1.455865502357483,0.5006330013275146
1769657589214987500,9.340987548828124,0.5676777958869934,1.422186017036438,0.5096914768218994
1769657589224975600,9.3509755859375,0.5702751874923706,1.4051165580749512,0.5011571049690247
1769657589234963500,9.36096337890625,0.5615200400352478,1.441514253616333,0.4943772256374359
1769657589244951600,9.37095166015625,0.5556967854499817,1.4330331087112427,0.4786914885044098
1769657589254939600,9.380939697265624,0.5468987822532654,1.3766214847564697,0.4697440564632416
1769657589264927500,9.390927490234375,0.5314756035804749,1.3215337991714478,0.4503519833087921
1769657589274915600,9.40091552734375,0.5123130679130554,1.253673791885376,0.42752256989479065
1769657589284903400,9.4109033203125,0.4868559241294861,1.2018728256225586,0.3965654671192169
1769657589294891500,9.4208916015625,0.4707004129886627,1.1600106954574585,0.3652014136314392
1769657589304879400,9.43087939453125,0.4693797528743744,1.1431970596313477,0.33866435289382935
1769657589314867500,9.440867431640624,0.48449158668518066,1.1547199487686157,0.31967759132385254
1769657589324855600,9.45085546875,0.5078802704811096,1.206153392791748,0.3084228038787842
1769657589334843400,9.460843505859375,0.5349017381668091,1.2932896614074707,0.28700488805770874
1769657589344831500,9.47083154296875,0.5655696392059326,1.4276868104934692,0.23789271712303162
1769657589354819600,9.480819580078125,0.5950641632080078,1.6121296882629395,0.18449580669403076
1769657589364807400,9.490807373046875,0.5910452008247375,1.8077471256256104,0.1442091017961502
1769657589374795500,9.50079541015625,0.5481842756271362,1.9605510234832764,0.10487475246191025
1769657589384784400,9.510784423828126,0.49166375398635864,1.985549807548523,0.09030725806951523
1769657589394772500,9.5207724609375,0.4533397853374481,1.876234769821167,0.1400899887084961
1769657589404760600,9.530760498046876,0.4244562089443207,1.7181628942489624,0.24365286529064178
1769657589414748400,9.54074853515625,0.42475128173828125,1.5416219234466553,0.33978259563446045
1769657589424736500,9.550736572265626,0.46292343735694885,1.3359951972961426,0.4214654862880707
1769657589434724600,9.560724609375,0.473145991563797,1.1706291437149048,0.5044045448303223
1769657589444712400,9.57071240234375,0.45196133852005005,1.1026989221572876,0.5732052326202393
1769657589454700500,9.580700439453125,0.3955342769622803,1.1179158687591553,0.6166189908981323
1769657589464688600,9.590688720703126,0.3650898337364197,1.1408880949020386,0.6736226081848145
1769657589474676500,9.600676513671875,0.3603145182132721,1.1175340414047241,0.6621715426445007
1769657589484664300,9.610664306640626,0.3489723801612854,0.9875230193138123,0.6220302581787109
1769657589494652400,9.62065234375,0.3446196913719177,0.9217954277992249,0.6187122464179993
1769657589504640500,9.630640625,0.3262369632720947,0.892790675163269,0.6536049842834473
1769657589514628400,9.64062841796875,0.2998562157154083,0.915215015411377,0.6601741909980774
1769657589524616400,9.650616455078126,0.26443910598754883,0.9597707390785217,0.625383734703064
1769657589534604500,9.6606044921875,0.2200484722852707,1.037680983543396,0.5528176426887512
1769657589544592400,9.67059228515625,0.18627506494522095,1.1068179607391357,0.4568772614002228
1769657589554580500,9.68058056640625,0.16976746916770935,1.1634389162063599,0.34519335627555847
1769657589564568600,9.690568603515626,0.1668904572725296,1.2202836275100708,0.22206582129001617
1769657589574556700,9.700556640625,0.18331336975097656,1.2609716653823853,0.12035384029150009
1769657589584544500,9.71054443359375,0.21181771159172058,1.2911458015441895,0.04020600765943527
1769657589594533400,9.720533447265625,0.24768410623073578,1.3166979551315308,0.0038189729675650597
1769657589604521500,9.730521484375,0.2827310264110565,1.3271986246109009,-0.0020442423410713673
1769657589614509600,9.740509521484375,0.31221941113471985,1.360593557357788,0.005037635564804077
1769657589624497400,9.750497314453124,0.34185346961021423,1.3953092098236084,0.028921930119395256
1769657589634485500,9.760485595703125,0.37184545397758484,1.421797513961792,0.07548410445451736
1769657589644473600,9.7704736328125,0.3955624997615814,1.4561887979507446,0.13427338004112244
1769657589654461400,9.78046142578125,0.41097182035446167,1.472435712814331,0.18737176060676575
1769657589664449500,9.790449462890624,0.43124327063560486,1.4549634456634521,0.23146358132362366
1769657589674437600,9.800437744140625,0.44438278675079346,1.407372236251831,0.25943902134895325
1769657589684425500,9.810425537109374,0.4390886723995209,1.3436321020126343,0.254298597574234
1769657589694413300,9.820413330078125,0.3924679160118103,1.2533975839614868,0.20962832868099213
1769657589704401400,9.8304013671875,0.3388230502605438,1.1707932949066162,0.13745373487472534
1769657589714389500,9.840389404296875,0.29188111424446106,1.0891228914260864,0.051178231835365295
1769657589724377300,9.85037744140625,0.2530841827392578,1.0412921905517578,-0.02617940679192543
1769657589734365400,9.860365478515625,0.23180046677589417,1.0416337251663208,-0.0669926181435585
1769657589744353500,9.870353515625,0.211806520819664,1.0863076448440552,-0.08206237852573395
1769657589754341600,9.880341552734375,0.2127615362405777,1.128675103187561,-0.09440133720636368
1769657589764329500,9.89032958984375,0.22748242318630219,1.1819580793380737,-0.08509358763694763
1769657589774317600,9.900317626953125,0.24497459828853607,1.237982153892517,-0.05343472957611084
1769657589784305700,9.9103056640625,0.26668602228164673,1.2900594472885132,0.0020636834669858217
1769657589794294500,9.92029443359375,0.29373013973236084,1.3359612226486206,0.07634670287370682
1769657589804282400,9.930282470703125,0.32993263006210327,1.3662476539611816,0.1681479960680008
1769657589814270500,9.9402705078125,0.35133886337280273,1.3453866243362427,0.269809365272522
1769657589824258600,9.950258544921875,0.3651936948299408,1.2969565391540527,0.36675694584846497
1769657589834246400,9.960246337890625,0.35287123918533325,1.2269856929779053,0.4378684163093567
1769657589844234500,9.970234375,0.3362501859664917,1.1492009162902832,0.47556519508361816
1769657589854222600,9.98022265625,0.3057926893234253,1.0689231157302856,0.48035728931427
1769657589864210400,9.99021044921875,0.28037866950035095,0.9910492897033691,0.46803057193756104
1769657589874198500,10.000198486328125,0.2432912141084671,0.9199962019920349,0.44454869627952576
1769657589884186600,10.0101865234375,0.2025453895330429,0.8621749877929688,0.4119763672351837
1769657589894174500,10.020174560546875,0.16422542929649353,0.7914131879806519,0.368876576423645
1769657589904162300,10.030162353515625,0.13535596430301666,0.7380359768867493,0.3182123303413391
1769657589914150000,10.04014990234375,0.1229323148727417,0.710041880607605,0.2811291515827179
1769657589924137700,10.0501376953125,0.12210141122341156,0.7283306121826172,0.2843853831291199
1769657589934125800,10.060125732421875,0.12896516919136047,0.6850475668907166,0.31917744874954224
1769657589944114000,10.070114013671875,0.1571749746799469,0.6396082043647766,0.3634229600429535
1769657589954101800,10.080101806640625,0.17135044932365417,0.6193705797195435,0.41153642535209656
1769657589964089900,10.09008984375,0.17719554901123047,0.6278828382492065,0.45822563767433167
1769657589974078000,10.100077880859375,0.1745734065771103,0.6355729699134827,0.5138449668884277
1769657589984065800,10.110065673828124,0.15660053491592407,0.6092369556427002,0.5611094236373901
1769657589994054000,10.120053955078125,0.13040433824062347,0.5600364208221436,0.5864227414131165
1769657590004042800,10.130042724609375,0.09941606968641281,0.5017176866531372,0.5914201736450195
1769657590014030800,10.14003076171875,0.07534562051296234,0.43854567408561707,0.5860211253166199
1769657590024018700,10.150018798828125,0.05228877067565918,0.3924812376499176,0.5897671580314636
1769657590034006800,10.1600068359375,0.027546139433979988,0.36919134855270386,0.5856330990791321
1769657590043995000,10.169994873046875,0.001948634977452457,0.35010313987731934,0.5733077526092529
1769657590053983000,10.17998291015625,-0.016277240589261055,0.34159380197525024,0.536771833896637
1769657590063970800,10.189970703125,-0.03363332897424698,0.3233170807361603,0.47512391209602356
1769657590073959000,10.199958984375,-0.05247678980231285,0.27608057856559753,0.412099152803421
1769657590083947000,10.209947021484375,-0.07173064351081848,0.2300015091896057,0.3517577648162842
1769657590093934800,10.219934814453126,-0.09353101253509521,0.20165082812309265,0.29860827326774597
1769657590103923000,10.2299228515625,-0.12651106715202332,0.17019250988960266,0.2361302375793457
1769657590113911000,10.2399111328125,-0.1580791175365448,0.14505626261234283,0.17907467484474182
1769657590123898600,10.249898681640625,-0.17654520273208618,0.09314565360546112,0.1510361135005951
1769657590133886700,10.25988671875,-0.18442337214946747,0.014037787914276123,0.17578087747097015
1769657590143874800,10.269874755859375,-0.18591207265853882,-0.05645928159356117,0.23204122483730316
1769657590153863000,10.27986279296875,-0.19461475312709808,-0.10534533113241196,0.26993560791015625
1769657590163850800,10.289850830078125,-0.2028348743915558,-0.11961214989423752,0.27509602904319763
1769657590173838800,10.2998388671875,-0.18614910542964935,-0.08886036276817322,0.2640953063964844
1769657590183827000,10.309826904296875,-0.15547586977481842,-0.03792820870876312,0.2411489635705948
1769657590193814800,10.319814697265626,-0.09454807639122009,0.059787433594465256,0.23691853880882263
1769657590203804000,10.329803955078125,-0.037222202867269516,0.19311006367206573,0.24608594179153442
1769657590213791700,10.339791748046874,-0.0022626216523349285,0.35321104526519775,0.23913082480430603
1769657590223779800,10.34977978515625,0.013169597834348679,0.5286955237388611,0.20469774305820465
1769657590233767700,10.359767578125,0.010439857840538025,0.6366432905197144,0.14858122169971466
1769657590243755800,10.369755859375,0.0037238982040435076,0.6345945596694946,0.10427980124950409
1769657590253743900,10.379743896484374,0.007958590984344482,0.567392885684967,0.07576506584882736
1769657590263732000,10.38973193359375,0.003787281457334757,0.474082350730896,0.057242251932621
1769657590273719800,10.3997197265625,0.020733240991830826,0.4267007112503052,0.06294727325439453
1769657590283708000,10.4097080078125,0.07054660469293594,0.41968834400177,0.10572456568479538
1769657590293696000,10.419696044921874,0.14438940584659576,0.46059638261795044,0.18215756118297577
1769657590303683800,10.429683837890625,0.2331767976284027,0.5903881788253784,0.2503879964351654
1769657590313672000,10.439671875,0.3105051517486572,0.7505621314048767,0.2701585292816162
1769657590323659800,10.44965966796875,0.3563527762889862,0.8914723992347717,0.23992577195167542
1769657590333648000,10.45964794921875,0.3739538788795471,0.9696942567825317,0.16897809505462646
1769657590343635700,10.4696357421875,0.3711852729320526,0.9776450991630554,0.09664664417505264
1769657590353623800,10.479623779296874,0.3604024052619934,0.9497959017753601,0.05437668785452843
1769657590363612000,10.48961181640625,0.3404736816883087,0.8893535733222961,0.04259859398007393
1769657590373599700,10.499599853515624,0.3185598850250244,0.8115759491920471,0.07726868987083435
1769657590383587800,10.509587890625,0.3047231435775757,0.7095412015914917,0.13681671023368835
1769657590393576000,10.519575927734374,0.3045803904533386,0.6303137540817261,0.19795116782188416
1769657590403565000,10.52956494140625,0.3095757067203522,0.5659329295158386,0.24107706546783447
1769657590413552600,10.539552734375,0.30544060468673706,0.4915337860584259,0.25832369923591614
1769657590423540700,10.549540771484375,0.3110404312610626,0.4297335147857666,0.26516908407211304
1769657590433528800,10.55952880859375,0.3192368447780609,0.39069584012031555,0.2652234137058258
1769657590443517000,10.569516845703125,0.32589128613471985,0.3290804326534271,0.27297481894493103
1769657590453504800,10.5795048828125,0.33050280809402466,0.3193758726119995,0.26325052976608276
1769657590463492900,10.589492919921875,0.3196522891521454,0.36624136567115784,0.24820901453495026
1769657590473481000,10.59948095703125,0.295207679271698,0.39705413579940796,0.2218245416879654
1769657590483468800,10.60946875,0.26197728514671326,0.41360676288604736,0.20806612074375153
1769657590493457000,10.619456787109375,0.23836304247379303,0.38183632493019104,0.20394007861614227
1769657590503445000,10.629445068359376,0.23661546409130096,0.3886292278766632,0.18612486124038696
1769657590513433000,10.63943310546875,0.23531877994537354,0.41482114791870117,0.15351338684558868
1769657590523421000,10.6494208984375,0.2356564700603485,0.40542420744895935,0.11592793464660645
1769657590533408800,10.65940869140625,0.22961507737636566,0.3743099570274353,0.07586706429719925
1769657590543396900,10.66939697265625,0.21942849457263947,0.3389759361743927,0.04018044099211693
1769657590553384700,10.679384765625,0.2106693536043167,0.28809571266174316,0.022110627964138985
1769657590563372800,10.689372802734376,0.203327015042305,0.23856782913208008,0.019053319469094276
1769657590573361000,10.69936083984375,0.19885823130607605,0.187710240483284,0.007322361227124929
1769657590583348700,10.7093486328125,0.19756926596164703,0.15477865934371948,-0.013402357697486877
1769657590593336800,10.7193369140625,0.19556763768196106,0.14283038675785065,-0.04520023614168167
1769657590603325000,10.729324951171876,0.20510254800319672,0.13363103568553925,-0.08784383535385132
1769657590613313800,10.739313720703125,0.2208399623632431,0.11330072581768036,-0.13284805417060852
1769657590623301600,10.749301513671876,0.24439643323421478,0.08279368281364441,-0.15430675446987152
1769657590633289700,10.759289794921875,0.2804718613624573,0.04405347630381584,-0.13806971907615662
1769657590643277800,10.76927783203125,0.31716251373291016,0.007414773106575012,-0.09973938018083572
1769657590653266000,10.779265869140625,0.35309547185897827,0.003096457337960601,-0.07623271644115448
1769657590663253800,10.789253662109376,0.3773004114627838,0.010053965263068676,-0.07459966838359833
1769657590673241900,10.799241943359375,0.39578568935394287,0.021379856392741203,-0.08982443064451218
1769657590683230000,10.80922998046875,0.403029203414917,0.04171149432659149,-0.1190643385052681
1769657590693217800,10.8192177734375,0.40923038125038147,0.07123050093650818,-0.14663338661193848
1769657590703206000,10.829205810546876,0.4276943504810333,0.09480240941047668,-0.1333886831998825
1769657590713194000,10.839194091796875,0.46081289649009705,0.13463982939720154,-0.07236447930335999
1769657590723182000,10.84918212890625,0.5026258230209351,0.18153171241283417,0.01347506232559681
1769657590733170000,10.859169921875,0.5421186685562134,0.23372940719127655,0.1061011329293251
1769657590743157800,10.86915771484375,0.5912063121795654,0.29138097167015076,0.19789204001426697
1769657590753145900,10.879145751953125,0.6441227793693542,0.40419355034828186,0.2510034739971161
1769657590763133700,10.8891337890625,0.6877312660217285,0.5913307070732117,0.24408084154129028
1769657590773121800,10.899121826171875,0.7118557691574097,0.8206677436828613,0.18946872651576996
1769657590783110000,10.90910986328125,0.6353815197944641,0.9377634525299072,0.11860600858926773
1769657590793098000,10.919097900390625,0.592365562915802,0.9758756756782532,-0.014132862910628319
1769657590803085800,10.9290859375,0.5135053992271423,0.9169988036155701,-0.09972712397575378
1769657590813074000,10.939073974609375,0.44346585869789124,0.790501594543457,-0.0961339920759201
1769657590823062800,10.949062744140624,0.38288718461990356,0.6846643686294556,-0.011345865204930305
1769657590833051000,10.95905078125,0.34344178438186646,0.5478905439376831,0.13957813382148743
1769657590843038700,10.969038818359374,0.31621575355529785,0.3679119646549225,0.33169910311698914
1769657590853026800,10.97902685546875,0.27468961477279663,0.23220181465148926,0.494853675365448
1769657590863015000,10.989014892578124,0.21874912083148956,0.16809552907943726,0.5779933333396912
1769657590873002800,10.999002685546875,0.15935716032981873,0.07794513553380966,0.5756793022155762
1769657590882990800,11.008990966796874,0.08398118615150452,0.03387993574142456,0.4904552102088928
1769657590892979000,11.01897900390625,-0.00891013815999031,0.029987992718815804,0.322625994682312
1769657590902967000,11.028967041015624,-0.07923276722431183,0.06807652115821838,0.07710544019937515
1769657590912955100,11.038955078125,-0.11129803210496902,0.10847640782594681,-0.19628696143627167
1769657590922943200,11.048943115234374,-0.1421416997909546,0.18352535367012024,-0.45468175411224365
1769657590932931000,11.05893115234375,-0.17903339862823486,0.19335108995437622,-0.6218864321708679
1769657590942919000,11.0689189453125,-0.20040899515151978,0.15335866808891296,-0.6707719564437866
1769657590952907000,11.078906982421875,-0.207657590508461,0.09091658890247345,-0.6325867772102356
1769657590962894800,11.088894775390624,-0.2294664829969406,0.006096508353948593,-0.5313773155212402
1769657590972883000,11.098883056640625,-0.26037007570266724,-0.05276254564523697,-0.42367830872535706
1769657590982871000,11.10887109375,-0.26270779967308044,-0.10314156860113144,-0.26780587434768677
1769657590992859100,11.118859130859375,-0.2557484209537506,-0.16851817071437836,-0.1116383820772171
1769657591002847000,11.128846923828124,-0.25427010655403137,-0.2324257791042328,0.02823030576109886
1769657591012835000,11.1388349609375,-0.23818273842334747,-0.21297645568847656,0.14410871267318726
1769657591022824000,11.148823974609375,-0.2073316127061844,-0.18141452968120575,0.2293197363615036
1769657591032812000,11.15881201171875,-0.17735400795936584,-0.11782676726579666,0.2861707806587219
1769657591042799900,11.1687998046875,-0.1485213041305542,-0.021400364115834236,0.32115113735198975
1769657591052788000,11.1787880859375,-0.11230736970901489,0.1067299097776413,0.3407386839389801
1769657591062776000,11.188776123046875,-0.0841502994298935,0.23786315321922302,0.34445858001708984
1769657591072764000,11.198763916015626,-0.07374772429466248,0.36668771505355835,0.3078491687774658
1769657591082752000,11.208751953125,-0.06805228441953659,0.47235795855522156,0.24208933115005493
1769657591092740000,11.218739990234376,-0.06979586184024811,0.5886422395706177,0.15832039713859558
1769657591102728200,11.228728271484375,-0.08392179757356644,0.6697972416877747,0.06838065385818481
1769657591112716000,11.238716064453126,-0.10030742734670639,0.670141875743866,-0.010101103223860264
1769657591122704100,11.2487041015625,-0.11244691908359528,0.6148184537887573,-0.062428224831819534
1769657591132692200,11.258692138671876,-0.11035820096731186,0.5419325232505798,-0.08413298428058624
1769657591142679800,11.2686796875,-0.09901313483715057,0.467504620552063,-0.08063092827796936
1769657591152668000,11.27866796875,-0.08341686427593231,0.41255027055740356,-0.06485356390476227
1769657591162656000,11.288656005859375,-0.07754193246364594,0.37272030115127563,-0.034875690937042236
1769657591172644000,11.29864404296875,-0.07408061623573303,0.35079529881477356,-0.0006743124104104936
1769657591182632000,11.3086318359375,-0.05970540642738342,0.34834837913513184,0.042693667113780975
1769657591192620000,11.3186201171875,-0.05216679722070694,0.3884366750717163,0.07936646044254303
1769657591202608000,11.328608154296875,-0.037454962730407715,0.43817707896232605,0.09428176283836365
1769657591212596000,11.338595947265626,-0.02045094594359398,0.458055704832077,0.10247870534658432
1769657591222584000,11.348583984375,-0.0008562062866985798,0.4623546004295349,0.12778912484645844
1769657591232573000,11.358572998046874,0.010114152915775776,0.4596530795097351,0.18537172675132751
1769657591242561000,11.36856103515625,0.01581677980720997,0.44406452775001526,0.26622289419174194
1769657591252548900,11.378548828125,0.026981016620993614,0.4169330596923828,0.3385181427001953
1769657591262537000,11.388536865234375,0.027843881398439407,0.3878931403160095,0.3837162256240845
1769657591272525000,11.398525146484374,0.03285062313079834,0.3659907579421997,0.39416247606277466
1769657591282513200,11.40851318359375,0.0333411805331707,0.3491870164871216,0.3847351670265198
1769657591292501000,11.4185009765625,0.03976738452911377,0.3460466265678406,0.37215518951416016
1769657591302489000,11.428489013671875,0.03875165805220604,0.3717235028743744,0.365554541349411
1769657591312477200,11.438477294921874,0.03801555931568146,0.40463191270828247,0.37134984135627747
1769657591322465000,11.448465087890625,0.03536171838641167,0.42566314339637756,0.3790067136287689
1769657591332453000,11.458453125,0.027398601174354553,0.41525498032569885,0.38362249732017517
1769657591342441000,11.46844091796875,0.018922824412584305,0.37916168570518494,0.3790525197982788
1769657591352428800,11.4784287109375,0.011420699767768383,0.3591752052307129,0.36097070574760437
1769657591362417000,11.4884169921875,0.011444668285548687,0.34113097190856934,0.34178051352500916
1769657591372405000,11.498405029296874,0.01629561558365822,0.32547929883003235,0.3331979215145111
1769657591382393000,11.50839306640625,0.0282747820019722,0.3097898066043854,0.3334687650203705
1769657591392381000,11.518380859375,0.03889387100934982,0.29204118251800537,0.33968061208724976
1769657591402369000,11.528369140625,0.04927194118499756,0.2626441419124603,0.33838099241256714
1769657591412357000,11.538357177734374,0.049251437187194824,0.22098830342292786,0.3210299611091614
1769657591422345000,11.548344970703125,0.03572896867990494,0.18723194301128387,0.2908022701740265
1769657591432333800,11.558333740234374,0.013574930839240551,0.15939019620418549,0.2695116400718689
1769657591442322000,11.568322021484375,-0.011684885248541832,0.1775156706571579,0.25746268033981323
1769657591452310000,11.57831005859375,-0.03665308654308319,0.19935651123523712,0.24299560487270355
1769657591462297900,11.5882978515625,-0.06289348006248474,0.22858577966690063,0.21573522686958313
1769657591472286000,11.598285888671874,-0.08113213628530502,0.22291536629199982,0.1825817972421646
1769657591482274000,11.608274169921875,-0.09043535590171814,0.15121029317378998,0.15197515487670898
1769657591492262100,11.61826220703125,-0.08681505918502808,0.07423268258571625,0.13378949463367462
1769657591502250000,11.62825,-0.10493893176317215,-0.00002157160452043172,0.08456841111183167
1769657591512238000,11.638238037109375,-0.14889973402023315,-0.05896291881799698,-0.009211608208715916
1769657591522226200,11.64822607421875,-0.18332162499427795,-0.13713255524635315,-0.09746743738651276
1769657591532214000,11.658214111328125,-0.23934946954250336,-0.20582853257656097,-0.14255768060684204
1769657591542202000,11.6682021484375,-0.3252353370189667,-0.22237847745418549,-0.16680923104286194
1769657591552190000,11.67818994140625,-0.3907392621040344,-0.16009140014648438,-0.1870090365409851
1769657591562178000,11.688177978515625,-0.40336132049560547,-0.027895547449588776,-0.17556729912757874
1769657591572166000,11.698165771484375,-0.3493175208568573,0.12060524523258209,-0.14998815953731537
1769657591582154000,11.708154052734375,-0.2091023474931717,0.32011541724205017,-0.11679026484489441
1769657591592142000,11.71814208984375,-0.08122134953737259,0.5549615025520325,-0.06804323196411133
1769657591602130000,11.7281298828125,0.06856148689985275,0.8320301175117493,0.003171558491885662
1769657591612118000,11.738117919921875,0.19356600940227509,1.0108997821807861,0.0977470651268959
1769657591622106000,11.748106201171876,0.27080538868904114,1.0951693058013916,0.1834164261817932
1769657591632095000,11.758094970703125,0.3194722831249237,1.0911144018173218,0.25214436650276184
1769657591642082800,11.768082763671876,0.3487228453159332,1.016597867012024,0.30713412165641785
1769657591652071000,11.77807080078125,0.3539583384990692,1.0072696208953857,0.3274300694465637
1769657591662059000,11.78805908203125,0.3525737524032593,1.0216951370239258,0.28236910700798035
1769657591672047000,11.798047119140625,0.338801771402359,0.9785987734794617,0.19601371884346008
1769657591682035000,11.808034912109376,0.3298833668231964,1.0194151401519775,0.12002680450677872
1769657591692023000,11.81802294921875,0.32948869466781616,1.065482258796692,0.08049750328063965
1769657591702011100,11.82801123046875,0.31857559084892273,1.0623464584350586,0.08015449345111847
1769657591711999000,11.8379990234375,0.3103349506855011,1.0349541902542114,0.1168224886059761
1769657591721987000,11.847987060546876,0.3034467101097107,0.9101073145866394,0.17070916295051575
1769657591731975200,11.85797509765625,0.2815059721469879,0.6960789561271667,0.2318076640367508
1769657591741963000,11.867962890625,0.2487802505493164,0.5352416038513184,0.28372305631637573
1769657591751951000,11.877951171875,0.19774582982063293,0.3929811120033264,0.3102332353591919
1769657591761939000,11.88793896484375,0.14767174422740936,0.29680344462394714,0.30167171359062195
1769657591771927000,11.897927001953125,0.11629678308963776,0.2065526396036148,0.2811587154865265
1769657591781915000,11.907914794921876,0.09245509654283524,0.10418206453323364,0.27628031373023987
1769657591791903000,11.917903076171875,0.07331576198339462,0.07889828085899353,0.2764265239238739
1769657591801891000,11.92789111328125,0.0689239427447319,0.12772707641124725,0.2973254323005676
1769657591811879000,11.93787890625,0.08245386183261871,0.18076525628566742,0.32185259461402893
1769657591821867000,11.947866943359376,0.10741540789604187,0.23231074213981628,0.32247206568717957
1769657591831855000,11.957855224609375,0.1388031542301178,0.2821131646633148,0.2992610037326813
1769657591841844000,11.967843994140624,0.16331729292869568,0.3423120677471161,0.2747567296028137
1769657591851831800,11.977831787109375,0.17923793196678162,0.3988285958766937,0.2559678554534912
1769657591861820000,11.98781982421875,0.19087594747543335,0.416098415851593,0.24355673789978027
1769657591871808000,11.99780810546875,0.20319145917892456,0.41109752655029297,0.23918968439102173
1769657591881796000,12.007796142578124,0.2108728289604187,0.3989010453224182,0.2427694946527481
1769657591891784000,12.017783935546875,0.21582762897014618,0.3688296973705292,0.2513717710971832
1769657591901772000,12.02777197265625,0.2197914868593216,0.32995232939720154,0.25317659974098206
1769657591911760100,12.037760009765625,0.23059725761413574,0.26750653982162476,0.2443876415491104
1769657591921748200,12.047748291015624,0.23459492623806,0.21283717453479767,0.22268927097320557
1769657591931736000,12.057736083984375,0.23066197335720062,0.16243231296539307,0.1868676245212555
1769657591941724200,12.06772412109375,0.2247241884469986,0.11892691999673843,0.14577610790729523
1769657591951712300,12.077712158203125,0.23005424439907074,0.0638146623969078,0.09593292325735092
1769657591961700000,12.0877001953125,0.25569409132003784,-0.010014817118644714,0.047090813517570496
1769657591971688000,12.09768798828125,0.29418236017227173,-0.0887538343667984,0.016743559390306473
1769657591981676000,12.107676025390624,0.34260421991348267,-0.09567459672689438,0.010074738413095474
1769657591991664000,12.1176640625,0.3972355127334595,-0.10853180289268494,0.029676668345928192
1769657592001652000,12.12765185546875,0.4443686604499817,-0.09401704370975494,0.07173836976289749
1769657592011640000,12.13764013671875,0.4832651913166046,0.009303753264248371,0.10284675657749176
1769657592021628200,12.147628173828124,0.5140917897224426,0.09516645967960358,0.1520228236913681
1769657592031616300,12.1576162109375,0.534083902835846,0.128867968916893,0.20373208820819855
1769657592041604000,12.16760400390625,0.5548049211502075,0.16652587056159973,0.23575207591056824
1769657592051593000,12.177593017578126,0.5718305110931396,0.22199870645999908,0.24407072365283966
1769657592061581000,12.1875810546875,0.5947318077087402,0.2666114568710327,0.23797021806240082
1769657592071569200,12.197569091796876,0.6075919270515442,0.3313382565975189,0.23108062148094177
1769657592081557000,12.207556884765625,0.5996969938278198,0.43655094504356384,0.21645215153694153
1769657592091545000,12.217545166015626,0.6005100607872009,0.5623645186424255,0.19225892424583435
1769657592101533200,12.227533203125,0.5994865894317627,0.7129953503608704,0.16574475169181824
1769657592111521000,12.23752099609375,0.6081370711326599,0.8374786972999573,0.11479156464338303
1769657592121509000,12.247509033203125,0.5751453042030334,0.9261645674705505,0.060319799929857254
1769657592131497200,12.257497314453126,0.5176056027412415,0.9638403058052063,0.03714257478713989
1769657592141485300,12.2674853515625,0.4269214868545532,0.880176842212677,0.04641143977642059
