time,seconds_elapsed,z,y,x
1769657579946081300,0.072081298828125,-0.007639800664037466,0.007372518535703421,0.01349189504981041
1769657579956069000,0.082069091796875,-0.0004961375379934907,-0.001521906815469265,-0.015969855710864067
1769657579966057000,0.092056884765625,0.006787558551877737,0.005982056260108948,-0.04159165918827057
1769657579976045000,0.102045166015625,0.011251548305153847,-0.014120814390480518,-0.0745469406247139
1769657579986034200,0.1120341796875,0.007602063473314047,-0.01754019223153591,-0.08401598036289215
1769657579996022300,0.122022216796875,0.004244615789502859,0.005684969015419483,-0.07283682376146317
1769657580006010000,0.132010009765625,-0.0002705127699300647,0.029800573363900185,-0.05496743321418762
1769657580015998200,0.141998291015625,-0.007311644498258829,0.03140965476632118,-0.046634137630462646
1769657580025986300,0.151986328125,-0.012695224024355412,0.018745258450508118,-0.03785129636526108
1769657580035974100,0.16197412109375,-0.015888886526226997,0.02213413082063198,-0.033563077449798584
1769657580045962000,0.1719619140625,-0.017216894775629044,0.005662069655954838,-0.0337749645113945
1769657580055950000,0.1819501953125,-0.007785308640450239,-0.01588583178818226,-0.0408102385699749
1769657580065938000,0.19193798828125,0.0002345385728403926,-0.0217441376298666,-0.039246540516614914
1769657580075926000,0.201926025390625,0.004427419044077396,-0.01710224710404873,-0.029814153909683228
1769657580085914000,0.2119140625,0.003997504245489836,-0.00647322740405798,-0.01713322103023529
1769657580095902200,0.221902099609375,0.02749990113079548,0.0061869071796536446,-0.012207438237965107
1769657580105890000,0.23189013671875,0.012274612672626972,0.01809721440076828,-0.007846620865166187
1769657580115878100,0.241878173828125,0.022487834095954895,0.00467940978705883,-0.013864565640687943
1769657580125866200,0.2518662109375,0.030855128541588783,0.001226741704158485,-0.004829321056604385
1769657580135854000,0.26185400390625,0.018939878791570663,0.007239626720547676,0.003178005339577794
1769657580145842200,0.27184228515625,0.00482986168935895,-0.007528546266257763,0.005272634327411652
1769657580155830300,0.281830322265625,0.001231664908118546,-0.024675309658050537,-0.0035022152587771416
1769657580165818000,0.291818115234375,0.0022430946119129658,-0.030133359134197235,-0.012880977243185043
1769657580175806000,0.301805908203125,0.001182091305963695,-0.03407936543226242,-0.02952919900417328
1769657580185794000,0.3117939453125,-0.0006050004158169031,-0.033388663083314896,-0.03738189488649368
1769657580195783200,0.321783203125,-0.007450921926647425,-0.03496285900473595,-0.033839091658592224
1769657580205771300,0.331771240234375,-0.011090480722486973,-0.02973473258316517,-0.02735746279358864
1769657580215759000,0.341759033203125,-0.010586078278720379,-0.015218107029795647,-0.016427315771579742
1769657580225747200,0.351747314453125,-0.015372117981314659,-0.002290010917931795,-0.010265487246215343
1769657580235735300,0.3617353515625,-0.014374764636158943,-0.024405166506767273,-0.022890202701091766
1769657580245723100,0.37172314453125,-0.013909857720136642,-0.041128143668174744,-0.038879264146089554
1769657580255711000,0.3817109375,-0.013013703748583794,-0.03696722164750099,-0.03543340042233467
1769657580265699000,0.391698974609375,-0.012935823760926723,-0.022190166637301445,-0.027658574283123016
1769657580275687200,0.401687255859375,-0.019774556159973145,-0.01770487055182457,-0.011893459595739841
1769657580285675000,0.411675048828125,-0.020646492019295692,-0.012781559489667416,-0.0071623316034674644
1769657580295663000,0.4216630859375,-0.017225129529833794,-0.014034310355782509,-0.012361354194581509
1769657580305651200,0.431651123046875,-0.012862891890108585,-0.017902377992868423,-0.018096404150128365
1769657580315639000,0.44163916015625,-0.007610338740050793,-0.016592901200056076,-0.015676654875278473
1769657580325627100,0.451627197265625,-0.007901815697550774,-0.014459640718996525,-0.004925021436065435
1769657580335615200,0.461615234375,0.0018717185594141483,-0.016522789373993874,-0.00005649658851325512
1769657580345603300,0.471603271484375,-0.0030931918881833553,-0.009504636749625206,-0.0007096340414136648
1769657580355591200,0.481591064453125,0.002663230989128351,-0.016652826219797134,-0.007311610504984856
1769657580365579000,0.4915791015625,0.026879459619522095,-0.003660858143121004,0.002972130663692951
1769657580375567000,0.501567138671875,0.014699493534862995,0.017400750890374184,0.02622205950319767
1769657580385555000,0.511554931640625,-0.0013219288084656,0.030595792457461357,0.03855958580970764
1769657580395544000,0.5215439453125,-0.009573733434081078,0.01547516230493784,0.032985854893922806
1769657580405532200,0.5315322265625,-0.011076478287577629,-0.0031501150224357843,0.011881185695528984
1769657580415520300,0.541520263671875,-0.013274917379021645,-0.018361026421189308,-0.008882682770490646
1769657580425508000,0.551508056640625,-0.011189288459718227,-0.025090139359235764,-0.01673549972474575
1769657580435496200,0.56149609375,-0.012820474803447723,-0.016680942848324776,-0.01654934510588646
1769657580445484300,0.571484375,-0.013668596744537354,-0.0036069450434297323,-0.007724246941506863
1769657580455471900,0.581471923828125,-0.01466541737318039,0.005262712948024273,0.001027166610583663
1769657580465460000,0.5914599609375,-0.013090170919895172,0.002375073032453656,0.0020167543552815914
1769657580475448000,0.601447998046875,-0.014313627034425735,-0.001169328112155199,0.0014492347836494446
1769657580485436200,0.611436279296875,-0.013513895682990551,0.002989657688885927,0.002838625805452466
1769657580495424000,0.621424072265625,-0.014581822790205479,0.006008350756019354,0.005662907846271992
1769657580505412000,0.631412109375,-0.012267821468412876,0.006963916122913361,0.004484687466174364
1769657580515400200,0.641400146484375,-0.01000706385821104,0.004006209317594767,0.002169335028156638
1769657580525388000,0.651387939453125,-0.009566160850226879,-0.005616565700620413,-0.006218547932803631
1769657580535376100,0.661376220703125,-0.006102453451603651,-0.003986444789916277,-0.004231296945363283
1769657580545364200,0.6713642578125,-0.010025938041508198,-0.0017317875754088163,-0.00568031333386898
1769657580555352300,0.681352294921875,-0.0114824203774333,-0.004272443242371082,-0.004900007508695126
1769657580565340200,0.691340087890625,-0.010410899296402931,0.005981209687888622,-0.00022080214694142342
1769657580575328000,0.701327880859375,-0.010479343123733997,0.009449444711208344,0.0012790902983397245
1769657580585316000,0.711316162109375,-0.010399922728538513,0.001882050302810967,0.00047736475244164467
1769657580595304000,0.721303955078125,-0.009742122143507004,-0.006796925328671932,-0.009197899140417576
1769657580605292000,0.7312919921875,-0.010242530144751072,-0.013781331479549408,-0.014333005994558334
1769657580615280000,0.741280029296875,0.0004045212408527732,-0.01216958649456501,-0.016277113929390907
1769657580625269200,0.751269287109375,-0.00958335492759943,0.004873334430158138,-0.006313098594546318
1769657580635257000,0.761257080078125,-0.007912754081189632,0.00671837292611599,-0.0032366153318434954
1769657580645245200,0.7712451171875,-0.010344979353249073,0.006870874669402838,-0.004466821439564228
1769657580655233000,0.78123291015625,-0.0110230203717947,0.000787149416282773,-0.009568639099597931
1769657580665221000,0.79122119140625,-0.011179203167557716,-0.008030937053263187,-0.014408815652132034
1769657580675209000,0.801208984375,-0.009267052635550499,-0.009041340090334415,-0.01571030169725418
1769657580685197000,0.811197021484375,-0.00897790677845478,-0.008115578442811966,-0.01695685274899006
1769657580695185200,0.82118505859375,-0.0070500448346138,-0.005151746794581413,-0.020348655059933662
1769657580705173000,0.831173095703125,-0.006550390738993883,0.0022619834635406733,-0.02487330511212349
1769657580715161000,0.8411611328125,-0.007684364449232817,0.004320074338465929,-0.020619969815015793
1769657580725149200,0.851149169921875,-0.006915333215147257,0.002131599234417081,-0.013784723356366158
1769657580735137300,0.86113720703125,0.0001694743987172842,0.0002836317289620638,-0.016652414575219154
1769657580745125000,0.871125,0.001023256336338818,-0.008366934955120087,-0.01684199832379818
1769657580755113200,0.88111328125,0.0019921143539249897,-0.007326703052967787,-0.009668241254985332
1769657580765101300,0.891101318359375,0.004572256468236446,0.00005313497968018055,-0.0038732760585844517
1769657580775089200,0.901089111328125,-0.001848891144618392,0.0004510113503783941,-0.00537050561979413
1769657580785077000,0.911076904296875,-0.000981696997769177,-0.007248725276440382,-0.02710123360157013
1769657580795065000,0.921065185546875,-0.004780163522809744,-0.015395335853099823,-0.041504938155412674
1769657580805053000,0.931052978515625,-0.004397045820951462,-0.014465373940765858,-0.04841338098049164
1769657580815041000,0.941041015625,-0.004499577451497316,-0.008753959089517593,-0.049647487699985504
1769657580825029000,0.951029052734375,-0.003626700956374407,-0.008828265592455864,-0.051134806126356125
1769657580835017200,0.961017333984375,-0.004447220824658871,-0.00014556199312210083,-0.04706363379955292
1769657580845006300,0.97100634765625,-0.0023130092304199934,0.007409423589706421,-0.03758620098233223
1769657580854994200,0.980994140625,-0.002051752991974354,0.016092926263809204,-0.045512035489082336
1769657580864982000,0.99098193359375,-0.0014651233796030283,-0.017861830070614815,-0.05499010160565376
1769657580874970000,1.00097021484375,-0.0002366071566939354,-0.025994589552283287,-0.05412856861948967
1769657580884958000,1.0109580078125,0.004540899768471718,-0.020481174811720848,-0.04427516087889671
1769657580894946000,1.020946044921875,0.005884464830160141,-0.008139818906784058,-0.03845535218715668
1769657580904933400,1.030933349609375,0.00891430675983429,-0.00031258026137948036,-0.03364702686667442
1769657580914921500,1.04092138671875,0.007078323978930712,-0.010919151827692986,-0.036720581352710724
1769657580924909600,1.05090966796875,0.00728815421462059,-0.026604721322655678,-0.04896603152155876
1769657580934897400,1.0608974609375,0.005957106128334999,-0.025810033082962036,-0.05104489251971245
1769657580944885500,1.070885498046875,0.0005850042216479778,-0.022482065483927727,-0.0433819480240345
1769657580954873600,1.08087353515625,-0.001470157178118825,-0.014172470197081566,-0.03351813182234764
1769657580964861400,1.090861328125,-0.0005337445763871074,-0.013526517897844315,-0.036948055028915405
1769657580974849500,1.100849609375,0.0001682646106928587,-0.015514034777879715,-0.04593063145875931
1769657580984837600,1.110837646484375,0.0016035889275372028,-0.016761552542448044,-0.06207060441374779
1769657580994825700,1.12082568359375,0.00025549670681357384,-0.019579175859689713,-0.06724698841571808
1769657581004813300,1.130813232421875,-0.0071436017751693726,-0.02823568321764469,-0.06385935842990875
1769657581014801400,1.140801513671875,-0.008209398947656155,-0.02436903864145279,-0.06307079643011093
1769657581024789500,1.15078955078125,-0.007644196040928364,-0.02433689311146736,-0.061641499400138855
1769657581034777300,1.16077734375,-0.006806632038205862,-0.027200324460864067,-0.06332168728113174
1769657581044765400,1.170765380859375,-0.00788160227239132,-0.03145268186926842,-0.06695465743541718
1769657581054753500,1.18075341796875,-0.004152643959969282,-0.03491399437189102,-0.06628087162971497
1769657581064742700,1.19074267578125,-0.003242222126573324,-0.028820006176829338,-0.06104626879096031
1769657581074730500,1.20073046875,-0.006128023378551006,-0.025509698316454887,-0.05255504325032234
1769657581084718600,1.210718505859375,-0.005670410580933094,-0.0352148674428463,-0.0554957315325737
1769657581094706400,1.22070654296875,-0.008199614472687244,-0.04787526652216911,-0.06937160342931747
1769657581104694500,1.230694580078125,-0.005390590522438288,-0.05591222643852234,-0.08013484627008438
1769657581114682400,1.240682373046875,-0.0032328972592949867,-0.05647175759077072,-0.08763910084962845
1769657581124670500,1.25067041015625,-0.003044088836759329,-0.057066623121500015,-0.09371443092823029
1769657581134658600,1.260658447265625,-0.00006667489651590586,-0.053028203547000885,-0.09242439270019531
1769657581144646400,1.270646484375,-0.0036993715912103653,-0.05481914430856705,-0.08445199579000473
1769657581154634500,1.280634521484375,-0.00269003352150321,-0.06433781236410141,-0.08892850577831268
1769657581164622600,1.29062255859375,-0.010259613394737244,-0.05770581215620041,-0.09250787645578384
1769657581174610400,1.3006103515625,-0.009306201711297035,-0.03949591889977455,-0.08875441551208496
1769657581184598500,1.3105986328125,-0.009156416170299053,-0.03057595156133175,-0.08203580975532532
1769657581194586600,1.320586669921875,-0.008522316813468933,-0.031697411090135574,-0.08626144379377365
1769657581204574500,1.330574462890625,-0.00828704796731472,-0.036872606724500656,-0.09876195341348648
1769657581214562300,1.340562255859375,-0.007314461749047041,-0.03215055540204048,-0.12555629014968872
1769657581224550400,1.35055029296875,-0.005706967320293188,-0.005013239569962025,-0.16462375223636627
1769657581234538500,1.36053857421875,0.0016236499650403857,0.03714433312416077,-0.2109542340040207
1769657581244526300,1.3705263671875,0.003941770177334547,0.08739925175905228,-0.24777063727378845
1769657581254514400,1.380514404296875,0.007580979727208614,0.1320415437221527,-0.2943543791770935
1769657581264502500,1.39050244140625,0.013431865721940994,0.17142179608345032,-0.35091936588287354
1769657581274490600,1.40049072265625,-0.0031348606571555138,0.19085514545440674,-0.42430275678634644
1769657581284478500,1.410478515625,-0.016543947160243988,0.21303145587444305,-0.5070514678955078
1769657581294467300,1.42046728515625,-0.027916710823774338,0.25765350461006165,-0.584739625453949
1769657581304455400,1.430455322265625,-0.046778347343206406,0.32205265760421753,-0.6478352546691895
1769657581314443500,1.440443603515625,-0.07464699447154999,0.3852611780166626,-0.7034963965415955
1769657581324431400,1.450431396484375,-0.13292750716209412,0.4101208448410034,-0.7004349827766418
1769657581334419500,1.46041943359375,-0.15863579511642456,0.3587567210197449,-0.5379398465156555
1769657581344407600,1.470407470703125,-0.0961785539984703,0.2882186472415924,-0.4393101930618286
1769657581354395400,1.4803955078125,-0.0544620007276535,0.22581973671913147,-0.3986645042896271
1769657581364383500,1.490383544921875,-0.05892416834831238,0.192433699965477,-0.39489611983299255
1769657581374371600,1.50037158203125,-0.06566543132066727,0.1718762218952179,-0.4111451208591461
1769657581384359700,1.510359619140625,-0.06615541130304337,0.14069631695747375,-0.4306038022041321
1769657581394347500,1.520347412109375,-0.06571731716394424,0.09086724370718002,-0.45259803533554077
1769657581404335600,1.530335693359375,-0.05203894153237343,0.05159224942326546,-0.4953170418739319
1769657581414323500,1.540323486328125,-0.03822192922234535,0.05039728805422783,-0.5496934056282043
1769657581424311300,1.550311279296875,-0.016395235434174538,0.10413016378879547,-0.6006444692611694
1769657581434299400,1.56029931640625,0.016840746626257896,0.20063912868499756,-0.6065787672996521
1769657581444287500,1.57028759765625,0.03637264296412468,0.2925618290901184,-0.5714782476425171
1769657581454275300,1.580275390625,0.03734442964196205,0.34045717120170593,-0.5094223618507385
1769657581464263400,1.590263427734375,0.02404308132827282,0.33776745200157166,-0.45744672417640686
1769657581474251500,1.60025146484375,0.013676195405423641,0.276064395904541,-0.41120171546936035
1769657581484239600,1.610239501953125,0.007119223941117525,0.1532459706068039,-0.349355012178421
1769657581494227500,1.6202275390625,0.008584228344261646,0.0484287366271019,-0.2790640890598297
1769657581504215600,1.630215576171875,0.009770359843969345,-0.0051096053794026375,-0.23979663848876953
1769657581514203600,1.64020361328125,0.026124564930796623,-0.04226762801408768,-0.18044808506965637
1769657581524192500,1.650192626953125,0.04304184392094612,-0.12841138243675232,-0.08912831544876099
1769657581534180400,1.660180419921875,0.060063436627388,-0.24841982126235962,0.012658762745559216
1769657581544168400,1.67016845703125,0.07512448728084564,-0.3507915139198303,0.1229197308421135
1769657581554156500,1.680156494140625,0.10173080116510391,-0.46629202365875244,0.21017740666866302
1769657581564144400,1.690144287109375,0.08244723081588745,-0.6687281131744385,0.18802133202552795
1769657581574132500,1.700132568359375,0.03934236988425255,-0.787630558013916,0.10334320366382599
1769657581584120600,1.71012060546875,0.040272343903779984,-0.7833544015884399,0.03300895914435387
1769657581594108700,1.720108642578125,0.031498558819293976,-0.7063648104667664,-0.024041280150413513
1769657581604096500,1.730096435546875,0.029118267819285393,-0.5022635459899902,-0.051489878445863724
1769657581614084600,1.740084716796875,0.018224075436592102,-0.2653714418411255,-0.09841770678758621
1769657581624072400,1.750072509765625,0.0006136152660474181,-0.10422356426715851,-0.18802648782730103
1769657581634060300,1.760060302734375,-0.012563705444335938,-0.0037305084988474846,-0.2893834710121155
1769657581644048400,1.77004833984375,-0.030736716464161873,0.05268116667866707,-0.3471834361553192
1769657581654036500,1.780036376953125,-0.032982826232910156,0.05887727811932564,-0.3570176959037781
1769657581664024600,1.790024658203125,-0.0367976650595665,0.03342641517519951,-0.3274857997894287
1769657581674012400,1.800012451171875,-0.050254084169864655,-0.02572319097816944,-0.2768724262714386
1769657581684000500,1.81000048828125,-0.05872201547026634,-0.123109832406044,-0.22938811779022217
1769657581693988600,1.819988525390625,-0.07370761781930923,-0.244450643658638,-0.19322611391544342
1769657581703976400,1.8299765625,-0.07579190284013748,-0.31117111444473267,-0.1722344607114792
1769657581713964500,1.839964599609375,-0.06794437021017075,-0.29149487614631653,-0.14811207354068756
1769657581723952600,1.84995263671875,-0.05499032884836197,-0.2594982087612152,-0.11685087531805038
1769657581733940500,1.8599404296875,-0.04815080016851425,-0.2190903276205063,-0.08553902804851532
1769657581743928300,1.86992822265625,-0.045793067663908005,-0.2015119343996048,-0.059325940907001495
1769657581753917400,1.87991748046875,-0.045439667999744415,-0.18569861352443695,-0.0523868091404438
1769657581763905500,1.889905517578125,-0.03222847729921341,-0.16620813310146332,-0.06404616683721542
1769657581773893600,1.8998935546875,-0.02189195342361927,-0.13850140571594238,-0.08084139227867126
1769657581783881500,1.909881591796875,-0.01894608698785305,-0.09178976714611053,-0.10398697108030319
1769657581793869600,1.91986962890625,-0.020828941836953163,-0.046536266803741455,-0.13017569482326508
1769657581803857700,1.929857666015625,-0.02124727889895439,-0.02974596619606018,-0.1578584909439087
1769657581813845500,1.939845458984375,-0.012714777141809464,-0.029907088726758957,-0.174684077501297
1769657581823833300,1.949833251953125,-0.0011750764679163694,-0.027610398828983307,-0.18030475080013275
1769657581833821400,1.959821533203125,0.011848846450448036,-0.027830908074975014,-0.16639240086078644
1769657581843809500,1.9698095703125,0.0207996629178524,-0.03507986664772034,-0.15035806596279144
1769657581853797400,1.97979736328125,0.02662079967558384,-0.05087960511445999,-0.1434042900800705
1769657581863785500,1.989785400390625,0.008209442719817162,-0.07906042784452438,-0.14345136284828186
1769657581873773600,1.999773681640625,-0.0003017538692802191,-0.104932501912117,-0.1545165330171585
1769657581883761400,2.009761474609375,0.0023151165805757046,-0.1274721771478653,-0.16773395240306854
1769657581893749500,2.01974951171875,0.004043241962790489,-0.14070169627666473,-0.17633943259716034
1769657581903737300,2.0297373046875,0.004937941208481789,-0.13331803679466248,-0.17274126410484314
1769657581913725400,2.039725341796875,0.00825916975736618,-0.11481625586748123,-0.16307824850082397
1769657581923713500,2.049713623046875,0.006199936382472515,-0.09992685914039612,-0.16670796275138855
1769657581933701600,2.05970166015625,-0.007020261604338884,-0.0854448527097702,-0.18521426618099213
1769657581943689500,2.069689453125,-0.013562273234128952,-0.0772768035531044,-0.19881373643875122
1769657581953677300,2.07967724609375,-0.010816819965839386,-0.08585724234580994,-0.2086663544178009
1769657581963665400,2.08966552734375,0.0014946656301617622,-0.11781706660985947,-0.20422987639904022
1769657581973653200,2.0996533203125,0.005543469451367855,-0.1261197328567505,-0.1966334730386734
1769657581983642400,2.109642333984375,0.015282846987247467,-0.12411793321371078,-0.1794276237487793
1769657581993630500,2.11963037109375,0.027714747935533524,-0.12022892385721207,-0.15812180936336517
1769657582003618600,2.12961865234375,0.032828059047460556,-0.12531593441963196,-0.13443228602409363
1769657582013606400,2.1396064453125,0.030551055446267128,-0.1201709657907486,-0.1225106418132782
1769657582023594500,2.149594482421875,0.018178610131144524,-0.11813753843307495,-0.12218835949897766
1769657582033582300,2.159582275390625,0.005970412865281105,-0.11435611546039581,-0.13418322801589966
1769657582043570400,2.1695703125,0.006510806269943714,-0.10397041589021683,-0.14694280922412872
1769657582053558300,2.179558349609375,0.009729502722620964,-0.08866789191961288,-0.15529607236385345
1769657582063546400,2.18954638671875,0.012565313838422298,-0.07172532379627228,-0.1539769172668457
1769657582073534500,2.199534423828125,0.016442343592643738,-0.05802975222468376,-0.1489315629005432
1769657582083522300,2.209522216796875,0.021010546013712883,-0.03666435182094574,-0.13659928739070892
1769657582093510400,2.219510498046875,0.021404162049293518,-0.01687466725707054,-0.13537690043449402
1769657582103498500,2.22949853515625,0.01163562573492527,-0.023502837866544724,-0.14418108761310577
1769657582113486300,2.239486328125,-0.006770012434571981,-0.03612755611538887,-0.1692211925983429
1769657582123474400,2.249474365234375,-0.018753008916974068,-0.02830970473587513,-0.1963903158903122
1769657582133462500,2.259462646484375,-0.03524703159928322,-0.01303088292479515,-0.21579089760780334
1769657582143450600,2.26945068359375,-0.043682705610990524,0.00432945042848587,-0.2157021462917328
1769657582153438200,2.279438232421875,-0.05291828140616417,0.01575840637087822,-0.21335643529891968
1769657582163426300,2.28942626953125,-0.0628262311220169,0.031922418624162674,-0.21204251050949097
1769657582173414400,2.299414306640625,-0.06630831211805344,0.05765095353126526,-0.21977606415748596
1769657582183402200,2.30940234375,-0.07191742211580276,0.08906694501638412,-0.23692595958709717
1769657582193390300,2.319390380859375,-0.08653950691223145,0.11019167304039001,-0.2649839520454407
1769657582203378400,2.32937841796875,-0.09884662181138992,0.12861496210098267,-0.31002578139305115
1769657582213366500,2.339366455078125,-0.10928142070770264,0.14246606826782227,-0.3582899570465088
1769657582223355400,2.34935546875,-0.10835091024637222,0.17743396759033203,-0.4214266538619995
1769657582233343500,2.359343505859375,-0.06015275418758392,0.2210986316204071,-0.502463698387146
1769657582243331300,2.369331298828125,-0.024334995076060295,0.2518308758735657,-0.5548352599143982
1769657582253319400,2.3793193359375,-0.03926680609583855,0.28287243843078613,-0.5837752819061279
1769657582263307300,2.389307373046875,-0.06016196683049202,0.33092790842056274,-0.6186002492904663
1769657582273295400,2.39929541015625,-0.06918022781610489,0.4279564619064331,-0.6286014914512634
1769657582283283500,2.409283447265625,-0.058039870113134384,0.512722373008728,-0.6459335684776306
1769657582293271300,2.419271240234375,-0.07278791815042496,0.5457610487937927,-0.6629034876823425
1769657582303259400,2.42925927734375,-0.0542123056948185,0.6039687991142273,-0.7118715047836304
1769657582313247500,2.43924755859375,-0.008064253255724907,0.6536386013031006,-0.7481922507286072
1769657582323235600,2.449235595703125,0.023680660873651505,0.6903897523880005,-0.7185773253440857
1769657582333223400,2.459223388671875,0.030167320743203163,0.7045719027519226,-0.6538217663764954
1769657582343211500,2.46921142578125,0.02282753400504589,0.6839905977249146,-0.6067236661911011
1769657582353199400,2.479199462890625,0.0016751106595620513,0.6482446193695068,-0.5816515684127808
1769657582363187200,2.489187255859375,-0.01021525077521801,0.6104558706283569,-0.5502169728279114
1769657582373175300,2.49917529296875,-0.008198970928788185,0.546941876411438,-0.5121191143989563
1769657582383163400,2.509163330078125,-0.0058596208691596985,0.4955782890319824,-0.48982784152030945
1769657582393151500,2.5191513671875,0.008187755011022091,0.5148337483406067,-0.4744904339313507
1769657582403139300,2.529139404296875,0.01577773131430149,0.545240581035614,-0.47233909368515015
1769657582413127400,2.53912744140625,-0.0043946485966444016,0.5577989816665649,-0.47679054737091064
1769657582423115500,2.549115478515625,-0.0225287564098835,0.6364805698394775,-0.5335332751274109
1769657582433103400,2.559103271484375,-0.03715883195400238,0.6637566685676575,-0.5300951600074768
1769657582443091500,2.569091552734375,-0.022679943591356277,0.6428619623184204,-0.5101694464683533
1769657582453079600,2.57907958984375,0.004279237240552902,0.596799910068512,-0.49420884251594543
1769657582463068400,2.589068359375,0.008674900978803635,0.5263246297836304,-0.47925490140914917
1769657582473056300,2.59905615234375,0.0012745094718411565,0.44547802209854126,-0.46751275658607483
1769657582483044400,2.60904443359375,-0.016770511865615845,0.363546222448349,-0.44294941425323486
1769657582493032400,2.619032470703125,-0.031934551894664764,0.30927979946136475,-0.40000221133232117
1769657582503020300,2.629020263671875,-0.03408212587237358,0.26910680532455444,-0.34805166721343994
1769657582513008400,2.63900830078125,-0.03821321949362755,0.23349741101264954,-0.291372686624527
1769657582522996500,2.64899658203125,-0.0358603410422802,0.21775193512439728,-0.23612137138843536
1769657582532984600,2.658984619140625,-0.016305815428495407,0.20370961725711823,-0.19830314815044403
1769657582542972400,2.668972412109375,0.015300839208066463,0.17185622453689575,-0.19250959157943726
1769657582552960500,2.67896044921875,0.03847832977771759,0.12302903085947037,-0.19545398652553558
1769657582562948400,2.6889482421875,0.043355222791433334,0.10173824429512024,-0.20162522792816162
1769657582572936200,2.698936279296875,0.032698050141334534,0.08249930292367935,-0.21499855816364288
1769657582582924300,2.70892431640625,0.02440580166876316,0.08008253574371338,-0.24083785712718964
1769657582592912400,2.718912353515625,0.022874219343066216,0.036010950803756714,-0.27986276149749756
1769657582602900500,2.728900390625,0.014268441125750542,-0.015516594983637333,-0.3191882371902466
1769657582612888300,2.738888427734375,0.003016052767634392,-0.04212982952594757,-0.34669923782348633
1769657582622876400,2.74887646484375,-0.009510545060038567,-0.06971419602632523,-0.36719241738319397
1769657582632864500,2.758864501953125,-0.01928487792611122,-0.09893466532230377,-0.38465848565101624
1769657582642852400,2.768852294921875,-0.03847698122262955,-0.11487282067537308,-0.40092334151268005
1769657582652840400,2.77884033203125,-0.04835491254925728,-0.13761994242668152,-0.4137997031211853
1769657582662828500,2.78882861328125,-0.05565452203154564,-0.16161690652370453,-0.4241359829902649
1769657582672816600,2.798816650390625,-0.06100774183869362,-0.18455632030963898,-0.42989665269851685
1769657582682804200,2.80880419921875,-0.06800082325935364,-0.1997273862361908,-0.43203434348106384
1769657582692793300,2.81879345703125,-0.06719974428415298,-0.20603641867637634,-0.4366280138492584
1769657582702781400,2.828781494140625,-0.06376978754997253,-0.19086991250514984,-0.43344759941101074
1769657582712769500,2.83876953125,-0.05771349370479584,-0.15961319208145142,-0.42598673701286316
1769657582722757400,2.84875732421875,-0.058190274983644485,-0.1815975308418274,-0.422168493270874
1769657582732745500,2.858745361328125,-0.05490659922361374,-0.2135152518749237,-0.4191149175167084
1769657582742733600,2.868733642578125,-0.05048217251896858,-0.21184468269348145,-0.4071615934371948
1769657582752721400,2.878721435546875,-0.04687066003680229,-0.19656799733638763,-0.3894433081150055
1769657582762709500,2.88870947265625,-0.04947660118341446,-0.19231948256492615,-0.39768585562705994
1769657582772697300,2.898697265625,-0.051135484129190445,-0.20639774203300476,-0.39576971530914307
1769657582782685400,2.908685546875,-0.050574854016304016,-0.22610309720039368,-0.3942185044288635
1769657582792673300,2.91867333984375,-0.046542029827833176,-0.24410207569599152,-0.38737258315086365
1769657582802661400,2.928661376953125,-0.044830337166786194,-0.24138717353343964,-0.3735714852809906
1769657582812649500,2.9386494140625,-0.046280693262815475,-0.23587416112422943,-0.35200175642967224
1769657582822637300,2.94863720703125,-0.04942721128463745,-0.23527126014232635,-0.3313097357749939
1769657582832625400,2.95862548828125,-0.05494421720504761,-0.25041159987449646,-0.31037038564682007
1769657582842613500,2.968613525390625,-0.0630737841129303,-0.2725861370563507,-0.29538556933403015
1769657582852601300,2.978601318359375,-0.0698469951748848,-0.295272558927536,-0.2815546989440918
1769657582862589400,2.98858935546875,-0.07593848556280136,-0.3164603114128113,-0.27071768045425415
1769657582872577500,2.99857763671875,-0.08006744831800461,-0.32496243715286255,-0.2576921582221985
1769657582882565400,3.0085654296875,-0.0804830938577652,-0.3256470561027527,-0.23842783272266388
1769657582892553200,3.01855322265625,-0.08001544326543808,-0.318042129278183,-0.21237759292125702
1769657582902540800,3.028540771484375,-0.08206832408905029,-0.2992183566093445,-0.19169653952121735
1769657582912528600,3.038528564453125,-0.08134501427412033,-0.28394246101379395,-0.1777237355709076
1769657582922517800,3.048517822265625,-0.08204276114702225,-0.2757585346698761,-0.17765267193317413
1769657582932505900,3.058505859375,-0.08586093783378601,-0.27407675981521606,-0.18015950918197632
1769657582942493700,3.06849365234375,-0.08389244228601456,-0.2748141586780548,-0.18268629908561707
1769657582952481800,3.078481689453125,-0.08061622083187103,-0.26825398206710815,-0.1819925457239151
1769657582962470000,3.088469970703125,-0.07550161331892014,-0.2543439269065857,-0.17619943618774414
1769657582972458000,3.0984580078125,-0.07185228168964386,-0.23233239352703094,-0.16687864065170288
1769657582982445800,3.10844580078125,-0.06791240721940994,-0.2125149667263031,-0.16299580037593842
1769657582992433700,3.11843359375,-0.06529132276773453,-0.19600683450698853,-0.1561940759420395
1769657583002421800,3.128421875,-0.06258901953697205,-0.1797732263803482,-0.1545744091272354
1769657583012409600,3.13840966796875,-0.058854736387729645,-0.16745024919509888,-0.1586620956659317
1769657583022397700,3.148397705078125,-0.055686015635728836,-0.14965422451496124,-0.15829253196716309
1769657583032385800,3.1583857421875,-0.05166197940707207,-0.11910855770111084,-0.15493455529212952
1769657583042374000,3.168373779296875,-0.051308587193489075,-0.10969652980566025,-0.15071438252925873
1769657583052361700,3.17836181640625,-0.04810107499361038,-0.1069987490773201,-0.14479070901870728
1769657583062349800,3.188349853515625,-0.046540919691324234,-0.09695855528116226,-0.13748691976070404
1769657583072338000,3.198337890625,-0.045095089823007584,-0.09248790889978409,-0.12873896956443787
1769657583082325800,3.20832568359375,-0.04040028527379036,-0.09452643990516663,-0.12046854943037033
1769657583092313900,3.21831396484375,-0.037183187901973724,-0.09891612827777863,-0.10608295351266861
1769657583102302000,3.228302001953125,-0.03229270130395889,-0.0964481309056282,-0.08667123317718506
1769657583112289800,3.238289794921875,-0.027800748124718666,-0.08913509547710419,-0.06906187534332275
1769657583122277600,3.248277587890625,-0.022290753200650215,-0.07988475263118744,-0.05702468752861023
1769657583132265700,3.258265625,-0.019816676154732704,-0.07081402093172073,-0.05035613104701042
1769657583142253800,3.26825390625,-0.019523652270436287,-0.06098155677318573,-0.04531068727374077
1769657583152242700,3.27824267578125,-0.02039210870862007,-0.05227328836917877,-0.04188000410795212
1769657583162230800,3.288230712890625,-0.021163586527109146,-0.04891689494252205,-0.04152173548936844
1769657583172219000,3.298218994140625,-0.018343031406402588,-0.045703522861003876,-0.03381028771400452
1769657583182207000,3.30820703125,-0.018955405801534653,-0.04580191895365715,-0.02606058679521084
1769657583192194800,3.31819482421875,-0.01677507534623146,-0.0472344346344471,-0.017859382554888725
1769657583202182700,3.3281826171875,-0.015318174846470356,-0.04584237188100815,-0.012750099413096905
1769657583212170800,3.338170654296875,-0.01383799035102129,-0.040523238480091095,-0.014651861973106861
1769657583222158600,3.34815869140625,-0.011343141086399555,-0.032228291034698486,-0.01774059608578682
1769657583232146700,3.358146728515625,-0.01007813960313797,-0.02173197828233242,-0.022578760981559753
1769657583242134800,3.368134765625,-0.005180577281862497,-0.013697249814867973,-0.02352919615805149
1769657583252123000,3.378122802734375,-0.0013264507288113236,-0.008702492341399193,-0.024151310324668884
1769657583262110700,3.38811083984375,0.0021454733796417713,-0.0022974929306656122,-0.02486441284418106
1769657583272098800,3.398098876953125,0.007655021268874407,0.006023820489645004,-0.023040413856506348
1769657583282087000,3.4080869140625,0.007358413655310869,0.014735122211277485,-0.02195034548640251
1769657583292074800,3.41807470703125,0.0080106221139431,0.021136028692126274,-0.022390034049749374
1769657583302062800,3.428062744140625,0.006273399107158184,0.023714911192655563,-0.026543205603957176
1769657583312051000,3.438051025390625,0.00736396387219429,0.02585236355662346,-0.032560884952545166
1769657583322038800,3.448038818359375,0.007705504074692726,0.03548373281955719,-0.036533042788505554
1769657583332026600,3.458026611328125,0.012620900757610798,0.045509468764066696,-0.03656740114092827
1769657583342014700,3.4680146484375,0.013860298320651054,0.061500515788793564,-0.026141563430428505
1769657583352002800,3.4780029296875,0.012966006994247437,0.060299165546894073,-0.019825344905257225
1769657583361990700,3.48799072265625,0.013376433402299881,0.04331612586975098,-0.012310047633945942
1769657583371978800,3.497978759765625,0.011538585647940636,0.03020564652979374,-0.013263192027807236
1769657583381968000,3.5079677734375,0.005861909594386816,0.0298954788595438,-0.013754128478467464
1769657583391956000,3.5179560546875,0.000231986865401268,0.029910391196608543,-0.024542858824133873
1769657583401943800,3.52794384765625,-0.004923209547996521,0.02328260987997055,-0.03907226026058197
1769657583411931600,3.537931640625,-0.003313062246888876,0.015501650050282478,-0.04458819702267647
1769657583421919700,3.547919677734375,-0.0025220648385584354,0.017590003088116646,-0.03893972560763359
1769657583431907800,3.557907958984375,-0.003179066814482212,0.021378083154559135,-0.029814667999744415
1769657583441895700,3.567895751953125,0.00010616786312311888,0.02943732589483261,-0.022781064733862877
1769657583451883800,3.5778837890625,-0.0025636511854827404,0.03437323123216629,-0.02840086631476879
1769657583461871900,3.587871826171875,-0.006895048543810844,0.0358595997095108,-0.04114741086959839
1769657583471859700,3.597859619140625,-0.012969719246029854,0.041539859026670456,-0.054977208375930786
1769657583481847800,3.607847900390625,-0.016784612089395523,0.044540900737047195,-0.06532973796129227
1769657583491836000,3.6178359375,-0.021007854491472244,0.04049236327409744,-0.07230748981237411
1769657583501823700,3.62782373046875,-0.02593730017542839,0.040087394416332245,-0.07685426622629166
1769657583511811800,3.637811767578125,-0.028803925961256027,0.04168715327978134,-0.07743670046329498
1769657583521799700,3.647799560546875,-0.03237636759877205,0.05063823610544205,-0.07501330971717834
1769657583531787800,3.657787841796875,-0.031387269496917725,0.07220131903886795,-0.07699044048786163
1769657583541775600,3.667775634765625,-0.03783930838108063,0.07569991052150726,-0.07993882149457932
1769657583551763700,3.677763671875,-0.03263735771179199,0.07436753064393997,-0.07995187491178513
1769657583561751800,3.687751708984375,-0.03072749450802803,0.07917124778032303,-0.0758495032787323
1769657583571739600,3.69773974609375,-0.03230142220854759,0.08843691647052765,-0.06522508710622787
1769657583581727700,3.707727783203125,-0.03350041061639786,0.09998668730258942,-0.06240022927522659
1769657583591715800,3.7177158203125,-0.03892899677157402,0.10966674238443375,-0.06627485901117325
1769657583601704000,3.727703857421875,-0.046422675251960754,0.11626891046762466,-0.07281672954559326
1769657583611692500,3.737692626953125,-0.054065149277448654,0.1308198869228363,-0.08136814087629318
1769657583621680600,3.7476806640625,-0.05966181680560112,0.13766762614250183,-0.08587954938411713
1769657583631668700,3.757668701171875,-0.06253404170274734,0.14913013577461243,-0.08100676536560059
1769657583641656800,3.76765673828125,-0.06613889336585999,0.1652052402496338,-0.07976572960615158
1769657583651644700,3.777644775390625,-0.0703597366809845,0.18027500808238983,-0.08102913945913315
1769657583661632800,3.7876328125,-0.07754236459732056,0.1852649301290512,-0.0826607272028923
1769657583671620900,3.797620849609375,-0.08709485828876495,0.19566351175308228,-0.08977296203374863
1769657583681608700,3.807608642578125,-0.09601187705993652,0.21079228818416595,-0.0919259563088417
1769657583691596800,3.8175966796875,-0.10221970826387405,0.23110368847846985,-0.08829527348279953
1769657583701585000,3.8275849609375,-0.10551277548074722,0.2572675347328186,-0.08000648021697998
1769657583711573000,3.837572998046875,-0.1065404936671257,0.27445265650749207,-0.0750545933842659
1769657583721560800,3.847560791015625,-0.10856704413890839,0.28475892543792725,-0.06773239374160767
1769657583731548700,3.857548583984375,-0.11255193501710892,0.2841157913208008,-0.06239568814635277
1769657583741536800,3.867536865234375,-0.12227582186460495,0.28182294964790344,-0.05670441687107086
1769657583751524600,3.877524658203125,-0.13151618838310242,0.28275346755981445,-0.04850534349679947
1769657583761512700,3.8875126953125,-0.13800135254859924,0.2907716929912567,-0.04230384901165962
1769657583771500800,3.897500732421875,-0.14528004825115204,0.3041926920413971,-0.03452635183930397
1769657583781489000,3.907489013671875,-0.15327101945877075,0.3142246901988983,-0.03247961029410362
1769657583791476700,3.917476806640625,-0.16328583657741547,0.3274286389350891,-0.03927679732441902
1769657583801464800,3.92746484375,-0.17286865413188934,0.3360160291194916,-0.04109012708067894
1769657583811453000,3.937452880859375,-0.18082937598228455,0.34736162424087524,-0.0503547340631485
1769657583821440800,3.947440673828125,-0.1891174465417862,0.3516710102558136,-0.05987145006656647
1769657583831428900,3.957428955078125,-0.1934349536895752,0.3570796251296997,-0.06658261269330978
1769657583841417700,3.967417724609375,-0.19575706124305725,0.36322513222694397,-0.07087583094835281
1769657583851405800,3.97740576171875,-0.19599515199661255,0.3678872585296631,-0.07483275979757309
1769657583861393700,3.9873935546875,-0.19397757947444916,0.3751160800457001,-0.08420044928789139
1769657583871381800,3.9973818359375,-0.1933426856994629,0.38421717286109924,-0.09020215272903442
1769657583881369900,4.007369873046875,-0.19652153551578522,0.3791172504425049,-0.09122639149427414
1769657583891357700,4.017357666015625,-0.19866618514060974,0.37135013937950134,-0.08496902883052826
1769657583901345800,4.027345703125,-0.20173320174217224,0.36994439363479614,-0.07978533208370209
1769657583911335400,4.03733544921875,-0.20725366473197937,0.3727058470249176,-0.07111088186502457
1769657583921323300,4.0473232421875,-0.21236500144004822,0.36929410696029663,-0.0606386736035347
1769657583931311400,4.057311279296875,-0.21786309778690338,0.3607957065105438,-0.051852110773324966
1769657583941299500,4.067299560546875,-0.22098451852798462,0.3533938527107239,-0.04223917797207832
1769657583951287300,4.077287353515625,-0.2309415489435196,0.3482792377471924,-0.03136469051241875
1769657583961275400,4.087275390625,-0.2402580976486206,0.3484991490840912,-0.024609548971056938
1769657583971263500,4.097263427734375,-0.25279679894447327,0.3532046973705292,-0.018192928284406662
1769657583981251600,4.10725146484375,-0.2621845304965973,0.3549024164676666,-0.02074303850531578
1769657583991239400,4.117239501953125,-0.272066205739975,0.34875956177711487,-0.031363192945718765
1769657584001227300,4.127227294921875,-0.28073981404304504,0.32704073190689087,-0.051815763115882874
1769657584011215400,4.13721533203125,-0.28247326612472534,0.3155566453933716,-0.07224300503730774
1769657584021203200,4.147203125,-0.28663158416748047,0.3181978464126587,-0.08484693616628647
1769657584031191300,4.15719140625,-0.28017181158065796,0.32654818892478943,-0.0972929522395134
1769657584041179400,4.167179443359375,-0.2681363821029663,0.3401375710964203,-0.1097945049405098
1769657584051167200,4.177167236328125,-0.2585367262363434,0.3544839918613434,-0.12574124336242676
1769657584061156400,4.18715625,-0.24043190479278564,0.3715791404247284,-0.1399015188217163
1769657584071144400,4.19714453125,-0.2176232635974884,0.37559518218040466,-0.1533970832824707
1769657584081132300,4.20713232421875,-0.19905292987823486,0.36046192049980164,-0.16295619308948517
1769657584091120000,4.2171201171875,-0.17207324504852295,0.3200777471065521,-0.16068051755428314
1769657584101108200,4.227108154296875,-0.14296922087669373,0.2724299728870392,-0.15057866275310516
1769657584111096300,4.237096435546875,-0.10638085752725601,0.22844626009464264,-0.14163203537464142
1769657584121084400,4.24708447265625,-0.04989592358469963,0.208543598651886,-0.12601421773433685
1769657584131072300,4.257072265625,0.014123541302978992,0.2432704120874405,-0.08650436252355576
1769657584141060400,4.267060302734375,0.0022231554612517357,0.26747944951057434,-0.08765985816717148
1769657584151048400,4.27704833984375,0.014659052714705467,0.25787025690078735,-0.11438654363155365
1769657584161036300,4.287036376953125,0.03293982520699501,0.22468119859695435,-0.13810276985168457
1769657584171024400,4.2970244140625,0.027410835027694702,0.19456696510314941,-0.1425608992576599
1769657584181012500,4.307012451171875,0.025604188442230225,0.21052171289920807,-0.1467771679162979
1769657584191000600,4.31700048828125,0.017186470329761505,0.23906546831130981,-0.17806078493595123
1769657584200988400,4.326988525390625,0.018227797001600266,0.2569860816001892,-0.21759741008281708
1769657584210976300,4.336976318359375,0.014165679924190044,0.23996131122112274,-0.2502019703388214
1769657584220964400,4.34696435546875,-0.002428083447739482,0.21723021566867828,-0.26927077770233154
1769657584230952200,4.3569521484375,-0.006023617461323738,0.18639586865901947,-0.2503325045108795
1769657584240940300,4.366940185546875,-0.021201930940151215,0.11934573203325272,-0.22374890744686127
1769657584250928400,4.376928466796875,-0.0373111292719841,0.04265841096639633,-0.19780705869197845
1769657584260916500,4.38691650390625,-0.046734340488910675,-0.02955668792128563,-0.17471344769001007
1769657584270904300,4.396904296875,-0.04677988216280937,-0.10294195264577866,-0.15320070087909698
1769657584280892400,4.406892333984375,-0.04555901139974594,-0.1927584409713745,-0.1226830929517746
1769657584290881300,4.41688134765625,-0.029755549505352974,-0.24801024794578552,-0.08023043721914291
1769657584300869400,4.426869384765625,-0.014213687740266323,-0.2961702346801758,-0.03194863721728325
1769657584310857200,4.436857177734375,0.004958941601216793,-0.3343317210674286,0.00540592335164547
1769657584320845300,4.44684521484375,0.020795362070202827,-0.36364859342575073,0.027228523045778275
1769657584330833400,4.45683349609375,0.029434923082590103,-0.3976193368434906,0.02461809292435646
1769657584340821200,4.4668212890625,0.03753017261624336,-0.4159180223941803,0.01891324296593666
1769657584350809300,4.476809326171875,0.04142478108406067,-0.4132396876811981,0.007719445042312145
1769657584360797400,4.48679736328125,0.043438538908958435,-0.390739381313324,-0.01952366717159748
1769657584370785500,4.49678564453125,0.04046379029750824,-0.3666153848171234,-0.06618118286132812
1769657584380773400,4.5067734375,0.03676391392946243,-0.33255863189697266,-0.12444891035556793
1769657584390761500,4.516761474609375,0.028837012127041817,-0.28964099287986755,-0.18724198639392853
1769657584400749600,4.52674951171875,0.016587262973189354,-0.23834331333637238,-0.245796799659729
1769657584410737200,4.536737060546875,0.003014196641743183,-0.1774117797613144,-0.30561912059783936
1769657584420725200,4.546725341796875,-0.013623824343085289,-0.13349299132823944,-0.36042502522468567
1769657584430713300,4.55671337890625,-0.037011705338954926,-0.09464732557535172,-0.410310298204422
1769657584440701200,4.566701171875,-0.050107721239328384,-0.02685968205332756,-0.4597829282283783
1769657584450689300,4.576689208984375,-0.08032740652561188,0.029485348612070084,-0.5005929470062256
1769657584460677400,4.586677490234375,-0.10057065635919571,0.10006040334701538,-0.5352588295936584
1769657584470665500,4.59666552734375,-0.10888984054327011,0.16561783850193024,-0.5384567379951477
1769657584480653300,4.6066533203125,-0.09831489622592926,0.19396169483661652,-0.5395371913909912
1769657584490641400,4.616641357421875,-0.07596831023693085,0.2109318971633911,-0.5249643325805664
1769657584500629500,4.62662939453125,-0.0550135001540184,0.23768919706344604,-0.4966658353805542
1769657584510618400,4.636618408203125,-0.03767631947994232,0.2733835279941559,-0.45084989070892334
1769657584520606200,4.646606201171875,-0.03580175340175629,0.3076847493648529,-0.415121465921402
1769657584530594300,4.65659423828125,-0.04293982312083244,0.33571159839630127,-0.39777496457099915
1769657584540582400,4.66658251953125,-0.054947417229413986,0.3445274233818054,-0.40192216634750366
1769657584550570200,4.6765703125,-0.08014997839927673,0.3381156027317047,-0.43044623732566833
1769657584560558300,4.686558349609375,-0.11196627467870712,0.3260658383369446,-0.46705517172813416
1769657584570546400,4.69654638671875,-0.1378767043352127,0.31902286410331726,-0.5049316883087158
1769657584580534500,4.706534423828125,-0.17844705283641815,0.26741790771484375,-0.557217001914978
1769657584590522400,4.7165224609375,-0.22274340689182281,0.20767733454704285,-0.6108879446983337
1769657584600510500,4.726510498046875,-0.26073959469795227,0.1490185260772705,-0.647535502910614
1769657584610498300,4.736498291015625,-0.29319074749946594,0.12460026890039444,-0.6681646108627319
1769657584620486100,4.746486083984375,-0.3194054961204529,0.12537142634391785,-0.6700443625450134
1769657584630474200,4.75647412109375,-0.316474974155426,0.1290591061115265,-0.6501068472862244
1769657584640462300,4.76646240234375,-0.29534584283828735,0.13300178945064545,-0.6252924203872681
1769657584650450400,4.776450439453125,-0.25813427567481995,0.15999425947666168,-0.6009681820869446
1769657584660438300,4.786438232421875,-0.25289079546928406,0.17259575426578522,-0.565879225730896
1769657584670426400,4.79642626953125,-0.22736334800720215,0.130133256316185,-0.5550867319107056
1769657584680414500,4.80641455078125,-0.20429551601409912,0.1029341071844101,-0.5395089983940125
1769657584690402300,4.81640234375,-0.18700441718101501,0.0813787505030632,-0.5157786011695862
1769657584700390400,4.826390380859375,-0.18237245082855225,0.07885556668043137,-0.4717661738395691
1769657584710378500,4.83637841796875,-0.17238426208496094,0.07561290264129639,-0.4253147840499878
1769657584720366600,4.84636669921875,-0.16055944561958313,0.049782607704401016,-0.3875780403614044
1769657584730354400,4.8563544921875,-0.15491168200969696,0.022275082767009735,-0.3724108338356018
1769657584740343300,4.86634326171875,-0.14677824079990387,0.001149467658251524,-0.3707060217857361
1769657584750331400,4.876331298828125,-0.1363154798746109,-0.014549068175256252,-0.3746408522129059
1769657584760319500,4.886319580078125,-0.13485395908355713,-0.019271021708846092,-0.3895113170146942
1769657584770307300,4.896307373046875,-0.13884711265563965,-0.01853918470442295,-0.4095553457736969
1769657584780295400,4.90629541015625,-0.13684526085853577,-0.0283679012209177,-0.4278656244277954
1769657584790283500,4.916283447265625,-0.1377166360616684,-0.061414264142513275,-0.44297826290130615
1769657584800271400,4.926271240234375,-0.1401110142469406,-0.09676872193813324,-0.44561392068862915
1769657584810259500,4.936259521484375,-0.1414061039686203,-0.13428814709186554,-0.43851447105407715
1769657584820247300,4.946247314453125,-0.14044708013534546,-0.1588829904794693,-0.4219333231449127
1769657584830235100,4.956235107421875,-0.13980525732040405,-0.18721608817577362,-0.3878914713859558
1769657584840223200,4.96622314453125,-0.1304616779088974,-0.19948777556419373,-0.3478643000125885
1769657584850211300,4.97621142578125,-0.12109509110450745,-0.1908804327249527,-0.2979843318462372
1769657584860199400,4.986199462890625,-0.10866338014602661,-0.1670084297657013,-0.24517527222633362
1769657584870187300,4.996187255859375,-0.0828605443239212,-0.1332712471485138,-0.20906201004981995
1769657584880175400,5.00617529296875,-0.06814555078744888,-0.0948687419295311,-0.1992320865392685
1769657584890163500,5.01616357421875,-0.057148296386003494,-0.05950569361448288,-0.1936815232038498
1769657584900151300,5.0261513671875,-0.048703938722610474,-0.04131047800183296,-0.18600039184093475
1769657584910139100,5.03613916015625,-0.0439443364739418,-0.028741689398884773,-0.1834501475095749
1769657584920127200,5.046127197265625,-0.05167580023407936,-0.04531163349747658,-0.19060665369033813
1769657584930115300,5.056115234375,-0.05981415510177612,-0.08388272672891617,-0.18881036341190338
1769657584940103200,5.066103271484375,-0.06905395537614822,-0.13257351517677307,-0.191014364361763
1769657584950092000,5.076092041015625,-0.0747230276465416,-0.1759154051542282,-0.17403139173984528
1769657584960080100,5.086080078125,-0.0783814936876297,-0.19920837879180908,-0.14941714704036713
1769657584970068200,5.096068115234375,-0.07754286378622055,-0.21672265231609344,-0.12667322158813477
1769657584980056000,5.10605615234375,-0.07756800204515457,-0.22523722052574158,-0.11241625249385834
1769657584990044200,5.116044189453125,-0.08172865957021713,-0.21909171342849731,-0.10869208723306656
1769657585000032300,5.1260322265625,-0.08379382640123367,-0.19811028242111206,-0.10569924116134644
1769657585010020000,5.13602001953125,-0.08940324187278748,-0.1737799048423767,-0.07943861186504364
1769657585020008200,5.14600830078125,-0.09549400210380554,-0.14996802806854248,-0.037792351096868515
1769657585029996000,5.15599609375,-0.09941257536411285,-0.1481754630804062,0.008870757184922695
1769657585039984000,5.165984130859375,-0.10973003506660461,-0.15287965536117554,0.04425277188420296
1769657585049972000,5.175971923828125,-0.12408847361803055,-0.18027399480342865,0.06539933383464813
1769657585059960000,5.1859599609375,-0.14760728180408478,-0.20891360938549042,0.07520711421966553
1769657585069948200,5.1959482421875,-0.16829870641231537,-0.23686374723911285,0.08622727543115616
1769657585079936000,5.20593603515625,-0.19119364023208618,-0.2648234963417053,0.0964253768324852
1769657585089924000,5.215924072265625,-0.2109644114971161,-0.2873828709125519,0.10127099603414536
1769657585099912200,5.225912109375,-0.24024495482444763,-0.30440834164619446,0.09940847754478455
1769657585109900000,5.235900146484375,-0.26628774404525757,-0.3146314024925232,0.10198801755905151
1769657585119888100,5.24588818359375,-0.2876119911670685,-0.33117833733558655,0.11050543189048767
1769657585129876200,5.255876220703125,-0.2981328070163727,-0.35932156443595886,0.13538016378879547
1769657585139864300,5.2658642578125,-0.29506754875183105,-0.39099186658859253,0.15859398245811462
1769657585149852200,5.27585205078125,-0.2850567400455475,-0.4155203700065613,0.18934203684329987
1769657585159840000,5.285840087890625,-0.2817484140396118,-0.43954402208328247,0.2166680097579956
1769657585169828000,5.295828125,-0.28336814045906067,-0.46088606119155884,0.23385311663150787
1769657585179817200,5.305817138671875,-0.2915093004703522,-0.5044864416122437,0.24890176951885223
1769657585189805000,5.31580517578125,-0.2996857464313507,-0.5404124855995178,0.25661802291870117
1769657585199793200,5.325793212890625,-0.29772987961769104,-0.5591939687728882,0.25434061884880066
1769657585209781200,5.33578125,-0.29894962906837463,-0.5631011128425598,0.2447527050971985
1769657585219769000,5.34576904296875,-0.30049240589141846,-0.5628409385681152,0.22455307841300964
1769657585229757200,5.355757080078125,-0.29789450764656067,-0.5756150484085083,0.20398522913455963
1769657585239745000,5.3657451171875,-0.2952289581298828,-0.5985192060470581,0.1843874454498291
1769657585249733000,5.375733154296875,-0.2860943078994751,-0.6440944075584412,0.17056457698345184
1769657585259721000,5.385720947265625,-0.28160661458969116,-0.6950828433036804,0.17242224514484406
1769657585269709000,5.395708984375,-0.27195584774017334,-0.7488132119178772,0.19325534999370575
1769657585279697200,5.405697265625,-0.2673751413822174,-0.7984377145767212,0.20454436540603638
1769657585289685000,5.41568505859375,-0.2655428946018219,-0.8512428402900696,0.19984202086925507
1769657585299673000,5.425673095703125,-0.2757367491722107,-0.8873332142829895,0.17827525734901428
1769657585309661200,5.4356611328125,-0.2931967079639435,-0.9145208597183228,0.15026038885116577
1769657585319649300,5.445649169921875,-0.3008515536785126,-0.9252932667732239,0.12280816584825516
1769657585329637000,5.45563720703125,-0.3076295554637909,-0.9576674699783325,0.12200096249580383
1769657585339625200,5.465625244140625,-0.3155229091644287,-0.9932639002799988,0.12987786531448364
1769657585349613300,5.47561328125,-0.3097230792045593,-1.0095863342285156,0.14341631531715393
1769657585359601000,5.485600830078125,-0.3056769371032715,-1.0271077156066895,0.14989832043647766
1769657585369589000,5.495589111328125,-0.3040984869003296,-1.0467394590377808,0.1542893648147583
1769657585379577000,5.5055771484375,-0.3037217855453491,-1.0637900829315186,0.15187226235866547
1769657585389565200,5.515565185546875,-0.30462273955345154,-1.0795913934707642,0.14660586416721344
1769657585399554000,5.525553955078125,-0.307638019323349,-1.0916295051574707,0.13357573747634888
1769657585409542100,5.535542236328125,-0.3082026243209839,-1.0977596044540405,0.12958818674087524
1769657585419530200,5.5455302734375,-0.3054087162017822,-1.1038322448730469,0.13224373757839203
1769657585429518300,5.555518310546875,-0.30229201912879944,-1.1128376722335815,0.14197732508182526
1769657585439506200,5.565506103515625,-0.29310914874076843,-1.130967140197754,0.15037742257118225
1769657585449494000,5.575493896484375,-0.2831664979457855,-1.1574796438217163,0.15518389642238617
1769657585459482000,5.585482177734375,-0.27752432227134705,-1.1899176836013794,0.1636388599872589
1769657585469470000,5.595469970703125,-0.2712933123111725,-1.2274647951126099,0.16899634897708893
1769657585479458000,5.6054580078125,-0.2640303373336792,-1.2708933353424072,0.1694531887769699
1769657585489446100,5.615446044921875,-0.2518506348133087,-1.3103104829788208,0.16375614702701569
1769657585499434000,5.62543408203125,-0.24215197563171387,-1.3519325256347656,0.14743781089782715
1769657585509422000,5.635422119140625,-0.22567924857139587,-1.4232767820358276,0.14120787382125854
1769657585519410200,5.64541015625,-0.20673039555549622,-1.348462462425232,0.13184168934822083
1769657585529398300,5.655398193359375,-0.2065996378660202,-1.32620108127594,0.11676205694675446
1769657585539386000,5.66538623046875,-0.20645137131214142,-1.323378086090088,0.0817149356007576
1769657585549374200,5.675374267578125,-0.20384787023067474,-1.3469294309616089,0.04742859676480293
1769657585559362000,5.685362060546875,-0.21167993545532227,-1.3321946859359741,0.017748001962900162
1769657585569350000,5.695349853515625,-0.21946968138217926,-1.3110886812210083,-0.007873738184571266
1769657585579338000,5.705337890625,-0.2332666665315628,-1.321956992149353,-0.026479896157979965
1769657585589326000,5.715326171875,-0.24627327919006348,-1.362761378288269,-0.03343367576599121
1769657585599314200,5.725314208984375,-0.2564656734466553,-1.410022258758545,-0.015844792127609253
1769657585609302000,5.735302001953125,-0.27178657054901123,-1.4575181007385254,0.011694157496094704
1769657585619291100,5.745291015625,-0.2805720865726471,-1.499788522720337,0.035810504108667374
1769657585629279200,5.755279296875,-0.2959774136543274,-1.5369185209274292,0.05064058303833008
1769657585639267300,5.765267333984375,-0.31355416774749756,-1.5637166500091553,0.06634043902158737
1769657585649255000,5.7752548828125,-0.32031166553497314,-1.5934287309646606,0.08275989443063736
1769657585659243000,5.785242919921875,-0.3282512128353119,-1.6295493841171265,0.0890517607331276
1769657585669231000,5.795231201171875,-0.3345847427845001,-1.6417136192321777,0.08722776174545288
1769657585679219000,5.805218994140625,-0.33020177483558655,-1.6559257507324219,0.07726971805095673
1769657585689207000,5.81520703125,-0.32633858919143677,-1.6724075078964233,0.06324683874845505
1769657585699195100,5.825195068359375,-0.3208342492580414,-1.6720993518829346,0.04457993432879448
1769657585709183200,5.835183349609375,-0.3201351761817932,-1.673566222190857,0.021316956728696823
1769657585719171000,5.845171142578125,-0.3242274820804596,-1.6738444566726685,-0.001876328606158495
1769657585729159200,5.8551591796875,-0.3245987296104431,-1.6662384271621704,-0.01742066815495491
1769657585739147300,5.865147216796875,-0.3293289244174957,-1.6675556898117065,-0.031891386955976486
1769657585749135000,5.875135009765625,-0.3286415636539459,-1.6713581085205078,-0.04125559329986572
1769657585759123200,5.885123291015625,-0.3317855894565582,-1.6658666133880615,-0.041867345571517944
1769657585769111000,5.895111083984375,-0.3401133120059967,-1.6644394397735596,-0.039272893220186234
1769657585779099100,5.90509912109375,-0.3497527539730072,-1.6587377786636353,-0.05341397970914841
1769657585789087000,5.9150869140625,-0.36075374484062195,-1.6388647556304932,-0.07435867935419083
1769657585799075000,5.925074951171875,-0.3795410394668579,-1.6209518909454346,-0.08523375540971756
1769657585809063200,5.935063232421875,-0.39450401067733765,-1.6103078126907349,-0.08158975094556808
1769657585819051000,5.945051025390625,-0.4137918949127197,-1.6178529262542725,-0.0691695287823677
1769657585829039000,5.9550390625,-0.43235811591148376,-1.6537094116210938,-0.05385316163301468
1769657585839028200,5.9650283203125,-0.44576042890548706,-1.6793909072875977,-0.046002209186553955
1769657585849016000,5.97501611328125,-0.46018409729003906,-1.7029553651809692,-0.046775057911872864
1769657585859004000,5.98500390625,-0.4747375547885895,-1.7045435905456543,-0.05315420776605606
1769657585868992000,5.994991943359375,-0.4759242832660675,-1.684453010559082,-0.06690464913845062
1769657585878980000,6.00497998046875,-0.4638087749481201,-1.6277724504470825,-0.07996800541877747
1769657585888968200,6.01496826171875,-0.447155237197876,-1.5355205535888672,-0.08207536488771439
1769657585898956000,6.0249560546875,-0.43547195196151733,-1.4409102201461792,-0.08682335913181305
1769657585908943400,6.034943359375,-0.4280470609664917,-1.3858048915863037,-0.10171016305685043
1769657585918931500,6.044931396484375,-0.4149649441242218,-1.3769817352294922,-0.12401565164327621
1769657585928919600,6.05491943359375,-0.4075360596179962,-1.386184573173523,-0.14594918489456177
1769657585938907600,6.06490771484375,-0.3950885832309723,-1.3868671655654907,-0.15193061530590057
1769657585948895500,6.0748955078125,-0.3789897561073303,-1.3728793859481812,-0.14072296023368835
1769657585958883600,6.084883544921875,-0.3604992926120758,-1.3329774141311646,-0.1216287687420845
1769657585968871700,6.09487158203125,-0.3431064486503601,-1.294148564338684,-0.10495525598526001
1769657585978859500,6.104859619140625,-0.3305646777153015,-1.2715044021606445,-0.09751948714256287
1769657585988847600,6.11484765625,-0.32454806566238403,-1.2629153728485107,-0.10023191571235657
1769657585998835500,6.12483544921875,-0.3269622325897217,-1.277398705482483,-0.1074676662683487
1769657586008823600,6.134823486328125,-0.3430325388908386,-1.2845014333724976,-0.10644847899675369
1769657586018811400,6.144811279296875,-0.35973623394966125,-1.2808821201324463,-0.10395466536283493
1769657586028799500,6.154799560546875,-0.379585325717926,-1.2714768648147583,-0.10497572273015976
1769657586038787600,6.16478759765625,-0.3915553390979767,-1.2727329730987549,-0.11077946424484253
1769657586048775400,6.174775390625,-0.40279465913772583,-1.3031811714172363,-0.12009573727846146
1769657586058764500,6.1847646484375,-0.39283427596092224,-1.292714238166809,-0.13987213373184204
1769657586068752600,6.194752685546875,-0.381610631942749,-1.2661420106887817,-0.15702609717845917
1769657586078740500,6.204740478515625,-0.37074506282806396,-1.2365996837615967,-0.1690106987953186
1769657586088728300,6.214728271484375,-0.3490277826786041,-1.1791223287582397,-0.18179653584957123
1769657586098716400,6.22471630859375,-0.33552810549736023,-1.1131404638290405,-0.19208478927612305
1769657586108704500,6.23470458984375,-0.32657667994499207,-1.0501927137374878,-0.20931996405124664
1769657586118692600,6.244692626953125,-0.3177255392074585,-0.9749143123626709,-0.2271278351545334
1769657586128680400,6.254680419921875,-0.30741775035858154,-0.904161274433136,-0.23934108018875122
1769657586138668500,6.26466845703125,-0.2944563031196594,-0.8527941107749939,-0.24694670736789703
1769657586148656600,6.27465673828125,-0.27368712425231934,-0.8087459206581116,-0.23643627762794495
1769657586158644500,6.28464453125,-0.24990087747573853,-0.7684520483016968,-0.21077261865139008
1769657586168632600,6.294632568359375,-0.2271135300397873,-0.7324799299240112,-0.18901991844177246
1769657586178620700,6.30462060546875,-0.1992524415254593,-0.6813632249832153,-0.1820644587278366
1769657586188608800,6.31460888671875,-0.17898498475551605,-0.6325128674507141,-0.18700914084911346
1769657586198596400,6.324596435546875,-0.16185705363750458,-0.6038501262664795,-0.2004203051328659
1769657586208584400,6.33458447265625,-0.147216334939003,-0.5890246033668518,-0.2134929746389389
1769657586218572500,6.344572509765625,-0.13720199465751648,-0.575664758682251,-0.21760253608226776
1769657586228560400,6.354560302734375,-0.12755975127220154,-0.5668004155158997,-0.2109861820936203
1769657586238548500,6.364548583984375,-0.10992130637168884,-0.5555789470672607,-0.20011740922927856
1769657586248536600,6.37453662109375,-0.0945412814617157,-0.5387645363807678,-0.18801680207252502
1769657586258524400,6.3845244140625,-0.07378707081079483,-0.5273396372795105,-0.17880895733833313
1769657586268512500,6.394512451171875,-0.045474473387002945,-0.528494119644165,-0.18237146735191345
1769657586278501600,6.404501708984375,-0.01579890586435795,-0.5248832106590271,-0.18315020203590393
1769657586288489500,6.414489501953125,0.014986436814069748,-0.5174713730812073,-0.16809988021850586
1769657586298477300,6.424477294921875,0.05605851486325264,-0.5244430899620056,-0.13378702104091644
1769657586308465400,6.43446533203125,0.10007630288600922,-0.504087507724762,-0.09731662273406982
1769657586318453500,6.44445361328125,0.14206397533416748,-0.47364598512649536,-0.06915529072284698
1769657586328441600,6.454441650390625,0.18011921644210815,-0.4261317253112793,-0.0585511140525341
1769657586338429400,6.464429443359375,0.21580763161182404,-0.37601739168167114,-0.06725292652845383
1769657586348417500,6.47441748046875,0.2433689534664154,-0.3411126732826233,-0.08734115213155746
1769657586358405600,6.484405517578125,0.2631259858608246,-0.3116385340690613,-0.11465255916118622
1769657586368393500,6.4943935546875,0.2790879011154175,-0.2982838451862335,-0.13763031363487244
1769657586378381600,6.504381591796875,0.29289281368255615,-0.3076747953891754,-0.15279316902160645
1769657586388369700,6.51436962890625,0.29604437947273254,-0.3200792670249939,-0.16827864944934845
1769657586398357500,6.524357421875,0.2816580832004547,-0.3275371491909027,-0.18376746773719788
1769657586408345300,6.534345458984375,0.24936965107917786,-0.29821041226387024,-0.20778146386146545
1769657586418333400,6.54433349609375,0.2228560596704483,-0.22596916556358337,-0.24188241362571716
1769657586428321500,6.554321533203125,0.21236348152160645,-0.1304519772529602,-0.28800490498542786
1769657586438309400,6.564309326171875,0.19905956089496613,-0.023350361734628677,-0.34365972876548767
1769657586448297500,6.57429736328125,0.18337780237197876,0.062049757689237595,-0.3770078420639038
1769657586458285600,6.58428564453125,0.1687796413898468,0.13523925840854645,-0.3532554507255554
1769657586468273700,6.594273681640625,0.16249005496501923,0.2196127325296402,-0.2802309989929199
1769657586478261500,6.604261474609375,0.17163769900798798,0.2668267488479614,-0.17674541473388672
1769657586488250400,6.61425048828125,0.20629927515983582,0.27381062507629395,-0.06562767922878265
1769657586498238500,6.624238525390625,0.24669373035430908,0.22269892692565918,0.03468841686844826
1769657586508226600,6.6342265625,0.2759474813938141,0.15204578638076782,0.10405497252941132
1769657586518214400,6.64421435546875,0.27350538969039917,0.07866563647985458,0.13730429112911224
1769657586528202500,6.654202392578125,0.24560773372650146,0.021609539166092873,0.13614581525325775
1769657586538190600,6.664190673828125,0.21062414348125458,-0.00804344192147255,0.10683951526880264
1769657586548178400,6.674178466796875,0.17596496641635895,-0.002673177979886532,0.07606855779886246
1769657586558166500,6.68416650390625,0.14996057748794556,0.007700740359723568,0.051149360835552216
1769657586568154600,6.694154541015625,0.14017613232135773,0.004834113642573357,0.035569604486227036
1769657586578142700,6.704142822265625,0.1260461062192917,-0.008055898360908031,0.02620900236070156
1769657586588130600,6.714130615234375,0.10727482289075851,-0.015293838456273079,0.015396833419799805
1769657586598118700,6.72411865234375,0.08158567547798157,-0.026347218081355095,0.0010060458444058895
1769657586608106500,6.7341064453125,0.05310715734958649,-0.040131207555532455,-0.02564047835767269
1769657586618094300,6.74409423828125,0.03240598365664482,-0.059451520442962646,-0.06688608229160309
1769657586628082400,6.75408251953125,0.00978136621415615,-0.07231325656175613,-0.11259497702121735
1769657586638070500,6.764070556640625,-0.0018163853092119098,-0.07499769330024719,-0.161722794175148
1769657586648058400,6.774058349609375,-0.013556664809584618,-0.06558714807033539,-0.2250460982322693
1769657586658046500,6.78404638671875,-0.019756590947508812,-0.004473126493394375,-0.30011633038520813
1769657586668034600,6.79403466796875,-0.03394724428653717,0.013211328536272049,-0.3490321934223175
1769657586678022700,6.804022705078125,-0.0423867329955101,0.033890727907419205,-0.3692152798175812
1769657586688010500,6.814010498046875,-0.04652288556098938,0.08413872122764587,-0.33992424607276917
1769657586697999400,6.823999267578125,-0.07648158818483353,0.10844089835882187,-0.27939915657043457
1769657586707987500,6.833987548828125,-0.07585840672254562,0.0951400026679039,-0.21120548248291016
1769657586717975600,6.8439755859375,-0.025014743208885193,0.05980069935321808,-0.1661343276500702
1769657586727963400,6.85396337890625,-0.003073759377002716,0.05724566429853439,-0.11330121010541916
1769657586737951500,6.863951416015625,0.011204897426068783,0.0741584300994873,-0.049903709441423416
1769657586747939600,6.873939697265625,0.029258200898766518,0.09471616894006729,0.033327531069517136
1769657586757927400,6.883927490234375,0.03386286273598671,0.10899671167135239,0.10969974845647812
1769657586767915500,6.89391552734375,0.03561655431985855,0.12821568548679352,0.1642354279756546
1769657586777903600,6.903903564453125,0.035998545587062836,0.1624656766653061,0.19760435819625854
1769657586787891700,6.9138916015625,0.04012005403637886,0.14908595383167267,0.22311104834079742
1769657586797879600,6.923879638671875,0.052094727754592896,0.1537017971277237,0.2374415397644043
1769657586807867600,6.93386767578125,0.05590544268488884,0.20043069124221802,0.23677602410316467
1769657586817855500,6.94385546875,0.04595697671175003,0.2876247763633728,0.20846742391586304
1769657586827843300,6.95384326171875,0.04036220535635948,0.3524876534938812,0.1589941531419754
1769657586837831400,6.96383154296875,0.03423267975449562,0.3869270980358124,0.09943021088838577
1769657586847819500,6.973819580078125,0.019320843741297722,0.4021611511707306,0.03317848592996597
1769657586857807600,6.9838076171875,-0.008744841441512108,0.3836539685726166,-0.031671710312366486
1769657586867795500,6.99379541015625,-0.03407789394259453,0.3525727391242981,-0.08733070641756058
1769657586877783600,7.003783447265625,-0.051740966737270355,0.31705743074417114,-0.12233815342187881
1769657586887771600,7.013771728515625,-0.0535079725086689,0.2920841574668884,-0.11464880406856537
1769657586897759500,7.023759521484375,-0.05172773450613022,0.266171395778656,-0.07412424683570862
1769657586907747300,7.033747314453125,-0.043335046619176865,0.2254735231399536,-0.012933066114783287
1769657586917735400,7.0437353515625,-0.03357561677694321,0.1893511861562729,0.06119207292795181
1769657586927724300,7.053724365234375,-0.028803763911128044,0.17541353404521942,0.12579023838043213
1769657586937712400,7.06371240234375,-0.026222214102745056,0.17037458717823029,0.17138223350048065
1769657586947700200,7.0737001953125,-0.027368171140551567,0.1275022178888321,0.18536116182804108
1769657586957688300,7.083688232421875,-0.039236728101968765,0.12969020009040833,0.18781417608261108
1769657586967676400,7.093676513671875,-0.03612855449318886,0.1498279571533203,0.1895633339881897
1769657586977664500,7.10366455078125,-0.02073640003800392,0.1819765865802765,0.18682828545570374
1769657586987652400,7.11365234375,0.0009033826645463705,0.2340448498725891,0.18859395384788513
1769657586997640400,7.123640380859375,0.016340505331754684,0.2878275215625763,0.2051839530467987
1769657587007628500,7.133628662109375,0.0324891172349453,0.3313632607460022,0.22185081243515015
1769657587017616400,7.143616455078125,0.04799762740731239,0.3744274973869324,0.23301200568675995
1769657587027604200,7.153604248046875,0.0583442747592926,0.42214229702949524,0.23788584768772125
1769657587037592300,7.16359228515625,0.06602352112531662,0.455469012260437,0.24487704038619995
1769657587047580200,7.173580078125,0.07123292982578278,0.48213016986846924,0.25288331508636475
1769657587057568300,7.183568359375,0.07025143504142761,0.5002777576446533,0.2622009217739105
1769657587067556400,7.193556396484375,0.06184437498450279,0.4960540235042572,0.2635607421398163
1769657587077544400,7.20354443359375,0.050888966768980026,0.47907117009162903,0.25352585315704346
1769657587087532300,7.2135322265625,0.03875906392931938,0.45873209834098816,0.22849240899085999
1769657587097520400,7.223520263671875,0.028049353510141373,0.4405069649219513,0.20270439982414246
1769657587107508500,7.233508544921875,0.023012783378362656,0.4315060079097748,0.1974630355834961
1769657587117496300,7.243496337890625,0.029249755665659904,0.4019302427768707,0.20872953534126282
1769657587127485200,7.253485107421875,0.04035993292927742,0.35097891092300415,0.2454148381948471
1769657587137473300,7.263473388671875,0.049815595149993896,0.29739558696746826,0.29892462491989136
1769657587147461400,7.27346142578125,0.051616422832012177,0.25494053959846497,0.3554134666919708
1769657587157449200,7.28344921875,0.050427842885255814,0.23472744226455688,0.39915338158607483
1769657587167437300,7.293437255859375,0.039061471819877625,0.21842597424983978,0.4325627386569977
1769657587177425400,7.30342529296875,0.014387337490916252,0.21242345869541168,0.46187925338745117
1769657587187413500,7.31341357421875,-0.0004970706067979336,0.18418996036052704,0.47388026118278503
1769657587197401300,7.3234013671875,-0.005415095016360283,0.12474372237920761,0.46636962890625
1769657587207389400,7.333389404296875,-0.024562425911426544,0.07470691949129105,0.43861204385757446
1769657587217377500,7.34337744140625,-0.06705524772405624,-0.008792482316493988,0.39553385972976685
1769657587227365400,7.353365478515625,-0.10478824377059937,-0.025337902829051018,0.3610944151878357
1769657587237353200,7.363353271484375,-0.13326245546340942,-0.027108322829008102,0.31491145491600037
1769657587247341300,7.37334130859375,-0.1551576405763626,-0.07099748402833939,0.249838724732399
1769657587257329400,7.383329345703125,-0.20385132730007172,-0.13580025732517242,0.2054203599691391
1769657587267317200,7.393317138671875,-0.21832162141799927,-0.1535947024822235,0.12489303201436996
1769657587277305300,7.403305419921875,-0.2214602530002594,-0.10128794610500336,-0.0017126828897744417
1769657587287293400,7.41329345703125,-0.20642803609371185,-0.03984402120113373,-0.10220280289649963
1769657587297281300,7.42328125,-0.2181226760149002,0.03624420985579491,-0.15541212260723114
1769657587307269400,7.433269287109375,-0.19984380900859833,0.09167497605085373,-0.15836530923843384
1769657587317257500,7.443257568359375,-0.19030135869979858,0.09712482988834381,-0.1468924731016159
1769657587327245600,7.45324560546875,-0.2028331309556961,0.11558585613965988,-0.12523138523101807
1769657587337234200,7.463234130859375,-0.22247657179832458,0.11144963651895523,-0.0759287029504776
1769657587347222300,7.47322216796875,-0.24386094510555267,0.14341609179973602,-0.009871923364698887
1769657587357210400,7.48321044921875,-0.2669520378112793,0.19978608191013336,0.07352185249328613
1769657587367198500,7.493198486328125,-0.26462414860725403,0.1981053501367569,0.18103499710559845
1769657587377186300,7.503186279296875,-0.22541497647762299,0.21152649819850922,0.28052735328674316
1769657587387174400,7.51317431640625,-0.15353652834892273,0.26663821935653687,0.3567187786102295
1769657587397162500,7.52316259765625,-0.0830807015299797,0.29436710476875305,0.42143362760543823
1769657587407150300,7.533150390625,-0.015301122330129147,0.387500524520874,0.44709184765815735
1769657587417138400,7.543138427734375,0.047329340130090714,0.5370896458625793,0.4323398470878601
1769657587427126500,7.55312646484375,0.09670514613389969,0.6854593753814697,0.3802098035812378
1769657587437114400,7.5631142578125,0.11927235871553421,0.8304403424263,0.29174426198005676
1769657587447102200,7.573102294921875,0.11197742819786072,0.9156675934791565,0.19006291031837463
1769657587457090300,7.58309033203125,0.0761888399720192,0.8796983957290649,0.09624551236629486
1769657587467078400,7.593078369140625,0.03217504546046257,0.7816514372825623,0.020939312875270844
1769657587477066200,7.603066162109375,-0.011172737926244736,0.6699290871620178,-0.01580938510596752
1769657587487054300,7.613054443359375,-0.04629717022180557,0.5321296453475952,-0.01243462786078453
1769657587497042400,7.62304248046875,-0.08690080791711807,0.37916299700737,0.009928700514137745
1769657587507030300,7.6330302734375,-0.10945272445678711,0.22901877760887146,0.025853870436549187
1769657587517018400,7.643018310546875,-0.1113014966249466,0.12900815904140472,0.033349450677633286
1769657587527006500,7.65300634765625,-0.0929134339094162,0.09096010774374008,0.05724839121103287
1769657587536995300,7.662995361328125,-0.06764697283506393,0.10929227620363235,0.11501044034957886
1769657587546983200,7.672983154296875,-0.03109375387430191,0.1764686554670334,0.20617631077766418
1769657587556971300,7.68297119140625,0.019400980323553085,0.277809739112854,0.3245342969894409
1769657587566959400,7.69295947265625,0.07817747443914413,0.3574656844139099,0.4182725250720978
1769657587576947500,7.702947509765625,0.12501303851604462,0.40988144278526306,0.456173837184906
1769657587586935300,7.712935302734375,0.166655033826828,0.43769097328186035,0.43482115864753723
1769657587596923400,7.72292333984375,0.18931140005588531,0.4602447748184204,0.3747752606868744
1769657587606911500,7.732911376953125,0.1995192915201187,0.49810534715652466,0.3053538501262665
1769657587616899300,7.7428994140625,0.193867027759552,0.5358864665031433,0.2338886260986328
1769657587626887400,7.752887451171875,0.17730963230133057,0.5409579277038574,0.17691828310489655
1769657587636875300,7.762875244140625,0.15531185269355774,0.48992300033569336,0.14529064297676086
1769657587646863400,7.77286328125,0.1515464037656784,0.38605573773384094,0.13111437857151031
1769657587656851200,7.782851318359375,0.1495285928249359,0.33755114674568176,0.1139490008354187
1769657587666839300,7.79283935546875,0.1427774876356125,0.2872972786426544,0.09749626368284225
1769657587676827400,7.802827392578125,0.15467426180839539,0.2567899823188782,0.0738501101732254
1769657587686815200,7.812815185546875,0.17236004769802094,0.24478816986083984,0.05767753720283508
1769657587696803300,7.82280322265625,0.1978321671485901,0.24866826832294464,0.03780205175280571
1769657587706791400,7.83279150390625,0.2180625945329666,0.2674427628517151,0.026693740859627724
1769657587716779500,7.842779541015625,0.22807298600673676,0.28587689995765686,0.015745166689157486
1769657587726767400,7.852767333984375,0.23879434168338776,0.272152304649353,0.0043292599730193615
1769657587736755500,7.86275537109375,0.2378511279821396,0.24848872423171997,-0.013527309522032738
1769657587746744300,7.872744384765625,0.22135470807552338,0.20973147451877594,-0.04278026893734932
1769657587756732400,7.882732421875,0.19897568225860596,0.18819430470466614,-0.09165357053279877
1769657587766720300,7.89272021484375,0.1853722631931305,0.18147701025009155,-0.14708462357521057
1769657587776708400,7.902708251953125,0.18124262988567352,0.14163115620613098,-0.1946721076965332
1769657587786696400,7.912696533203125,0.18749120831489563,0.09879181534051895,-0.22327017784118652
1769657587796684300,7.922684326171875,0.20239071547985077,0.07382886856794357,-0.22938169538974762
1769657587806672400,7.93267236328125,0.2249266505241394,0.07213616371154785,-0.21938419342041016
1769657587816660500,7.942660400390625,0.25273826718330383,0.09655819833278656,-0.20797406136989594
1769657587826648600,7.952648681640625,0.2790502905845642,0.12059801816940308,-0.20465576648712158
1769657587836636400,7.962636474609375,0.2941214144229889,0.15610773861408234,-0.21325072646141052
1769657587846624300,7.972624267578125,0.31412574648857117,0.18414443731307983,-0.22205300629138947
1769657587856612400,7.9826123046875,0.34135475754737854,0.19637230038642883,-0.22268131375312805
1769657587866600200,7.99260009765625,0.38038337230682373,0.21711832284927368,-0.20810477435588837
1769657587876588300,8.00258837890625,0.41884845495224,0.23066136240959167,-0.17752009630203247
1769657587886576400,8.012576416015625,0.4535183012485504,0.21650399267673492,-0.14202681183815002
1769657587896564200,8.022564208984376,0.46652913093566895,0.1817326694726944,-0.10523637384176254
1769657587906552300,8.03255224609375,0.4529153108596802,0.14717257022857666,-0.08489461243152618
1769657587916540000,8.042539794921876,0.4175741672515869,0.11258130520582199,-0.09552238881587982
1769657587926528000,8.052528076171875,0.3671373724937439,0.13211292028427124,-0.1462409496307373
1769657587936516000,8.06251611328125,0.30571669340133667,0.22801880538463593,-0.21942372620105743
1769657587946504000,8.07250390625,0.263921320438385,0.3886348307132721,-0.2994144558906555
1769657587956492800,8.082492919921876,0.25756117701530457,0.5402979254722595,-0.3902148902416229
1769657587966481000,8.09248095703125,0.2724791467189789,0.6229270100593567,-0.444341242313385
1769657587976469000,8.102468994140626,0.17469079792499542,0.6282926201820374,-0.461408793926239
1769657587986456800,8.112456787109375,0.15345555543899536,0.5440083742141724,-0.46844834089279175
1769657587996445000,8.12244482421875,0.15770024061203003,0.4358515739440918,-0.4111565351486206
1769657588006433000,8.13243310546875,0.18184155225753784,0.3546925485134125,-0.2862396240234375
1769657588016421000,8.142421142578126,0.22301530838012695,0.3055293560028076,-0.09474068135023117
1769657588026409000,8.152408935546875,0.2507134974002838,0.3018456697463989,0.12437515705823898
1769657588036397000,8.16239697265625,0.2465354949235916,0.3141777515411377,0.31625255942344666
1769657588046385200,8.17238525390625,0.21565666794776917,0.3331615626811981,0.4276999831199646
1769657588056373000,8.182373046875,0.20017071068286896,0.3408083915710449,0.4320521354675293
1769657588066360800,8.19236083984375,0.1863611489534378,0.37176018953323364,0.37276482582092285
1769657588076349000,8.202348876953126,0.1405935436487198,0.3898332715034485,0.3122497498989105
1769657588086337000,8.2123369140625,0.10661612451076508,0.4093286693096161,0.26047736406326294
1769657588096324900,8.222324951171874,0.07250995188951492,0.4453933835029602,0.2060326188802719
1769657588106313000,8.23231298828125,0.023435087874531746,0.4434889554977417,0.14510323107242584
1769657588116301000,8.242301025390624,-0.00931241363286972,0.41565531492233276,0.06412310153245926
1769657588126289000,8.252288818359375,-0.03462895750999451,0.36230847239494324,-0.02636844664812088
1769657588136277000,8.262277099609374,-0.0513584278523922,0.278742253780365,-0.12362344563007355
1769657588146265000,8.27226513671875,-0.06943143904209137,0.1721564382314682,-0.2060442864894867
1769657588156254000,8.28225390625,-0.0890403687953949,0.03397730365395546,-0.24368320405483246
1769657588166241800,8.29224169921875,-0.07291359454393387,-0.020580744370818138,-0.255200058221817
1769657588176230000,8.30222998046875,-0.06635822355747223,-0.04136500135064125,-0.20989473164081573
1769657588186218000,8.312218017578125,-0.08995169401168823,-0.05296652764081955,-0.12931598722934723
1769657588196206000,8.3222060546875,-0.07226376980543137,-0.01597616635262966,-0.010753501206636429
1769657588206194000,8.33219384765625,-0.02909686043858528,0.0352015346288681,0.11928971856832504
1769657588216182000,8.34218212890625,0.027819113805890083,0.08554336428642273,0.24072517454624176
1769657588226170000,8.352170166015625,0.07692194730043411,0.18434931337833405,0.35966938734054565
1769657588236158000,8.362157958984374,0.11195909976959229,0.3082662522792816,0.45877155661582947
1769657588246146000,8.37214599609375,0.14246775209903717,0.4121023714542389,0.5108014345169067
1769657588256134100,8.382134033203124,0.1651192456483841,0.5006443858146667,0.5221173167228699
1769657588266122000,8.3921220703125,0.17893598973751068,0.5625298619270325,0.5126329660415649
1769657588276109800,8.40210986328125,0.19912396371364594,0.6768575310707092,0.4714796841144562
1769657588286098000,8.412097900390625,0.19501657783985138,0.7983051538467407,0.4107215404510498
1769657588296086000,8.4220859375,0.18548105657100677,0.8930678963661194,0.3341909348964691
1769657588306073900,8.432073974609375,0.17402467131614685,0.9453960657119751,0.25808924436569214
1769657588316062000,8.44206201171875,0.1747688502073288,0.9676152467727661,0.1982722282409668
1769657588326050000,8.452050048828125,0.17135414481163025,0.9754462838172913,0.17358526587486267
1769657588336038000,8.462037841796874,0.15951386094093323,0.9810933470726013,0.17818476259708405
1769657588346026000,8.47202587890625,0.14755627512931824,0.9825695157051086,0.1950788050889969
1769657588356014000,8.48201416015625,0.12555266916751862,0.9636542797088623,0.21694423258304596
1769657588366003000,8.4920029296875,0.12032327800989151,0.9472100138664246,0.2414889931678772
1769657588375990800,8.50199072265625,0.12400440126657486,0.9513780474662781,0.27571967244148254
1769657588385979000,8.511978759765626,0.12807585299015045,0.9880234003067017,0.31415095925331116
1769657588395967000,8.521967041015625,0.13993103802204132,1.0476938486099243,0.3571056127548218
1769657588405955000,8.531955078125,0.15241673588752747,1.1277852058410645,0.3895266652107239
1769657588415943000,8.54194287109375,0.1656375676393509,1.2299797534942627,0.40162843465805054
1769657588425931000,8.551930908203126,0.18227514624595642,1.3168795108795166,0.4015812873840332
1769657588435919000,8.561919189453125,0.20032386481761932,1.390028476715088,0.40863218903541565
1769657588445907000,8.571906982421876,0.21576301753520966,1.4385489225387573,0.4259089231491089
1769657588455895000,8.58189501953125,0.239852637052536,1.456540584564209,0.4550059735774994
1769657588465883100,8.591883056640626,0.2621307671070099,1.490586757659912,0.48395854234695435
1769657588475871000,8.60187109375,0.28980913758277893,1.5126992464065552,0.5065106153488159
1769657588485858800,8.61185888671875,0.3157331347465515,1.5490270853042603,0.5144066214561462
1769657588495847000,8.621846923828125,0.33528661727905273,1.5853677988052368,0.513186514377594
1769657588505835000,8.6318349609375,0.3664458692073822,1.6614516973495483,0.5077267289161682
1769657588515822800,8.64182275390625,0.38882532715797424,1.6878329515457153,0.5462509393692017
1769657588525811000,8.65181103515625,0.41445720195770264,1.7333391904830933,0.6091124415397644
1769657588535799000,8.661799072265625,0.4458311200141907,1.7666678428649902,0.6942726373672485
1769657588545787100,8.671787109375,0.4758460223674774,1.8259963989257812,0.776949942111969
1769657588555775000,8.68177490234375,0.4911622405052185,1.9000295400619507,0.8374851942062378
1769657588565763800,8.691763916015624,0.48776325583457947,1.937079668045044,0.872734785079956
1769657588575752000,8.701751953125,0.476713091135025,1.9507652521133423,0.8779653310775757
1769657588585740000,8.711739990234374,0.4563004970550537,1.93293297290802,0.8772982358932495
1769657588595728000,8.721727783203125,0.43458932638168335,1.9118447303771973,0.8718989491462708
1769657588605716000,8.731716064453124,0.4010936915874481,1.8875579833984375,0.8538751602172852
1769657588615704000,8.7417041015625,0.35473668575286865,1.8601080179214478,0.8234710097312927
1769657588625692000,8.75169189453125,0.31807374954223633,1.852611780166626,0.7887868285179138
1769657588635680000,8.761679931640625,0.3025533854961395,1.8354175090789795,0.7654333114624023
1769657588645668000,8.771668212890624,0.2861997187137604,1.8404077291488647,0.7810229063034058
1769657588655656200,8.78165625,0.26743361353874207,1.8773391246795654,0.8312339782714844
1769657588665644000,8.79164404296875,0.2483653724193573,1.9005547761917114,0.8578488230705261
1769657588675631900,8.8016318359375,0.2260986864566803,1.844794511795044,0.8498257994651794
1769657588685620000,8.811619873046874,0.18293710052967072,1.7984318733215332,0.8117966651916504
1769657588695607800,8.82160791015625,0.12685160338878632,1.732541561126709,0.7589055299758911
1769657588705596000,8.831595947265624,0.07643581926822662,1.6784032583236694,0.7165916562080383
1769657588715584000,8.841583984375,0.0768652856349945,1.7408740520477295,0.6612508893013
1769657588725571800,8.85157177734375,0.12838546931743622,1.8458659648895264,0.5838258862495422
1769657588735560000,8.861559814453125,0.191754549741745,1.9369916915893555,0.5140690207481384
1769657588745548000,8.871548095703124,0.2428520917892456,2.0909178256988525,0.46473556756973267
1769657588755536100,8.8815361328125,0.31483665108680725,2.250404119491577,0.4398614466190338
1769657588765525000,8.89152490234375,0.3914872407913208,2.343930959701538,0.4143102765083313
1769657588775512800,8.901512939453125,0.45426592230796814,2.4273781776428223,0.371709942817688
1769657588785501000,8.9115009765625,0.498963862657547,2.4581727981567383,0.3242497444152832
1769657588795489000,8.921489013671875,0.5306475162506104,2.4294369220733643,0.30468419194221497
1769657588805476900,8.931476806640624,0.5396905541419983,2.357027292251587,0.3338090479373932
1769657588815465000,8.94146484375,0.5329697728157043,2.210059404373169,0.4130652844905853
1769657588825453000,8.951453125,0.5321111679077148,2.015340566635132,0.5264099836349487
1769657588835441000,8.96144091796875,0.5254740715026855,1.8376379013061523,0.6281570792198181
1769657588845429000,8.971428955078125,0.526189386844635,1.7535288333892822,0.7147550582885742
1769657588855417000,8.9814169921875,0.5267676711082458,1.717739224433899,0.7775210738182068
1769657588865405200,8.9914052734375,0.5275066494941711,1.7213706970214844,0.8220392465591431
1769657588875393000,9.00139306640625,0.5358157753944397,1.6969481706619263,0.8603646755218506
1769657588885380900,9.011380859375,0.5628753304481506,1.6759834289550781,0.8966787457466125
1769657588895369000,9.021368896484375,0.5800709128379822,1.643104910850525,0.9243307113647461
1769657588905356800,9.031356689453125,0.5924490094184875,1.667967677116394,0.9346864223480225
1769657588915345400,9.041345458984376,0.6040977239608765,1.6902941465377808,0.9281339049339294
1769657588925333500,9.05133349609375,0.6050751209259033,1.7132519483566284,0.9014391899108887
1769657588935321600,9.061321533203126,0.6029532551765442,1.733890175819397,0.8550530672073364
1769657588945309400,9.071309326171875,0.6031242609024048,1.7462749481201172,0.7972403764724731
1769657588955297500,9.081297607421876,0.5962371826171875,1.7206157445907593,0.7346488833427429
1769657588965285600,9.09128564453125,0.5898916721343994,1.6886513233184814,0.6834725141525269
1769657588975274500,9.1012744140625,0.5888908505439758,1.6446080207824707,0.6525126099586487
1769657588985262300,9.111262451171875,0.5938552021980286,1.5972809791564941,0.6385334134101868
1769657588995250400,9.12125048828125,0.5939947366714478,1.5772733688354492,0.6385715007781982
1769657589005238500,9.131238525390625,0.5906186699867249,1.569669246673584,0.6440658569335938
1769657589015226600,9.1412265625,0.5892146229743958,1.5572319030761719,0.6577062010765076
1769657589025214500,9.15121435546875,0.5793619751930237,1.5265671014785767,0.6616684794425964
1769657589035202600,9.16120263671875,0.5622680187225342,1.496748924255371,0.6400067210197449
1769657589045190700,9.171190673828125,0.5393049120903015,1.475393295288086,0.6061129570007324
1769657589055178500,9.181178466796876,0.5104385018348694,1.4659955501556396,0.5699669718742371
1769657589065166600,9.19116650390625,0.4939340651035309,1.453480839729309,0.5403589606285095
1769657589075154400,9.201154541015624,0.4880463182926178,1.444068431854248,0.5067646503448486
1769657589085142300,9.211142333984375,0.4954368472099304,1.4427787065505981,0.47471216320991516
1769657589095130400,9.22113037109375,0.5157502889633179,1.4601361751556396,0.44587597250938416
1769657589105118500,9.231118408203125,0.5449779033660889,1.5014843940734863,0.41640570759773254
1769657589115106600,9.2411064453125,0.5655023455619812,1.5534716844558716,0.3868055045604706
1769657589125094400,9.251094482421875,0.5782452821731567,1.5841227769851685,0.3782727122306824
1769657589135082500,9.26108251953125,0.5813910365104675,1.6068421602249146,0.3902176320552826
1769657589145070600,9.271070556640625,0.5800110101699829,1.591923713684082,0.40957775712013245
1769657589155058400,9.281058349609374,0.57570880651474,1.5658257007598877,0.43392544984817505
1769657589165046500,9.291046630859375,0.5713803768157959,1.5319880247116089,0.45276331901550293
1769657589175034600,9.30103466796875,0.5643060207366943,1.497534155845642,0.46816524863243103
1769657589185023500,9.3110234375,0.5606220364570618,1.4761006832122803,0.4815196692943573
1769657589195011300,9.32101123046875,0.5602313280105591,1.4570235013961792,0.494144469499588
1769657589204999400,9.33099951171875,0.5635887980461121,1.4581226110458374,0.5032088160514832
1769657589214987500,9.340987548828124,0.5659038424491882,1.4244431257247925,0.5122672915458679
1769657589224975600,9.3509755859375,0.5685012340545654,1.4073736667633057,0.5037329196929932
1769657589234963500,9.36096337890625,0.5597463846206665,1.4437706470489502,0.49695444107055664
1769657589244951600,9.37095166015625,0.5539231300354004,1.4352895021438599,0.4812687039375305
1769657589254939600,9.380939697265624,0.5451244115829468,1.3788796663284302,0.47231796383857727
1769657589264927500,9.390927490234375,0.5297012329101562,1.3237919807434082,0.4529258906841278
1769657589274915600,9.40091552734375,0.5105384588241577,1.2559326887130737,0.43009525537490845
1769657589284903400,9.4109033203125,0.485081285238266,1.2041317224502563,0.3991381525993347
1769657589294891500,9.4208916015625,0.4689265489578247,1.1622676849365234,0.36777758598327637
1769657589304879400,9.43087939453125,0.4676058888435364,1.1454540491104126,0.3412405252456665
1769657589314867500,9.440867431640624,0.4827178418636322,1.156976580619812,0.3222543001174927
1769657589324855600,9.45085546875,0.5061065554618835,1.2084100246429443,0.3109995126724243
1769657589334843400,9.460843505859375,0.5331277251243591,1.2955470085144043,0.289580374956131
1769657589344831500,9.47083154296875,0.5637956261634827,1.4299441576004028,0.24046818912029266
1769657589354819600,9.480819580078125,0.5932906270027161,1.614385724067688,0.18707354366779327
1769657589364807400,9.490807373046875,0.5892716646194458,1.8100031614303589,0.14678683876991272
1769657589374795500,9.50079541015625,0.5464102625846863,1.96280837059021,0.10745023190975189
1769657589384784400,9.510784423828126,0.4898897409439087,1.9878071546554565,0.09288273751735687
1769657589394772500,9.5207724609375,0.4515661299228668,1.8784912824630737,0.1426670402288437
1769657589404760600,9.530760498046876,0.4226825535297394,1.7204194068908691,0.24622991681098938
1769657589414748400,9.54074853515625,0.42297816276550293,1.5438770055770874,0.34236207604408264
1769657589424736500,9.550736572265626,0.46115031838417053,1.3382502794265747,0.42404496669769287
1769657589434724600,9.560724609375,0.471371591091156,1.1728874444961548,0.5069782733917236
1769657589444712400,9.57071240234375,0.45018693804740906,1.1049572229385376,0.5757789611816406
1769657589454700500,9.580700439453125,0.3937607407569885,1.1201720237731934,0.6191965341567993
1769657589464688600,9.590688720703126,0.36331629753112793,1.1431442499160767,0.6762001514434814
1769657589474676500,9.600676513671875,0.3585403859615326,1.1197916269302368,0.6647465229034424
1769657589484664300,9.610664306640626,0.3471982479095459,0.9897806644439697,0.6246052384376526
1769657589494652400,9.62065234375,0.3428465723991394,0.9240505695343018,0.6212916970252991
1769657589504640500,9.630640625,0.3244638442993164,0.895045816898346,0.6561844348907471
1769657589514628400,9.64062841796875,0.2980828285217285,0.9174708127975464,0.6627524495124817
1769657589524616400,9.650616455078126,0.262665718793869,0.9620265364646912,0.6279619932174683
1769657589534604500,9.6606044921875,0.21827441453933716,1.0399384498596191,0.5553929209709167
1769657589544592400,9.67059228515625,0.18450100719928741,1.1090754270553589,0.4594525694847107
1769657589554580500,9.68058056640625,0.16799357533454895,1.1656959056854248,0.3477693498134613
1769657589564568600,9.690568603515626,0.1651165634393692,1.2225406169891357,0.224641814827919
1769657589574556700,9.700556640625,0.18153969943523407,1.263228178024292,0.12293088436126709
1769657589584544500,9.71054443359375,0.2100440412759781,1.2934023141860962,0.04278305172920227
1769657589594533400,9.720533447265625,0.24591036140918732,1.318954586982727,0.006395669654011726
1769657589604521500,9.730521484375,0.28095728158950806,1.3294552564620972,0.0005324541125446558
1769657589614509600,9.740509521484375,0.31044554710388184,1.362850546836853,0.007613809779286385
1769657589624497400,9.750497314453124,0.3400796055793762,1.3975661993026733,0.031498104333877563
1769657589634485500,9.760485595703125,0.370071679353714,1.4240542650222778,0.07806062698364258
1769657589644473600,9.7704736328125,0.39378872513771057,1.4584455490112305,0.13684991002082825
1769657589654461400,9.78046142578125,0.40919843316078186,1.4746915102005005,0.18995001912117004
1769657589664449500,9.790449462890624,0.42946988344192505,1.4572192430496216,0.23404183983802795
1769657589674437600,9.800437744140625,0.44260916113853455,1.4096286296844482,0.262016236782074
1769657589684425500,9.810425537109374,0.43731504678726196,1.3458884954452515,0.25687581300735474
1769657589694413300,9.820413330078125,0.39069437980651855,1.255653738975525,0.2122059017419815
1769657589704401400,9.8304013671875,0.3370495140552521,1.1730494499206543,0.14003130793571472
1769657589714389500,9.840389404296875,0.29010647535324097,1.0913817882537842,0.053750909864902496
1769657589724377300,9.85037744140625,0.2513095438480377,1.0435510873794556,-0.02360672876238823
1769657589734365400,9.860365478515625,0.2300270050764084,1.0438897609710693,-0.06441470235586166
1769657589744353500,9.870353515625,0.21003305912017822,1.0885636806488037,-0.07948446273803711
1769657589754341600,9.880341552734375,0.21098747849464417,1.1309325695037842,-0.09182603657245636
1769657589764329500,9.89032958984375,0.22570836544036865,1.1842155456542969,-0.08251828700304031
1769657589774317600,9.900317626953125,0.24320058524608612,1.2402395009994507,-0.050859253853559494
1769657589784305700,9.9103056640625,0.2649120092391968,1.2923167943954468,0.0046391598880290985
1769657589794294500,9.92029443359375,0.29195570945739746,1.3382196426391602,0.07892026007175446
1769657589804282400,9.930282470703125,0.3281581997871399,1.3685060739517212,0.17072154581546783
1769657589814270500,9.9402705078125,0.3495646119117737,1.347644567489624,0.27238380908966064
1769657589824258600,9.950258544921875,0.36341944336891174,1.299214482307434,0.36933138966560364
1769657589834246400,9.960246337890625,0.35109761357307434,1.2292420864105225,0.4404456317424774
1769657589844234500,9.970234375,0.3344765603542328,1.1514573097229004,0.4781424105167389
1769657589854222600,9.98022265625,0.3040189743041992,1.0711796283721924,0.4829341471195221
1769657589864210400,9.99021044921875,0.2786049544811249,0.9933058619499207,0.4706074297428131
1769657589874198500,10.000198486328125,0.24151696264743805,0.9222541451454163,0.44712314009666443
1769657589884186600,10.0101865234375,0.20077113807201385,0.8644329309463501,0.4145508110523224
1769657589894174500,10.020174560546875,0.16245105862617493,0.7936714291572571,0.3714504837989807
1769657589904162300,10.030162353515625,0.13358159363269806,0.7402942180633545,0.3207862377166748
1769657589914150000,10.04014990234375,0.12115853279829025,0.7122986316680908,0.2837056815624237
1769657589924137700,10.0501376953125,0.12032762914896011,0.730587363243103,0.2869619131088257
1769657589934125800,10.060125732421875,0.12719115614891052,0.6873049139976501,0.3217529356479645
1769657589944114000,10.070114013671875,0.15540096163749695,0.6418655514717102,0.36599844694137573
1769657589954101800,10.080101806640625,0.16957689821720123,0.6216267347335815,0.41411399841308594
1769657589964089900,10.09008984375,0.17542199790477753,0.6301389932632446,0.46080321073532104
1769657589974078000,10.100077880859375,0.17279912531375885,0.6378309726715088,0.5164192318916321
1769657589984065800,10.110065673828124,0.15482625365257263,0.6114949584007263,0.5636836886405945
1769657589994054000,10.120053955078125,0.12863078713417053,0.5622925758361816,0.5890002846717834
1769657590004042800,10.130042724609375,0.09764251857995987,0.5039738416671753,0.5939977169036865
1769657590014030800,10.14003076171875,0.0735720694065094,0.44080185890197754,0.5885986685752869
1769657590024018700,10.150018798828125,0.050515223294496536,0.3947374224662781,0.5923447012901306
1769657590034006800,10.1600068359375,0.0257718525826931,0.37144935131073,0.5882073640823364
1769657590043995000,10.169994873046875,0.0001743471948429942,0.35236114263534546,0.5758820176124573
1769657590053983000,10.17998291015625,-0.01805059053003788,0.3438494801521301,0.5393502712249756
1769657590063970800,10.189970703125,-0.035406678915023804,0.32557275891304016,0.4777023494243622
1769657590073959000,10.199958984375,-0.054250650107860565,0.2783375382423401,0.4146753251552582
1769657590083947000,10.209947021484375,-0.0735045075416565,0.23225845396518707,0.35433393716812134
1769657590093934800,10.219934814453126,-0.09530451893806458,0.20390690863132477,0.3011860251426697
1769657590103923000,10.2299228515625,-0.12828457355499268,0.17244859039783478,0.23870797455310822
1769657590113911000,10.2399111328125,-0.1598522663116455,0.1473114788532257,0.1816539764404297
1769657590123898600,10.249898681640625,-0.1783183515071869,0.0954008623957634,0.15361541509628296
1769657590133886700,10.25988671875,-0.1861969530582428,0.01629405841231346,0.1783582717180252
1769657590143874800,10.269874755859375,-0.18768565356731415,-0.054203011095523834,0.23461861908435822
1769657590153863000,10.27986279296875,-0.19638797640800476,-0.10308992862701416,0.27251455187797546
1769657590163850800,10.289850830078125,-0.20460809767246246,-0.11735674738883972,0.27767497301101685
1769657590173838800,10.2998388671875,-0.18792229890823364,-0.08660505712032318,0.2666744291782379
1769657590183827000,10.309826904296875,-0.1572490632534027,-0.035672903060913086,0.24372808635234833
1769657590193814800,10.319814697265626,-0.09632173925638199,0.062043897807598114,0.23949559032917023
1769657590203804000,10.329803955078125,-0.03899586945772171,0.1953665316104889,0.24866299331188202
1769657590213791700,10.339791748046874,-0.004036011174321175,0.3554668426513672,0.24170908331871033
1769657590223779800,10.34977978515625,0.011396207846701145,0.5309513211250305,0.20727600157260895
1769657590233767700,10.359767578125,0.008666309528052807,0.6388994455337524,0.15115879476070404
1769657590243755800,10.369755859375,0.001950350240804255,0.6368507146835327,0.10685736685991287
1769657590253743900,10.379743896484374,0.006185201462358236,0.5696486830711365,0.07834332436323166
1769657590263732000,10.38973193359375,0.0020138919353485107,0.47633814811706543,0.0598205141723156
1769657590273719800,10.3997197265625,0.018958531320095062,0.42895981669425964,0.06551960110664368
1769657590283708000,10.4097080078125,0.06877189129590988,0.4219474494457245,0.10829689353704453
1769657590293696000,10.419696044921874,0.14261578023433685,0.46285274624824524,0.1847347766160965
1769657590303683800,10.429683837890625,0.2314031720161438,0.5926445722579956,0.25296521186828613
1769657590313672000,10.439671875,0.3087312877178192,0.7528190612792969,0.27273470163345337
1769657590323659800,10.44965966796875,0.3545789122581482,0.8937293291091919,0.24250194430351257
1769657590333648000,10.45964794921875,0.37217962741851807,0.9719521999359131,0.17155252397060394
1769657590343635700,10.4696357421875,0.36941102147102356,0.9799030423164368,0.09922107309103012
1769657590353623800,10.479623779296874,0.3586285412311554,0.9520528316497803,0.056952860206365585
1769657590363612000,10.48961181640625,0.3386998176574707,0.8916105031967163,0.04517476633191109
1769657590373599700,10.499599853515624,0.3167867064476013,0.8138312697410583,0.07984782010316849
1769657590383587800,10.509587890625,0.3029499650001526,0.7117965221405029,0.1393958330154419
1769657590393576000,10.519575927734374,0.30280688405036926,0.6325698494911194,0.20052890479564667
1769657590403565000,10.52956494140625,0.3078022003173828,0.5681890249252319,0.24365480244159698
1769657590413552600,10.539552734375,0.3036671280860901,0.49378976225852966,0.2609016001224518
1769657590423540700,10.549540771484375,0.30926695466041565,0.43198949098587036,0.2677469849586487
1769657590433528800,10.55952880859375,0.3174629807472229,0.3929527997970581,0.26779958605766296
1769657590443517000,10.569516845703125,0.32411742210388184,0.3313373923301697,0.2755509912967682
1769657590453504800,10.5795048828125,0.32872846722602844,0.3216339945793152,0.2658246159553528
1769657590463492900,10.589492919921875,0.31787794828414917,0.3684994876384735,0.2507830858230591
1769657590473481000,10.59948095703125,0.29343363642692566,0.3993115723133087,0.2243998497724533
1769657590483468800,10.60946875,0.2602032423019409,0.4158641993999481,0.21064142882823944
1769657590493457000,10.619456787109375,0.23658914864063263,0.38409337401390076,0.2065160721540451
1769657590503445000,10.629445068359376,0.23484157025814056,0.3908862769603729,0.1887008547782898
1769657590513433000,10.63943310546875,0.2335451990365982,0.4170774221420288,0.15609078109264374
1769657590523421000,10.6494208984375,0.23388288915157318,0.407680481672287,0.1185053288936615
1769657590533408800,10.65940869140625,0.22784152626991272,0.3765661418437958,0.07844462990760803
1769657590543396900,10.66939697265625,0.21765494346618652,0.3412321209907532,0.04275800660252571
1769657590553384700,10.679384765625,0.2088954597711563,0.2903527617454529,0.024686627089977264
1769657590563372800,10.689372802734376,0.2015531212091446,0.2408248782157898,0.021629318594932556
1769657590573361000,10.69936083984375,0.197084441781044,0.18996699154376984,0.00989888422191143
1769657590583348700,10.7093486328125,0.195795476436615,0.15703541040420532,-0.010825835168361664
1769657590593336800,10.7193369140625,0.1937941312789917,0.14508646726608276,-0.04262249544262886
1769657590603325000,10.729324951171876,0.20332904160022736,0.13588711619377136,-0.0852660983800888
1769657590613313800,10.739313720703125,0.21906661987304688,0.11555641889572144,-0.1302696168422699
1769657590623301600,10.749301513671876,0.24262309074401855,0.08504937589168549,-0.1517283171415329
1769657590633289700,10.759289794921875,0.2786980867385864,0.04631023108959198,-0.1354931890964508
1769657590643277800,10.76927783203125,0.3153887391090393,0.009671526961028576,-0.09716285765171051
1769657590653266000,10.779265869140625,0.35132142901420593,0.00535389082506299,-0.07365741580724716
1769657590663253800,10.789253662109376,0.3755263686180115,0.012311398983001709,-0.07202436774969101
1769657590673241900,10.799241943359375,0.3940121829509735,0.02363593317568302,-0.08724669367074966
1769657590683230000,10.80922998046875,0.40125569701194763,0.04396757110953331,-0.11648660153150558
1769657590693217800,10.8192177734375,0.40745633840560913,0.07348793745040894,-0.14405807852745056
1769657590703206000,10.829205810546876,0.425920307636261,0.09705984592437744,-0.1308133751153946
1769657590713194000,10.839194091796875,0.45903894305229187,0.13689696788787842,-0.06978865712881088
1769657590723182000,10.84918212890625,0.5008518695831299,0.18378885090351105,0.01605088822543621
1769657590733170000,10.859169921875,0.54034423828125,0.2359878122806549,0.10867469012737274
1769657590743157800,10.86915771484375,0.589431881904602,0.2936393916606903,0.200465589761734
1769657590753145900,10.879145751953125,0.6423484086990356,0.4064517617225647,0.2535773813724518
1769657590763133700,10.8891337890625,0.6859568953514099,0.5935889482498169,0.24665474891662598
1769657590773121800,10.899121826171875,0.7100822329521179,0.8229238390922546,0.19204646348953247
1769657590783110000,10.90910986328125,0.6336079835891724,0.9400195479393005,0.12118374556303024
1769657590793098000,10.919097900390625,0.590591311454773,0.9781336188316345,-0.01155843399465084
1769657590803085800,10.9290859375,0.5117311477661133,0.9192567467689514,-0.0971526950597763
1769657590813074000,10.939073974609375,0.4416918456554413,0.7927589416503906,-0.09355851262807846
1769657590823062800,10.949062744140624,0.3811131715774536,0.6869217157363892,-0.008770388551056385
1769657590833051000,10.95905078125,0.3416683077812195,0.5501465201377869,0.14215604960918427
1769657590843038700,10.969038818359374,0.3144422769546509,0.37016794085502625,0.3342770040035248
1769657590853026800,10.97902685546875,0.2729159891605377,0.23445817828178406,0.4974308907985687
1769657590863015000,10.989014892578124,0.21697549521923065,0.17035189270973206,0.5805705785751343
1769657590873002800,10.999002685546875,0.1575835794210434,0.0802014023065567,0.5782566666603088
1769657590882990800,11.008990966796874,0.08220759779214859,0.0361362062394619,0.4930326044559479
1769657590892979000,11.01897900390625,-0.010684000328183174,0.03224493935704231,0.32520216703414917
1769657590902967000,11.028967041015624,-0.08100663125514984,0.07033346593379974,0.07968161255121231
1769657590912955100,11.038955078125,-0.11307185143232346,0.11073325574398041,-0.19371061027050018
1769657590922943200,11.048943115234374,-0.14391551911830902,0.18578220903873444,-0.45210540294647217
1769657590932931000,11.05893115234375,-0.18080709874629974,0.19560764729976654,-0.6193095445632935
1769657590942919000,11.0689189453125,-0.20218269526958466,0.15561522543430328,-0.6681950688362122
1769657590952907000,11.078906982421875,-0.20943109691143036,0.09317266941070557,-0.6300090551376343
1769657590962894800,11.088894775390624,-0.23123998939990997,0.008352585136890411,-0.5287995934486389
1769657590972883000,11.098883056640625,-0.26214393973350525,-0.05050559714436531,-0.4211021363735199
1769657590982871000,11.10887109375,-0.26448166370391846,-0.10088462382555008,-0.2652297019958496
1769657590992859100,11.118859130859375,-0.2575220763683319,-0.1662617027759552,-0.1090613380074501
1769657591002847000,11.128846923828124,-0.25604376196861267,-0.23016931116580963,0.03080734983086586
1769657591012835000,11.1388349609375,-0.23995667695999146,-0.21071931719779968,0.14668454229831696
1769657591022824000,11.148823974609375,-0.20910555124282837,-0.17915739119052887,0.2318955659866333
1769657591032812000,11.15881201171875,-0.17912675440311432,-0.11557251960039139,0.2887518107891083
1769657591042799900,11.1687998046875,-0.15029405057430267,-0.019146116450428963,0.3237321674823761
1769657591052788000,11.1787880859375,-0.1140815019607544,0.10898754000663757,0.34331363439559937
1769657591062776000,11.188776123046875,-0.085924431681633,0.2401207834482193,0.3470335304737091
1769657591072764000,11.198763916015626,-0.07552099227905273,0.3689432144165039,0.3104279637336731
1769657591082752000,11.208751953125,-0.06982555240392685,0.4746134579181671,0.244668111205101
1769657591092740000,11.218739990234376,-0.07156968116760254,0.5908991098403931,0.16089674830436707
1769657591102728200,11.228728271484375,-0.08569561690092087,0.67205411195755,0.0709570050239563
1769657591112716000,11.238716064453126,-0.10208136588335037,0.6723990440368652,-0.00752527778968215
1769657591122704100,11.2487041015625,-0.11422085762023926,0.6170756220817566,-0.05985239893198013
1769657591132692200,11.258692138671876,-0.11213155090808868,0.5441882014274597,-0.08155454695224762
1769657591142679800,11.2686796875,-0.1007864847779274,0.46976029872894287,-0.07805249094963074
1769657591152668000,11.27866796875,-0.08519130200147629,0.4148086905479431,-0.06228001043200493
1769657591162656000,11.288656005859375,-0.07931637018918991,0.3749787211418152,-0.0323021374642849
1769657591172644000,11.29864404296875,-0.07585478574037552,0.3530530333518982,0.001900465926155448
1769657591182632000,11.3086318359375,-0.06147957965731621,0.35060611367225647,0.04526844620704651
1769657591192620000,11.3186201171875,-0.0539405420422554,0.390693336725235,0.08194315433502197
1769657591202608000,11.328608154296875,-0.03922870755195618,0.4404337406158447,0.09685845673084259
1769657591212596000,11.338595947265626,-0.022225234657526016,0.46031370759010315,0.10505296289920807
1769657591222584000,11.348583984375,-0.0026304940693080425,0.46461260318756104,0.1303633749485016
1769657591232573000,11.358572998046874,0.00833955779671669,0.4619118869304657,0.18794457614421844
1769657591242561000,11.36856103515625,0.014042184688150883,0.44632333517074585,0.26879575848579407
1769657591252548900,11.378548828125,0.025207627564668655,0.41918885707855225,0.3410964012145996
1769657591262537000,11.388536865234375,0.02607049234211445,0.39014893770217896,0.38629448413848877
1769657591272525000,11.398525146484374,0.031076878309249878,0.3682474195957184,0.3967391848564148
1769657591282513200,11.40851318359375,0.03156743571162224,0.35144367814064026,0.3873118758201599
1769657591292501000,11.4185009765625,0.037993837147951126,0.34830281138420105,0.37473276257514954
1769657591302489000,11.428489013671875,0.036978110671043396,0.37397968769073486,0.3681321144104004
1769657591312477200,11.438477294921874,0.036241501569747925,0.4068893492221832,0.3739251494407654
1769657591322465000,11.448465087890625,0.033587660640478134,0.4279205799102783,0.38158202171325684
1769657591332453000,11.458453125,0.025624778121709824,0.41751182079315186,0.38619884848594666
1769657591342441000,11.46844091796875,0.017149001359939575,0.38141852617263794,0.3816288709640503
1769657591352428800,11.4784287109375,0.009646798484027386,0.3614322543144226,0.3635466992855072
1769657591362417000,11.4884169921875,0.00967076700180769,0.34338802099227905,0.344356507062912
1769657591372405000,11.498405029296874,0.014521870762109756,0.327735960483551,0.33577463030815125
1769657591382393000,11.50839306640625,0.026501037180423737,0.31204646825790405,0.3360454738140106
1769657591392381000,11.518380859375,0.03711966052651405,0.29429900646209717,0.34225520491600037
1769657591402369000,11.528369140625,0.04749773070216179,0.2649019658565521,0.34095558524131775
1769657591412357000,11.538357177734374,0.04747745767235756,0.2232455462217331,0.32360559701919556
1769657591422345000,11.548344970703125,0.03395498916506767,0.1894891858100891,0.29337793588638306
1769657591432333800,11.558333740234374,0.011801580898463726,0.16164588928222656,0.2720900774002075
1769657591442322000,11.568322021484375,-0.013458235189318657,0.17977136373519897,0.26004111766815186
1769657591452310000,11.57831005859375,-0.03842721879482269,0.2016141414642334,0.24557055532932281
1769657591462297900,11.5882978515625,-0.06466761231422424,0.2308434098958969,0.2183101773262024
1769657591472286000,11.598285888671874,-0.08290630578994751,0.22517308592796326,0.18515656888484955
1769657591482274000,11.608274169921875,-0.09220952540636063,0.15346801280975342,0.15454992651939392
1769657591492262100,11.61826220703125,-0.08858868479728699,0.07648904621601105,0.13636671006679535
1769657591502250000,11.62825,-0.10671255737543106,0.0022347953636199236,0.08714562654495239
1769657591512238000,11.638238037109375,-0.15067340433597565,-0.05670645460486412,-0.00663456367328763
1769657591522226200,11.64822607421875,-0.18509529531002045,-0.13487608730793,-0.09489039331674576
1769657591532214000,11.658214111328125,-0.2411232590675354,-0.20357178151607513,-0.13998115062713623
1769657591542202000,11.6682021484375,-0.3270091116428375,-0.22012172639369965,-0.16423270106315613
1769657591552190000,11.67818994140625,-0.3925132155418396,-0.1578342616558075,-0.1844332069158554
1769657591562178000,11.688177978515625,-0.40513527393341064,-0.025638405233621597,-0.17299146950244904
1769657591572166000,11.698165771484375,-0.3510908782482147,0.12286093831062317,-0.14740972220897675
1769657591582154000,11.708154052734375,-0.21087568998336792,0.32237109541893005,-0.11421182751655579
1769657591592142000,11.71814208984375,-0.08299516886472702,0.5572183728218079,-0.06546688079833984
1769657591602130000,11.7281298828125,0.06678766757249832,0.8342869877815247,0.005747906863689423
1769657591612118000,11.738117919921875,0.1917923390865326,1.0131562948226929,0.1003241091966629
1769657591622106000,11.748106201171876,0.26903173327445984,1.0974258184432983,0.1859934777021408
1769657591632095000,11.758094970703125,0.31769877672195435,1.0933704376220703,0.25472211837768555
1769657591642082800,11.768082763671876,0.34694933891296387,1.0188539028167725,0.30971187353134155
1769657591652071000,11.77807080078125,0.35218483209609985,1.0095256567001343,0.3300078213214874
1769657591662059000,11.78805908203125,0.3508002460002899,1.0239511728286743,0.28494685888290405
1769657591672047000,11.798047119140625,0.3370284140110016,0.9808544516563416,0.1985921561717987
1769657591682035000,11.808034912109376,0.328110009431839,1.0216708183288574,0.12260524183511734
1769657591692023000,11.81802294921875,0.32771480083465576,1.0677392482757568,0.08307350426912308
1769657591702011100,11.82801123046875,0.31680169701576233,1.0646034479141235,0.0827304944396019
1769657591711999000,11.8379990234375,0.30856093764305115,1.037211537361145,0.11939796805381775
1769657591721987000,11.847987060546876,0.30167269706726074,0.912364661693573,0.1732846349477768
1769657591731975200,11.85797509765625,0.27973219752311707,0.6983357071876526,0.2343841791152954
1769657591741963000,11.867962890625,0.24700646102428436,0.5374983549118042,0.28629958629608154
1769657591751951000,11.877951171875,0.19597169756889343,0.3952387273311615,0.31280818581581116
1769657591761939000,11.88793896484375,0.14589761197566986,0.2990610599517822,0.3042466640472412
1769657591771927000,11.897927001953125,0.11452331393957138,0.20880861580371857,0.28373661637306213
1769657591781915000,11.907914794921876,0.09068162739276886,0.106438048183918,0.2788582146167755
1769657591791903000,11.917903076171875,0.07154201716184616,0.08115493506193161,0.27900323271751404
1769657591801891000,11.92789111328125,0.06715019792318344,0.12998373806476593,0.29990214109420776
1769657591811879000,11.93787890625,0.08068019896745682,0.18302172422409058,0.32442963123321533
1769657591821867000,11.947866943359376,0.10564174503087997,0.23456721007823944,0.32504910230636597
1769657591831855000,11.957855224609375,0.13702964782714844,0.28436923027038574,0.301838755607605
1769657591841844000,11.967843994140624,0.16154378652572632,0.344568133354187,0.2773344814777374
1769657591851831800,11.977831787109375,0.17746394872665405,0.40108582377433777,0.2585434913635254
1769657591861820000,11.98781982421875,0.1891019642353058,0.41835564374923706,0.24613238871097565
1769657591871808000,11.99780810546875,0.20141686499118805,0.41335633397102356,0.24176253378391266
1769657591881796000,12.007796142578124,0.2090982347726822,0.4011598527431488,0.24534234404563904
1769657591891784000,12.017783935546875,0.2140539586544037,0.37108615040779114,0.25394880771636963
1769657591901772000,12.02777197265625,0.2180178165435791,0.3322087824344635,0.25575363636016846
1769657591911760100,12.037760009765625,0.22882355749607086,0.26976311206817627,0.24696451425552368
1769657591921748200,12.047748291015624,0.23282122611999512,0.215093731880188,0.22526614367961884
1769657591931736000,12.057736083984375,0.22888799011707306,0.1646895557641983,0.18944327533245087
1769657591941724200,12.06772412109375,0.22295020520687103,0.12118416279554367,0.1483517587184906
1769657591951712300,12.077712158203125,0.22827991843223572,0.06607277691364288,0.09850700199604034
1769657591961700000,12.0877001953125,0.2539197504520416,-0.0077567026019096375,0.04966489225625992
1769657591971688000,12.09768798828125,0.2924090027809143,-0.08649814128875732,0.019321994855999947
1769657591981676000,12.107676025390624,0.34083086252212524,-0.0934189036488533,0.012653173878788948
1769657591991664000,12.1176640625,0.3954612910747528,-0.10627397894859314,0.0322512723505497
1769657592001652000,12.12765185546875,0.442594438791275,-0.09175921976566315,0.0743129700422287
1769657592011640000,12.13764013671875,0.4814918339252472,0.011559443548321724,0.10542519390583038
1769657592021628200,12.147628173828124,0.5123184323310852,0.09742215275764465,0.15460126101970673
1769657592031616300,12.1576162109375,0.5323103666305542,0.13112413883209229,0.20630966126918793
1769657592041604000,12.16760400390625,0.5530313849449158,0.168782040476799,0.23832964897155762
1769657592051593000,12.177593017578126,0.5700570344924927,0.22425468266010284,0.2466486394405365
1769657592061581000,12.1875810546875,0.5929583311080933,0.2688674330711365,0.24054813385009766
1769657592071569200,12.197569091796876,0.6058177947998047,0.333595871925354,0.23365557193756104
1769657592081557000,12.207556884765625,0.5979228615760803,0.4388085603713989,0.2190271019935608
1769657592091545000,12.217545166015626,0.5987365245819092,0.5646206736564636,0.19483649730682373
1769657592101533200,12.227533203125,0.597713053226471,0.7152515053749084,0.16832232475280762
1769657592111521000,12.23752099609375,0.6063629388809204,0.8397363424301147,0.11736651510000229
1769657592121509000,12.247509033203125,0.573371171951294,0.928422212600708,0.06289475411176682
1769657592131497200,12.257497314453126,0.515831708908081,0.966097354888916,0.03971857577562332
1769657592141485300,12.2674853515625,0.4251475930213928,0.8824338912963867,0.04898744076490402
1769657592151473200,12.27747314453125,0.3471534848213196,0.6806619763374329,0.10809619724750519
1769657592161461000,12.2874609375,0.3091874420642853,0.38623830676078796,0.23257127404212952
