time,seconds_elapsed,acc_z,acc_y,acc_x,gyro_z,gyro_y,gyro_x
1.76966E+18,0.072081299,0.03931202,-0.048244683,-0.078930621,-0.007639801,0.007372519,0.013491895
1.76966E+18,0.082069092,0.395520244,-0.187559046,-0.031083413,-0.000496138,-0.001521907,-0.015969856
1.76966E+18,0.092056885,0.316876038,-0.260885563,0.061244742,0.006787559,0.005982056,-0.041591659
1.76966E+18,0.102045166,0.308960735,-0.21322774,0.025320611,0.011251548,-0.014120814,-0.074546941
1.76966E+18,0.11203418,0.346322498,-0.18687574,-0.051709729,0.007602063,-0.017540192,-0.08401598
1.76966E+18,0.122022217,0.072037939,-0.121340315,-0.039306467,0.004244616,0.005684969,-0.072836824
1.76966E+18,0.13201001,-0.165400113,-0.080251933,-0.021737785,-0.000270513,0.029800573,-0.054967433
1.76966E+18,0.141998291,-0.164766492,-0.036653614,-0.069978961,-0.007311644,0.031409655,-0.046634138
1.76966E+18,0.151986328,-0.129028239,0.033468554,-0.096042499,-0.012695224,0.018745258,-0.037851296
1.76966E+18,0.161974121,-0.141779876,0.047364393,-0.050416767,-0.015888887,0.022134131,-0.033563077
1.76966E+18,0.171961914,-0.119644617,0.061013564,-0.005069266,-0.017216895,0.00566207,-0.033774965
1.76966E+18,0.181950195,-0.074564827,0.07702128,0.019003683,-0.007785309,-0.015885832,-0.040810239
1.76966E+18,0.191937988,-0.038311318,0.058974167,0.057727674,0.000234539,-0.021744138,-0.039246541
1.76966E+18,0.201926025,-0.093925361,0.020547698,0.053349021,0.004427419,-0.017102247,-0.029814154
1.76966E+18,0.211914063,-0.158128953,-0.026402269,0.037255672,0.003997504,-0.006473227,-0.017133221
1.76966E+18,0.2219021,-0.139814421,-0.066266662,0.047245151,0.027499901,0.006186907,-0.012207438
1.76966E+18,0.231890137,-0.083814302,-0.042094344,0.027993046,0.012274613,0.018097214,-0.007846621
1.76966E+18,0.241878174,-0.050422027,-0.101494627,-0.060948974,0.022487834,0.00467941,-0.013864566
1.76966E+18,0.251866211,-0.002753975,-0.035706104,0.030139118,0.030855129,0.001226742,-0.004829321
1.76966E+18,0.261854004,-0.03790566,-0.025257191,-0.046540802,0.018939879,0.007239627,0.003178005
1.76966E+18,0.271842285,-0.048898763,-0.023581367,0.024962592,0.004829862,-0.007528546,0.005272634
1.76966E+18,0.281830322,0.041064416,-0.011482348,0.160835874,0.001231665,-0.02467531,-0.003502215
1.76966E+18,0.291818115,0.104762689,-0.038681905,0.168701785,0.002243095,-0.030133359,-0.012880977
1.76966E+18,0.301805908,0.139556062,-0.053867784,0.041187166,0.001182091,-0.034079365,-0.029529199
1.76966E+18,0.311793945,0.092000531,-0.050000587,-0.04613602,-0.000605,-0.033388663,-0.037381895
1.76966E+18,0.321783203,0.025510873,-0.007796353,-0.04127952,-0.007450922,-0.034962859,-0.033839092
1.76966E+18,0.33177124,-0.057737319,0.040983168,-0.020850773,-0.011090481,-0.029734733,-0.027357463
1.76966E+18,0.341759033,-0.087661917,0.05047405,-0.022950083,-0.010586078,-0.015218107,-0.016427316
1.76966E+18,0.351747314,-0.032277883,-0.011918986,-0.046613867,-0.015372118,-0.002290011,-0.010265487
1.76966E+18,0.361735352,0.059401453,-0.108490185,-0.055628364,-0.014374765,-0.024405167,-0.022890203
1.76966E+18,0.371723145,0.195023975,-0.087672438,-0.055374097,-0.013909858,-0.041128144,-0.038879264
1.76966E+18,0.381710938,0.223087748,-0.08729776,-0.093573479,-0.013013704,-0.036967222,-0.0354334
1.76966E+18,0.391698975,0.063088032,-0.045724225,-0.104880763,-0.012935824,-0.022190167,-0.027658574
1.76966E+18,0.401687256,-0.046119362,-0.03469605,-0.138756144,-0.019774556,-0.017704871,-0.01189346
1.76966E+18,0.411675049,-0.061579673,-0.026661797,-0.120126555,-0.020646492,-0.012781559,-0.007162332
1.76966E+18,0.421663086,-0.033225101,-0.032065702,-0.069121759,-0.01722513,-0.01403431,-0.012361354
1.76966E+18,0.431651123,0.030946635,-0.075528996,-0.074443831,-0.012862892,-0.017902378,-0.018096404
1.76966E+18,0.44163916,0.019858839,-0.031090135,-0.076601301,-0.007610339,-0.016592901,-0.015676655
1.76966E+18,0.451627197,-0.062310326,0.006464228,-0.072700202,-0.007901816,-0.014459641,-0.004925021
1.76966E+18,0.461615234,-0.131980951,0.018353987,-0.051911097,0.001871719,-0.016522789,-5.64966E-05
1.76966E+18,0.471603271,-0.137259476,0.039045478,-0.039443829,-0.003093192,-0.009504637,-0.000709634
1.76966E+18,0.481591064,-0.113690969,-0.04332184,-0.010279402,0.002663231,-0.016652826,-0.007311611
1.76966E+18,0.491579102,-0.078028704,-0.056868719,-0.003197627,0.02687946,-0.003660858,0.002972131
1.76966E+18,0.501567139,-0.127188456,-0.021351416,-0.041985331,0.014699494,0.017400751,0.02622206
1.76966E+18,0.511554932,-0.111230132,-0.005792612,-0.167775026,-0.001321929,0.030595792,0.038559586
1.76966E+18,0.521543945,-0.045485448,-0.021233342,-0.005063421,-0.009573733,0.015475162,0.032985855
1.76966E+18,0.531532227,0.100613753,-0.056229837,0.076309625,-0.011076478,-0.003150115,0.011881186
1.76966E+18,0.541520264,0.202675366,-0.093815763,0.000890519,-0.013274917,-0.018361026,-0.008882683
1.76966E+18,0.551508057,0.200861595,-0.064975453,-0.025876784,-0.011189288,-0.025090139,-0.0167355
1.76966E+18,0.561496094,0.078170158,-0.030733576,-0.038857554,-0.012820475,-0.016680943,-0.016549345
1.76966E+18,0.571484375,-0.055444239,-0.021885084,-0.111647188,-0.013668597,-0.003606945,-0.007724247
1.76966E+18,0.581471924,-0.117329325,-0.023977088,-0.104045189,-0.014665417,0.005262713,0.001027167
1.76966E+18,0.591459961,-0.095823596,-0.003389642,-0.078892919,-0.013090171,0.002375073,0.002016754
1.76966E+18,0.601447998,-0.011774024,-0.012142858,-0.076224577,-0.014313627,-0.001169328,0.001449235
1.76966E+18,0.611436279,0.031013562,-0.000842296,-0.062564885,-0.013513896,0.002989658,0.002838626
1.76966E+18,0.621424072,0.016741584,-0.033470308,-0.058149699,-0.014581823,0.006008351,0.005662908
1.76966E+18,0.631412109,-0.000338146,-0.052764791,-0.036233051,-0.012267821,0.006963916,0.004484687
1.76966E+18,0.641400146,0.035801089,-0.086654201,-0.035213937,-0.010007064,0.004006209,0.002169335
1.76966E+18,0.651387939,0.054711833,-0.110353057,-0.054987728,-0.009566161,-0.005616566,-0.006218548
1.76966E+18,0.661376221,0.057407941,-0.090423198,-0.031492286,-0.006102453,-0.003986445,-0.004231297
1.76966E+18,0.671364258,0.027628888,-0.012721534,-0.045873278,-0.010025938,-0.001731788,-0.005680313
1.76966E+18,0.681352295,0.008678396,0.030977322,-0.090984632,-0.01148242,-0.004272443,-0.004900008
1.76966E+18,0.691340088,-0.023512393,0.015503274,-0.081758246,-0.010410899,0.00598121,-0.000220802
1.76966E+18,0.701327881,-0.051666767,-0.036188919,-0.067070672,-0.010479343,0.009449445,0.00127909
1.76966E+18,0.711316162,-0.020152561,-0.086056235,-0.086324823,-0.010399923,0.00188205,0.000477365
1.76966E+18,0.721303955,0.023220132,-0.048393152,-0.059781392,-0.009742122,-0.006796925,-0.009197899
1.76966E+18,0.731291992,0.045953357,-0.040321489,-0.036115854,-0.01024253,-0.013781331,-0.014333006
1.76966E+18,0.741280029,0.010094401,-0.018575521,-0.021787469,0.000404521,-0.012169586,-0.016277114
1.76966E+18,0.751269287,0.006279226,0.001628478,-0.029399697,-0.009583355,0.004873334,-0.006313099
1.76966E+18,0.76125708,-0.018374153,-0.031356092,-0.054350891,-0.007912754,0.006718373,-0.003236615
1.76966E+18,0.771245117,-0.004409633,-0.084800098,-0.041252048,-0.010344979,0.006870875,-0.004466821
1.76966E+18,0.78123291,0.0379419,-0.107836105,-0.059304714,-0.01102302,0.000787149,-0.009568639
1.76966E+18,0.791221191,0.037162148,-0.087075057,-0.026898821,-0.011179203,-0.008030937,-0.014408816
1.76966E+18,0.801208984,0.048151744,-0.034790743,0.025649405,-0.009267053,-0.00904134,-0.015710302
1.76966E+18,0.811197021,0.036325697,-0.014985388,0.034473932,-0.008977907,-0.008115578,-0.016956853
1.76966E+18,0.821185059,0.012492986,-0.02572247,-0.006959025,-0.007050045,-0.005151747,-0.020348655
1.76966E+18,0.831173096,-0.009162965,-0.028479076,-0.02706161,-0.006550391,0.002261983,-0.024873305
1.76966E+18,0.841161133,-0.051496671,-0.050399231,-0.059121174,-0.007684364,0.004320074,-0.02061997
1.76966E+18,0.85114917,-0.081285952,-0.039300329,-0.061072016,-0.006915333,0.002131599,-0.013784723
1.76966E+18,0.861137207,-0.016176059,-0.047503509,-0.057093176,0.000169474,0.000283632,-0.016652415
1.76966E+18,0.871125,0.022116555,-0.056845338,-0.028901977,0.001023256,-0.008366935,-0.016841998
1.76966E+18,0.881113281,0.01316431,-0.04427578,-0.022056641,0.001992114,-0.007326703,-0.009668241
1.76966E+18,0.891101318,-0.010287585,-0.020708442,-0.029556642,0.004572256,5.3135E-05,-0.003873276
1.76966E+18,0.901089111,0.048307519,-0.060852236,-0.032774727,-0.001848891,0.000451011,-0.005370506
1.76966E+18,0.911076904,0.087980481,-0.124835755,-0.017820027,-0.000981697,-0.007248725,-0.027101234
1.76966E+18,0.921065186,0.153906075,-0.121886258,0.029828737,-0.004780164,-0.015395336,-0.041504938
1.76966E+18,0.931052979,0.101292967,-0.123083943,-0.010324995,-0.004397046,-0.014465374,-0.048413381
1.76966E+18,0.941041016,0.004080547,-0.120003513,-0.045093233,-0.004499577,-0.008753959,-0.049647488
1.76966E+18,0.951029053,-0.043905777,-0.061529112,-0.041311377,-0.003626701,-0.008828266,-0.051134806
1.76966E+18,0.961017334,-0.065430504,-0.02858955,-0.012242226,-0.004447221,-0.000145562,-0.047063634
1.76966E+18,0.971006348,-0.058596274,0.009377485,-0.011116437,-0.002313009,0.007409424,-0.037586201
1.76966E+18,0.980994141,-0.054311728,0.000765139,0.021634032,-0.002051753,0.016092926,-0.045512035
1.76966E+18,0.990981934,0.044416065,0.000527239,0.031884208,-0.001465123,-0.01786183,-0.054990102
1.76966E+18,1.000970215,0.14388094,-0.007191957,-0.02003478,-0.000236607,-0.02599459,-0.054128569
1.76966E+18,1.010958008,0.029850072,-0.042747839,0.005815993,0.0045409,-0.020481175,-0.044275161
1.76966E+18,1.020946045,-0.100785602,-0.09611761,-0.060949851,0.005884465,-0.008139819,-0.038455352
1.76966E+18,1.03093335,-0.13637451,-0.138154671,-0.07674071,0.008914307,-0.00031258,-0.033647027
1.76966E+18,1.040921387,-0.074131112,-0.119825818,-0.04753975,0.007078324,-0.010919152,-0.036720581
1.76966E+18,1.050909668,0.006842998,-0.059005731,0.00597469,0.007288154,-0.026604721,-0.048966032
1.76966E+18,1.060897461,0.072840195,-0.024777883,0.046873103,0.005957106,-0.025810033,-0.051044893
1.76966E+18,1.070885498,0.024393268,-0.008599486,0.054834291,0.000585004,-0.022482065,-0.043381948
1.76966E+18,1.080873535,-0.018201135,-0.03264847,-0.002373451,-0.001470157,-0.01417247,-0.033518132
1.76966E+18,1.090861328,0.00200754,-0.032490065,-0.014266718,-0.000533745,-0.013526518,-0.036948055
1.76966E+18,1.100849609,0.033260172,-0.061869888,-0.032169162,0.000168265,-0.015514035,-0.045930631
1.76966E+18,1.110837646,0.067202774,-0.091148005,-0.042507016,0.001603589,-0.016761553,-0.062070604
1.76966E+18,1.120825684,0.084779055,-0.080727149,-0.055621057,0.000255497,-0.019579176,-0.067246988
1.76966E+18,1.130813232,0.066224284,-0.035831192,-0.018442542,-0.007143602,-0.028235683,-0.063859358
1.76966E+18,1.140801514,0.041049219,-0.017067455,-0.037212125,-0.008209399,-0.024369039,-0.063070796
1.76966E+18,1.150789551,0.003443126,-0.026898528,-0.010273849,-0.007644196,-0.024336893,-0.061641499
1.76966E+18,1.160777344,-0.02718962,-0.034095162,0.025135318,-0.006806632,-0.027200324,-0.063321687
1.76966E+18,1.170765381,0.008485212,-0.06936872,-0.006511574,-0.007881602,-0.031452682,-0.066954657
1.76966E+18,1.180753418,0.010695582,-0.112073889,0.020279987,-0.004152644,-0.034913994,-0.066280872
1.76966E+18,1.190742676,-0.050596215,-0.09090426,0.060745853,-0.003242222,-0.028820006,-0.061046269
1.76966E+18,1.200730469,-0.078292323,-0.085132691,0.052649056,-0.006128023,-0.025509698,-0.052555043
1.76966E+18,1.210718506,-0.067992755,-0.032906244,0.026966333,-0.005670411,-0.035214867,-0.055495732
1.76966E+18,1.220706543,0.011999065,0.010029811,0.025283494,-0.008199614,-0.047875267,-0.069371603
1.76966E+18,1.23069458,0.060842883,-0.049252399,-0.00456307,-0.005390591,-0.055912226,-0.080134846
1.76966E+18,1.240682373,0.026406653,-0.061682841,-0.015497429,-0.003232897,-0.056471758,-0.087639101
1.76966E+18,1.25067041,-0.009818799,-0.072961191,-0.022254794,-0.003044089,-0.057066623,-0.093714431
1.76966E+18,1.260658447,-0.018791794,-0.108429395,-0.012765958,-6.66749E-05,-0.053028204,-0.092424393
1.76966E+18,1.270646484,-0.024987726,-0.054620063,-0.000583061,-0.003699372,-0.054819144,-0.084451996
1.76966E+18,1.280634521,-0.024551965,0.016890929,0.033185061,-0.002690034,-0.064337812,-0.088928506
1.76966E+18,1.290622559,-0.007921733,0.006358429,0.068827453,-0.010259613,-0.057705812,-0.092507876
1.76966E+18,1.300610352,-0.043368894,-0.064113283,0.011505437,-0.009306202,-0.039495919,-0.088754416
1.76966E+18,1.310598633,-0.094019177,-0.082412326,-0.022451486,-0.009156416,-0.030575952,-0.08203581
1.76966E+18,1.32058667,-0.042416123,-0.124128484,-0.092310035,-0.008522317,-0.031697411,-0.086261444
1.76966E+18,1.330574463,0.0201511,-0.111765846,-0.121018243,-0.008287048,-0.036872607,-0.098761953
1.76966E+18,1.340562256,0.048502457,-0.102265027,-0.082564301,-0.007314462,-0.032150555,-0.12555629
1.76966E+18,1.350550293,0.029418694,-0.122109545,-0.071177231,-0.005706967,-0.00501324,-0.164623752
1.76966E+18,1.360538574,0.009868775,-0.169129071,-0.099938338,0.00162365,0.037144333,-0.210954234
1.76966E+18,1.370526367,-0.023982056,-0.236923089,-0.168654731,0.00394177,0.087399252,-0.247770637
1.76966E+18,1.380514404,-0.082730598,-0.492281997,-0.207522806,0.00758098,0.132041544,-0.294354379
1.76966E+18,1.390502441,-0.082994802,-0.604404402,-0.255631004,0.013431866,0.171421796,-0.350919366
1.76966E+18,1.400490723,-0.0988786,-0.487731494,-0.182859198,-0.003134861,0.190855145,-0.424302757
1.76966E+18,1.410478516,-0.025865386,-0.363774275,-0.186474758,-0.016543947,0.213031456,-0.507051468
1.76966E+18,1.420467285,-0.025322657,-0.243169289,-0.114198626,-0.027916711,0.257653505,-0.584739625
1.76966E+18,1.430455322,-0.12243454,-0.085131522,-0.026414544,-0.046778347,0.322052658,-0.647835255
1.76966E+18,1.440443604,-0.307994228,0.106021749,0.032310032,-0.074646994,0.385261178,-0.703496397
1.76966E+18,1.450431396,-0.433559467,-0.027090251,-0.012586802,-0.132927507,0.410120845,-0.700434983
1.76966E+18,1.460419434,-0.410875634,-0.206788647,-0.038142099,-0.158635795,0.358756721,-0.537939847
1.76966E+18,1.470407471,-0.466279395,-0.168567345,0.045784138,-0.096178554,0.288218647,-0.439310193
1.76966E+18,1.480395508,0.01500643,0.044998833,-0.034316403,-0.054462001,0.225819737,-0.398664504
1.76966E+18,1.490383545,0.310419848,0.021185411,-0.333566184,-0.058924168,0.1924337,-0.39489612
1.76966E+18,1.500371582,0.413068175,-0.022523382,-0.439122654,-0.065665431,0.171876222,-0.411145121
1.76966E+18,1.510359619,0.30712066,-0.046664136,-0.221940916,-0.066155411,0.140696317,-0.430603802
1.76966E+18,1.520347412,0.118137427,-0.132573072,-0.045692076,-0.065717317,0.090867244,-0.452598035
1.76966E+18,1.530335693,0.014408026,-0.205374689,-0.02790829,-0.052038942,0.051592249,-0.495317042
1.76966E+18,1.540323486,-0.008193097,-0.173463301,-0.002454115,-0.038221929,0.050397288,-0.549693406
1.76966E+18,1.550311279,-0.125610685,-0.083267481,0.024727322,-0.016395235,0.104130164,-0.600644469
1.76966E+18,1.560299316,-0.266704333,0.119303256,0.108581955,0.016840747,0.200639129,-0.606578767
1.76966E+18,1.570287598,-0.50681175,0.340364758,0.110873281,0.036372643,0.292561829,-0.571478248
1.76966E+18,1.580275391,-0.636039895,0.394352954,-0.029697804,0.03734443,0.340457171,-0.509422362
1.76966E+18,1.590263428,-0.606832067,0.16782734,-0.048857847,0.024043081,0.337767452,-0.457446724
1.76966E+18,1.600251465,-0.442061046,0.027715105,0.066968088,0.013676195,0.276064396,-0.411201715
1.76966E+18,1.610239502,-0.206439541,-0.029340076,0.15456863,0.007119224,0.153245971,-0.349355012
1.76966E+18,1.620227539,0.063154521,-0.011250293,0.24356618,0.008584228,0.048428737,-0.279064089
1.76966E+18,1.630215576,0.24376974,0.087683544,0.340089741,0.00977036,-0.005109605,-0.239796638
1.76966E+18,1.640203613,0.418074167,0.097827922,0.36662382,0.026124565,-0.042267628,-0.180448085
1.76966E+18,1.650192627,0.486769371,0.103338794,0.431129025,0.043041844,-0.128411382,-0.089128315
1.76966E+18,1.66018042,0.483424883,0.136693367,0.337911228,0.060063437,-0.248419821,0.012658763
1.76966E+18,1.670168457,0.498604917,0.14500293,0.281216111,0.075124487,-0.350791514,0.122919731
1.76966E+18,1.680156494,0.433859181,0.206230429,0.310856047,0.101730801,-0.466292024,0.210177407
1.76966E+18,1.690144287,0.493863714,0.191951728,0.322463775,0.082447231,-0.668728113,0.188021332
1.76966E+18,1.700132568,0.91369773,-0.009779636,0.012904197,0.03934237,-0.787630558,0.103343204
1.76966E+18,1.710120605,0.82290979,-0.136108845,-0.008344927,0.040272344,-0.783354402,0.033008959
1.76966E+18,1.720108643,0.251719822,0.013771336,0.140780636,0.031498559,-0.70636481,-0.02404128
1.76966E+18,1.730096436,-0.414627241,-0.041422728,-0.040851943,0.029118268,-0.502263546,-0.051489878
1.76966E+18,1.740084717,-1.038574986,-0.240852829,-0.037655192,0.018224075,-0.265371442,-0.098417707
1.76966E+18,1.75007251,-1.120725593,-0.267561388,0.020216274,0.000613615,-0.104223564,-0.188026488
1.76966E+18,1.760060303,-0.764210348,-0.294679112,0.006443477,-0.012563705,-0.003730508,-0.289383471
1.76966E+18,1.77004834,-0.354853302,-0.266250305,0.053290861,-0.030736716,0.052681167,-0.347183436
1.76966E+18,1.780036377,-0.11269772,-0.167730894,-0.003074293,-0.032982826,0.058877278,-0.357017696
1.76966E+18,1.790024658,0.020829438,0.051198857,0.060989598,-0.036797665,0.033426415,-0.3274858
1.76966E+18,1.800012451,0.117198392,0.169145437,0.021784546,-0.050254084,-0.025723191,-0.276872426
1.76966E+18,1.810000488,0.175440007,0.119589671,-0.023519992,-0.058722015,-0.123109832,-0.229388118
1.76966E+18,1.819988525,0.315643136,0.06703297,0.031814942,-0.073707618,-0.244450644,-0.193226114
1.76966E+18,1.829976563,0.456664887,-0.048828036,-0.067114511,-0.075791903,-0.311171114,-0.172234461
1.76966E+18,1.8399646,0.484425439,-0.088913378,-0.113118722,-0.06794437,-0.291494876,-0.148112074
1.76966E+18,1.849952637,0.397941333,-0.087649642,-0.1584142,-0.054990329,-0.259498209,-0.116850875
1.76966E+18,1.85994043,0.174856216,-0.031978608,-0.201211724,-0.0481508,-0.219090328,-0.085539028
1.76966E+18,1.869928223,-0.010508388,0.041690439,-0.196707106,-0.045793068,-0.201511934,-0.059325941
1.76966E+18,1.87991748,-0.139905899,-0.046169631,-0.222614577,-0.045439668,-0.185698614,-0.052386809
1.76966E+18,1.889905518,-0.184027365,-0.131419226,-0.242877613,-0.032228477,-0.166208133,-0.064046167
1.76966E+18,1.899893555,-0.198235192,-0.200482825,-0.262376679,-0.021891953,-0.138501406,-0.080841392
1.76966E+18,1.909881592,-0.252744781,-0.200615511,-0.285564078,-0.018946087,-0.091789767,-0.103986971
1.76966E+18,1.919869629,-0.264611306,-0.166915486,-0.187133514,-0.020828942,-0.046536267,-0.130175695
1.76966E+18,1.929857666,-0.214643306,-0.182424606,-0.057139353,-0.021247279,-0.029745966,-0.157858491
1.76966E+18,1.939845459,-0.110333914,-0.218595405,-0.008662614,-0.012714777,-0.029907089,-0.174684078
1.76966E+18,1.949833252,-0.049532969,-0.187958274,-0.027648178,-0.001175076,-0.027610399,-0.180304751
1.76966E+18,1.959821533,-0.087335754,-0.191962834,-0.049913785,0.011848846,-0.027830908,-0.166392401
1.76966E+18,1.96980957,-0.123307377,-0.188449857,-0.038698272,0.020799663,-0.035079867,-0.150358066
1.76966E+18,1.979797363,-0.105125677,-0.059787237,0.01059329,0.0266208,-0.050879605,-0.14340429
1.76966E+18,1.9897854,-0.025506636,0.165498021,0.110264502,0.008209443,-0.079060428,-0.143451363
1.76966E+18,1.999773682,0.038082916,0.15988135,0.160780052,-0.000301754,-0.104932502,-0.154516533
1.76966E+18,2.009761475,0.107515787,0.039721185,0.241171394,0.002315117,-0.127472177,-0.167733952
1.76966E+18,2.019749512,0.161107238,-0.00076397,0.181076114,0.004043242,-0.140701696,-0.176339433
1.76966E+18,2.029737305,0.116394821,0.01884557,0.074605159,0.004937941,-0.133318037,-0.172741264
1.76966E+18,2.039725342,-0.008851415,0.023075755,0.020662557,0.00825917,-0.114816256,-0.163078249
1.76966E+18,2.049713623,-0.1032989,0.00185878,-0.028556525,0.006199936,-0.099926859,-0.166707963
1.76966E+18,2.05970166,-0.073390669,0.045772156,-0.02288637,-0.007020262,-0.085444853,-0.185214266
1.76966E+18,2.069689453,-0.049408466,-0.026417467,0.045194063,-0.013562273,-0.077276804,-0.198813736
1.76966E+18,2.079677246,-0.060391048,-0.15701427,0.121137193,-0.01081682,-0.085857242,-0.208666354
1.76966E+18,2.089665527,0.019554449,-0.17872049,0.081003043,0.001494666,-0.117817067,-0.204229876
1.76966E+18,2.09965332,0.053027241,-0.220824771,-0.001894143,0.005543469,-0.126119733,-0.196633473
1.76966E+18,2.109642334,0.089285719,-0.153913966,-0.053687751,0.015282847,-0.124117933,-0.179427624
1.76966E+18,2.119630371,0.058627399,-0.076979779,-0.041482057,0.027714748,-0.120228924,-0.158121809
1.76966E+18,2.129618652,0.06696575,-0.011336218,-0.092257428,0.032828059,-0.125315934,-0.134432286
1.76966E+18,2.139606445,0.051490679,0.003957798,-0.153839732,0.030551055,-0.120170966,-0.122510642
1.76966E+18,2.149594482,0.048409665,0.131079034,-0.187869719,0.01817861,-0.118137538,-0.122188359
1.76966E+18,2.159582275,0.045299277,0.142931969,-0.148135383,0.005970413,-0.114356115,-0.134183228
1.76966E+18,2.169570313,0.035834699,0.076278938,-0.100251934,0.006510806,-0.103970416,-0.146942809
1.76966E+18,2.17955835,0.003284428,-0.046922495,-0.077996847,0.009729503,-0.088667892,-0.155296072
1.76966E+18,2.189546387,-0.039937458,-0.116882751,-0.113648006,0.012565314,-0.071725324,-0.153976917
1.76966E+18,2.199534424,-0.081841832,-0.132520465,-0.120072194,0.016442344,-0.058029752,-0.148931563
1.76966E+18,2.209522217,-0.107837859,-0.141082541,-0.117491822,0.021010546,-0.036664352,-0.136599287
1.76966E+18,2.219510498,-0.119821873,-0.241626736,-0.108348147,0.021404162,-0.016874667,-0.1353769
1.76966E+18,2.229498535,-0.027967619,-0.235167769,-0.118035136,0.011635626,-0.023502838,-0.144181088
1.76966E+18,2.239486328,0.099313265,-0.189568632,-0.073648297,-0.006770012,-0.036127556,-0.169221193
1.76966E+18,2.249474365,0.188763015,-0.154087569,-0.061725804,-0.018753009,-0.028309705,-0.196390316
1.76966E+18,2.259462646,0.145174779,-0.137664842,-0.081959906,-0.035247032,-0.013030883,-0.215790898
1.76966E+18,2.269450684,0.04445289,-0.076042206,-0.050132689,-0.043682706,0.00432945,-0.215702146
1.76966E+18,2.279438232,-0.083596494,-0.098542792,-0.088944358,-0.052918281,0.015758406,-0.213356435
1.76966E+18,2.28942627,-0.094769557,-0.11634616,-0.152882577,-0.062826231,0.031922419,-0.212042511
1.76966E+18,2.299414307,-0.132077324,-0.160513803,-0.124936001,-0.066308312,0.057650954,-0.219776064
1.76966E+18,2.309402344,-0.137211837,-0.111989133,-0.052768298,-0.071917422,0.089066945,-0.23692596
1.76966E+18,2.319390381,-0.11294658,-0.061869304,0.002770049,-0.086539507,0.110191673,-0.264983952
1.76966E+18,2.329378418,-0.082596377,-0.024504327,0.040911272,-0.098846622,0.128614962,-0.310025781
1.76966E+18,2.339366455,-0.040359921,-0.008728665,0.09953794,-0.109281421,0.142466068,-0.358289957
1.76966E+18,2.349355469,-0.073564929,-0.048535191,0.046710606,-0.10835091,0.177433968,-0.421426654
1.76966E+18,2.359343506,-0.137104212,-0.131259651,-0.052953299,-0.060152754,0.221098632,-0.502463698
1.76966E+18,2.369331299,-0.19014256,-0.033212534,-0.11404402,-0.024334995,0.251830876,-0.55483526
1.76966E+18,2.379319336,-0.230360004,0.059199208,-0.3740566,-0.039266806,0.282872438,-0.583775282
1.76966E+18,2.389307373,-0.289568564,0.001183657,-0.427108976,-0.060161967,0.330927908,-0.618600249
1.76966E+18,2.39929541,-0.240299287,0.021311668,-0.194722069,-0.069180228,0.427956462,-0.628601491
1.76966E+18,2.409283447,-0.27772268,0.072276132,-0.150527246,-0.05803987,0.512722373,-0.645933568
1.76966E+18,2.41927124,-0.196648873,0.114551677,-0.162450616,-0.072787918,0.545761049,-0.662903488
1.76966E+18,2.429259277,-0.054929897,-0.00377718,-0.296060922,-0.054212306,0.603968799,-0.711871505
1.76966E+18,2.439247559,0.048353404,0.159241883,-0.230544493,-0.008064253,0.653638601,-0.748192251
1.76966E+18,2.449235596,-0.063908098,0.416868152,-0.256912276,0.023680661,0.690389752,-0.718577325
1.76966E+18,2.459223389,-0.440173625,0.359427186,-0.506363714,0.030167321,0.704571903,-0.653821766
1.76966E+18,2.469211426,-0.537774752,0.205680978,-0.538822215,0.022827534,0.683990598,-0.606723666
1.76966E+18,2.479199463,-0.317016616,0.241369547,-0.323730434,0.001675111,0.648244619,-0.581651568
1.76966E+18,2.489187256,-0.103114347,0.169348851,-0.268351077,-0.010215251,0.610455871,-0.550216973
1.76966E+18,2.499175293,0.035609074,0.089322544,-0.164219379,-0.008198971,0.546941876,-0.512119114
1.76966E+18,2.50916333,0.243289701,0.048213119,-0.080574881,-0.005859621,0.495578289,-0.489827842
1.76966E+18,2.519151367,0.362689987,-0.014801263,-0.040413551,0.008187755,0.514833748,-0.474490434
1.76966E+18,2.529139404,0.246055695,-0.173383806,0.007400339,0.015777731,0.545240581,-0.472339094
1.76966E+18,2.539127441,0.24725159,-0.316159122,-0.046484396,-0.004394649,0.557798982,-0.476790547
1.76966E+18,2.549115479,0.297113573,-0.404049003,-0.150635383,-0.022528756,0.63648057,-0.533533275
1.76966E+18,2.559103271,0.224520703,-0.452217698,-0.138984692,-0.037158832,0.663756669,-0.53009516
1.76966E+18,2.569091553,-0.003082695,-0.420684496,-0.064948858,-0.022679944,0.642861962,-0.510169446
1.76966E+18,2.57907959,0.008058219,-0.31738428,-0.071158234,0.004279237,0.59679991,-0.494208843
1.76966E+18,2.589068359,0.023032427,-0.235388719,-0.044094286,0.008674901,0.52632463,-0.479254901
1.76966E+18,2.599056152,0.044451721,-0.076010642,-0.06939327,0.001274509,0.445478022,-0.467512757
1.76966E+18,2.609044434,0.085715459,0.078820439,-0.048705579,-0.016770512,0.363546222,-0.442949414
1.76966E+18,2.619032471,0.044442441,0.090173023,-0.048017596,-0.031934552,0.309279799,-0.400002211
1.76966E+18,2.629020264,-0.055279477,0.128138304,0.002908581,-0.034082126,0.269106805,-0.348051667
1.76966E+18,2.639008301,-0.111173798,-0.009029694,0.041131929,-0.038213219,0.233497411,-0.291372687
1.76966E+18,2.648996582,-0.114975456,-0.130968559,-0.055223582,-0.035860341,0.217751935,-0.236121371
1.76966E+18,2.658984619,-0.037043563,-0.069312606,0.040166006,-0.016305815,0.203709617,-0.198303148
1.76966E+18,2.668972412,0.060922305,-0.034498482,0.177709852,0.015300839,0.171856225,-0.192509592
1.76966E+18,2.678960449,0.246584212,0.056804422,0.296370134,0.03847833,0.123029031,-0.195453987
1.76966E+18,2.688948242,0.299105696,-0.03651216,0.220007317,0.043355223,0.101738244,-0.201625228
1.76966E+18,2.698936279,0.261229701,-0.198019065,0.176406076,0.03269805,0.082499303,-0.214998558
1.76966E+18,2.708924316,0.257107725,-0.150515556,0.249712135,0.024405802,0.080082536,-0.240837857
1.76966E+18,2.718912354,0.279296176,-0.126044547,0.378570863,0.022874219,0.036010951,-0.279862761
1.76966E+18,2.728900391,0.381302333,-0.15083412,0.387951562,0.014268441,-0.015516595,-0.319188237
1.76966E+18,2.738888428,0.331661373,-0.213202606,0.324686128,0.003016053,-0.04212983,-0.346699238
1.76966E+18,2.748876465,0.173015995,-0.20442601,0.429924618,-0.009510545,-0.069714196,-0.367192417
1.76966E+18,2.758864502,0.072081924,-0.221683434,0.414598746,-0.019284878,-0.098934665,-0.384658486
1.76966E+18,2.768852295,0.028793548,-0.220638893,0.366695424,-0.038476981,-0.114872821,-0.400923342
1.76966E+18,2.778840332,-0.024381431,-0.179244222,0.322165962,-0.048354913,-0.137619942,-0.413799703
1.76966E+18,2.788828613,-0.029313919,-0.091806762,0.375962141,-0.055654522,-0.161616907,-0.424135983
1.76966E+18,2.79881665,-0.075027038,-0.046354339,0.337653453,-0.061007742,-0.18455632,-0.429896653
1.76966E+18,2.808804199,-0.095804453,-0.002692892,0.330115459,-0.068000823,-0.199727386,-0.432034343
1.76966E+18,2.818793457,-0.116611094,-0.019241292,0.293951967,-0.067199744,-0.206036419,-0.436628014
1.76966E+18,2.828781494,-0.154846863,-0.03977613,0.258793852,-0.063769788,-0.190869913,-0.433447599
1.76966E+18,2.838769531,-0.195690914,-0.054354691,0.255120132,-0.057713494,-0.159613192,-0.425986737
1.76966E+18,2.848757324,-0.222097275,-0.043112581,0.20649814,-0.058190275,-0.181597531,-0.422168493
1.76966E+18,2.858745361,-0.097988227,-0.045770402,0.0928627,-0.054906599,-0.213515252,-0.419114918
1.76966E+18,2.868733643,0.010183686,0.001969254,0.053733344,-0.050482173,-0.211844683,-0.407161593
1.76966E+18,2.878721436,-0.077598788,-0.072383099,0.033787119,-0.04687066,-0.196567997,-0.389443308
1.76966E+18,2.888709473,-0.147439655,-0.223005622,0.022397125,-0.049476601,-0.192319483,-0.397685856
1.76966E+18,2.898697266,0.036763066,0.093468557,-0.018444588,-0.051135484,-0.206397742,-0.395769715
1.76966E+18,2.908685547,0.076698624,0.132009008,-0.000127134,-0.050574854,-0.226103097,-0.394218504
1.76966E+18,2.91867334,0.067679452,0.02314356,-0.017306232,-0.04654203,-0.244102076,-0.387372583
1.76966E+18,2.928661377,0.023764176,-0.010305705,0.02177344,-0.044830337,-0.241387174,-0.373571485
1.76966E+18,2.938649414,-0.039686698,0.002570727,0.042608139,-0.046280693,-0.235874161,-0.352001756
1.76966E+18,2.948637207,-0.056155895,-0.027019524,0.088178342,-0.049427211,-0.23527126,-0.331309736
1.76966E+18,2.958625488,-0.012391864,-0.02800912,0.096435006,-0.054944217,-0.2504116,-0.310370386
1.76966E+18,2.968613525,0.02864961,-0.024719431,0.089242172,-0.063073784,-0.272586137,-0.295385569
1.76966E+18,2.978601318,0.091428576,-0.042245151,0.073297876,-0.069846995,-0.295272559,-0.281554699
1.76966E+18,2.988589355,0.117541507,-0.042942485,0.066103581,-0.075938486,-0.316460311,-0.27071768
1.76966E+18,2.998577637,0.169469262,0.012692893,0.036795945,-0.080067448,-0.324962437,-0.257692158
1.76966E+18,3.00856543,0.186785431,0.06154431,0.021610943,-0.080483094,-0.325647056,-0.238427833
1.76966E+18,3.018553223,0.173051213,0.087819153,-0.010491291,-0.080015443,-0.318042129,-0.212377593
1.76966E+18,3.028540771,0.126770231,0.069935706,-0.073141809,-0.082068324,-0.299218357,-0.19169654
1.76966E+18,3.038528564,0.094107294,0.039394437,-0.09611761,-0.081345014,-0.283942461,-0.177723736
1.76966E+18,3.048517822,0.094094288,-0.004185177,-0.130765438,-0.082042761,-0.275758535,-0.177652672
1.76966E+18,3.058505859,0.108540162,-0.026026422,-0.182186997,-0.085860938,-0.27407676,-0.180159509
1.76966E+18,3.068493652,0.073258128,-0.025532501,-0.241351426,-0.083892442,-0.274814159,-0.182686299
1.76966E+18,3.078481689,0.036928924,0.000409165,-0.235071031,-0.080616221,-0.268253982,-0.181992546
1.76966E+18,3.088469971,-0.028376492,0.043581952,-0.230666951,-0.075501613,-0.254343927,-0.176199436
1.76966E+18,3.098458008,-0.065422028,0.078998718,-0.166093356,-0.071852282,-0.232332394,-0.166878641
1.76966E+18,3.108445801,-0.099665366,0.099752168,-0.146814071,-0.067912407,-0.212514967,-0.1629958
1.76966E+18,3.118433594,-0.07347674,0.116448451,-0.09348317,-0.065291323,-0.196006835,-0.156194076
1.76966E+18,3.128421875,-0.045920916,0.108793552,-0.078659111,-0.06258902,-0.179773226,-0.154574409
1.76966E+18,3.138409668,-0.01482932,0.100208679,-0.083264851,-0.058854736,-0.167450249,-0.158662096
1.76966E+18,3.148397705,0.033080724,0.096996147,-0.080534549,-0.055686016,-0.149654225,-0.158292532
1.76966E+18,3.158385742,0.026759704,0.085576927,-0.07667349,-0.051661979,-0.119108558,-0.154934555
1.76966E+18,3.168373779,-0.029266719,0.109814712,-0.060178282,-0.051308587,-0.10969653,-0.150714383
1.76966E+18,3.178361816,0.015051439,0.041474751,-0.123005325,-0.048101075,-0.106998749,-0.144790709
1.76966E+18,3.188349854,0.038210488,0.099018593,-0.108484632,-0.04654092,-0.096958555,-0.13748692
1.76966E+18,3.198337891,0.034981297,0.085837624,-0.138372698,-0.04509509,-0.092487909,-0.12873897
1.76966E+18,3.208325684,0.050611412,0.079112115,-0.116788643,-0.040400285,-0.09452644,-0.120468549
1.76966E+18,3.218313965,0.075962419,0.065732994,-0.119065063,-0.037183188,-0.098916128,-0.106082954
1.76966E+18,3.228302002,0.038067426,0.062007836,-0.118977093,-0.032292701,-0.096448131,-0.086671233
1.76966E+18,3.238289795,0.011267244,0.069583239,-0.081903499,-0.027800748,-0.089135095,-0.069061875
1.76966E+18,3.248277588,0.012709552,0.063757894,-0.072307111,-0.022290753,-0.079884753,-0.057024688
1.76966E+18,3.258265625,0.036661067,0.058446344,-0.091304073,-0.019816676,-0.070814021,-0.050356131
1.76966E+18,3.268253906,0.057281976,0.038280339,-0.102625093,-0.019523652,-0.060981557,-0.045310687
1.76966E+18,3.278242676,0.084483287,0.029179917,-0.090992523,-0.020392109,-0.052273288,-0.041880004
1.76966E+18,3.288230713,0.103372988,0.010928221,-0.101820206,-0.021163587,-0.048916895,-0.041521735
1.76966E+18,3.298218994,0.093629009,0.033070495,-0.115538643,-0.018343031,-0.045703523,-0.033810288
1.76966E+18,3.308207031,0.078540891,0.015366496,-0.108010877,-0.018955406,-0.045801919,-0.026060587
1.76966E+18,3.318194824,0.04522592,-0.008428221,-0.105519353,-0.016775075,-0.047234435,-0.017859383
1.76966E+18,3.328182617,0.035220951,-0.006698621,-0.09786387,-0.015318175,-0.045842372,-0.012750099
1.76966E+18,3.338170654,0.024505788,-0.004103928,-0.103752343,-0.01383799,-0.040523238,-0.014651862
1.76966E+18,3.348158691,0.006404314,-0.012916765,-0.080887016,-0.011343141,-0.032228291,-0.017740596
1.76966E+18,3.358146729,-0.007272621,-0.035294016,-0.071948507,-0.01007814,-0.021731978,-0.022578761
1.76966E+18,3.368134766,-0.024664632,-0.047149874,-0.08831512,-0.005180577,-0.01369725,-0.023529196
1.76966E+18,3.378122803,-0.018064064,-0.022999183,-0.105524906,-0.001326451,-0.008702492,-0.02415131
1.76966E+18,3.38811084,-0.012706775,-0.008268647,-0.112578624,0.002145473,-0.002297493,-0.024864413
1.76966E+18,3.398098877,-0.013935148,0.002208908,-0.100434305,0.007655021,0.00602382,-0.023040414
1.76966E+18,3.408086914,0.005831483,0.006013561,-0.067441843,0.007358414,0.014735122,-0.021950345
1.76966E+18,3.418074707,-0.001491115,-0.01245207,-0.040886429,0.008010622,0.021136029,-0.022390034
1.76966E+18,3.428062744,-0.00485007,-0.053645081,-0.03022738,0.006273399,0.023714911,-0.026543206
1.76966E+18,3.438051025,0.012817396,-0.073016721,-0.043044776,0.007363964,0.025852364,-0.032560885
1.76966E+18,3.448038818,0.048069911,-0.076442019,-0.041660044,0.007705504,0.035483733,-0.036533043
1.76966E+18,3.458026611,0.045379795,-0.070654668,-0.003466507,0.012620901,0.045509469,-0.036567401
1.76966E+18,3.468014648,0.032416415,-0.03261866,0.027844285,0.013860298,0.061500516,-0.026141563
1.76966E+18,3.47800293,-0.02507482,-0.034130233,0.049249769,0.012966007,0.060299166,-0.019825345
1.76966E+18,3.487990723,0.03599515,-0.038353404,0.034815001,0.013376433,0.043316126,-0.012310048
1.76966E+18,3.49797876,0.070386957,0.042145197,0.036426235,0.011538586,0.030205647,-0.013263192
1.76966E+18,3.507967773,0.109829325,-0.031966333,0.030422611,0.00586191,0.029895479,-0.013754128
1.76966E+18,3.517956055,0.069287763,-0.074870824,0.032303602,0.000231987,0.029910391,-0.024542859
1.76966E+18,3.527943848,0.128860043,-0.091858784,0.007309154,-0.00492321,0.02328261,-0.03907226
1.76966E+18,3.537931641,0.165872845,-0.090804307,-0.006628186,-0.003313062,0.01550165,-0.044588197
1.76966E+18,3.547919678,0.112889735,-0.088825115,-0.015273557,-0.002522065,0.017590003,-0.038939726
1.76966E+18,3.557907959,0.03097703,-0.036471828,-0.022598493,-0.003179067,0.021378083,-0.029814668
1.76966E+18,3.567895752,0.000336685,-0.034961423,-0.013709961,0.000106168,0.029437326,-0.022781065
1.76966E+18,3.577883789,-0.01575418,-0.070899583,0.01045885,-0.002563651,0.034373231,-0.028400866
1.76966E+18,3.587871826,0.019874621,-0.1373492,0.004184008,-0.006895049,0.0358596,-0.041147411
1.76966E+18,3.597859619,0.037134383,-0.18628888,-0.017707506,-0.012969719,0.041539859,-0.054977208
1.76966E+18,3.6078479,0.004032032,-0.203052383,0.008472353,-0.016784612,0.044540901,-0.065329738
1.76966E+18,3.617835938,0.01899097,-0.193545719,-0.019680852,-0.021007854,0.040492363,-0.07230749
1.76966E+18,3.62782373,0.006411328,-0.145619016,-0.053154375,-0.0259373,0.040087394,-0.076854266
1.76966E+18,3.637811768,0.020971476,-0.109804775,-0.074706281,-0.028803926,0.041687153,-0.0774367
1.76966E+18,3.647799561,0.027157179,-0.087402974,-0.070062547,-0.032376368,0.050638236,-0.07501331
1.76966E+18,3.657787842,0.034198768,-0.077730305,-0.065997782,-0.031387269,0.072201319,-0.07699044
1.76966E+18,3.667775635,0.00064502,-0.052841948,-0.053329731,-0.037839308,0.075699911,-0.079938821
1.76966E+18,3.677763672,0.067311057,-0.088700028,-0.095332305,-0.032637358,0.074367531,-0.079951875
1.76966E+18,3.687751709,0.060994859,-0.01723229,-0.09472411,-0.030727495,0.079171248,-0.075849503
1.76966E+18,3.697739746,0.010600451,-0.021335633,-0.129370184,-0.032301422,0.088436916,-0.065225087
1.76966E+18,3.707727783,-0.038273763,-0.013491934,-0.135555595,-0.033500411,0.099986687,-0.062400229
1.76966E+18,3.71771582,0.010498305,-0.021107085,-0.155040047,-0.038928997,0.109666742,-0.066274859
1.76966E+18,3.727703857,0.044967561,-0.027916765,-0.151213475,-0.046422675,0.11626891,-0.07281673
1.76966E+18,3.737692627,0.039272564,-0.034762101,-0.159653094,-0.054065149,0.130819887,-0.081368141
1.76966E+18,3.747680664,0.030718963,-0.010683891,-0.152291041,-0.059661817,0.137667626,-0.085879549
1.76966E+18,3.757668701,0.02829992,-0.003440496,-0.147255093,-0.062534042,0.149130136,-0.081006765
1.76966E+18,3.767656738,0.015967677,-0.00206044,-0.184368433,-0.066138893,0.16520524,-0.07976573
1.76966E+18,3.777644775,0.026860827,-0.009074702,-0.1822171,-0.070359737,0.180275008,-0.081029139
1.76966E+18,3.787632813,0.047419631,-0.052912675,-0.177804837,-0.077542365,0.18526493,-0.082660727
1.76966E+18,3.79762085,0.07231208,-0.113299631,-0.173575529,-0.087094858,0.195663512,-0.089772962
1.76966E+18,3.807608643,0.043416825,-0.127391285,-0.164226101,-0.096011877,0.210792288,-0.091925956
1.76966E+18,3.81759668,-0.00250643,-0.107602881,-0.15347236,-0.102219708,0.231103688,-0.088295273
1.76966E+18,3.827584961,-0.018325054,-0.10451719,-0.158759945,-0.105512775,0.257267535,-0.08000648
1.76966E+18,3.837572998,-0.024140462,-0.074839845,-0.15682167,-0.106540494,0.274452657,-0.075054593
1.76966E+18,3.847560791,0.01730214,-0.038037762,-0.161784845,-0.108567044,0.284758925,-0.067732394
1.76966E+18,3.857548584,0.046039282,-0.00072773,-0.155305713,-0.112551935,0.284115791,-0.062395688
1.76966E+18,3.867536865,0.068053253,0.031885085,-0.147650229,-0.122275822,0.28182295,-0.056704417
1.76966E+18,3.877524658,0.067052552,0.062477207,-0.12362638,-0.131516188,0.282753468,-0.048505343
1.76966E+18,3.887512695,0.024201544,0.052130585,-0.084697514,-0.138001353,0.290771693,-0.042303849
1.76966E+18,3.897500732,0.007559329,0.048604749,-0.037202188,-0.145280048,0.304192692,-0.034526352
1.76966E+18,3.907489014,-0.019152444,-0.020362989,-0.012978432,-0.153271019,0.31422469,-0.03247961
1.76966E+18,3.917476807,-0.001485855,-0.06847031,0.032020109,-0.163285837,0.327428639,-0.039276797
1.76966E+18,3.927464844,0.00190408,-0.112352121,0.057061027,-0.172868654,0.336016029,-0.041090127
1.76966E+18,3.937452881,-0.04512772,-0.171502814,0.09781477,-0.180829376,0.347361624,-0.050354734
1.76966E+18,3.947440674,-0.044796881,-0.153064071,0.10802929,-0.189117447,0.35167101,-0.05987145
1.76966E+18,3.957428955,-0.010409458,-0.15980127,0.062025079,-0.193434954,0.357079625,-0.066582613
1.76966E+18,3.967417725,0.014503157,-0.174060682,0.021617958,-0.195757061,0.363225132,-0.070875831
1.76966E+18,3.977405762,-0.000418225,-0.156276603,0.003208733,-0.195995152,0.367887259,-0.07483276
1.76966E+18,3.987393555,0.055898413,-0.123570266,-0.051441141,-0.193977579,0.37511608,-0.084200449
1.76966E+18,3.997381836,0.105802846,-0.080794369,-0.059405836,-0.193342686,0.384217173,-0.090202153
1.76966E+18,4.007369873,0.072490651,-0.026069092,-0.016612989,-0.196521536,0.37911725,-0.091226391
1.76966E+18,4.017357666,0.062219433,-0.026031682,0.01215031,-0.198666185,0.371350139,-0.084969029
1.76966E+18,4.027345703,0.048556233,0.008091537,0.051294865,-0.201733202,0.369944394,-0.079785332
1.76966E+18,4.037335449,0.0326549,0.029126726,0.080390172,-0.207253665,0.372705847,-0.071110882
1.76966E+18,4.047323242,0.050223582,0.005555296,0.0650662,-0.212365001,0.369294107,-0.060638674
1.76966E+18,4.057311279,0.048309273,-0.014143676,0.053157444,-0.217863098,0.360795707,-0.051852111
1.76966E+18,4.067299561,0.037451194,-0.060775663,0.003089052,-0.220984519,0.353393853,-0.042239178
1.76966E+18,4.077287354,-0.001298515,-0.07323767,0.001034896,-0.230941549,0.348279238,-0.031364691
1.76966E+18,4.087275391,-0.020583062,-0.109295656,-0.065768357,-0.240258098,0.348499149,-0.024609549
1.76966E+18,4.097263428,-0.012516367,-0.101261403,-0.089361268,-0.252796799,0.353204697,-0.018192928
1.76966E+18,4.107251465,-0.040953942,-0.058882982,-0.051381958,-0.26218453,0.354902416,-0.020743039
1.76966E+18,4.117239502,-0.058242638,-0.065380527,-0.060716773,-0.272066206,0.348759562,-0.031363193
1.76966E+18,4.127227295,-0.025798166,-0.058622285,-0.112892804,-0.280739814,0.327040732,-0.051815763
1.76966E+18,4.137215332,-0.020206629,-0.041830725,-0.146718063,-0.282473266,0.315556645,-0.072243005
1.76966E+18,4.147203125,-0.097897187,-0.028534605,-0.122014707,-0.286631584,0.318197846,-0.084846936
1.76966E+18,4.157191406,-0.18066198,-0.025040918,-0.144043145,-0.280171812,0.326548189,-0.097292952
1.76966E+18,4.167179443,-0.240756383,-0.000716624,-0.14020079,-0.268136382,0.340137571,-0.109794505
1.76966E+18,4.177167236,-0.266818168,-0.033711715,-0.203154382,-0.258536726,0.354483992,-0.125741243
1.76966E+18,4.18715625,-0.273396085,-0.046406946,-0.257248084,-0.240431905,0.37157914,-0.139901519
1.76966E+18,4.197144531,-0.32400516,-0.045903673,-0.246693372,-0.217623264,0.375595182,-0.153397083
1.76966E+18,4.207132324,-0.40769262,-0.013880641,-0.272614141,-0.19905293,0.36046192,-0.162956193
1.76966E+18,4.217120117,-0.495776269,0.030438393,-0.326066622,-0.172073245,0.320077747,-0.160680518
1.76966E+18,4.227108154,-0.632109278,0.061802084,-0.309726021,-0.142969221,0.272429973,-0.150578663
1.76966E+18,4.237096436,-0.791653067,0.177128253,-0.284820858,-0.106380858,0.22844626,-0.141632035
1.76966E+18,4.247084473,-0.911138693,0.365286434,-0.163994484,-0.049895924,0.208543599,-0.126014218
1.76966E+18,4.257072266,-1.013716147,0.477830278,0.103743137,0.014123541,0.243270412,-0.086504363
1.76966E+18,4.267060303,-1.258150342,0.263516496,0.325418972,0.002223155,0.26747945,-0.087659858
1.76966E+18,4.27704834,-1.159227026,0.846103034,-0.139538527,0.014659053,0.257870257,-0.114386544
1.76966E+18,4.287036377,-0.894480988,1.456772926,0.309958368,0.032939825,0.224681199,-0.13810277
1.76966E+18,4.297024414,-0.957747592,1.480688639,0.330020767,0.027410835,0.194566965,-0.142560899
1.76966E+18,4.307012451,-1.070221294,1.222121874,0.319054405,0.025604188,0.210521713,-0.146777168
1.76966E+18,4.317000488,-1.156225507,0.972696447,0.382443905,0.01718647,0.239065468,-0.178060785
1.76966E+18,4.326988525,-1.008543421,0.725926503,0.285870367,0.018227797,0.256986082,-0.21759741
1.76966E+18,4.336976318,-0.864678847,0.548677254,0.178083946,0.01416568,0.239961311,-0.25020197
1.76966E+18,4.346964355,-0.765127755,0.330425548,-0.034430531,-0.002428083,0.217230216,-0.269270778
1.76966E+18,4.356952148,-0.792035636,0.061944707,-0.274274768,-0.006023617,0.186395869,-0.250332505
1.76966E+18,4.366940186,-0.90817429,-0.072707509,-0.435087846,-0.021201931,0.119345732,-0.223748907
1.76966E+18,4.376928467,-0.825494838,-0.188313079,-0.694628863,-0.037311129,0.042658411,-0.197807059
1.76966E+18,4.386916504,-0.736694273,-0.181004217,-0.808782334,-0.04673434,-0.029556688,-0.174713448
1.76966E+18,4.396904297,-0.705758452,-0.125180039,-0.94858565,-0.046779882,-0.102941953,-0.153200701
1.76966E+18,4.406892334,-0.672123016,0.045734162,-1.014502475,-0.045559011,-0.192758441,-0.122683093
1.76966E+18,4.416881348,-0.712632721,0.235043266,-1.116262622,-0.02975555,-0.248010248,-0.080230437
1.76966E+18,4.426869385,-0.857742326,0.464655155,-1.066766477,-0.014213688,-0.296170235,-0.031948637
1.76966E+18,4.436857178,-1.044888992,0.611670009,-1.093555846,0.004958942,-0.334331721,0.005405923
1.76966E+18,4.446845215,-1.189672434,0.640778614,-0.984645536,0.020795362,-0.363648593,0.027228523
1.76966E+18,4.456833496,-1.319558458,0.616803865,-0.905272724,0.029434923,-0.397619337,0.024618093
1.76966E+18,4.466821289,-1.371779644,0.523833904,-0.818853354,0.037530173,-0.415918022,0.018913243
1.76966E+18,4.476809326,-1.516261765,0.374713603,-0.720010557,0.041424781,-0.413239688,0.007719445
1.76966E+18,4.486797363,-1.592997798,0.277143455,-0.597502952,0.043438539,-0.390739381,-0.019523667
1.76966E+18,4.496785645,-1.509090265,0.154169986,-0.584645078,0.04046379,-0.366615385,-0.066181183
1.76966E+18,4.506773438,-1.331237206,0.090132106,-0.649572016,0.036763914,-0.332558632,-0.12444891
1.76966E+18,4.516761475,-1.183378886,0.076872227,-0.662035337,0.028837012,-0.289640993,-0.187241986
1.76966E+18,4.526749512,-1.081845681,0.07315876,-0.732853525,0.016587263,-0.238343313,-0.2457968
1.76966E+18,4.536737061,-0.944062181,0.077459672,-0.805433462,0.003014197,-0.17741178,-0.305619121
1.76966E+18,4.546725342,-0.793138044,0.105043844,-0.890644771,-0.013623824,-0.133492991,-0.360425025
1.76966E+18,4.556713379,-0.641879561,0.118615858,-1.001599009,-0.037011705,-0.094647326,-0.410310298
1.76966E+18,4.566701172,-0.50960518,0.158308401,-1.096643875,-0.050107721,-0.026859682,-0.459782928
1.76966E+18,4.576689209,-0.371017378,0.269220846,-1.083104449,-0.080327407,0.029485349,-0.500592947
1.76966E+18,4.58667749,-0.246471838,0.310536606,-0.979957086,-0.100570656,0.100060403,-0.53525883
1.76966E+18,4.596665527,-0.129006904,0.227926712,-0.792470082,-0.108889841,0.165617839,-0.538456738
1.76966E+18,4.60665332,-0.256858792,0.118290279,-0.696560561,-0.098314896,0.193961695,-0.539537191
1.76966E+18,4.616641357,-0.217517546,-0.023911037,-0.495420149,-0.07596831,0.210931897,-0.524964333
1.76966E+18,4.626629395,-0.197934602,-0.028612347,-0.305404358,-0.0550135,0.237689197,-0.496665835
1.76966E+18,4.636618408,-0.273790053,-0.084959672,-0.083598467,-0.037676319,0.273383528,-0.450849891
1.76966E+18,4.646606201,-0.311579393,-0.155497436,0.175745858,-0.035801753,0.307684749,-0.415121466
1.76966E+18,4.656594238,-0.232905085,-0.263190918,0.381198142,-0.042939823,0.335711598,-0.397774965
1.76966E+18,4.66658252,-0.076197689,-0.466049824,0.531244473,-0.054947417,0.344527423,-0.401922166
1.76966E+18,4.676570313,0.147751352,-0.633264001,0.620376901,-0.080149978,0.338115603,-0.430446237
1.76966E+18,4.68655835,0.404852136,-0.778106187,0.655388593,-0.111966275,0.326065838,-0.467055172
1.76966E+18,4.696546387,0.65922291,-0.894153656,0.678055183,-0.137876704,0.319022864,-0.504931688
1.76966E+18,4.706534424,0.853025819,-0.857617531,0.548858163,-0.178447053,0.267417908,-0.557217002
1.76966E+18,4.716522461,1.105173072,-0.865313346,0.399631625,-0.222743407,0.207677335,-0.610887945
1.76966E+18,4.726510498,1.280543376,-0.815481686,0.309070918,-0.260739595,0.149018526,-0.647535503
1.76966E+18,4.736498291,1.314643506,-0.703494306,0.273653129,-0.293190747,0.124600269,-0.668164611
1.76966E+18,4.746486084,1.259917936,-0.503744472,0.301203984,-0.319405496,0.125371426,-0.670044363
1.76966E+18,4.756474121,1.107849014,-0.387145799,0.360640654,-0.316474974,0.129059106,-0.650106847
1.76966E+18,4.766462402,0.955645359,-0.273707051,0.468548947,-0.295345843,0.133001789,-0.62529242
1.76966E+18,4.776450439,0.895989055,-0.175269473,0.530975155,-0.258134276,0.159994259,-0.600968182
1.76966E+18,4.786438232,0.84242873,-0.224949742,0.648934887,-0.252890795,0.172595754,-0.565879226
1.76966E+18,4.79642627,0.659902417,-0.296382409,0.549139903,-0.227363348,0.130133256,-0.555086732
1.76966E+18,4.806414551,0.866065918,-0.088011461,0.609638503,-0.204295516,0.102934107,-0.539508998
1.76966E+18,4.816402344,0.853245015,-0.11233517,0.697132808,-0.187004417,0.081378751,-0.515778601
1.76966E+18,4.826390381,0.802437495,-0.196273098,0.722113082,-0.182372451,0.078855567,-0.471766174
1.76966E+18,4.836378418,0.713763479,-0.317002003,0.659230363,-0.172384262,0.075612903,-0.425314784
1.76966E+18,4.846366699,0.711104197,-0.477476642,0.632917964,-0.160559446,0.049782608,-0.38757804
1.76966E+18,4.856354492,0.850913649,-0.594801876,0.597215075,-0.154911682,0.022275083,-0.372410834
1.76966E+18,4.866343262,1.034277582,-0.647524582,0.487146534,-0.146778241,0.001149468,-0.370706022
1.76966E+18,4.876331299,1.117552662,-0.651870502,0.52371963,-0.13631548,-0.014549068,-0.374640852
1.76966E+18,4.88631958,1.165775717,-0.655176558,0.523597027,-0.134853959,-0.019271022,-0.389511317
1.76966E+18,4.896307373,1.244070087,-0.578696545,0.488807892,-0.138847113,-0.018539185,-0.409555346
1.76966E+18,4.90629541,1.270047408,-0.500844659,0.424079253,-0.136845261,-0.028367901,-0.427865624
1.76966E+18,4.916283447,1.304627139,-0.386743063,0.45287682,-0.137716636,-0.061414264,-0.442978263
1.76966E+18,4.92627124,1.280451313,-0.302434548,0.468147819,-0.140111014,-0.096768722,-0.445613921
1.76966E+18,4.936259521,1.17088327,-0.23780104,0.443737016,-0.141406104,-0.134288147,-0.438514471
1.76966E+18,4.946247314,1.003750341,-0.161215229,0.429150492,-0.14044708,-0.15888299,-0.421933323
1.76966E+18,4.956235107,0.810455967,-0.114299164,0.407269134,-0.139805257,-0.187216088,-0.387891471
1.76966E+18,4.966223145,0.622526334,-0.098307814,0.409764165,-0.130461678,-0.199487776,-0.3478643
1.76966E+18,4.976211426,0.449728219,-0.026579964,0.429317665,-0.121095091,-0.190880433,-0.297984332
1.76966E+18,4.986199463,0.288022577,-0.027597616,0.438875109,-0.10866338,-0.16700843,-0.245175272
1.76966E+18,4.996187256,0.166271343,-0.05847557,0.478519722,-0.082860544,-0.133271247,-0.20906201
1.76966E+18,5.006175293,0.215539524,-0.035706689,0.534921846,-0.068145551,-0.094868742,-0.199232087
1.76966E+18,5.016163574,0.352764221,-0.070875033,0.479506906,-0.057148296,-0.059505694,-0.193681523
1.76966E+18,5.026151367,0.44656654,-0.12871172,0.431717858,-0.048703939,-0.041310478,-0.186000392
1.76966E+18,5.03613916,0.506570635,-0.186360776,0.391689433,-0.043944336,-0.028741689,-0.183450148
1.76966E+18,5.046127197,0.60889996,-0.183951377,0.294934621,-0.0516758,-0.045311633,-0.190606654
1.76966E+18,5.056115234,0.799138454,-0.211823719,0.212077547,-0.059814155,-0.083882727,-0.188810363
1.76966E+18,5.066103271,0.884708951,-0.178121355,0.117145859,-0.069053955,-0.132573515,-0.191014364
1.76966E+18,5.076092041,0.925392844,-0.174742819,0.137921812,-0.074723028,-0.175915405,-0.174031392
1.76966E+18,5.086080078,0.835972685,-0.199732299,0.225101426,-0.078381494,-0.199208379,-0.149417147
1.76966E+18,5.096068115,0.67760817,-0.224788999,0.316205153,-0.077542864,-0.216722652,-0.126673222
1.76966E+18,5.106056152,0.562955955,-0.237535083,0.341402504,-0.077568002,-0.225237221,-0.112416252
1.76966E+18,5.116044189,0.518253474,-0.256858208,0.327387276,-0.08172866,-0.219091713,-0.108692087
1.76966E+18,5.126032227,0.483424737,-0.249933961,0.284495718,-0.083793826,-0.198110282,-0.105699241
1.76966E+18,5.13602002,0.421646619,-0.184483876,0.279225522,-0.089403242,-0.173779905,-0.079438612
1.76966E+18,5.146008301,0.348598334,-0.161423319,0.248352683,-0.095494002,-0.149968028,-0.037792351
1.76966E+18,5.155996094,0.313097397,-0.162131759,0.230267211,-0.099412575,-0.148175463,0.008870757
1.76966E+18,5.165984131,0.348161111,-0.168499541,0.199164655,-0.109730035,-0.152879655,0.044252772
1.76966E+18,5.175971924,0.420461208,-0.242722715,0.191437568,-0.124088474,-0.180273995,0.065399334
1.76966E+18,5.185959961,0.567447421,-0.316330972,0.216789817,-0.147607282,-0.208913609,0.075207114
1.76966E+18,5.195948242,0.651478872,-0.388301983,0.224313417,-0.168298706,-0.236863747,0.086227275
1.76966E+18,5.205936035,0.638274523,-0.473566776,0.269458819,-0.19119364,-0.264823496,0.096425377
1.76966E+18,5.215924072,0.699008101,-0.560121608,0.251415797,-0.210964411,-0.287382871,0.101270996
1.76966E+18,5.225912109,0.780311004,-0.519941573,0.254756851,-0.240244955,-0.304408342,0.099408478
1.76966E+18,5.235900146,0.806625595,-0.533944964,0.237302151,-0.266287744,-0.314631402,0.101988018
1.76966E+18,5.245888184,0.761644297,-0.494819991,0.285966375,-0.287611991,-0.331178337,0.110505432
1.76966E+18,5.255876221,0.725413292,-0.43278819,0.323057284,-0.298132807,-0.359321564,0.135380164
1.76966E+18,5.265864258,0.688642774,-0.367910352,0.350762818,-0.295067549,-0.390991867,0.158593982
1.76966E+18,5.275852051,0.63887658,-0.323261063,0.37416839,-0.28505674,-0.41552037,0.189342037
1.76966E+18,5.285840088,0.583580809,-0.236822551,0.463121369,-0.281748414,-0.439544022,0.21666801
1.76966E+18,5.295828125,0.535414452,-0.1976099,0.497147485,-0.28336814,-0.460886061,0.233853117
1.76966E+18,5.305817139,0.558704727,-0.191560098,0.505708027,-0.2915093,-0.504486442,0.24890177
1.76966E+18,5.315805176,0.551152704,-0.269164731,0.451694113,-0.299685746,-0.540412486,0.256618023
1.76966E+18,5.325793213,0.508895863,-0.349982481,0.409488783,-0.29772988,-0.559193969,0.254340619
1.76966E+18,5.33578125,0.525891422,-0.42830783,0.50411557,-0.298949629,-0.563101113,0.244752705
1.76966E+18,5.345769043,0.588412467,-0.484323147,0.488167182,-0.300492406,-0.562840939,0.224553078
1.76966E+18,5.35575708,0.643971273,-0.506677018,0.43550914,-0.297894508,-0.575615048,0.203985229
1.76966E+18,5.365745117,0.731084324,-0.46286944,0.461054938,-0.295228958,-0.598519206,0.184387445
1.76966E+18,5.375733154,0.833664408,-0.340967985,0.480133514,-0.286094308,-0.644094408,0.170564577
1.76966E+18,5.385720947,0.883159968,-0.250728911,0.497206814,-0.281606615,-0.695082843,0.172422245
1.76966E+18,5.395708984,0.833162304,-0.197646725,0.510920574,-0.271955848,-0.748813212,0.19325535
1.76966E+18,5.405697266,0.75515552,-0.223180394,0.588034793,-0.267375141,-0.798437715,0.204544365
1.76966E+18,5.415685059,0.750141491,-0.301615049,0.573675063,-0.265542895,-0.85124284,0.199842021
1.76966E+18,5.425673096,0.813302004,-0.395892584,0.575947392,-0.275736749,-0.887333214,0.178275257
1.76966E+18,5.435661133,0.883086319,-0.461279541,0.538845742,-0.293196708,-0.91452086,0.150260389
1.76966E+18,5.44564917,0.929191067,-0.482007856,0.502175615,-0.300851554,-0.925293267,0.122808166
1.76966E+18,5.455637207,0.983563293,-0.460549473,0.442378295,-0.307629555,-0.95766747,0.122000962
1.76966E+18,5.465625244,0.964386884,-0.386814959,0.311981544,-0.315522909,-0.9932639,0.129877865
1.76966E+18,5.475613281,0.975717841,-0.373372709,0.234735077,-0.309723079,-1.009586334,0.143416315
1.76966E+18,5.48560083,0.969128525,-0.354892465,0.188420047,-0.305676937,-1.027107716,0.14989832
1.76966E+18,5.495589111,0.989791959,-0.373740958,0.10368863,-0.304098487,-1.046739459,0.154289365
1.76966E+18,5.505577148,0.959084101,-0.383030765,0.058201283,-0.303721786,-1.063790083,0.151872262
1.76966E+18,5.515565186,0.906675868,-0.38460722,0.039561611,-0.30462274,-1.079591393,0.146605864
1.76966E+18,5.525553955,0.904998875,-0.340740606,0.032639118,-0.307638019,-1.091629505,0.133575737
1.76966E+18,5.535542236,0.92169282,-0.258522926,0.062262979,-0.308202624,-1.097759604,0.129588187
1.76966E+18,5.545530273,0.904311185,-0.174805363,0.057407941,-0.305408716,-1.103832245,0.132243738
1.76966E+18,5.555518311,0.881609232,-0.134339497,0.090032738,-0.302292019,-1.112837672,0.141977325
1.76966E+18,5.565506104,0.886418678,-0.129871412,0.096868283,-0.293109149,-1.13096714,0.150377423
1.76966E+18,5.575493896,0.894922887,-0.144986563,0.148881963,-0.283166498,-1.157479644,0.155183896
1.76966E+18,5.585482178,0.883858472,-0.235669289,0.207133223,-0.277524322,-1.189917684,0.16363886
1.76966E+18,5.595469971,0.844871446,-0.340800812,0.242513017,-0.271293312,-1.227464795,0.168996349
1.76966E+18,5.605458008,0.825434925,-0.390744115,0.265516438,-0.264030337,-1.270893335,0.169453189
1.76966E+18,5.615446045,0.847858646,-0.428404861,0.32396512,-0.251850635,-1.310310483,0.163756147
1.76966E+18,5.625434082,0.837909791,-0.521124646,0.36860491,-0.242151976,-1.351932526,0.147437811
1.76966E+18,5.635422119,0.874370513,-0.629099283,0.39065483,-0.225679249,-1.423276782,0.141207874
1.76966E+18,5.645410156,0.94662794,-0.755768683,0.447370404,-0.206730396,-1.348462462,0.131841689
1.76966E+18,5.655398193,0.773848822,-0.805633077,0.58294938,-0.206599638,-1.326201081,0.116762057
1.76966E+18,5.66538623,0.974552888,-0.841182529,0.574522328,-0.206451371,-1.323378086,0.081714936
1.76966E+18,5.675374268,1.22781161,-0.845032775,0.573067599,-0.20384787,-1.346929431,0.047428597
1.76966E+18,5.685362061,1.358168175,-0.857718653,0.532970712,-0.211679935,-1.332194686,0.017748002
1.76966E+18,5.695349854,1.36941613,-0.881889218,0.512236113,-0.219469681,-1.311088681,-0.007873738
1.76966E+18,5.705337891,1.475988499,-0.86355452,0.510075136,-0.233266667,-1.321956992,-0.026479896
1.76966E+18,5.715326172,1.533454307,-0.757183811,0.461689145,-0.246273279,-1.362761378,-0.033433676
1.76966E+18,5.725314209,1.530753231,-0.635125119,0.410148342,-0.256465673,-1.410022259,-0.015844792
1.76966E+18,5.735302002,1.389179107,-0.536208233,0.410302218,-0.271786571,-1.457518101,0.011694157
1.76966E+18,5.745291016,1.235426177,-0.476577648,0.348799848,-0.280572087,-1.499788523,0.035810504
1.76966E+18,5.755279297,1.108285359,-0.37637949,0.347733533,-0.295977414,-1.536918521,0.050640583
1.76966E+18,5.765267334,0.98231417,-0.319940979,0.313498086,-0.313554168,-1.56371665,0.066340439
1.76966E+18,5.775254883,0.765884419,-0.293224237,0.308647139,-0.320311666,-1.593428731,0.082759894
1.76966E+18,5.78524292,0.564830224,-0.318518837,0.35599955,-0.328251213,-1.629549384,0.089051761
1.76966E+18,5.795231201,0.403379725,-0.394016853,0.311032427,-0.334584743,-1.641713619,0.087227762
1.76966E+18,5.805218994,0.248585177,-0.403173973,0.276035202,-0.330201775,-1.655925751,0.077269718
1.76966E+18,5.815207031,0.153706753,-0.370745868,0.323449864,-0.326338589,-1.672407508,0.063246839
1.76966E+18,5.825195068,0.103033089,-0.336142757,0.31317543,-0.320834249,-1.672099352,0.044579934
1.76966E+18,5.83518335,0.03010317,-0.282945419,0.34355011,-0.320135176,-1.673566222,0.021316957
1.76966E+18,5.845171143,-0.022400925,-0.246416309,0.30901568,-0.324227482,-1.673844457,-0.001876329
1.76966E+18,5.85515918,-0.117858902,-0.192829095,0.251419524,-0.32459873,-1.666238427,-0.017420668
1.76966E+18,5.865147217,-0.189021812,-0.097324648,0.248863702,-0.329328924,-1.66755569,-0.031891387
1.76966E+18,5.87513501,-0.203257258,-0.023869536,0.114296826,-0.328641564,-1.671358109,-0.041255593
1.76966E+18,5.885123291,-0.163286482,0.018349311,0.028874505,-0.331785589,-1.665866613,-0.041867346
1.76966E+18,5.895111084,-0.187433666,-0.000296937,-0.090987262,-0.340113312,-1.66443944,-0.039272893
1.76966E+18,5.905099121,-0.183559455,-0.033534021,-0.265815421,-0.349752754,-1.658737779,-0.05341398
1.76966E+18,5.915086914,-0.101732528,0.000529577,-0.370221844,-0.360753745,-1.638864756,-0.074358679
1.76966E+18,5.925074951,-0.071631112,-0.00914426,-0.429324314,-0.379541039,-1.620951891,-0.085233755
1.76966E+18,5.935063232,-0.163005619,-0.074793083,-0.516795969,-0.394504011,-1.610307813,-0.081589751
1.76966E+18,5.945051025,-0.264656314,-0.094006902,-0.563588992,-0.413791895,-1.617852926,-0.069169529
1.76966E+18,5.955039063,-0.322962665,-0.086975688,-0.599395634,-0.432358116,-1.653709412,-0.053853162
1.76966E+18,5.96502832,-0.374183149,0.045471127,-0.648787441,-0.445760429,-1.679390907,-0.046002209
1.76966E+18,5.975016113,-0.479006336,0.222485398,-0.583789191,-0.460184097,-1.702955365,-0.046775058
1.76966E+18,5.985003906,-0.568299654,0.378777199,-0.511608045,-0.474737555,-1.704543591,-0.053154208
1.76966E+18,5.994991943,-0.685219229,0.448880078,-0.475792343,-0.475924283,-1.684453011,-0.066904649
1.76966E+18,6.00497998,-0.802607007,0.505901357,-0.42869303,-0.463808775,-1.62777245,-0.079968005
1.76966E+18,6.014968262,-0.96696521,0.439662752,-0.349082902,-0.447155237,-1.535520554,-0.082075365
1.76966E+18,6.024956055,-1.161323707,0.260392811,-0.365547423,-0.435471952,-1.44091022,-0.086823359
1.76966E+18,6.034943359,-1.187380523,0.161541977,-0.431317533,-0.428047061,-1.385804892,-0.101710163
1.76966E+18,6.044931396,-1.053554821,0.129453478,-0.563396976,-0.414964944,-1.376981735,-0.124015652
1.76966E+18,6.054919434,-0.914359409,0.069881345,-0.623126346,-0.40753606,-1.386184573,-0.145949185
1.76966E+18,6.064907715,-0.824248053,0.09037819,-0.646316083,-0.395088583,-1.386867166,-0.151930615
1.76966E+18,6.074895508,-0.832443634,0.140170687,-0.616020898,-0.378989756,-1.372879386,-0.14072296
1.76966E+18,6.084883545,-0.888822816,0.222047591,-0.48950698,-0.360499293,-1.332977414,-0.121628769
1.76966E+18,6.094871582,-0.933265185,0.285209857,-0.409588809,-0.343106449,-1.294148564,-0.104955256
1.76966E+18,6.104859619,-0.909546163,0.32407238,-0.341666489,-0.330564678,-1.271504402,-0.097519487
1.76966E+18,6.114847656,-0.814367879,0.274797769,-0.30752135,-0.324548066,-1.262915373,-0.100231916
1.76966E+18,6.124835449,-0.730366239,0.174326639,-0.314695772,-0.326962233,-1.277398705,-0.107467666
1.76966E+18,6.134823486,-0.628319238,0.063760817,-0.330422918,-0.343032539,-1.284501433,-0.106448479
1.76966E+18,6.144811279,-0.622586832,-0.067908,-0.390290234,-0.359736234,-1.28088212,-0.103954665
1.76966E+18,6.154799561,-0.574056902,-0.151081957,-0.457090273,-0.379585326,-1.271476865,-0.104975723
1.76966E+18,6.164787598,-0.493982664,-0.195167183,-0.527911237,-0.391555339,-1.272732973,-0.110779464
1.76966E+18,6.174775391,-0.413468573,-0.196249717,-0.634381899,-0.402794659,-1.303181171,-0.120095737
1.76966E+18,6.184764648,-0.337634749,-0.170568164,-0.739027099,-0.392834276,-1.292714238,-0.139872134
1.76966E+18,6.194752686,-0.359786229,-0.067971128,-0.783463623,-0.381610632,-1.266142011,-0.157026097
1.76966E+18,6.204740479,-0.473392296,-0.064817048,-0.797206024,-0.370745063,-1.236599684,-0.169010699
1.76966E+18,6.214728271,-0.560773204,-0.046724342,-0.757975546,-0.349027783,-1.179122329,-0.181796536
1.76966E+18,6.224716309,-0.662920304,-0.04431845,-0.719081167,-0.335528105,-1.113140464,-0.192084789
1.76966E+18,6.23470459,-0.720498048,-0.071500471,-0.688364834,-0.32657668,-1.050192714,-0.209319964
1.76966E+18,6.244692627,-0.77401015,-0.088441085,-0.701129331,-0.317725539,-0.974914312,-0.227127835
1.76966E+18,6.25468042,-0.869974324,-0.099060094,-0.702721568,-0.30741775,-0.904161274,-0.23934108
1.76966E+18,6.264668457,-0.963570453,-0.039314942,-0.68826488,-0.294456303,-0.852794111,-0.246946707
1.76966E+18,6.274656738,-1.017938733,0.048831543,-0.66548577,-0.273687124,-0.808745921,-0.236436278
1.76966E+18,6.284644531,-1.112148464,0.06402619,-0.617515812,-0.249900877,-0.768452048,-0.210772619
1.76966E+18,6.294632568,-1.208227789,0.020232641,-0.516025569,-0.22711353,-0.73247993,-0.189019918
1.76966E+18,6.304620605,-1.221532676,-0.053974751,-0.478679296,-0.199252442,-0.681363225,-0.182064459
1.76966E+18,6.314608887,-1.203353168,-0.105510293,-0.375417659,-0.178984985,-0.632512867,-0.187009141
1.76966E+18,6.324596436,-1.156692101,-0.196672327,-0.325790874,-0.161857054,-0.603850126,-0.200420305
1.76966E+18,6.334584473,-1.074901853,-0.227518716,-0.302983122,-0.147216335,-0.589024603,-0.213492975
1.76966E+18,6.34457251,-1.074044067,-0.258091549,-0.283882408,-0.137201995,-0.575664759,-0.217602536
1.76966E+18,6.354560303,-1.060814145,-0.230957458,-0.263599499,-0.127559751,-0.566800416,-0.210986182
1.76966E+18,6.364548584,-1.080265426,-0.188203774,-0.23151743,-0.109921306,-0.555578947,-0.200117409
1.76966E+18,6.374536621,-1.104512709,-0.161405783,-0.215210146,-0.094541281,-0.538764536,-0.188016802
1.76966E+18,6.384524414,-1.093985616,-0.147378427,-0.206179283,-0.073787071,-0.527339637,-0.178808957
1.76966E+18,6.394512451,-1.093619997,-0.103539869,-0.235749076,-0.045474473,-0.52849412,-0.182371467
1.76966E+18,6.404501709,-1.006272846,0.004986556,-0.169267895,-0.015798906,-0.524883211,-0.183150202
1.76966E+18,6.414489502,-1.058846352,0.003345803,-0.159926066,0.014986437,-0.517471373,-0.16809988
1.76966E+18,6.424477295,-1.225419454,0.025378187,-0.069205054,0.056058515,-0.52444309,-0.133787021
1.76966E+18,6.434465332,-1.378099202,0.020772739,0.073931205,0.100076303,-0.504087508,-0.097316623
1.76966E+18,6.444453613,-1.465718741,0.016251462,0.177258893,0.142063975,-0.473645985,-0.069155291
1.76966E+18,6.45444165,-1.502863354,0.008458616,0.306892989,0.180119216,-0.426131725,-0.058551114
1.76966E+18,6.464429443,-1.42328859,0.013022563,0.395348394,0.215807632,-0.376017392,-0.067252927
1.76966E+18,6.47441748,-1.309952425,0.026465398,0.456752419,0.243368953,-0.341112673,-0.087341152
1.76966E+18,6.484405518,-1.182342529,-0.002045827,0.429916142,0.263125986,-0.311638534,-0.114652559
1.76966E+18,6.494393555,-1.090685405,0.023021979,0.403076066,0.279087901,-0.298283845,-0.137630314
1.76966E+18,6.504381592,-1.052585684,0.113175713,0.429531819,0.292892814,-0.307674795,-0.152793169
1.76966E+18,6.514369629,-1.03606388,0.22887656,0.41708501,0.296044379,-0.320079267,-0.168278649
1.76966E+18,6.524357422,-0.991835739,0.415036845,0.390675726,0.281658083,-0.327537149,-0.183767468
1.76966E+18,6.534345459,-0.889230813,0.714233727,0.28273733,0.249369651,-0.298210412,-0.207781464
1.76966E+18,6.544333496,-0.69502926,1.100906647,0.168038937,0.22285606,-0.225969166,-0.241882414
1.76966E+18,6.554321533,-0.417274103,1.438017372,0.166983291,0.212363482,-0.130451977,-0.288004905
1.76966E+18,6.564309326,-0.165698366,1.742678949,0.207864167,0.199059561,-0.023350362,-0.343659729
1.76966E+18,6.574297363,-0.008547756,2.094082403,0.23540187,0.183377802,0.062049758,-0.377007842
1.76966E+18,6.584285645,-0.084919486,2.273170558,0.194306474,0.168779641,0.135239258,-0.353255451
1.76966E+18,6.594273682,-0.430370608,2.154813058,0.119421621,0.162490055,0.219612733,-0.280230999
1.76966E+18,6.604261475,-0.755152013,1.803021482,-0.100536888,0.171637699,0.266826749,-0.176745415
1.76966E+18,6.614250488,-0.836709183,1.455531402,-0.199812671,0.206299275,0.273810625,-0.065627679
1.76966E+18,6.624238525,-0.771490276,1.147532789,-0.176872232,0.24669373,0.222698927,0.034688417
1.76966E+18,6.634226563,-0.58914575,0.948769043,-0.236901753,0.275947481,0.152045786,0.104054973
1.76966E+18,6.644214355,-0.332960327,0.87272333,-0.160400405,0.27350539,0.078665636,0.137304291
1.76966E+18,6.654202393,-0.083773969,0.831709767,-0.141570325,0.245607734,0.021609539,0.136145815
1.76966E+18,6.664190674,0.14267098,0.761166743,-0.149314363,0.210624143,-0.008043442,0.106839515
1.76966E+18,6.674178467,0.316038419,0.60804948,-0.139064772,0.175964966,-0.002673178,0.076068558
1.76966E+18,6.684166504,0.384583547,0.314575653,-0.248320681,0.149960577,0.00770074,0.051149361
1.76966E+18,6.694154541,0.368617039,-0.062841948,-0.387932565,0.140176132,0.004834114,0.035569604
1.76966E+18,6.704142822,0.317955066,-0.390313323,-0.545951044,0.126046106,-0.008055898,0.026209002
1.76966E+18,6.714130615,0.288905789,-0.751492321,-0.715436381,0.107274823,-0.015293838,0.015396833
1.76966E+18,6.724118652,0.26636078,-1.125138002,-0.832613146,0.081585675,-0.026347218,0.001006046
1.76966E+18,6.734106445,0.277470495,-1.47572371,-0.86217008,0.053107157,-0.040131208,-0.025640478
1.76966E+18,6.744094238,0.413779539,-1.743635811,-0.911537337,0.032405984,-0.05945152,-0.066886082
1.76966E+18,6.75408252,0.601374825,-1.852315382,-0.884359407,0.009781366,-0.072313257,-0.112594977
1.76966E+18,6.764070557,0.795846134,-1.824887861,-0.887462049,-0.001816385,-0.074997693,-0.161722794
1.76966E+18,6.77405835,1.058660912,-1.648941512,-0.854150439,-0.013556665,-0.065587148,-0.225046098
1.76966E+18,6.784046387,1.388515675,-1.255320964,-0.826568897,-0.019756591,-0.004473126,-0.30011633
1.76966E+18,6.794034668,1.569662808,-0.751882782,-0.749580058,-0.033947244,0.013211329,-0.349032193
1.76966E+18,6.804022705,1.709524575,-0.313075769,-0.686830464,-0.042386733,0.033890728,-0.36921528
1.76966E+18,6.814010498,1.674629495,0.13363924,-0.59071636,-0.046522886,0.084138721,-0.339924246
1.76966E+18,6.823999268,1.406893043,0.458119616,-0.567376401,-0.076481588,0.108440898,-0.279399157
1.76966E+18,6.833987549,1.142257187,0.605552987,-0.720521136,-0.075858407,0.095140003,-0.211205482
1.76966E+18,6.843975586,0.926683176,0.801795106,-0.592879091,-0.025014743,0.059800699,-0.166134328
1.76966E+18,6.853963379,0.910284999,1.153870176,-0.056229252,-0.003073759,0.057245664,-0.11330121
1.76966E+18,6.863951416,0.479389783,1.138843871,-0.273331788,0.011204897,0.07415843,-0.049903709
1.76966E+18,6.873939697,0.155630414,1.135470596,-0.198672268,0.029258201,0.094716169,0.033327531
1.76966E+18,6.88392749,-0.205711665,0.880265416,-0.088899934,0.033862863,0.108996712,0.109699748
1.76966E+18,6.893915527,-0.436912285,0.493192683,-0.089976039,0.035616554,0.128215685,0.164235428
1.76966E+18,6.903903564,-0.526268438,0.112599959,0.014850071,0.035998546,0.162465677,0.197604358
1.76966E+18,6.913891602,-0.541007742,-0.274764451,0.124192197,0.040120054,0.149085954,0.223111048
1.76966E+18,6.923879639,-0.538197945,-0.632960634,0.299481251,0.052094728,0.153701797,0.23744154
1.76966E+18,6.933867676,-0.596856178,-0.862534529,0.463273053,0.055905443,0.200430691,0.236776024
1.76966E+18,6.943855469,-0.596419248,-1.059111579,0.533451335,0.045956977,0.287624776,0.208467424
1.76966E+18,6.953843262,-0.398773985,-1.110733045,0.533221034,0.040362205,0.352487653,0.158994153
1.76966E+18,6.963831543,-0.129703069,-1.028206737,0.67404434,0.03423268,0.386927098,0.099430211
1.76966E+18,6.97381958,0.138864865,-0.958353449,0.750293759,0.019320844,0.402161151,0.033178486
1.76966E+18,6.983807617,0.382387206,-0.843272779,0.746478877,-0.008744841,0.383653969,-0.03167171
1.76966E+18,6.99379541,0.607968524,-0.623952567,0.625512949,-0.034077894,0.352572739,-0.087330706
1.76966E+18,7.003783447,0.724742261,-0.559887215,0.651904989,-0.051740967,0.317057431,-0.122338153
1.76966E+18,7.013771729,0.678400489,-0.69586045,0.631987697,-0.053507973,0.292084157,-0.114648804
1.76966E+18,7.023759521,0.492701976,-0.784675629,0.572804564,-0.051727735,0.266171396,-0.074124247
1.76966E+18,7.033747314,0.343832434,-0.759497348,0.573073736,-0.043335047,0.225473523,-0.012933066
1.76966E+18,7.043735352,0.238039818,-0.628230099,0.569284281,-0.033575617,0.189351186,0.061192073
1.76966E+18,7.053724365,0.023632805,-0.502367923,0.620305735,-0.028803764,0.175413534,0.125790238
1.76966E+18,7.063712402,-0.196178698,-0.455866284,0.705043289,-0.026222214,0.170374587,0.171382234
1.76966E+18,7.073700195,-0.335361251,-0.530354831,0.729877578,-0.027368171,0.127502218,0.185361162
1.76966E+18,7.083688232,-0.430290236,-0.573936783,0.808059719,-0.039236728,0.1296902,0.187814176
1.76966E+18,7.093676514,-0.614308833,-0.594172346,0.743315152,-0.036128554,0.149827957,0.189563334
1.76966E+18,7.103664551,-0.725826842,-0.643591334,0.709980453,-0.0207364,0.181976587,0.186828285
1.76966E+18,7.113652344,-0.680910134,-0.510848166,0.644877282,0.000903383,0.23404485,0.188593954
1.76966E+18,7.123640381,-0.711590519,-0.516592847,0.551595187,0.016340505,0.287827522,0.205183953
1.76966E+18,7.133628662,-0.733773124,-0.506979216,0.475161644,0.032489117,0.331363261,0.221850812
1.76966E+18,7.143616455,-0.645240562,-0.474841033,0.460844657,0.047997627,0.374427497,0.233012006
1.76966E+18,7.153604248,-0.511938007,-0.546926611,0.483925672,0.058344275,0.422142297,0.237885848
1.76966E+18,7.163592285,-0.371435312,-0.661832508,0.521054503,0.066023521,0.455469012,0.24487704
1.76966E+18,7.173580078,-0.221441734,-0.7100731,0.63058806,0.07123293,0.48213017,0.252883315
1.76966E+18,7.183568359,-0.048806701,-0.628280952,0.813539904,0.070251435,0.500277758,0.262200922
1.76966E+18,7.193556396,0.151284202,-0.494859154,0.966298855,0.061844375,0.496054024,0.263560742
1.76966E+18,7.203544434,0.366899714,-0.336854704,1.130047402,0.050888967,0.47907117,0.253525853
1.76966E+18,7.213532227,0.537103136,-0.235303963,1.272460022,0.038759064,0.458732098,0.228492409
1.76966E+18,7.223520264,0.684041125,-0.195223881,1.307529875,0.028049354,0.440506965,0.2027044
1.76966E+18,7.233508545,0.70171619,-0.167969379,1.366835758,0.023012783,0.431506008,0.197463036
1.76966E+18,7.243496338,0.580874765,-0.220908358,1.367918585,0.029249756,0.401930243,0.208729535
1.76966E+18,7.253485107,0.504962908,-0.198117849,1.334281103,0.040359933,0.350978911,0.245414838
1.76966E+18,7.263473389,0.42555444,-0.194506089,1.286389179,0.049815595,0.297395587,0.298924625
1.76966E+18,7.273461426,0.283585179,-0.216228091,1.197455343,0.051616423,0.25494054,0.355413467
1.76966E+18,7.283449219,0.2260314,-0.151613872,1.003607426,0.050427843,0.234727442,0.399153382
1.76966E+18,7.293437256,0.372710154,-0.005029811,0.80174396,0.039061472,0.218425974,0.432562739
1.76966E+18,7.303425293,0.516982723,0.189642282,0.63737962,0.014387337,0.212423459,0.461879253
1.76966E+18,7.313413574,0.548008707,0.483686603,0.522459986,-0.000497071,0.18418996,0.473880261
1.76966E+18,7.323401367,0.611940496,0.720186498,0.625166327,-0.005415095,0.124743722,0.466369629
1.76966E+18,7.333389404,0.655239248,0.938292073,0.797803406,-0.024562426,0.074706919,0.438612044
1.76966E+18,7.343377441,0.613307547,1.13638245,0.896696034,-0.067055248,-0.008792482,0.39553386
1.76966E+18,7.353365479,0.632884062,1.402375565,0.834703104,-0.104788244,-0.025337903,0.361094415
1.76966E+18,7.363353271,0.405599739,1.558016209,0.896167334,-0.133262455,-0.027108323,0.314911455
1.76966E+18,7.373341309,0.470382593,1.69672793,0.991337434,-0.155157641,-0.070997484,0.249838725
1.76966E+18,7.383329346,0.630237347,1.916555506,0.911510157,-0.203851327,-0.135800257,0.20542036
1.76966E+18,7.393317139,0.522320431,1.959009331,0.609606062,-0.218321621,-0.153594702,0.124893032
1.76966E+18,7.40330542,0.591758271,2.099189371,0.590550064,-0.221460253,-0.101287946,-0.001712683
1.76966E+18,7.413293457,1.013560664,2.382807575,0.444640249,-0.206428036,-0.039844021,-0.102202803
1.76966E+18,7.42328125,1.00700379,1.964446554,0.20153701,-0.218122676,0.03624421,-0.155412123
1.76966E+18,7.433269287,0.715360977,1.084387474,-0.31652854,-0.199843809,0.091674976,-0.158365309
1.76966E+18,7.443257568,0.379382471,0.240673965,-0.629330461,-0.190301359,0.09712483,-0.146892473
1.76966E+18,7.453245605,0.332450332,-0.1595698,-1.232346039,-0.202833131,0.115585856,-0.125231385
1.76966E+18,7.463234131,0.260732857,-0.428628733,-1.832792935,-0.222476572,0.111449637,-0.075928703
1.76966E+18,7.473222168,-0.001379618,-0.628659138,-2.305788048,-0.243860945,0.143416092,-0.009871923
1.76966E+18,7.483210449,-0.284668152,-0.699487993,-2.658149826,-0.266952038,0.199786082,0.073521852
1.76966E+18,7.493198486,-0.601498451,-0.693521778,-2.918180818,-0.264624149,0.19810535,0.181034997
1.76966E+18,7.503186279,-0.864272897,-0.707260965,-3.003667437,-0.225414976,0.211526498,0.280527353
1.76966E+18,7.513174316,-1.051263788,-0.657758975,-2.970251782,-0.153536528,0.266638219,0.356718779
1.76966E+18,7.523162598,-1.250039516,-0.577825607,-2.677942906,-0.083080702,0.294367105,0.421433628
1.76966E+18,7.533150391,-1.361565854,-0.342855991,-2.10548701,-0.015301122,0.387500525,0.447091848
1.76966E+18,7.543138428,-1.399234637,0.059731123,-1.375551856,0.04732934,0.537089646,0.432339847
1.76966E+18,7.553126465,-1.431253285,0.331764103,-0.706552232,0.096705146,0.685459375,0.380209804
1.76966E+18,7.563114258,-1.34015248,0.496084312,-0.232807178,0.119272359,0.830440342,0.291744262
1.76966E+18,7.573102295,-1.080325047,0.525206362,0.048768999,0.111977428,0.915667593,0.19006291
1.76966E+18,7.583090332,-0.757604666,0.253500714,0.006354045,0.07618884,0.879698396,0.096245512
1.76966E+18,7.593078369,-0.360141618,-0.010308044,-0.321891236,0.032175045,0.781651437,0.020939313
1.76966E+18,7.603066162,0.02257745,-0.225178875,-0.600428192,-0.011172738,0.669929087,-0.015809385
1.76966E+18,7.613054443,0.222669814,-0.349552858,-0.845579302,-0.04629717,0.532129645,-0.012434628
1.76966E+18,7.62304248,0.279698693,-0.359654565,-1.086577093,-0.086900808,0.379162997,0.009928701
1.76966E+18,7.633030273,0.393265451,-0.253894097,-1.291346509,-0.109452724,0.229018778,0.02585387
1.76966E+18,7.643018311,0.474217056,-0.055164838,-1.374432496,-0.111301497,0.129008159,0.033349451
1.76966E+18,7.653006348,0.278021699,0.156362528,-1.331143682,-0.092913434,0.090960108,0.057248391
1.76966E+18,7.662995361,-0.183645087,0.36477147,-1.183757072,-0.067646973,0.109292276,0.11501044
1.76966E+18,7.672983154,-0.789314979,0.533183917,-1.100263965,-0.031093754,0.176468655,0.206176311
1.76966E+18,7.682971191,-1.372950441,0.661374828,-0.919471345,0.01940098,0.277809739,0.324534297
1.76966E+18,7.692959473,-1.866373718,0.652204264,-0.779041422,0.078177474,0.357465684,0.418272525
1.76966E+18,7.70294751,-1.952617584,0.45852352,-0.686207071,0.125013039,0.409881443,0.456173837
1.76966E+18,7.712935303,-1.746066253,0.115956868,-0.790595959,0.166655034,0.437690973,0.434821159
1.76966E+18,7.72292334,-1.337104344,-0.171459559,-0.841661545,0.1893114,0.460244775,0.374775261
1.76966E+18,7.732911377,-1.082868886,-0.363392583,-0.780950178,0.199519292,0.498105347,0.30535385
1.76966E+18,7.742899414,-0.940907224,-0.489744588,-0.715608814,0.193867028,0.535886467,0.233888626
1.76966E+18,7.752887451,-0.756656864,-0.512827942,-0.568995235,0.177309632,0.540957928,0.176918283
1.76966E+18,7.762875244,-0.591551058,-0.564141949,-0.482653753,0.155311853,0.489923,0.145290643
1.76966E+18,7.772863281,-0.600489859,-0.809797795,-0.580993716,0.151546404,0.386055738,0.131114379
1.76966E+18,7.782851318,-0.672199881,-0.888733385,-0.553792989,0.149528593,0.337551147,0.113949001
1.76966E+18,7.792839355,-0.72321739,-0.799897748,-0.298773395,0.142777488,0.287297279,0.097496264
1.76966E+18,7.802827393,-0.801777862,-0.819367003,-0.332661344,0.154674262,0.256789982,0.07385011
1.76966E+18,7.812815186,-0.881712692,-0.71227967,-0.144290398,0.172360048,0.24478817,0.057677537
1.76966E+18,7.822803223,-1.075572153,-0.714576841,-0.013267186,0.197832167,0.248668268,0.037802052
1.76966E+18,7.832791504,-1.201613631,-0.722480162,0.068795304,0.218062595,0.267442763,0.026693741
1.76966E+18,7.842779541,-1.337711955,-0.761260851,0.115794955,0.228072986,0.2858769,0.015745167
1.76966E+18,7.852767334,-1.423636672,-0.8010136,0.00542261,0.238794342,0.272152305,0.00432926
1.76966E+18,7.862755371,-1.411212075,-0.794931065,-0.006084581,0.237851128,0.248488724,-0.01352731
1.76966E+18,7.872744385,-1.338201784,-0.759266462,-0.085664898,0.221354708,0.209731475,-0.042780269
1.76966E+18,7.882732422,-1.177766015,-0.709298608,-0.238133633,0.198975682,0.188194305,-0.091653571
1.76966E+18,7.892720215,-0.989532723,-0.660954557,-0.346396147,0.185372263,0.18147701,-0.147084624
1.76966E+18,7.902708252,-0.903284765,-0.624159488,-0.4600462,0.18124263,0.141631156,-0.194672108
1.76966E+18,7.912696533,-0.816310246,-0.546463085,-0.482119792,0.187491208,0.098791815,-0.223270178
1.76966E+18,7.922684326,-0.904604031,-0.385268314,-0.469485351,0.202390715,0.073828869,-0.229381695
1.76966E+18,7.932672363,-1.109863422,-0.199645205,-0.388174557,0.224926651,0.072136164,-0.219384193
1.76966E+18,7.9426604,-1.278516546,-0.058822191,-0.186727563,0.252738267,0.096558198,-0.207974061
1.76966E+18,7.952648682,-1.405907247,0.014418401,-0.025316228,0.279050291,0.120598018,-0.204655766
1.76966E+18,7.962636475,-1.417569335,0.080957451,0.109961719,0.294121414,0.156107739,-0.213250726
1.76966E+18,7.972624268,-1.395108497,0.13769173,0.062196052,0.314125746,0.184144437,-0.222053006
1.76966E+18,7.982612305,-1.427361246,0.123843822,0.099919633,0.341354758,0.1963723,-0.222681314
1.76966E+18,7.992600098,-1.421216752,0.155053784,0.184990657,0.380383372,0.217118323,-0.208104774
1.76966E+18,8.002588379,-1.522417365,0.206311093,0.364549351,0.418848455,0.230661362,-0.177520096
1.76966E+18,8.012576416,-1.58722506,0.270062557,0.48032268,0.453518301,0.216503993,-0.142026812
1.76966E+18,8.022564209,-1.599590036,0.348292629,0.518656502,0.466529131,0.181732669,-0.105236374
1.76966E+18,8.032552246,-1.600806426,0.475258966,0.496566835,0.452915311,0.14717257,-0.084894612
1.76966E+18,8.042539795,-1.504427242,0.63055708,0.409804497,0.417574167,0.112581305,-0.095522389
1.76966E+18,8.052528076,-1.179940729,0.928127822,0.272732653,0.367137372,0.13211292,-0.14624095
1.76966E+18,8.062516113,-0.695216307,1.348306122,0.209741652,0.305716693,0.228018805,-0.219423726
1.76966E+18,8.072503906,-0.331035204,1.595918946,0.127833768,0.26392132,0.388634831,-0.299414456
1.76966E+18,8.08249292,-0.032522798,1.824683863,0.062398881,0.257561177,0.540297925,-0.39021489
1.76966E+18,8.092480957,0.315856048,2.281016595,-0.043473816,0.272479147,0.62292701,-0.444341242
1.76966E+18,8.102468994,0.558830107,2.388264087,-0.145110482,0.174690798,0.62829262,-0.461408794
1.76966E+18,8.112456787,0.337516091,2.327262213,-0.999578901,0.153455555,0.544008374,-0.468448341
1.76966E+18,8.122444824,0.429570105,2.932906971,-0.65091627,0.157700241,0.435851574,-0.411156535
1.76966E+18,8.132433105,0.070360946,2.91975289,-0.327114816,0.181841552,0.354692549,-0.286239624
1.76966E+18,8.142421143,-0.441297952,2.76528772,0.063328563,0.223015308,0.305529356,-0.094740681
1.76966E+18,8.152408936,-0.980306045,2.581471952,0.429695777,0.250713497,0.30184567,0.124375157
1.76966E+18,8.162396973,-1.259891341,2.395746552,0.592032996,0.246535495,0.314177752,0.316252559
1.76966E+18,8.172385254,-1.078341472,2.241360292,0.445109327,0.215656668,0.333161563,0.427699983
1.76966E+18,8.182373047,-0.52330725,1.903939186,-0.023671091,0.200170711,0.340808392,0.432052135
1.76966E+18,8.19236084,0.268584301,1.494980784,-0.33289223,0.186361149,0.37176019,0.372764826
1.76966E+18,8.202348877,0.874042304,0.725962743,-0.592384586,0.140593544,0.389833272,0.31224975
1.76966E+18,8.212336914,1.05239513,-0.164388598,-1.199883447,0.106616125,0.409328669,0.260477364
1.76966E+18,8.222324951,1.217582185,-0.819319072,-1.335197049,0.072509952,0.445393384,0.206032619
1.76966E+18,8.232312988,1.467816298,-1.28445938,-1.291954997,0.023435088,0.443488955,0.145103231
1.76966E+18,8.242301025,1.849946022,-1.615278896,-1.35812872,-0.009312414,0.415655315,0.064123102
1.76966E+18,8.252288818,2.269491285,-1.794791998,-1.274989541,-0.034628958,0.362308472,-0.026368447
1.76966E+18,8.2622771,2.5853599,-1.806895108,-1.284294545,-0.051358428,0.278742254,-0.123623446
1.76966E+18,8.272265137,2.856838753,-1.631983947,-1.227534255,-0.069431439,0.172156438,-0.206044286
1.76966E+18,8.282253906,2.970350858,-1.271941844,-1.156109187,-0.089040369,0.033977304,-0.243683204
1.76966E+18,8.292241699,2.813863535,-0.737250445,-1.035363039,-0.072913595,-0.020580744,-0.255200058
1.76966E+18,8.30222998,2.455119362,-0.06691665,-0.635984366,-0.066358224,-0.041365001,-0.209894732
1.76966E+18,8.312218018,1.874789664,0.380455361,-0.617279665,-0.089951694,-0.052966528,-0.129315987
1.76966E+18,8.322206055,1.373619134,0.530104655,-0.909240458,-0.07226377,-0.015976166,-0.010753501
1.76966E+18,8.332193848,0.892685337,0.824252437,-0.858951702,-0.02909686,0.035201535,0.119289719
1.76966E+18,8.342182129,0.520331157,0.929796047,-0.772622203,0.027819114,0.085543364,0.240725175
1.76966E+18,8.352170166,0.259241888,0.790735952,-0.723250269,0.076921947,0.184349313,0.359669387
1.76966E+18,8.362157959,-0.120147305,0.47808513,-0.711159726,0.1119591,0.308266252,0.458771557
1.76966E+18,8.372145996,-0.377790526,0.1653893,-0.695371498,0.142467752,0.412102371,0.510801435
1.76966E+18,8.382134033,-0.323607977,-0.097546767,-0.630417087,0.165119246,0.500644386,0.522117317
1.76966E+18,8.39212207,-0.250971488,-0.415381129,-0.551055381,0.17893599,0.562529862,0.512632966
1.76966E+18,8.402109863,-0.100683019,-0.70442428,-0.560250787,0.199123964,0.676857531,0.471479684
1.76966E+18,8.4120979,0.068508596,-0.864059547,-0.496214076,0.195016578,0.798305154,0.41072154
1.76966E+18,8.422085938,0.304462547,-0.95876203,-0.50606327,0.185481057,0.893067896,0.334190935
1.76966E+18,8.432073975,0.725695616,-0.955575801,-0.578688653,0.174024671,0.945396066,0.258089244
1.76966E+18,8.442062012,1.137550324,-0.843445798,-0.624926089,0.17476885,0.967615247,0.198272228
1.76966E+18,8.452050049,1.371153913,-0.744451755,-0.626476241,0.171354145,0.975446284,0.173585266
1.76966E+18,8.462037842,1.424993055,-0.694539431,-0.625061698,0.159513861,0.981093347,0.178184763
1.76966E+18,8.472025879,1.345604754,-0.657924395,-0.595619915,0.147556275,0.982569516,0.195078805
1.76966E+18,8.48201416,1.206488544,-0.606602789,-0.543301114,0.125552669,0.96365428,0.216944233
1.76966E+18,8.49200293,1.113532028,-0.565057311,-0.524516042,0.120323278,0.947210014,0.241488993
1.76966E+18,8.501990723,0.962645885,-0.555828879,-0.515172167,0.124004401,0.951378047,0.275719672
1.76966E+18,8.51197876,0.739259739,-0.504897149,-0.513174271,0.128075853,0.9880234,0.314150959
1.76966E+18,8.521967041,0.587757511,-0.434244819,-0.477940168,0.139931038,1.047693849,0.357105613
1.76966E+18,8.531955078,0.518309588,-0.324950332,-0.441399951,0.152416736,1.127785206,0.389526665
1.76966E+18,8.541942871,0.4930863,-0.263909295,-0.408091848,0.165637568,1.229979753,0.401628435
1.76966E+18,8.551930908,0.632045565,-0.15496669,-0.416245929,0.182275146,1.316879511,0.401581287
1.76966E+18,8.561919189,0.728730454,-0.068866031,-0.42985506,0.200323865,1.390028477,0.408632189
1.76966E+18,8.571906982,0.737329063,-0.064743983,-0.48715048,0.215763018,1.438548923,0.425908923
1.76966E+18,8.58189502,0.767654936,-0.015595044,-0.497471967,0.239852637,1.456540585,0.455005974
1.76966E+18,8.591883057,0.760975312,0.002706336,-0.459919651,0.262130767,1.490586758,0.483958542
1.76966E+18,8.601871094,0.856585557,0.02756839,-0.427939874,0.289809138,1.512699246,0.506510615
1.76966E+18,8.611858887,0.995194694,0.09273206,-0.3485203,0.315733135,1.549027085,0.514406621
1.76966E+18,8.621846924,1.128372454,0.120593296,-0.315971783,0.335286617,1.585367799,0.513186514
1.76966E+18,8.631834961,1.283018826,0.126270172,-0.287078282,0.366445869,1.661451697,0.507726729
1.76966E+18,8.641822754,1.390238261,0.125178285,-0.292117737,0.388825327,1.687832952,0.546250939
1.76966E+18,8.651811035,1.337970898,-0.007975217,-0.287419642,0.414457202,1.73333919,0.609112442
1.76966E+18,8.661799072,1.399491827,-0.099793669,-0.476951742,0.44583112,1.766667843,0.694272637
1.76966E+18,8.671787109,1.422088274,-0.256328631,-0.497232313,0.475846022,1.825996399,0.776949942
1.76966E+18,8.681774902,1.446677356,-0.538098577,-0.434357632,0.491162241,1.90002954,0.837485194
1.76966E+18,8.691763916,1.56926504,-0.797923817,-0.408544561,0.487763256,1.937079668,0.872734785
1.76966E+18,8.701751953,1.691481553,-1.057036526,-0.375081267,0.476713091,1.950765252,0.877965331
1.76966E+18,8.71173999,1.824126521,-1.276582363,-0.355997212,0.456300497,1.932932973,0.877298236
1.76966E+18,8.721727783,1.93664377,-1.376920222,-0.320219504,0.434589326,1.91184473,0.871898949
1.76966E+18,8.731716064,2.002830937,-1.306183721,-0.307214768,0.401093692,1.887557983,0.85387516
1.76966E+18,8.741704102,2.118951764,-1.118206742,-0.317632994,0.354736686,1.860108018,0.82347101
1.76966E+18,8.751691895,2.248643435,-0.766470694,-0.382476346,0.31807375,1.85261178,0.788786829
1.76966E+18,8.761679932,2.27656283,-0.401267263,-0.438028137,0.302553385,1.835417509,0.765433311
1.76966E+18,8.771668213,2.187984676,-0.193084531,-0.464696071,0.286199719,1.840407729,0.781022906
1.76966E+18,8.78165625,1.834013124,-0.051230421,-0.636074967,0.267433614,1.877339125,0.831233978
1.76966E+18,8.791644043,1.404413501,0.135225632,-0.655279433,0.248365372,1.900554776,0.857848823
1.76966E+18,8.801631836,1.286295363,0.335885567,-0.74941493,0.226098686,1.844794512,0.849825799
1.76966E+18,8.811619873,1.161675296,0.429738155,-0.919576851,0.182937101,1.798431873,0.811796665
1.76966E+18,8.82160791,0.879350347,0.428376804,-1.110382039,0.126851603,1.732541561,0.75890553
1.76966E+18,8.831595947,0.487226468,0.273128374,-1.30492203,0.076435819,1.678403258,0.716591656
1.76966E+18,8.841583984,0.040603813,0.304198635,-1.383499892,0.076865286,1.740874052,0.661250889
1.76966E+18,8.851571777,-0.293615282,0.925736543,-1.117969426,0.128385469,1.845865965,0.583825886
1.76966E+18,8.861559814,-0.336537601,1.767289659,-0.532276739,0.19175455,1.936991692,0.514069021
1.76966E+18,8.871548096,-0.624147798,1.978192755,-0.309162688,0.242852092,2.090917826,0.464735568
1.76966E+18,8.881536133,-1.026577382,1.840737757,-0.457001425,0.314836651,2.250404119,0.439861447
1.76966E+18,8.891524902,-1.281655136,1.560739496,-0.454556078,0.391487241,2.34393096,0.414310277
1.76966E+18,8.901512939,-1.175958966,1.13213999,-0.601889496,0.454265922,2.427378178,0.371709943
1.76966E+18,8.911500977,-0.857071295,0.641617988,-0.960426163,0.498963863,2.458172798,0.324249744
1.76966E+18,8.921489014,-0.470522878,0.338823374,-1.184036766,0.530647516,2.429436922,0.304684192
1.76966E+18,8.931476807,-0.202796947,0.237093769,-1.287180914,0.539690554,2.357027292,0.333809048
1.76966E+18,8.941464844,-0.097945703,0.261832489,-1.364837277,0.532969773,2.210059404,0.413065284
1.76966E+18,8.951453125,0.089259123,0.375663451,-1.429644388,0.532111168,2.015340567,0.526409984
1.76966E+18,8.961440918,0.292723886,0.565785041,-1.338040602,0.525474072,1.837637901,0.628157079
1.76966E+18,8.971428955,0.471793628,0.72586279,-1.144112898,0.526189387,1.753528833,0.714755058
1.76966E+18,8.981416992,0.490460919,0.750873312,-0.902018398,0.526767671,1.717739224,0.777521074
1.76966E+18,8.991405273,0.2807596,0.599138444,-0.750851831,0.527506649,1.721370697,0.822039247
1.76966E+18,9.001393066,0.017466099,0.414527727,-0.879832431,0.535815775,1.696948171,0.860364676
1.76966E+18,9.011380859,-0.277265036,0.212905669,-0.992690749,0.56287533,1.675983429,0.896678746
1.76966E+18,9.021368896,-0.605415332,0.080903675,-0.981162516,0.580070913,1.643104911,0.924330711
1.76966E+18,9.031356689,-0.754100019,0.034026188,-1.025512091,0.592449009,1.667967677,0.934686422
1.76966E+18,9.041345459,-0.826376882,0.045438394,-0.980868063,0.604097724,1.690294147,0.928133905
1.76966E+18,9.051333496,-0.828287099,-0.048665539,-0.867187615,0.605075121,1.713251948,0.90143919
1.76966E+18,9.061321533,-0.728058254,-0.085249595,-0.903523542,0.602953255,1.733890176,0.855053067
1.76966E+18,9.071309326,-0.638527036,-0.143586049,-0.891831351,0.603124261,1.746274948,0.797240376
1.76966E+18,9.081297607,-0.507026854,-0.299501417,-0.96505733,0.596237183,1.720615745,0.734648883
1.76966E+18,9.091285645,-0.352836994,-0.365328519,-1.051350297,0.589891672,1.688651323,0.683472514
1.76966E+18,9.101274414,-0.287220905,-0.411647203,-1.167567277,0.588890851,1.644608021,0.65251261
1.76966E+18,9.111262451,-0.249141642,-0.453931516,-1.241605158,0.593855202,1.597280979,0.638533413
1.76966E+18,9.121250488,-0.241506909,-0.414050757,-1.247683893,0.593994737,1.577273369,0.638571501
1.76966E+18,9.131238525,-0.286145385,-0.338897024,-1.279489483,0.59061867,1.569669247,0.644065857
1.76966E+18,9.141226563,-0.367808938,-0.258837399,-1.193335048,0.589214623,1.557231903,0.657706201
1.76966E+18,9.151214355,-0.442285502,-0.176657713,-1.099449434,0.579361975,1.526567101,0.661668479
1.76966E+18,9.161202637,-0.399084366,-0.00621639,-1.044123561,0.562268019,1.496748924,0.640006721
1.76966E+18,9.171190674,-0.327370544,0.17213702,-1.033490523,0.539304912,1.475393295,0.606112957
1.76966E+18,9.181178467,-0.343942178,0.289185775,-1.046060374,0.510438502,1.46599555,0.569966972
1.76966E+18,9.191166504,-0.435820836,0.30110593,-1.132798162,0.493934065,1.45348084,0.540358961
1.76966E+18,9.201154541,-0.526097758,0.226851192,-1.20668319,0.488046318,1.444068432,0.50676465
1.76966E+18,9.211142334,-0.50089332,0.252273218,-1.292665483,0.495436847,1.442778707,0.474712163
1.76966E+18,9.221130371,-0.533758502,0.197116563,-1.35295044,0.515750289,1.460136175,0.445875973
1.76966E+18,9.231118408,-0.584491056,0.099185766,-1.446765034,0.544977903,1.501484394,0.416405708
1.76966E+18,9.241106445,-0.572634176,0.028104981,-1.482169233,0.565502346,1.553471684,0.386805505
1.76966E+18,9.251094482,-0.571291529,0.022180852,-1.583978918,0.578245282,1.584122777,0.378272712
1.76966E+18,9.26108252,-0.708504535,0.067372578,-1.581415205,0.581391037,1.60684216,0.390217632
1.76966E+18,9.271070557,-0.865679403,0.115021633,-1.512141762,0.58001101,1.591923714,0.409577757
1.76966E+18,9.28105835,-0.862244606,0.12809505,-1.480545139,0.575708807,1.565825701,0.43392545
1.76966E+18,9.291046631,-0.887059606,0.094595515,-1.473887142,0.571380377,1.531988025,0.452763319
1.76966E+18,9.301034668,-0.865881501,0.077449735,-1.463105052,0.564306021,1.497534156,0.468165249
1.76966E+18,9.311023438,-0.870002381,0.084792499,-1.44497669,0.560622036,1.476100683,0.481519669
1.76966E+18,9.32101123,-0.922303061,0.088335871,-1.396553143,0.560231328,1.457023501,0.494144469
1.76966E+18,9.330999512,-1.047512326,0.081957568,-1.330416537,0.563588798,1.458122611,0.503208816
1.76966E+18,9.340987549,-1.157326454,0.08164894,-1.238615328,0.565903842,1.424443126,0.512267292
1.76966E+18,9.350975586,-1.170334111,0.055302201,-1.18922469,0.568501234,1.407373667,0.50373292
1.76966E+18,9.360963379,-1.196797755,0.136771108,-1.067808972,0.559746385,1.443770647,0.496954441
1.76966E+18,9.37095166,-1.35606828,0.156707981,-0.970521733,0.55392313,1.435289502,0.481268704
1.76966E+18,9.380939697,-1.26409493,0.164980719,-0.882415872,0.545124412,1.378879666,0.472317964
1.76966E+18,9.39092749,-1.257582479,0.192576582,-0.834352683,0.529701233,1.323791981,0.452925891
1.76966E+18,9.400915527,-1.220070348,0.255668706,-0.841055103,0.510538459,1.255932689,0.430095255
1.76966E+18,9.41090332,-1.170026945,0.356630249,-0.830099117,0.485081285,1.204131722,0.399138153
1.76966E+18,9.420891602,-1.048729008,0.476254992,-0.852838188,0.468926549,1.162267685,0.367777586
1.76966E+18,9.430879395,-0.962630103,0.589904167,-0.799191353,0.467605889,1.145454049,0.341240525
1.76966E+18,9.440867432,-0.951385363,0.738751497,-0.716313456,0.482717842,1.156976581,0.3222543
1.76966E+18,9.450855469,-0.890474675,0.977680665,-0.48392918,0.506106555,1.208410025,0.310999513
1.76966E+18,9.460843506,-0.805847888,1.317887602,-0.212953599,0.533127725,1.295547009,0.289580375
1.76966E+18,9.470831543,-0.645523032,1.665823088,0.027145781,0.563795626,1.429944158,0.240468189
1.76966E+18,9.48081958,-0.388047424,1.856246876,0.296605112,0.593290627,1.614385724,0.187073544
1.76966E+18,9.490807373,-0.406138376,1.537717517,0.518871021,0.589271665,1.810003161,0.146786839
1.76966E+18,9.50079541,-0.562268118,0.91783556,0.309733473,0.546410263,1.962808371,0.107450232
1.76966E+18,9.510784424,-0.473198819,0.49421092,-0.158925364,0.489889741,1.987807155,0.092882738
1.76966E+18,9.520772461,-0.266153859,0.101030517,-0.409918187,0.45156613,1.878491282,0.14266704
1.76966E+18,9.530760498,-0.337943376,-0.541822566,-0.487493594,0.422682554,1.720419407,0.246229917
1.76966E+18,9.540748535,-0.285673383,-1.045683942,-0.523525861,0.422978163,1.543877006,0.342362076
1.76966E+18,9.550736572,0.246881296,-1.159822947,-0.294012757,0.461150318,1.338250279,0.424044967
1.76966E+18,9.560724609,0.845104378,-0.819917622,0.235698223,0.471371591,1.172887444,0.506978273
1.76966E+18,9.570712402,1.217355536,-0.472325836,0.465143231,0.450186938,1.104957223,0.575778961
1.76966E+18,9.580700439,1.616072092,0.02233049,0.719448247,0.393760741,1.120172024,0.619196534
1.76966E+18,9.590688721,1.843190703,0.387453842,0.822823281,0.363316298,1.14314425,0.676200151
1.76966E+18,9.600676514,1.972804925,0.330960386,1.290496907,0.358540386,1.119791627,0.664746523
1.76966E+18,9.610664307,2.400703882,0.283101487,1.193589899,0.347198248,0.989780664,0.624605238
1.76966E+18,9.620652344,2.681926715,0.374436539,0.632112201,0.342846572,0.92405057,0.621291697
1.76966E+18,9.630640625,2.262531383,0.19461481,0.734298317,0.324463844,0.895045817,0.656184435
1.76966E+18,9.640628418,1.950876732,0.130699095,0.741647219,0.298082829,0.917470813,0.66275245
1.76966E+18,9.650616455,1.989937992,0.205678055,0.684616295,0.262665719,0.962026536,0.627961993
1.76966E+18,9.660604492,2.063486043,0.164222009,0.574306493,0.218274415,1.03993845,0.555392921
1.76966E+18,9.670592285,2.030927151,-0.097400636,0.379643168,0.184501007,1.109075427,0.459452569
1.76966E+18,9.680580566,1.906360714,-0.413507736,0.313175723,0.167993575,1.165695906,0.34776935
1.76966E+18,9.690568604,1.725320402,-0.653636927,0.250932032,0.165116563,1.222540617,0.224641815
1.76966E+18,9.700556641,1.637121602,-0.893417158,0.171703597,0.181539699,1.263228178,0.122930884
1.76966E+18,9.710544434,1.428734726,-1.128208496,0.195069568,0.210044041,1.293402314,0.042783052
1.76966E+18,9.720533447,1.131581771,-1.345682203,0.211705353,0.245910361,1.318954587,0.00639567
1.76966E+18,9.730521484,0.747904233,-1.47738609,0.241347042,0.280957282,1.329455256,0.000532454
1.76966E+18,9.740509521,0.442741429,-1.576148662,0.33138241,0.310445547,1.362850547,0.00761381
1.76966E+18,9.750497314,0.225709621,-1.579039123,0.437246923,0.340079606,1.397566199,0.031498104
1.76966E+18,9.760485596,0.049677054,-1.564147844,0.594294511,0.370071679,1.424054265,0.078060627
1.76966E+18,9.770473633,-0.133170453,-1.551519833,0.844786399,0.393788725,1.458445549,0.13684991
1.76966E+18,9.780461426,-0.214913501,-1.580627269,1.078108832,0.409198433,1.47469151,0.189950019
1.76966E+18,9.790449463,-0.126171096,-1.529034445,1.286971947,0.429469883,1.457219243,0.23404184
1.76966E+18,9.800437744,-0.029548751,-1.459011645,1.523576179,0.442609161,1.40962863,0.262016237
1.76966E+18,9.810425537,0.101816699,-1.388777248,1.654928185,0.437315047,1.345888495,0.256875813
1.76966E+18,9.82041333,0.301152692,-1.365944654,1.567073668,0.39069438,1.255653739,0.212205902
1.76966E+18,9.830401367,0.514941281,-1.310796767,1.275105569,0.337049514,1.17304945,0.140031308
1.76966E+18,9.840389404,0.555734187,-1.238810559,1.127123915,0.290106475,1.091381788,0.05375091
1.76966E+18,9.850377441,0.507734418,-0.991395887,1.025059964,0.251309544,1.043551087,-0.023606729
1.76966E+18,9.860365479,0.424046958,-0.726795687,0.873730753,0.230027005,1.043889761,-0.064414702
1.76966E+18,9.870353516,0.117625093,-0.448920995,0.887122442,0.210033059,1.088563681,-0.079484463
1.76966E+18,9.880341553,-0.082086747,-0.248542799,0.692290483,0.210987478,1.13093257,-0.091826037
1.76966E+18,9.89032959,-0.102176764,-0.064649875,0.670780077,0.225708365,1.184215546,-0.082518287
1.76966E+18,9.900317627,-0.190898127,0.023306057,0.659898618,0.243200585,1.240239501,-0.050859254
1.76966E+18,9.910305664,-0.356575596,0.061661799,0.685118107,0.264912009,1.292316794,0.00463916
1.76966E+18,9.920294434,-0.408817825,0.120488082,0.747007577,0.291955709,1.338219643,0.07892026
1.76966E+18,9.930282471,-0.482581272,0.165447167,0.880590702,0.3281582,1.368506074,0.170721546
1.76966E+18,9.940270508,-0.516409892,0.14175065,1.040166932,0.349564612,1.347644567,0.272383809
1.76966E+18,9.950258545,-0.488928888,-0.021696868,1.128240352,0.363419443,1.299214482,0.36933139
1.76966E+18,9.960246338,-0.480524924,-0.209641698,1.234746962,0.351097614,1.229242086,0.440445632
1.76966E+18,9.970234375,-0.369278426,-0.461850034,1.255531099,0.33447656,1.15145731,0.478142411
1.76966E+18,9.980222656,-0.174073249,-0.625689766,1.419137023,0.304018974,1.071179628,0.482934147
1.76966E+18,9.990210449,-0.064973992,-0.78343878,1.464897196,0.278604954,0.993305862,0.47060743
1.76966E+18,10.00019849,-0.012557576,-0.812958889,1.634251307,0.241516963,0.922254145,0.44712314
1.76966E+18,10.01018652,-0.030882922,-0.837470815,1.726552867,0.200771138,0.864432931,0.414550811
1.76966E+18,10.02017456,-0.051625266,-0.838880097,1.690043337,0.162451059,0.793671429,0.371450484
1.76966E+18,10.03016235,-0.032716859,-0.784492673,1.533404038,0.133581594,0.740294218,0.320786238
1.76966E+18,10.0401499,-0.027522505,-0.593791822,1.371072957,0.121158533,0.712298632,0.283705682
1.76966E+18,10.0501377,-0.172946583,-0.377099036,1.353024675,0.120327629,0.730587363,0.286961913
1.76966E+18,10.06012573,-0.405861605,-0.284630596,1.303390875,0.127191156,0.687304914,0.321752936
1.76966E+18,10.07011401,-0.524645805,-0.169155374,1.077777993,0.155400962,0.641865551,0.365998447
1.76966E+18,10.08010181,-0.537464078,-0.001727847,1.068887123,0.169576898,0.621626735,0.414113998
1.76966E+18,10.09008984,-0.495837352,0.059562196,1.049820603,0.175421998,0.630138993,0.460803211
1.76966E+18,10.10007788,-0.420371776,0.110033323,1.138346443,0.172799125,0.637830973,0.516419232
1.76966E+18,10.11006567,-0.437065722,0.105637134,1.309871761,0.154826254,0.611494958,0.563683689
1.76966E+18,10.12005396,-0.354805664,0.034551673,1.370001821,0.128630787,0.562292576,0.589000285
1.76966E+18,10.13004272,-0.264220845,-0.060305708,1.429656079,0.097642519,0.503973842,0.593997717
1.76966E+18,10.14003076,-0.241944132,-0.157553199,1.490061155,0.073572069,0.440801859,0.588598669
1.76966E+18,10.1500188,-0.279473944,-0.254990076,1.57945238,0.050515223,0.394737422,0.592344701
1.76966E+18,10.16000684,-0.394478334,-0.315501535,1.610456298,0.025771853,0.371449351,0.588207364
1.76966E+18,10.16999487,-0.389319343,-0.274572728,1.609946887,0.000174347,0.352361143,0.575882018
1.76966E+18,10.17998291,-0.279781402,-0.1337918,1.615880369,-0.018050591,0.34384948,0.539350271
1.76966E+18,10.1899707,-0.06745178,0.218002699,1.670302572,-0.035406679,0.325572759,0.477702349
1.76966E+18,10.19995898,0.261773452,0.599974895,1.682805203,-0.05425065,0.278337538,0.414675325
1.76966E+18,10.20994702,0.514742836,0.916968714,1.669873825,-0.073504508,0.232258454,0.354333937
1.76966E+18,10.21993481,0.592527501,1.224476328,1.685335013,-0.095304519,0.203906909,0.301186025
1.76966E+18,10.22992285,0.645314212,1.504179405,1.707462674,-0.128284574,0.17244859,0.238707975
1.76966E+18,10.23991113,0.828106482,1.825563568,1.558679057,-0.159852266,0.147311479,0.181653976
1.76966E+18,10.24989868,0.905736542,2.003837484,1.390835642,-0.178318352,0.095400862,0.153615415
1.76966E+18,10.25988672,0.765478176,1.942274469,1.116529164,-0.186196953,0.016294058,0.178358272
1.76966E+18,10.26987476,0.42567602,1.613795379,0.758124014,-0.187685654,-0.054203011,0.234618619
1.76966E+18,10.27986279,0.183738611,1.181069733,0.318089798,-0.196387976,-0.103089929,0.272514552
1.76966E+18,10.28985083,0.256920167,0.879023307,-0.20022242,-0.204608098,-0.117356747,0.277674973
1.76966E+18,10.29983887,0.474190168,0.589092266,-0.619034985,-0.187922299,-0.086605057,0.266674429
1.76966E+18,10.3098269,0.543082795,0.234227858,-0.888206146,-0.157249063,-0.035672903,0.243728086
1.76966E+18,10.3198147,0.626300299,-0.170624862,-1.114080017,-0.096321739,0.062043898,0.23949559
1.76966E+18,10.32980396,0.56981868,-0.607984014,-1.173574701,-0.038995869,0.195366532,0.248662993
1.76966E+18,10.33979175,0.444407609,-0.950502151,-1.401698105,-0.004036011,0.355466843,0.241709083
1.76966E+18,10.34977979,0.613777503,-1.103842701,-1.735158782,0.011396208,0.530951321,0.207276002
1.76966E+18,10.35976758,0.748466105,-1.291705113,-2.045807325,0.00866631,0.638899446,0.151158795
1.76966E+18,10.36975586,0.81496643,-1.261985682,-2.331173834,0.00195035,0.636850715,0.106857367
1.76966E+18,10.3797439,0.60614014,-1.095844103,-2.412925358,0.006185201,0.569648683,0.078343324
1.76966E+18,10.38973193,0.392304497,-0.80932667,-2.384542436,0.002013892,0.476338148,0.059820514
1.76966E+18,10.39971973,0.195478148,-0.351033452,-2.292195284,0.018958531,0.428959817,0.065519601
1.76966E+18,10.40970801,-0.152604783,0.182633864,-1.849327306,0.068771891,0.421947449,0.108296894
1.76966E+18,10.41969604,-0.586848579,0.678038378,-1.361139884,0.14261578,0.462852746,0.184734777
1.76966E+18,10.42968384,-1.072415004,1.00482177,-0.884735547,0.231403172,0.592644572,0.252965212
1.76966E+18,10.43967188,-1.304200146,1.116188387,-0.332885801,0.308731288,0.752819061,0.272734702
1.76966E+18,10.44965967,-1.122345741,1.093868419,0.021132512,0.354578912,0.893729329,0.242501944
1.76966E+18,10.45964795,-0.747904818,0.940217488,0.035404783,0.372179627,0.9719522,0.171552524
1.76966E+18,10.46963574,-0.244504337,0.794612501,-0.125000591,0.369411021,0.979903042,0.099221073
1.76966E+18,10.47962378,0.106826344,0.605813684,-0.28369653,0.358628541,0.952052832,0.05695286
1.76966E+18,10.48961182,0.266908915,0.401137499,-0.362774158,0.338699818,0.891610503,0.045174766
1.76966E+18,10.49959985,0.319193375,0.135706694,-0.536463084,0.316786706,0.81383127,0.07984782
1.76966E+18,10.50958789,0.205191733,-0.155029818,-0.762120098,0.302949965,0.711796522,0.139395833
1.76966E+18,10.51957593,0.089454938,-0.411896794,-0.840493962,0.302806884,0.632569849,0.200528905
1.76966E+18,10.52956494,0.01968582,-0.550193504,-0.848976544,0.3078022,0.568189025,0.243654802
1.76966E+18,10.53955273,-0.05747633,-0.691999683,-0.842627759,0.303667128,0.493789762,0.2609016
1.76966E+18,10.54954077,-0.23856881,-0.721361971,-1.017799909,0.309266955,0.431989491,0.267746985
1.76966E+18,10.55952881,-0.504055437,-0.724614836,-0.915261326,0.317462981,0.3929528,0.267799586
1.76966E+18,10.56951685,-0.815006323,-0.799578014,-0.801937437,0.324117422,0.331337392,0.275550991
1.76966E+18,10.57950488,-1.001459892,-0.885962166,-0.85548841,0.328728467,0.321633995,0.265824616
1.76966E+18,10.58949292,-1.1071679,-0.725080699,-0.85202161,0.317877948,0.368499488,0.250783086
1.76966E+18,10.59948096,-1.244009296,-0.546796262,-0.808080762,0.293433636,0.399311572,0.22439985
1.76966E+18,10.60946875,-1.263711776,-0.458271007,-0.786570941,0.260203242,0.415864199,0.210641429
1.76966E+18,10.61945679,-1.387063138,-0.634234307,-0.906281024,0.236589149,0.384093374,0.206516072
1.76966E+18,10.62944507,-1.447881764,-0.870553,-1.028544299,0.23484157,0.390886277,0.188700855
1.76966E+18,10.63943311,-1.390841487,-0.881785173,-0.940113735,0.233545199,0.417077422,0.156090781
1.76966E+18,10.6494209,-1.350736271,-0.918223098,-0.957234966,0.233882889,0.407680482,0.118505329
1.76966E+18,10.65940869,-1.26054016,-0.834420195,-0.847606717,0.227841526,0.376566142,0.07844463
1.76966E+18,10.66939697,-1.214597616,-0.807538618,-0.725627812,0.217654943,0.341232121,0.042758007
1.76966E+18,10.67938477,-1.207262159,-0.760805508,-0.600684504,0.20889546,0.290352762,0.024686627
1.76966E+18,10.6893728,-1.355942462,-0.922801074,-0.45303486,0.201553121,0.240824878,0.021629319
1.76966E+18,10.69936084,-1.43367569,-1.036638465,-0.366554554,0.197084442,0.189966992,0.009898884
1.76966E+18,10.70934863,-1.3019813,-1.011866428,-0.349668301,0.195795476,0.15703541,-0.010825835
1.76966E+18,10.71933691,-1.181189852,-0.967650854,-0.354396498,0.193794131,0.145086467,-0.042622495
1.76966E+18,10.72932495,-1.060282668,-0.914911197,-0.384535616,0.203329042,0.135887116,-0.085266098
1.76966E+18,10.73931372,-0.910695626,-0.795424402,-0.434595824,0.21906662,0.115556419,-0.130269617
1.76966E+18,10.74930151,-0.788954183,-0.55470952,-0.485408605,0.242623091,0.085049376,-0.151728317
1.76966E+18,10.75928979,-0.852040023,-0.23644495,-0.390536026,0.278698087,0.046310231,-0.135493189
1.76966E+18,10.76927783,-1.068427396,0.09551906,-0.20061142,0.315388739,0.009671527,-0.097162858
1.76966E+18,10.77926587,-1.231716216,0.404366398,-0.043307519,0.351321429,0.005353891,-0.073657416
1.76966E+18,10.78925366,-1.26555302,0.669070643,0.180775377,0.375526369,0.012311399,-0.072024368
1.76966E+18,10.79924194,-1.315915133,0.798900553,0.281478854,0.394012183,0.023635933,-0.087246694
1.76966E+18,10.80922998,-1.381581491,0.861046336,0.278382349,0.401255697,0.043967571,-0.116486602
1.76966E+18,10.81921777,-1.370509186,1.018252329,0.268437294,0.407456338,0.073487937,-0.144058079
1.76966E+18,10.82920581,-1.395387606,1.173057691,0.258900235,0.425920308,0.097059846,-0.130813375
1.76966E+18,10.83919409,-1.623532637,1.281150402,0.279954713,0.459038943,0.136896968,-0.069788657
1.76966E+18,10.84918213,-1.859474898,1.443500187,0.366653338,0.50085187,0.183788851,0.016050888
1.76966E+18,10.85916992,-1.891478056,1.737948413,0.431965768,0.540344238,0.235987812,0.10867469
1.76966E+18,10.86915771,-1.767057603,2.081661313,0.401055958,0.589431882,0.293639392,0.20046559
1.76966E+18,10.87914575,-1.544748147,2.385788637,0.495597406,0.642348409,0.406451762,0.253577381
1.76966E+18,10.88913379,-1.061542313,2.683908244,0.692750209,0.685956895,0.593588948,0.246654749
1.76966E+18,10.89912183,-0.392519308,3.00065598,0.813178377,0.710082233,0.822923839,0.192046463
1.76966E+18,10.90910986,0.042346565,3.069597414,0.899728534,0.633607984,0.940019548,0.121183746
1.76966E+18,10.9190979,0.227533913,2.771450334,-0.081942078,0.590591311,0.978133619,-0.011558434
1.76966E+18,10.92908594,1.016943,3.325384778,-0.115219494,0.511731148,0.919256747,-0.097152695
1.76966E+18,10.93907397,1.20951023,3.205353208,-0.3052876,0.441691846,0.792758942,-0.093558513
1.76966E+18,10.94906274,0.7362325,2.173770272,-0.387744349,0.381113172,0.686921716,-0.008770389
1.76966E+18,10.95905078,0.238484931,1.141155071,-0.597934913,0.341668308,0.55014652,0.14215605
1.76966E+18,10.96903882,-0.012844576,0.411810869,-0.535786208,0.314442277,0.370167941,0.334277004
1.76966E+18,10.97902686,-0.177927586,-0.209178757,-0.475499205,0.272915989,0.234458178,0.497430891
1.76966E+18,10.98901489,-0.14105653,-0.751475954,-0.558506866,0.216975495,0.170351893,0.580570579
1.76966E+18,10.99900269,0.128643039,-1.327769529,-0.702626876,0.157583579,0.080201402,0.578256667
1.76966E+18,11.00899097,0.55332128,-1.829815965,-0.69063687,0.082207598,0.036136206,0.493032604
1.76966E+18,11.018979,0.892460881,-2.063093975,-0.540654399,-0.010684,0.032244939,0.325202167
1.76966E+18,11.02896704,1.526758901,-2.122255774,-0.749367292,-0.081006631,0.070333466,0.079681613
1.76966E+18,11.03895508,2.340494912,-1.907674281,-0.725224492,-0.113071851,0.110733256,-0.19371061
1.76966E+18,11.04894312,2.949982316,-1.367376148,-0.472032113,-0.143915519,0.185782209,-0.452105403
1.76966E+18,11.05893115,3.271201645,-0.941499929,-0.376315485,-0.180807099,0.195607647,-0.619309545
1.76966E+18,11.06891895,3.266786166,-0.609266455,-0.403497799,-0.202182695,0.155615225,-0.668195069
1.76966E+18,11.07890698,3.038969052,-0.153355748,-0.310703487,-0.209431097,0.093172669,-0.630009055
1.76966E+18,11.08889478,2.678926657,0.343276846,-0.288126329,-0.231239989,0.008352585,-0.528799593
1.76966E+18,11.09888306,2.180007121,0.765435506,-0.395240842,-0.26214394,-0.050505597,-0.421102136
1.76966E+18,11.10887109,1.718947652,0.925877997,-0.444436835,-0.264481664,-0.100884624,-0.265229702
1.76966E+18,11.11885913,1.047650273,1.109220887,-0.307474296,-0.257522076,-0.166261703,-0.109061338
1.76966E+18,11.12884692,0.566376869,1.089572183,-0.171499307,-0.256043762,-0.230169311,0.03080735
1.76966E+18,11.13883496,0.276290053,0.929879049,-0.021679332,-0.239956677,-0.210719317,0.146684542
1.76966E+18,11.14882397,-0.047797232,0.731086662,0.134009242,-0.209105551,-0.179157391,0.231895566
1.76966E+18,11.15881201,-0.284150411,0.449197473,0.135072487,-0.179126754,-0.11557252,0.288751811
1.76966E+18,11.1687998,-0.432713372,0.217199566,0.051691901,-0.150294051,-0.019146116,0.323732167
1.76966E+18,11.17878809,-0.555532234,0.029828152,0.043696226,-0.114081502,0.10898754,0.343313634
1.76966E+18,11.18877612,-0.643236821,-0.211452547,0.005152853,-0.085924432,0.240120783,0.34703353
1.76966E+18,11.19876392,-0.619012481,-0.498176901,0.004840426,-0.075520992,0.368943214,0.310427964
1.76966E+18,11.20875195,-0.368097984,-0.808745071,-0.113375619,-0.069825552,0.474613458,0.244668111
1.76966E+18,11.21873999,-0.130380238,-1.129918807,-0.212534789,-0.071569681,0.59089911,0.160896748
1.76966E+18,11.22872827,0.016387656,-1.432117793,-0.243500129,-0.085695617,0.672054112,0.070957005
1.76966E+18,11.23871606,0.226205295,-1.656074432,-0.305704656,-0.102081366,0.672399044,-0.007525278
1.76966E+18,11.2487041,0.455345475,-1.755531416,-0.439286028,-0.114220858,0.617075622,-0.059852399
1.76966E+18,11.25869214,0.513311634,-1.775302869,-0.443731609,-0.112131551,0.544188201,-0.081554547
1.76966E+18,11.26867969,0.414747215,-1.821816783,-0.31065088,-0.100786485,0.469760299,-0.078052491
1.76966E+18,11.27866797,0.253128081,-1.769155452,-0.14617665,-0.085191302,0.414808691,-0.06228001
1.76966E+18,11.28865601,0.132617788,-1.627972373,-0.014200959,-0.07931637,0.374978721,-0.032302137
1.76966E+18,11.29864404,-0.034009822,-1.517534561,0.006414543,-0.075854786,0.353053033,0.001900466
1.76966E+18,11.30863184,-0.260094998,-1.443479729,0.005559095,-0.06147958,0.350606114,0.045268446
1.76966E+18,11.31862012,-0.444206533,-1.383385034,0.145364164,-0.053940542,0.390693337,0.081943154
1.76966E+18,11.32860815,-0.521477989,-1.356732005,0.227078571,-0.039228708,0.440433741,0.096858457
1.76966E+18,11.33859595,-0.413196478,-1.231826107,0.336493762,-0.022225235,0.460313708,0.105052963
1.76966E+18,11.34858398,-0.323719036,-1.098960189,0.387266502,-0.002630494,0.464612603,0.130363375
1.76966E+18,11.358573,-0.321766149,-0.911836028,0.480700281,0.008339558,0.461911887,0.187944576
1.76966E+18,11.36856104,-0.373516794,-0.790523186,0.528370379,0.014042185,0.446323335,0.268795758
1.76966E+18,11.37854883,-0.400274745,-0.76530808,0.531002481,0.025207628,0.419188857,0.341096401
1.76966E+18,11.38853687,-0.277395384,-0.769396811,0.554502891,0.026070492,0.390148938,0.386294484
1.76966E+18,11.39852515,-0.124910867,-0.82031159,0.593379442,0.031076878,0.36824742,0.396739185
1.76966E+18,11.40851318,-0.036681963,-0.766185448,0.735773651,0.031567436,0.351443678,0.387311876
1.76966E+18,11.41850098,-0.046808805,-0.59001055,0.914563407,0.037993837,0.348302811,0.374732763
1.76966E+18,11.42848901,-0.097787882,-0.334029126,1.158305528,0.036978111,0.373979688,0.368132114
1.76966E+18,11.43847729,-0.18428923,-0.120655839,1.343368081,0.036241502,0.406889349,0.373925149
1.76966E+18,11.44846509,-0.275760184,-0.009391513,1.446564836,0.033587661,0.42792058,0.381582022
1.76966E+18,11.45845313,-0.254364053,0.041440264,1.456758313,0.025624778,0.417511821,0.386198848
1.76966E+18,11.46844092,-0.190727447,0.00144903,1.344464936,0.017149001,0.381418526,0.381628871
1.76966E+18,11.47842871,-0.122523387,-0.079165307,1.211879589,0.009646798,0.361432254,0.363546699
1.76966E+18,11.48841699,-0.083358667,-0.135348382,1.179231411,0.009670767,0.343388021,0.344356507
1.76966E+18,11.49840503,-0.068348437,-0.191474173,1.19213064,0.014521871,0.32773596,0.33577463
1.76966E+18,11.50839307,-0.157454123,-0.233832137,1.197197568,0.026501037,0.312046468,0.336045474
1.76966E+18,11.51838086,-0.232495335,-0.232177355,1.235843233,0.037119661,0.294299006,0.342255205
1.76966E+18,11.52836914,-0.247144038,-0.192773566,1.261226681,0.047497731,0.264901966,0.340955585
1.76966E+18,11.53835718,-0.111764385,-0.018243513,1.263794485,0.047477458,0.223245546,0.323605597
1.76966E+18,11.54834497,0.177222361,0.285586289,1.147786764,0.033954989,0.189489186,0.293377936
1.76966E+18,11.55833374,0.594380144,0.766439715,1.039384842,0.011801581,0.161645889,0.272090077
1.76966E+18,11.56832202,0.837895762,1.234886663,1.085243214,-0.013458235,0.179771364,0.260041118
1.76966E+18,11.57831006,0.955026642,1.713141304,1.268081661,-0.038427219,0.201614141,0.245570555
1.76966E+18,11.58829785,1.086490438,2.094763371,1.470586932,-0.064667612,0.23084341,0.218310177
1.76966E+18,11.59828589,1.130051347,2.218884841,1.538669119,-0.082906306,0.225173086,0.185156569
1.76966E+18,11.60827417,0.965368004,2.168192764,1.584648195,-0.092209525,0.153468013,0.154549927
1.76966E+18,11.61826221,0.655657035,1.575566479,1.418368961,-0.088588685,0.076489046,0.13636671
1.76966E+18,11.62825,0.36288288,1.160984976,0.980177158,-0.106712557,0.002234795,0.087145627
1.76966E+18,11.63823804,0.548493714,1.19655664,0.2224249,-0.150673404,-0.056706455,-0.006634564
1.76966E+18,11.64822607,1.062984474,1.288873105,-0.6728525,-0.185095295,-0.134876087,-0.094890393
1.76966E+18,11.65821411,1.245726329,1.05962362,-1.377203715,-0.241123259,-0.203571782,-0.139981151
1.76966E+18,11.66820215,1.215750878,0.653655632,-2.344101412,-0.327009112,-0.220121726,-0.164232701
1.76966E+18,11.67818994,1.202060791,0.081461309,-3.114190297,-0.392513216,-0.157834262,-0.184433207
1.76966E+18,11.68817798,1.205486673,-0.352981663,-3.510124382,-0.405135274,-0.025638405,-0.17299147
1.76966E+18,11.69816577,0.936078781,-0.47443596,-3.834496622,-0.351090878,0.122860938,-0.147409722
1.76966E+18,11.70815405,0.800654996,-0.200530171,-3.705393272,-0.21087569,0.322371095,-0.114211828
1.76966E+18,11.71814209,0.864714796,0.426365464,-3.223833744,-0.082995169,0.557218373,-0.065466881
1.76966E+18,11.72812988,0.591388853,1.380678113,-2.577261641,0.066787668,0.834286988,0.005747907
1.76966E+18,11.73811792,0.022095804,2.238188676,-1.539946299,0.191792339,1.013156295,0.100324109
1.76966E+18,11.7481062,-0.533294391,2.473541154,-1.046346205,0.269031733,1.097425818,0.185993478
1.76966E+18,11.75809497,-0.841852975,2.656879368,-0.671395871,0.317698777,1.093370438,0.254722118
1.76966E+18,11.76808276,-0.969385715,2.775809114,-0.178844701,0.346949339,1.018853903,0.309711874
1.76966E+18,11.7780708,-1.150058216,2.489150227,0.235654091,0.352184832,1.009525657,0.330007821
1.76966E+18,11.78805908,-1.140911618,1.938617116,0.321292686,0.350800246,1.023951173,0.284946859
1.76966E+18,11.79804712,-0.585699117,1.359964411,0.09203151,0.337028414,0.980854452,0.198592156
1.76966E+18,11.80803491,0.103525549,0.93341716,-0.095419984,0.328110009,1.021670818,0.122605242
1.76966E+18,11.81802295,0.283572611,0.634376931,-0.290070157,0.327714801,1.067739248,0.083073504
1.76966E+18,11.82801123,0.344771177,0.308169877,-0.460581914,0.316801697,1.064603448,0.082730494
1.76966E+18,11.83799902,0.418514458,-0.04984978,-0.611321634,0.308560938,1.037211537,0.119397968
1.76966E+18,11.84798706,0.398984997,-0.367733827,-0.74757281,0.301672697,0.912364662,0.173284635
1.76966E+18,11.8579751,0.415827703,-0.668709408,-0.847818021,0.279732198,0.698335707,0.234384179
1.76966E+18,11.86796289,0.306090733,-0.894530088,-1.025875372,0.247006461,0.537498355,0.286299586
1.76966E+18,11.87795117,0.10247224,-1.080129232,-1.023784537,0.195971698,0.395238727,0.312808186
1.76966E+18,11.88793896,-0.026796529,-1.123798863,-0.981072646,0.145897612,0.29906106,0.304246664
1.76966E+18,11.897927,-0.200427588,-1.080512678,-1.144980767,0.114523314,0.208808616,0.283736616
1.76966E+18,11.90791479,-0.530559121,-1.047127126,-1.141966972,0.090681627,0.106438048,0.278858215
1.76966E+18,11.91790308,-0.9168182,-1.043064699,-1.172482814,0.071542017,0.081154935,0.279003233
1.76966E+18,11.92789111,-1.29085405,-1.078728718,-1.418082838,0.067150198,0.129983738,0.299902141
1.76966E+18,11.93787891,-1.653314027,-1.16582774,-1.41754157,0.080680199,0.183021724,0.324429631
1.76966E+18,11.94786694,-1.746712442,-1.31978613,-1.528589039,0.105641745,0.23456721,0.325049102
1.76966E+18,11.95785522,-1.610984998,-1.37931267,-1.731566603,0.137029648,0.28436923,0.301838756
1.76966E+18,11.96784399,-1.48021956,-1.427435188,-1.765160538,0.161543787,0.344568133,0.277334481
1.76966E+18,11.97783179,-1.474058115,-1.470458922,-1.649613419,0.177463949,0.401085824,0.258543491
1.76966E+18,11.98781982,-1.4630919,-1.455828339,-1.453530291,0.189101964,0.418355644,0.246132389
1.76966E+18,11.99780811,-1.335413614,-1.409783796,-1.213703882,0.201416865,0.413356334,0.241762534
1.76966E+18,12.00779614,-1.233439387,-1.40631875,-0.951448492,0.209098235,0.401159853,0.245342344
1.76966E+18,12.01778394,-1.218575288,-1.445902572,-0.699361444,0.214053959,0.37108615,0.253948808
1.76966E+18,12.02777197,-1.173694236,-1.501462547,-0.502157787,0.218017817,0.332208782,0.255753636
1.76966E+18,12.03776001,-1.084456594,-1.531641412,-0.382194021,0.228823557,0.269763112,0.246964514
1.76966E+18,12.04774829,-0.936168797,-1.475585763,-0.272572494,0.232821226,0.215093732,0.225266144
1.76966E+18,12.05773608,-0.799742557,-1.354865626,-0.242652572,0.22888799,0.164689556,0.189443275
1.76966E+18,12.06772412,-0.60838105,-1.16871937,-0.275545665,0.222950205,0.121184163,0.148351759
1.76966E+18,12.07771216,-0.447916932,-0.947071592,-0.292459975,0.228279918,0.066072777,0.098507002
1.76966E+18,12.0877002,-0.276577053,-0.582422872,-0.239598445,0.25391975,-0.007756703,0.049664892
1.76966E+18,12.09768799,-0.199475109,-0.106806178,-0.148770466,0.292409003,-0.086498141,0.019321995
1.76966E+18,12.10767603,-0.32668227,0.318774273,-0.029318741,0.340830863,-0.093418904,0.012653174
1.76966E+18,12.11766406,-0.586211304,0.6887702,0.060095865,0.395461291,-0.106273979,0.032251272
1.76966E+18,12.12765186,-0.887863031,1.064317915,0.275705531,0.442594439,-0.09175922,0.07431297
1.76966E+18,12.13764014,-1.170191926,1.398296772,0.375754636,0.481491834,0.011559444,0.105425194
1.76966E+18,12.14762817,-1.389077692,1.572196125,0.364435077,0.512318432,0.097422153,0.154601261
1.76966E+18,12.15761621,-1.688759435,1.624346584,0.296928352,0.532310367,0.131124139,0.206309661
1.76966E+18,12.167604,-1.836925213,1.591695191,0.259732886,0.553031385,0.16878204,0.238329649
1.76966E+18,12.17759302,-1.756345947,1.56122991,0.260981133,0.570057034,0.224254683,0.246648639
1.76966E+18,12.18758105,-1.66052732,1.486391235,0.23810733,0.592958331,0.268867433,0.240548134
1.76966E+18,12.19756909,-1.475548792,1.648655096,0.284032338,0.605817795,0.333595872,0.233655572
1.76966E+18,12.20755688,-1.162851062,2.165518577,0.405921226,0.597922862,0.43880856,0.219027102
1.76966E+18,12.21754517,-0.660226827,2.676523395,0.466599275,0.598736525,0.564620674,0.194836497
1.76966E+18,12.2275332,-0.118089788,2.985372486,0.672200173,0.597713053,0.715251505,0.168322325
