time,seconds_elapsed,z,y,x
1769658627425992700,0.06999267578125,0.051775853009894485,0.013790624943375587,0.06050912149846553
1769658627435980800,0.079980712890625,0.21361936980485915,-0.09920213250815868,0.08536649937927722
1769658627445969000,0.089968994140625,0.25254443600475784,-0.13366378955841063,0.08203282491192221
1769658627455956700,0.099956787109375,0.16526830361187458,-0.16881518243849278,0.04229673459008336
1769658627465944800,0.10994482421875,-0.006855784178897738,-0.20159984618723392,0.03675239833593368
1769658627475932000,0.119931884765625,-0.1599338837813586,-0.16080021828711033,-0.021446108132600783
1769658627485919700,0.129919677734375,-0.26430377431623636,-0.05778408044874668,-0.08458820848315954
1769658627495907800,0.139907958984375,-0.33257534650973974,0.07761983077526093,-0.13559724183902144
1769658627505896000,0.14989599609375,-0.3596737813156098,0.1495376505166292,-0.15527809386476873
1769658627515883800,0.1598837890625,-0.24318967461697755,0.11335223841369152,-0.13779358283951879
1769658627525870800,0.169870849609375,-0.029237127334997056,0.021295301485061643,-0.0553701511748135
1769658627535859000,0.17985888671875,0.10201960108168423,-0.08988952976167201,-0.018271715880185363
1769658627545846800,0.1898466796875,0.03671908058822155,-0.15741700558960436,-0.00017433365359902382
1769658627555835000,0.1998349609375,-0.13269582130908966,-0.08164484850764274,-0.0009894494287669658
1769658627565822700,0.20982275390625,-0.23106384108066558,-0.001496376037597656,-0.05086830971091985
1769658627575809800,0.219809814453125,-0.17524196408297865,0.04997019182741642,-0.07003931251838803
1769658627585798000,0.2297978515625,0.03447451653182507,0.009861468800902365,-0.008664221840351819
1769658627595786000,0.239785888671875,0.1979313137423247,-0.05794950014352798,0.06405833841264248
1769658627605773600,0.249773681640625,0.2621423219660297,-0.10262801530361175,0.07683452561646699
1769658627615761700,0.25976171875,0.19251937169618905,-0.12268237681686878,0.04557487947791815
1769658627625749000,0.2697490234375,0.0120820674598217,-0.1461439164251089,-0.009024287324398755
1769658627635736600,0.279736572265625,-0.08633212954103946,-0.12263503054380416,-0.04723945168927312
1769658627645724700,0.289724609375,-0.13425941736400127,-0.06145955409109592,-0.061043520636111494
1769658627655712800,0.299712646484375,-0.19563717492315916,0.025744682109355925,-0.04395955323576927
1769658627665700600,0.30970068359375,-0.16162618424985556,0.09803016611933707,-0.05315875873565674
1769658627675688700,0.319688720703125,-0.03997081239316612,0.12704992437660692,-0.056010933296382424
1769658627685675800,0.32967578125,0.08432718292679638,0.08127075449824332,-0.05798588663116097
1769658627695663600,0.33966357421875,0.14073829452190548,0.008292612048983574,-0.07268515085205435
1769658627705651700,0.349651611328125,0.11461769177224486,-0.08332593346238136,-0.11128726870790123
1769658627715639800,0.359639892578125,-0.012375533981062472,-0.09859481426477432,-0.13706205369457602
1769658627725628000,0.3696279296875,-0.18425766624212264,-0.09638415247797966,-0.1141818211056292
1769658627735614700,0.37961474609375,-0.2737017903238535,-0.12630407444536684,-0.1293970720246434
1769658627745602800,0.389602783203125,-0.30185879427194595,-0.10905775609016417,-0.15214023423045872
1769658627755590700,0.399590576171875,-0.2983276975363493,-0.09372340883612632,-0.08151888404041528
1769658627765578800,0.409578857421875,-0.21629359398279338,-0.10691080718934536,0.0026404315061867236
1769658627775566800,0.41956689453125,-0.12240178804351017,-0.1133136599689722,0.08431596741303801
1769658627785553700,0.4295537109375,0.018450433447957038,-0.026472411862015724,0.11423194385766983
1769658627795541800,0.439541748046875,0.07879647333920002,0.047100773870944974,0.10437456670999526
1769658627805529900,0.44952978515625,0.04352349990606308,0.07541150707602501,0.07407660521045327
1769658627815518000,0.45951806640625,0.027799861073493956,0.0871715029746294,0.04446253432184458
1769658627825505800,0.469505859375,0.06886135478019714,0.11876608015596866,0.029259850623458622
1769658627835494000,0.479493896484375,0.12272329334914683,0.12244213832020759,0.04941781864166259
1769658627845480700,0.489480712890625,0.1955564743697643,0.06026303778290748,0.06098433779478073
1769658627855468800,0.49946875,0.2651701088219881,-0.003930909708142281,0.08600172854289412
1769658627865457000,0.509456787109375,0.27416414713859555,-0.07855915745198726,0.12198197346255182
1769658627875445000,0.519445068359375,0.2393757423520088,-0.1290513273268938,0.14076149273440242
1769658627885432800,0.529432861328125,0.181509828838706,-0.11763327673375606,0.12183365103304386
1769658627895420000,0.539419921875,0.11349603079855441,-0.07285948450565338,0.09431421433612704
1769658627905407700,0.54940771484375,0.043508886858820914,-0.051744800284504885,0.011935060204565525
1769658627915395800,0.559395751953125,-0.06294657777845859,-0.0380938760727644,-0.0623788608931005
1769658627925383700,0.5693837890625,-0.10603402435481547,-0.042239889836311335,-0.08700769071504473
1769658627935371800,0.579371826171875,-0.06725742671489715,-0.06402034448981285,-0.09526289336308837
1769658627945359000,0.589359130859375,-0.05676116714179515,-0.07946107472777367,-0.08614289057925344
1769658627955347000,0.599346923828125,-0.1078904750096146,-0.05707505539655685,-0.10759513619169592
1769658627965335000,0.6093349609375,-0.1444879659116268,-0.03370470120310783,-0.11854527701213956
1769658627975323100,0.6193232421875,-0.11688976489007473,-0.0501104770809412,-0.08056362914219498
1769658627985311000,0.62931103515625,-0.09756721564955077,-0.05909867017865181,-0.03521846676692367
1769658627995298000,0.639298095703125,-0.03844342016279697,-0.03412789505124092,-0.007689093197882175
1769658628005286100,0.6492861328125,-0.006554242807411356,-0.0185480486035347,0.027166093214601277
1769658628015274000,0.65927392578125,-0.026463644033670426,-0.0036930092990398403,0.03520020045787096
1769658628025262000,0.669261962890625,-0.06454173801541328,0.01989654060304165,0.037951544992625715
1769658628035250200,0.679250244140625,-0.1090437275648117,0.027131168031692503,0.04116714603826403
1769658628045238000,0.689238037109375,-0.13985738350152968,-0.0014338321954011917,0.0417468456223607
1769658628055225000,0.69922509765625,-0.16793664603829384,-0.027044658792018887,-0.008662322144210338
1769658628065213200,0.709213134765625,-0.15258360321694053,-0.025945173117518424,0.022356062584370374
1769658628075201000,0.719200927734375,-0.11440613138079643,-0.013999883779883385,0.05887962060049176
1769658628085189000,0.729189208984375,-0.10617723221778869,-0.06329086117148398,0.024789719472080467
1769658628095177200,0.73917724609375,-0.1561994464933872,-0.06438800875842571,0.0409954427331686
1769658628105164000,0.7491640625,-0.1696048897777684,-0.016838322076201437,0.05660714562386274
1769658628115152100,0.759152099609375,-0.1389244865655899,-0.010647650742530821,0.06673296444937586
1769658628125140200,0.76914013671875,-0.08156535353064537,-0.01626607514619827,0.015449936457723377
1769658628135128000,0.779128173828125,-0.04122165270447731,-0.16874270172417163,-0.0318695947304368
1769658628145116200,0.7891162109375,-0.03395838370323181,-0.07017594451010227,-0.034797026484459634
1769658628155103200,0.799103271484375,-0.09527001722361891,0.052764790982007974,-0.038221886366605756
1769658628165091000,0.809091064453125,-0.1416214705646038,0.082474285069108,-0.07275251699984073
1769658628175079200,0.8190791015625,-0.15166114547662435,0.042215924438834186,-0.06429287782087922
1769658628185067300,0.8290673828125,-0.08741064549274742,0.026236265018582342,-0.04215557255372405
1769658628195055000,0.83905517578125,-0.0034007483541965483,0.007234627428650856,-0.043167379944771524
1769658628205042200,0.849042236328125,0.015446648522093891,-0.025443653336167334,0.025123481471091506
1769658628215030300,0.8590302734375,0.03329670492410659,-0.058820437759160994,0.04863733578845858
1769658628225018000,0.86901806640625,0.034462241572141644,-0.13536650182306767,0.05129559521228075
1769658628235006200,0.879006103515625,0.1285246731042862,-0.26639351313710213,0.12494535331279039
1769658628244994000,0.888994140625,0.2697767988998443,-0.1871393591582775,0.20183453172594307
1769658628254982100,0.898982177734375,0.21500001050829887,-0.020729484295845032,0.11569324858188629
1769658628264969200,0.90896923828125,-0.018790113731101152,-0.05361176320016384,0.11013049988821148
1769658628274957000,0.91895703125,-0.129152595744282,-0.10354746823608875,-0.10808730362281202
1769658628284945000,0.92894482421875,-0.17249708582162857,-0.07001403194665909,-0.0915143544845283
1769658628294933000,0.93893310546875,-0.10603475500717759,-0.006986790147423744,-0.08705109146535396
1769658628304921000,0.948921142578125,-0.0397242537535727,0.03672200319766998,-0.13219430152773856
1769658628314908000,0.958907958984375,0.019892448949813842,0.04544248526990413,-0.09964359266534448
1769658628324896000,0.96889599609375,0.11556100050434469,0.09337737187743186,-0.12990356024205685
1769658628334884000,0.978884033203125,0.10149981499128043,0.10695932250618934,-0.08245967202186584
1769658628344872200,0.9888720703125,0.1438951145850122,0.05549509272873401,-0.06775646227821708
1769658628354860000,0.998860107421875,0.12334464011788368,-0.049099838733673094,-0.05960939617976546
1769658628364847000,1.00884716796875,-0.0510698236323893,-0.13474690861999988,-0.0910587196715176
1769658628374835000,1.0188349609375,-0.0784345081590116,-0.0682487758398056,0.004476999283581972
1769658628384823000,1.028822998046875,-0.012270429638773202,-0.04369125768840313,0.012182166833430527
1769658628394811100,1.03881103515625,0.053865884091705084,-0.06718845313191414,0.0047463177442550655
1769658628404799200,1.04879931640625,0.029875059912353754,-0.07547229735255241,0.036993952006846666
1769658628414786000,1.0587861328125,-0.01163549273610115,-0.04847381578981876,0.06701572691351175
1769658628424774100,1.068774169921875,-0.04171718113645911,-0.03844809633791446,0.06942044996768236
1769658628434762000,1.078761962890625,-0.024215718976408243,-0.00608545739352703,0.05066986452937126
1769658628444750000,1.08875,-0.005654810891300439,-0.031154432198405264,0.043120325932651755
1769658628454738200,1.09873828125,-0.007106763265281916,-0.04132978925406933,0.04632540558427572
1769658628464725000,1.10872509765625,-0.08909048833847046,-0.06255436359047889,0.04990677120238542
1769658628474713000,1.118713134765625,-0.13221724401190876,0.00663490796983242,0.021241525471210478
1769658628484701200,1.128701171875,-0.17341244710087775,0.029376316609978675,-0.02063961405530572
1769658628494689300,1.138689208984375,-0.23878318328633902,-0.02567512400448322,-0.0350775969915092
1769658628504677000,1.148677001953125,-0.25263021459206936,-0.03117079881131649,-0.030241262876242396
1769658628514665200,1.158665283203125,-0.1809925269663334,-0.012753098589181899,-0.05840688852220773
1769658628524652000,1.168652099609375,-0.10965513746142387,0.01388414844572544,-0.03852437644451857
1769658628534640000,1.17864013671875,-0.07242927639484405,-0.02051905641555786,-0.03613295126333833
1769658628544628200,1.188628173828125,-0.04147986524924636,0.0443067592382431,0.06096271048486233
1769658628554616300,1.1986162109375,-0.1583197996482253,0.07058277174532412,0.048385991375893354
1769658628564604200,1.208604248046875,-0.21608839026689527,0.05717442411780357,0.029197160650789734
1769658628574591200,1.21859130859375,-0.06287614289075136,0.048914545294642446,0.07051335977092385
1769658628584579300,1.228579345703125,0.02571501762345433,-0.019883096599578855,0.0076147127874195576
1769658628594567200,1.238567138671875,-0.047342473672330375,-0.06742576901912689,0.03385521558970213
1769658628604555000,1.248554931640625,-0.0834511672772467,-0.1138192714035511,0.0428296724230051
1769658628614543000,1.258543212890625,-0.015521686519682406,-0.12048223642408847,0.036208354587107895
1769658628624530200,1.2685302734375,-0.010001461793482304,-0.11753683062195777,-0.009546411502361298
1769658628634518300,1.278518310546875,-0.0560553569599986,-0.09646890815198421,-0.006300853709876537
1769658628644506000,1.288506103515625,-0.03230900906100869,-0.03107961339652538,0.006521656853705644
1769658628654494000,1.298493896484375,0.0030778000101447105,-0.04163958585560321,-0.025817601215094327
1769658628664482000,1.30848193359375,0.059538084509223696,-0.03294306918084621,-0.04664499292746186
1769658628674469000,1.31846923828125,0.10094839165359736,0.021017653587460515,-0.06798164933621884
1769658628684457000,1.32845703125,0.13061843051314354,0.09182838886976241,-0.05323372366800904
1769658628694445000,1.338445068359375,0.18329641999453306,0.10784779577851294,-0.10604980644583702
1769658628704433200,1.34843310546875,0.15043839874863624,0.08799392527341843,-0.12715513831675052
1769658628714421000,1.3584208984375,0.13550298768430946,0.03159516170322895,-0.12048939681723714
1769658628724408000,1.368407958984375,0.11655161897689104,-0.020326164191961288,-0.08792349038571119
1769658628734396200,1.378396240234375,0.08477540161833166,-0.08522212247252464,-0.031052579259127376
1769658628744384000,1.388384033203125,0.027161563169956205,-0.09428396532833576,0.028175270257145165
1769658628754372000,1.3983720703125,-0.01175795007199049,-0.04441372674405575,0.06801409030109644
1769658628764360200,1.408360107421875,-0.06164733174815774,0.005699672946333885,0.06274915551021695
1769658628774347000,1.418346923828125,-0.14334128009453415,0.032678865286707874,0.062025225149840116
1769658628784335000,1.428335205078125,-0.16640885194912552,0.00473871895968914,0.061529258326441044
1769658628794323200,1.4383232421875,-0.15595394729971884,-0.04267594316601753,0.04935790514796972
1769658628804311000,1.44831103515625,-0.13020152027532458,-0.06123918933868408,0.033912937126308676
1769658628814299100,1.458299072265625,-0.11168342841863632,-0.04304185386896133,0.016075374879688024
1769658628824287200,1.468287353515625,-0.10148439822643995,-0.025037995144724844,-0.008812398139387369
1769658628834274000,1.478274169921875,-0.10411708481758833,0.008299626311659812,-0.024038754974305628
1769658628844262100,1.48826220703125,-0.09090367524027824,0.03881342251896858,-0.015009645344316959
1769658628854250200,1.498250244140625,-0.08145984732955694,0.04918868606090546,0.007967764008790254
1769658628864238000,1.508238037109375,-0.07335399002432823,0.10718903960883616,0.06037292789816856
1769658628874226200,1.51822607421875,-0.1082443938806653,0.07884557317793368,0.08583777015283703
1769658628884213200,1.528213134765625,-0.08841331972926855,0.0350175373673439,0.0795922998920083
1769658628894201000,1.538201171875,-0.028403233794122934,-0.022504677274823186,0.05878565870672464
1769658628904189200,1.548189208984375,0.0005614332750439643,-0.11861527350842951,0.02277852578014135
1769658628914177300,1.55817724609375,0.04560761270374059,-0.1891518680244684,-0.01291910280585289
1769658628924165000,1.5681650390625,0.10427549024969339,-0.22288170366883275,-0.062046560198813674
1769658628934152200,1.578152099609375,0.12224953835755586,-0.21158464910686015,-0.07179185527414084
1769658628944139800,1.588139892578125,0.11388093846291303,-0.17207564553916455,-0.08989902824237943
1769658628954128000,1.5981279296875,0.15443156003803013,-0.0608025514870882,-0.08983940700963139
1769658628964116000,1.608115966796875,0.11056903743594884,0.014068272840976715,-0.04310425158068538
1769658628974103800,1.618103759765625,0.03825783446282148,0.004868482819199562,-0.061698477413505315
1769658628984091000,1.6280908203125,0.06002864450514316,-0.0007499415844678879,-0.05928586331382393
1769658628994078700,1.63807861328125,0.02452186231613159,-0.06193301682174206,0.0008465338267385959
1769658629004066800,1.64806689453125,-0.021946751131117343,-0.11542261494696139,0.055693245649337766
1769658629014054700,1.6580546875,-0.06470803449302912,-0.14652560921907423,0.08035933874174953
1769658629024042800,1.668042724609375,-0.08336421964615583,-0.10187515110969543,0.1361946232102811
1769658629034029800,1.67802978515625,-0.15069295803159474,-0.06327274099290371,0.19455825711265204
1769658629044017700,1.688017578125,-0.19555618210881948,-0.05392214432358741,0.22774068800732492
1769658629054005800,1.698005859375,-0.15577391455769538,0.0023147066831588742,0.24814400908872483
1769658629063993600,1.70799365234375,-0.12920739467144013,0.02788286318182945,0.28939488788768647
1769658629073981700,1.717981689453125,-0.14811141710579395,0.014702479091286658,0.2622282101511955
1769658629083969800,1.7279697265625,-0.08163228128701448,0.028700609305500984,0.2520632283590734
1769658629093956600,1.73795654296875,-0.07223550738841295,0.0023088614642620083,0.13942849056497214
1769658629103944700,1.74794482421875,-0.022488602922856805,-0.030044425129890442,0.054837651733309026
1769658629113932800,1.757932861328125,0.050882338236272334,-0.038164603221416474,-0.009155950880050659
1769658629123920600,1.767920654296875,0.0713791828200221,-0.0622317075073719,-0.0564684678055346
1769658629133908700,1.77790869140625,0.05427548780590295,-0.0625017566204071,-0.10205898324400187
1769658629143895600,1.7878955078125,0.04047667955607175,-0.032361469900608064,-0.12548150601610542
1769658629153883600,1.797883544921875,0.04383797268271446,0.0450385806441307,-0.18543153232708573
1769658629163871700,1.807871826171875,0.05671732800006866,0.06637129153013228,-0.22050123827308415
1769658629173859800,1.81785986328125,0.04575871161222458,0.08187398108839988,-0.25761340983211994
1769658629183847700,1.82784765625,-0.001457213070988655,0.07417641232311725,-0.23244828117638824
1769658629193834800,1.837834716796875,-0.00043342298120260233,0.04813771570324898,-0.2020094499014318
1769658629203822800,1.84782275390625,-0.016540800434350966,0.023640987828373906,-0.21528628010377288
1769658629213810700,1.857810791015625,-0.02439765141457319,0.01646831972002983,-0.21036621322780846
1769658629223798800,1.867798828125,-0.0267544436737895,0.018912790262699125,-0.1376087277919054
1769658629233787000,1.877786865234375,-0.0036757659032940863,0.05680325271785259,-0.045262452527880664
1769658629243773700,1.887773681640625,0.0013370938226580618,0.08571545894742011,0.07031593750268221
1769658629253761800,1.89776171875,-0.010317688135802746,0.11576163764297961,0.1369127083517611
1769658629263750000,1.90775,0.03931260421276092,0.10220657502114772,0.1320763742364943
1769658629273737700,1.91773779296875,0.07488046893924474,0.06189034672379493,0.07788929536640643
1769658629283725800,1.927725830078125,0.10575959132760762,0.008552139768004417,0.029742373443394896
1769658629293713000,1.937712890625,0.09249094443172216,-0.06781389155387878,-0.026788638204336166
1769658629303700700,1.94770068359375,0.10702040504366159,-0.10510580359399319,-0.055163230425864455
1769658629313688800,1.957688720703125,0.18647388098686932,-0.059494391497969625,-0.13854878512099383
1769658629323677000,1.967677001953125,0.1668380371466279,-0.009352350234985351,-0.22116130961701272
1769658629333664800,1.977664794921875,0.05304886862039566,-0.0021557167291641234,-0.27141309486478565
1769658629343652600,1.987652587890625,0.04471475551724434,0.042488896161317825,-0.28959669407010075
1769658629353640000,1.997639892578125,0.03669686875641346,0.06150806940793991,-0.25891923173367976
1769658629363627800,2.007627685546875,0.025782091510295868,0.08600655084848403,-0.18532047316804526
1769658629373615600,2.01761572265625,0.0016316928550601005,0.12558394347727297,-0.12758286220952866
1769658629383603700,2.027603759765625,-0.054015667825937266,0.08959025455415248,-0.06316051279008388
1769658629393591600,2.037591552734375,-0.020514087979495523,0.017862404426932335,-0.03106792295873165
1769658629403579000,2.047578857421875,0.06311550460457802,-0.03167524120211601,-0.02908113305568695
1769658629413566700,2.057566650390625,0.08289981700479984,-0.06623042175471783,-0.01699541233405471
1769658629423554600,2.067554443359375,0.13494126214832067,-0.045940497919917105,0.007143880405277013
1769658629433542700,2.077542724609375,0.21438421669751404,0.0000672200173139572,0.06938143313154578
1769658629443530800,2.08753076171875,0.18309914385676382,-0.016537877824902535,0.0780105836585164
1769658629453517600,2.097517578125,0.15054595077633856,-0.061868134891986844,0.1071535299040377
1769658629463505700,2.107505615234375,0.18148498665839433,-0.10199264000952243,0.07947671068832278
1769658629473493800,2.11749365234375,0.24027795188874004,-0.08979308364987373,0.04253142012879252
1769658629483481600,2.127481689453125,0.23839023844599722,-0.02856733831465244,-0.06537468170821667
1769658629493469700,2.1374697265625,0.24394378091990945,0.025225626671314238,-0.18964447384700178
1769658629503456800,2.147456787109375,0.1575745342388749,0.019063596910238265,-0.2943926961749792
1769658629513444600,2.157444580078125,0.120145551815629,0.07293488782942295,-0.29754239237755536
1769658629523432700,2.1674326171875,0.09243716841787099,0.08232347842156887,-0.23553353384062647
1769658629533420800,2.1774208984375,0.03518003445267677,-0.00903261676132679,-0.1742626341894269
1769658629543408600,2.18740869140625,-0.048073126034438605,0.006252046132087707,-0.05194587581455707
1769658629553395700,2.197395751953125,-0.1539931686207652,-0.0037409400939941405,0.03121186147406697
1769658629563383800,2.2073837890625,-0.2232823934242129,-0.07458733121156692,0.1279299220815301
1769658629573371600,2.21737158203125,-0.17063099968880413,-0.11998948447108268,0.21254136530980466
1769658629583359700,2.22735986328125,-0.13616232837587594,-0.27680560155808925,0.15968787313103674
1769658629593347800,2.237347900390625,-0.081980071811378,-0.3823316763907671,0.2771396558180451
1769658629603336000,2.2473359375,-0.05929536179453134,-0.39491234102249145,0.36034649294540283
1769658629613322800,2.25732275390625,0.08744885861128568,-0.37854222097992896,0.349774391657114
1769658629623310800,2.267310791015625,0.2156625660702586,-0.24411972200870513,0.3517250873334706
1769658629633298700,2.277298583984375,0.27739421510100365,-0.09485679678022861,0.21832842427864668
1769658629643286800,2.287286865234375,0.29329554858803747,0.0054763855844736095,0.11086816651299596
1769658629653275000,2.29727490234375,0.29403584556132556,0.017072130832076073,0.008349456802755595
1769658629663261700,2.30726171875,0.2853288074925542,-0.00689502021074295,-0.04627981287688017
1769658629673249800,2.317249755859375,0.23097645505815742,0.0370130950987339,0.06705430535823106
1769658629683238000,2.32723779296875,0.22609891214966774,0.08731587988138198,0.008352379412204026
1769658629693226000,2.33722607421875,0.13052227666229008,0.03703706049621105,-0.10774769640490411
1769658629703213600,2.347213623046875,0.09252893835455178,0.006152092888951301,-0.15019143825024364
1769658629713201000,2.357200927734375,0.14072452172487973,0.04940963533520698,-0.16039529074802994
1769658629723188700,2.367188720703125,0.07816431291550398,0.0692985771536827,-0.0640241438820958
1769658629733176800,2.3771767578125,0.0028840310037136076,0.075372344109416,-0.0007397124513983726
1769658629743164700,2.38716455078125,0.06289280176460743,0.101833065533638,-0.018652385760843753
1769658629753152800,2.39715283203125,0.06265314778983593,0.14897826306819914,-0.06296367504373192
1769658629763139800,2.407139892578125,0.008801438353955745,0.08195990580618381,-0.13612024279981852
1769658629773127700,2.417127685546875,0.06831687263995409,0.04087561574578285,-0.10260229634046554
1769658629783115500,2.427115478515625,0.17692980757206678,0.047853638064861294,-0.08020283300578594
1769658629793103600,2.437103515625,0.1688438240110874,0.029204467174410817,-0.11155848686471581
1769658629803091700,2.447091796875,0.08806436016112565,0.028472645768523215,-0.07988134596645832
1769658629813078500,2.45707861328125,0.10708002627640963,0.07881108638644219,-0.03093830522969365
1769658629823066600,2.467066650390625,0.10685761569738388,0.10866787998974323,-0.032762451916933055
1769658629833054700,2.4770546875,0.015999240903556346,0.0233972422003746,0.03765840726494789
1769658629843042800,2.487042724609375,0.01607756683677435,-0.024074703070521352,0.15093948013857006
1769658629853030700,2.49703076171875,0.05976648643761873,-0.07159750174582004,0.1428413677483797
1769658629863018800,2.507018798828125,0.047262394173443315,-0.13752397211790085,0.1493614171668887
1769658629873005600,2.517005615234375,0.06764613377153873,-0.15505261454582214,0.09164353382214903
1769658629882993700,2.52699365234375,0.08802344362884759,-0.12076514501869678,0.061572951337695116
1769658629892981800,2.536981689453125,0.05350362665057182,-0.09470365204513072,0.09168138161450624
1769658629902969900,2.546969970703125,0.005818330889940261,-0.07631050174236297,0.11843524076640605
1769658629912957700,2.556957763671875,0.03763005795329809,-0.026455460727214813,0.12373656204491854
1769658629922944800,2.56694482421875,0.028759646016359327,0.00834288093149662,0.06375277959480881
1769658629932932900,2.576932861328125,-0.010649988830089569,-0.02368015079498291,0.03468465215116739
1769658629942920700,2.586920654296875,-0.030801088716089723,-0.06924304757416248,0.10543298972174525
1769658629952908500,2.596908447265625,-0.0028428222104907035,-0.10841302844583987,0.11225859795808792
1769658629962896600,2.606896728515625,0.006973930665850639,-0.1584001714080572,0.157608874899894
1769658629972883700,2.6168837890625,-0.0009507248535752296,-0.1470931799739599,0.12003843817934393
1769658629982871600,2.62687158203125,-0.026503976044058797,-0.10852233403921127,0.09596358897835015
1769658629992859600,2.636859619140625,-0.05206248793154954,-0.047045244291424745,0.06698474725335836
1769658630002847700,2.64684765625,0.10503156931400298,0.06527589750885963,0.08507496908679604
1769658630012835600,2.656835693359375,0.3526479012668133,0.07302081254720687,-0.07021423069387674
1769658630022822700,2.66682275390625,0.3981555607274174,0.10425590876638889,-0.016366759041696786
1769658630032810800,2.676810791015625,0.4220683512344956,0.08904781824052334,0.02930924272313714
1769658630042798600,2.686798583984375,0.42599020085334777,-0.048774260041117665,0.04819616789221763
1769658630052786700,2.69678662109375,0.41597471053451296,-0.21796061387956142,0.09625321957468987
1769658630062774800,2.70677490234375,0.45845542338937517,-0.41932314417958255,0.12902590062469244
1769658630072762600,2.7167626953125,0.381274276292324,-0.4256383186757564,0.2242280037112534
1769658630082749700,2.726749755859375,0.08132803764343262,-0.3403121513068676,0.35408918611630796
1769658630092737800,2.73673779296875,-0.26149814231097696,-0.22815876728892326,0.3252705033890903
1769658630102725600,2.7467255859375,-0.5310989270567894,-0.08526186996102332,0.2780693378835916
1769658630112713500,2.75671337890625,-0.5695987535819411,0.023936171382665634,0.16945362647250295
1769658630122701600,2.76670166015625,-0.4225441520527005,0.10639525888264179,-0.049505789186060425
1769658630132688600,2.776688720703125,-0.3121709294497967,0.17880290796756743,-0.08845774339288473
1769658630142676500,2.786676513671875,-0.35724925758242604,0.18376316072344778,-0.11565203978866338
1769658630152664600,2.79666455078125,-0.40959290054291486,0.18487609040141104,-0.19691914102509617
1769658630162652700,2.806652587890625,-0.34418636239171024,0.2211976961046457,-0.2071590877495706
1769658630172640500,2.816640625,-0.22822744861096142,0.25259821201860905,-0.24531857640445232
1769658630182627600,2.826627685546875,-0.17639160904213785,0.2050473562926054,-0.20022914235591888
1769658630192615400,2.836615478515625,-0.08124386649131775,0.2186094331771135,-0.1842715486370027
1769658630202603500,2.846603515625,0.06249824948906898,0.24757658446431158,-0.19105974747240542
1769658630212591600,2.856591552734375,-0.029602526581287383,0.1504091726541519,-0.20753172045424578
1769658630222579700,2.866579833984375,-0.13425912510305643,0.13611995053887366,-0.1207652911491692
1769658630232566500,2.87656640625,-0.10392273128926753,0.16034019955992698,-0.07890329471454025
1769658630242554600,2.8865546875,-0.013378829272091388,0.20853052223324775,-0.11566796801015734
1769658630252542700,2.896542724609375,0.04659808504581451,0.17632219706773758,-0.027785686417669056
1769658630262530600,2.906530517578125,0.07223404608368873,-0.02818447647690773,0.14224077150672673
1769658630272518700,2.9165185546875,0.014856062217801808,-0.27543431320488454,0.11872019518762826
1769658630282506800,2.9265068359375,0.08802636623829603,-0.39479894377589225,0.09482581712007522
1769658630292493600,2.93649365234375,0.22680179972201583,-0.40989129896759985,0.014029840526729821
1769658630302481700,2.946481689453125,0.34854221951365466,-0.34034839166402814,-0.07264452658072114
1769658630312469800,2.9564697265625,0.32512773391753436,-0.23600597365796563,-0.09466478133946657
1769658630322457600,2.96645751953125,0.26703517204150556,-0.23159283339083192,-0.13220263096466658
1769658630332445700,2.97644580078125,0.24022666009292004,-0.26730595180690286,-0.14353373392671345
1769658630342432800,2.986432861328125,0.22586977956891058,-0.18936054233908653,-0.06910700010433793
1769658630352420600,2.996420654296875,0.19122940495088694,-0.11169044268131255,-0.0711833679869771
1769658630362408700,3.00640869140625,0.13650018202811479,-0.11757190193533897,-0.12124065357595681
1769658630372396800,3.016396728515625,0.06460486637949943,-0.15116028328239917,-0.1352979666315019
1769658630382384600,3.026384521484375,0.03549947566539049,-0.1716892765700817,-0.11731178969442843
1769658630392371700,3.036371826171875,0.0065029521532356735,-0.15799217512905597,-0.02793240141198039
1769658630402359800,3.04635986328125,-0.03267331232875585,-0.08702303441464901,-0.07509776495173573
1769658630412347600,3.05634765625,-0.15791238789111375,-0.028749124622344968,-0.07004413482397795
1769658630422335700,3.066335693359375,-0.21720570385903118,-0.016615034714341163,-0.06426452850922942
1769658630432323600,3.076323486328125,-0.17058920637369154,-0.028315409380197522,-0.036643238873034716
1769658630442310700,3.086310546875,-0.029494243901222943,0.004180500555038452,-0.014691665436327456
1769658630452298800,3.096298828125,-0.04899579383730888,-0.08763619787693024,0.03515314644575119
1769658630462286600,3.10628662109375,-0.21178835498541593,-0.12394962027370929,0.23769772613719103
1769658630472274400,3.1162744140625,0.040109892070293425,-0.05991700082421302,0.015534399870783089
1769658630482262500,3.126262451171875,0.22466785643324255,-0.027086744368076322,0.11502484780102967
1769658630492250600,3.136250732421875,0.2317337031662464,0.037842531660199165,0.1708677310541272
1769658630502237400,3.146237548828125,0.19611527729630468,-0.02347965978682041,0.09311448315754532
1769658630512225500,3.1562255859375,0.17047230199575422,-0.027861820393800734,0.1691759785749018
1769658630522213600,3.166213623046875,0.10176526099443435,-0.03156009038984775,0.1877801412798464
1769658630532201500,3.176201416015625,0.038652094477415085,-0.006752396869659423,0.1843579117462039
1769658630542189600,3.186189453125,-0.018232552913576363,0.009973112481832504,0.11483400140404701
1769658630552176600,3.1961767578125,-0.12494418426901101,0.021961071917414664,0.09367387060597539
1769658630562164500,3.20616455078125,-0.27344781556278464,-0.06489654280245304,0.06386223131865262
1769658630572152600,3.216152587890625,-0.10029811105132103,-0.04652618885338306,0.0380675725877285
1769658630582140700,3.226140625,0.03473959720879793,-0.1040548332363367,-0.10968041803315282
1769658630592128500,3.23612841796875,0.06644596420153975,-0.041295886984467504,0.0017519582338631151
1769658630602115600,3.246115478515625,0.02023483264669776,0.04438274708390236,0.051846799354255194
1769658630612103700,3.256103759765625,-0.0903755597129464,0.07448679344654083,0.052571168106049296
1769658630622091500,3.266091552734375,-0.10691840597391128,0.0929921719521284,0.057793725059926505
1769658630632079600,3.27607958984375,-0.07525514747053384,0.05805471408367156,0.03895955299139023
1769658630642067700,3.286067626953125,-0.028980303029716013,0.027315876948833463,0.05985021919831633
1769658630652055600,3.2960556640625,-0.11179682566523551,0.007528641939163207,0.07505392581000923
1769658630662042600,3.306042724609375,-0.2964158725656569,-0.0630810178130865,0.048469578006118536
1769658630672030700,3.31603076171875,-0.3179077195361256,-0.0325035087198019,-0.007307108142971992
1769658630682018600,3.3260185546875,-0.33176381093114615,-0.019808277797698972,-0.07699556139707565
1769658630692006700,3.336006591796875,-0.32836920005679127,0.006522095245122909,-0.10963614050000905
1769658630701994800,3.345994873046875,-0.22657822009921072,0.010837620356678962,-0.19529153982326386
1769658630711981600,3.355981689453125,-0.2053039614021778,-0.10460428381264208,-0.22079905217587947
1769658630721969700,3.3659697265625,-0.10530015712231397,-0.06025836160778999,-0.15175620334893464
1769658630731957800,3.375957763671875,0.06596417203396558,-0.07335808167755603,-0.11268807541653514
1769658630741945600,3.385945556640625,0.27439211067557334,-0.13062486025393008,-0.11343494826108216
1769658630751933700,3.39593359375,0.2972469165623188,-0.12334580916166304,0.02219429615139961
1769658630761920800,3.405920654296875,0.2762986749492585,-0.20371230829656123,0.03298632380068302
1769658630771908600,3.41590869140625,0.4143216826304793,-0.22940204534828662,0.09405994731411338
1769658630781896700,3.425896728515625,0.3410252680122852,-0.1333387953877449,0.15708967333137988
1769658630791884500,3.435884521484375,0.09071882019266486,-0.21020342388153074,0.08946268265172838
1769658630801872600,3.44587255859375,0.17759850061386823,-0.16647943296730516,0.07087970886528491
1769658630811859700,3.455859619140625,0.013598317241668701,-0.0555132129073143,0.13539675083085895
1769658630821847600,3.46584765625,-0.08022533709853887,-0.1592196710973978,0.031119214754551646
1769658630831835400,3.47583544921875,0.11603577840924262,-0.04419686912298202,0.06568579348400234
1769658630841823500,3.485823486328125,-0.06659589406624436,-0.005598550659418106,0.05423705549165606
1769658630851811600,3.4958115234375,-0.18123539581149817,0.05156476754248142,-0.061250002993643284
1769658630861799700,3.505799560546875,-0.1823030250430107,0.10949380941987037,-0.021974223659932613
1769658630871786500,3.515786376953125,-0.01882525810971856,0.07128770514428615,-0.08661708396226167
1769658630881774600,3.525774658203125,0.09109656746387482,0.011055647021532057,-0.058323448022454975
1769658630891762700,3.5357626953125,0.10395517225414513,-0.09791910696029663,-0.05702303294837475
1769658630901750500,3.54575048828125,0.14073328955322503,-0.06317220322787762,0.0012308569692075252
1769658630911738600,3.555738525390625,0.0702896340176463,-0.006014730244874954,0.048947424650937314
1769658630921725400,3.565725341796875,-0.020104922656714916,0.0399585009008646,0.044103637881577014
1769658630931713500,3.575713623046875,-0.04096928537860513,0.008253449082374572,0.07032616663575172
1769658630941701600,3.58570166015625,-0.012843407221138477,-0.020494506496191025,0.07020020216852427
1769658630951689700,3.595689697265625,-0.000039893618971109386,-0.025723054799437522,0.10716054416671394
1769658630961677800,3.605677734375,-0.026063977191597223,-0.004139584022760391,0.1046516300857067
1769658630971664600,3.61566455078125,-0.02289192302674055,0.059070028606057166,0.06496171699315309
1769658630981652700,3.62565283203125,-0.0713745066449046,0.11088263342976569,0.050671325834095476
1769658630991640800,3.635640869140625,-0.08415040158778428,0.08760054204165935,0.023782003734260797
1769658631001628700,3.645628662109375,-0.037521336881816386,0.04647416640520095,0.012451193033158779
1769658631011616800,3.65561669921875,0.028184768737852573,0.031166707158088683,0.009406856901198624
1769658631021604900,3.66560498046875,0.04179097702503204,0.021879238852858543,-0.015110621500760316
1769658631031591700,3.675591796875,-0.023608546863496303,-0.03329553588032722,-0.020395283905416724
1769658631041579800,3.685579833984375,-0.10707827271074057,-0.07343056239187717,-0.003972118501365185
1769658631051567900,3.69556787109375,-0.1195440787911415,-0.08139759574830531,-0.020242723692208527
1769658631061556000,3.705555908203125,-0.1139583876132965,-0.09746493345201016,-0.025214374624937773
1769658631071543800,3.715543701171875,-0.09956658190637827,-0.10999006850421428,-0.024124679692089555
1769658631081531000,3.72553076171875,-0.10265841044187546,-0.09585749825537204,-0.03156768917441368
1769658631091518700,3.735518798828125,-0.12104279291629791,-0.06225508838295936,-0.026584493934363126
1769658631101506800,3.7455068359375,-0.12729367000460623,-0.015534253740310668,-0.028201135350763795
1769658631111494700,3.75549462890625,-0.07124854217767715,0.026177812829613685,-0.015983166551589965
1769658631121482800,3.765482666015625,-0.013262509416043757,-0.007925532302260398,-0.0006866670899093151
1769658631131469800,3.7754697265625,0.026142595385760067,-0.03722410750091076,0.0077668346092104905
1769658631141458000,3.7854580078125,0.058555064821243286,-0.04233984307944774,0.027601123631000517
1769658631151445500,3.795445556640625,0.07471943315863609,-0.043919805747270585,0.015137801768630742
1769658631161433600,3.80543359375,0.08124503553509711,-0.05465221216380596,0.018974603452533483
1769658631171421700,3.815421630859375,0.09639379708915949,-0.07849076839089393,0.034758886431157585
1769658631181409800,3.825409912109375,0.1411401167884469,-0.08340425939559937,0.06929901554509997
1769658631191396600,3.835396728515625,0.0703678138203919,-0.09053601097166537,0.09268325213342904
1769658631201384700,3.845384765625,0.01405979727357626,-0.054452890199422836,0.09204451583847403
1769658631211372800,3.855372802734375,-0.011223112542927264,-0.04406593621969223,0.08538008951321244
1769658631221360600,3.865360595703125,0.012863865487277507,-0.0600835895627737,0.0657968526430428
1769658631231348700,3.8753486328125,0.02018967833071947,-0.059501405760645866,0.04138531883358955
1769658631241335600,3.88533544921875,-0.010779460428655147,-0.05908171904385089,0.015595628538727759
1769658631251323600,3.89532373046875,-0.0379258260294795,-0.07000117246508598,-0.020333324585109946
1769658631261311700,3.905311767578125,-0.069048109523952,-0.023094459861516953,-0.024165596224367616
1769658631271299800,3.9152998046875,-0.1066363741621375,-0.006131050100922584,-0.0027656653210520743
1769658631281287700,3.92528759765625,-0.1200963058464229,0.02231938383579254,0.046552053947001695
1769658631291275800,3.93527587890625,-0.10201558249369264,0.019198621466755866,0.079869801659137
1769658631301262800,3.945262939453125,-0.08982230974435806,0.002472527593374252,0.09494929736927152
1769658631311250700,3.955250732421875,-0.04445303584113717,-0.004669745376706123,0.08582871006354689
1769658631321238800,3.96523876953125,0.003700315822660923,-0.003298457023501396,0.07301876672059297
1769658631331227000,3.975226806640625,0.010545067150890826,-0.00851063871383667,0.04172258796393871
1769658631341214700,3.985214599609375,0.030558804392814633,-0.004634674063324928,0.01331058634147048
1769658631351201800,3.995201904296875,0.036926293598115445,-0.006076105043292045,0.02085997880771756
1769658631361190000,4.00518994140625,0.012218553321063518,0.0013414777368307112,0.0388682214461267
1769658631371177700,4.015177734375,-0.01634410881847143,0.018779519271850585,0.05536839760914444
1769658631381165800,4.025165771484375,-0.053145606993138785,0.034463995137810705,0.07681713609024882
1769658631391154000,4.03515380859375,-0.05789455508589744,0.027659575819969175,0.05261559176966547
1769658631401140700,4.045140625,-0.05259674093872308,-0.021799743875861168,0.017357523644715548
1769658631411128800,4.05512890625,-0.00954758054614067,-0.06519581800997257,-0.013499240781366825
1769658631421117000,4.065116943359375,0.018313070803880692,-0.10827098962664604,-0.012272183204442262
1769658631431104800,4.075104736328125,0.022617489999532697,-0.11602467249333857,-0.004785480710864067
1769658631441092600,4.085092529296875,-0.01809299831241369,-0.08855097463428974,0.010496113442629575
1769658631451080000,4.095079833984375,-0.05659107127189636,-0.0506201801687479,0.04550049906745553
1769658631461067800,4.10506787109375,-0.08728402343839406,-0.017808628413081166,0.07301175245791673
1769658631471056000,4.115055908203125,-0.07869798140078782,-0.002933715364336967,0.05784121746346354
1769658631481043700,4.125043701171875,-0.023458909259736538,-0.01968260559141636,0.06241685481593012
1769658631491031600,4.135031494140625,0.008047697377204895,-0.03927402576804161,0.07221607203558086
1769658631501019600,4.14501953125,-0.002586655492335558,-0.06121697750687599,0.08100070538520812
1769658631511006700,4.1550068359375,-0.0006292378142476082,-0.05794657753407955,0.06584843669980764
1769658631520994600,4.16499462890625,0.0002326397120952606,-0.06556991201937198,0.033640842186659574
1769658631530982700,4.174982666015625,0.028453210415691134,-0.0736515116661787,-0.0198158765822649
1769658631540970800,4.184970703125,0.0393090970814228,-0.06355974124073982,-0.044887189474701876
1769658631550958600,4.19495849609375,0.04815057518482208,-0.049994157224893566,-0.0644223494194448
1769658631560945700,4.204945556640625,0.05532616590261459,-0.028943185889720915,-0.0597021890297532
1769658631570933800,4.214933837890625,0.034265696086734534,0.01013970122039318,-0.023611615603417156
1769658631580921600,4.224921630859375,0.016176058775186537,0.033409517648816105,0.038347704703360797
1769658631590909700,4.23490966796875,0.006575871258974075,0.028906945532560346,0.0802213915757835
1769658631600897800,4.244897705078125,-0.015679507429897783,-0.00760346074104309,0.10252280136346817
1769658631610886000,4.254885986328125,0.011944120293855666,-0.0663181000381708,0.07603709162846208
1769658631620872700,4.264872802734375,0.06790493083819747,-0.09889408947229385,0.06084887484684586
1769658631630860800,4.27486083984375,0.06565145282298326,-0.09308160380125045,0.047267654870450496
1769658631640848600,4.2848486328125,0.009464578437805175,-0.03841536311209202,0.017201894691586492
1769658631650836700,4.294836669921875,-0.042809214156866074,0.016392331874370576,-0.014565700969099997
1769658631660824800,4.304824951171875,-0.061876318198442457,0.006326280412077903,-0.03262728122994304
1769658631670811600,4.314811767578125,-0.05343932924270629,-0.014891864183545113,-0.02207622272968292
1769658631680799700,4.3247998046875,-0.0047393034815788266,-0.06266542274951935,-0.050977469173818825
1769658631690787800,4.334787841796875,0.037301848912239075,-0.09074936146140097,-0.03190072052106261
1769658631700776000,4.34477587890625,0.030385639782994984,-0.07149696398079394,-0.01155658228099346
1769658631710763800,4.354763671875,0.01705430291444063,-0.03370119407176971,-0.01302227091938257
1769658631720751900,4.364751953125,0.024948417165130375,-0.019150690671801567,-0.0004408756352961063
1769658631730738700,4.37473876953125,0.05373597410172224,-0.04282674981355667,-0.0010861878015100954
1769658631740726800,4.384726806640625,0.07147256019189953,-0.03460720300078392,0.0022357962280511855
1769658631750715000,4.39471484375,0.0661195087261498,-0.04250993894934654,0.006227642343193293
1769658631760703000,4.404702880859375,0.03892170519903302,-0.028066987577080725,0.006295008490979671
1769658631770690600,4.414690673828125,0.01258899406865239,-0.02670212896466255,0.0011022621534764767
1769658631780678000,4.424677978515625,0.005619885708391666,-0.02976853079795837,-0.02220467141494155
1769658631790665700,4.434665771484375,0.02026332808881998,-0.05131809930503368,-0.03195391201302409
1769658631800653800,4.44465380859375,0.019719722731411454,-0.08212707906663418,-0.04338540660962462
1769658631810641700,4.4546416015625,0.04327800071239471,-0.08723521586060523,-0.045574148825556035
1769658631820629800,4.464629638671875,0.03029839989095926,-0.048694765064120286,-0.03754427936598658
1769658631830617600,4.47461767578125,-0.024603695380687712,-0.024818799436092377,-0.02948693737760186
1769658631840604700,4.484604736328125,-0.05447320233508944,-0.0011485855132341385,-0.002525719085335731
1769658631850592800,4.4945927734375,-0.0636979806676507,0.004303250151872635,0.002329611991345882
1769658631860580600,4.50458056640625,-0.047478082750737664,-0.033546880292892454,-0.008891746985912323
1769658631870568700,4.514568603515625,-0.025222704061865806,-0.06191489664316177,-0.0070760758660733695
1769658631880556800,4.524556884765625,-0.01699906559586525,-0.04750526301860809,-0.0101911391466856
1769658631890543600,4.534543701171875,-0.031176936291158197,-0.030496845072507855,-0.010574877767264842
1769658631900531700,4.54453173828125,-0.07069222346916794,-0.04941723411977291,-0.020269465568661688
1769658631910519800,4.554519775390625,-0.05622048439383506,-0.029697803649306295,-0.024226824892312288
1769658631920507600,4.564507568359375,-0.03753931092992425,-0.01846037032008171,-0.025698797141015528
1769658631930495700,4.574495849609375,-0.02877133645415306,-0.0036976854741573332,-0.013866174397617578
1769658631940483800,4.58448388671875,-0.03757467450425028,0.00961246247589588,0.007431757435947656
1769658631950471000,4.594470947265625,-0.02660875159278512,0.011454875472187995,0.0012510229744017124
1769658631960459000,4.604458984375,-0.06289236337319017,0.0078045362710952755,0.022094635169208048
1769658631970446800,4.61444677734375,-0.0843415402457118,-0.006400514692068099,0.030818185981363055
1769658631980435000,4.62443505859375,-0.06560337589755653,-0.021564181554317472,0.02533054835051298
1769658631990423000,4.634423095703125,-0.029744127009063957,-0.03220247994661331,0.007349047588557004
1769658632000409900,4.644409912109375,-0.000462064553797245,-0.024009236618876457,-0.009652502225339412
1769658632010398000,4.65439794921875,-0.0016036358043551445,-0.018608838880062102,-0.013776888678967952
1769658632020386000,4.664385986328125,-0.01862885875478387,-0.006615618747472763,-0.04064341442510486
1769658632030374000,4.674373779296875,-0.018596125528961418,-0.008340542843937874,-0.015469956332445144
1769658632040362000,4.684362060546875,-0.041744361404329536,-0.012281973946094512,0.007618366049230098
1769658632050349800,4.694349853515625,-0.04721548629179596,0.0056336219727993,0.008496610188484192
1769658632060337000,4.7043369140625,-0.05049684605002403,0.005371171644330024,0.04234744186401367
1769658632070325000,4.714324951171875,-0.043154082071781154,-0.019888357296586036,0.040055531534552574
1769658632080313000,4.72431298828125,-0.021270751565694808,-0.05787234325408935,0.029559271961450573
1769658632090300700,4.73430078125,0.04096782407388091,-0.07561725878119469,0.029009675254672764
1769658632100288800,4.744288818359375,0.08275923949033022,-0.05677870279848575,0.0009171148449182509
1769658632110276000,4.754276123046875,0.09170169375017284,-0.04762976618111133,-0.028730127660930155
1769658632120264000,4.764263916015625,0.09653349782079458,-0.008329436928033828,-0.029578853444755075
1769658632130251800,4.774251708984375,0.09224018454104661,-0.005555296039581299,-0.0519284862883389
1769658632140240000,4.784239990234375,0.09286270035356282,-0.01975391726195812,-0.07402312145754694
1769658632150228000,4.79422802734375,0.08094225319623946,-0.007127659922838211,-0.05156622884720564
1769658632160215800,4.8042158203125,0.06902940482348204,-0.0167658413618803,-0.02939297548383474
1769658632170203000,4.814202880859375,0.027670973996818064,-0.005070142871141433,-0.006560673689842224
1769658632180190700,4.824190673828125,-0.009897124636173248,0.006674655458331108,-0.005219195953011513
1769658632190178800,4.8341787109375,-0.012511252657324074,0.0034738135904073715,0.009148205965012311
1769658632200167000,4.8441669921875,-0.04052344130724668,0.021706220373511314,0.0200467627286911
1769658632210155000,4.854155029296875,-0.04664762327596545,0.024678514182567595,0.01341097797602415
1769658632220141800,4.864141845703125,-0.04074585188627243,0.0028267478585243225,-0.009645341832190752
1769658632230130000,4.8741298828125,-0.01125993742197752,-0.02272854915857315,-0.016485563115775585
1769658632240118000,4.884117919921875,0.026214929969608784,-0.03156184395551681,-0.03730082599893212
1769658632250105900,4.89410595703125,0.01652428769096732,-0.05127309111952781,-0.04404167856127023
1769658632260094000,4.904093994140625,-0.0008025485545396804,-0.049776130560040474,-0.03220627933889627
1769658632270082000,4.91408203125,0.0005403904870152473,-0.033846155500411985,-0.034688451543450356
1769658632280068900,4.92406884765625,-0.001604220326244831,-0.00405073669552803,-0.0581838934212923
1769658632290057000,4.934056884765625,0.011440554685890674,0.022266776865720747,-0.04856324763894081
1769658632300045000,4.944045166015625,0.02275178390368819,0.025246669459342955,-0.03034530777260661
1769658632310033000,4.954032958984375,0.0345274157628417,0.011702128231525421,-0.0069179626949131484
1769658632320021000,4.96402099609375,0.029608225669711826,-0.0018558569997549055,-0.005030249252170324
1769658632330009000,4.974009033203125,0.019249182610213755,-0.014381576573848724,0.00968698901683092
1769658632339996000,4.983995849609375,0.005514233376830816,0.0028869536131620405,0.019768676439672707
1769658632349984000,4.99398388671875,-0.02459843468368053,0.03937222544550895,0.031287849319726224
1769658632359972000,5.00397216796875,-0.028641572594642638,0.030692075383663177,0.040566403666138645
1769658632369960000,5.0139599609375,-0.0065735331714153284,0.014435937109589576,0.050168490878492594
1769658632379947800,5.02394775390625,0.017633710237592456,0.007987491622567176,0.04369315738454461
1769658632389935000,5.03393505859375,0.0465966237410903,-0.028465631505846977,0.025431232246011494
1769658632399923000,5.0439228515625,0.05945522853136062,-0.039864392876625056,0.0032465807057917117
1769658632409911000,5.0539111328125,0.045535716511309145,-0.06841711814403534,-0.0021487024664878845
1769658632419899000,5.06389892578125,0.03721986971721053,-0.0745534289419651,0.009684797059744597
1769658632429886700,5.07388671875,0.03192176330909133,-0.06513152060210704,-0.006022913551330566
1769658632439874800,5.083874755859375,0.03692643972858786,-0.08994915099442005,0.011861702707409858
1769658632449862000,5.09386181640625,0.0633928602412343,-0.1057370872348547,0.0010693827971816063
1769658632459849700,5.103849609375,0.02642243524044752,-0.0981248586654663,0.03855871710553765
1769658632469837800,5.113837890625,-0.02265036935582757,-0.07916121499836444,0.035277357347309586
1769658632479826000,5.123825927734375,-0.01671264986991882,-0.03014554741680622,0.02841273227483034
1769658632489813800,5.133813720703125,0.00849646405801177,0.004264087185263633,-0.0044034956559538836
1769658632499800800,5.14380078125,0.044025019687414166,-0.002728548181056976,-0.027095073805004356
1769658632509789000,5.153788818359375,0.07765753243714571,-0.029205051696300506,-0.011867840187251568
1769658632519776800,5.16377685546875,0.08097600933536887,-0.06395137090682983,0.04431143541336059
1769658632529764900,5.173764892578125,0.06800079242810607,-0.09629705871641635,0.08909268029555678
1769658632539753000,5.1837529296875,0.03796674256175756,-0.07357318573296069,0.10904343530386686
1769658632549740800,5.19374072265625,0.033822774624824525,-0.05748129810988903,0.10257263185456394
1769658632559727900,5.203727783203125,0.029662440074980256,-0.046669396716356275,0.05336582561507821
1769658632569716000,5.213716064453125,0.004970774149894714,-0.0549772063344717,-0.03005406974107027
1769658632579703800,5.223703857421875,0.009604863691329955,-0.07589315311312675,-0.05543459471315145
1769658632589692000,5.23369189453125,0.027039836486428975,-0.05259235702455044,-0.041715719831734895
1769658632599680000,5.243679931640625,0.023535189366340636,-0.025395138019323346,-0.004419423877447843
1769658632609668000,5.253668212890625,-0.024052052847295998,0.01984977885186672,0.023764029686152932
1769658632619655000,5.263655029296875,-0.07453238615393638,-0.025585107633471486,0.03374737130105495
1769658632629643000,5.27364306640625,-0.05931026710271835,-0.03209960409402847,0.06928615606352687
1769658632639630800,5.283630859375,-0.01789937543645501,-0.06153320384919643,0.05722308556511998
1769658632649619000,5.293618896484375,-0.01958075265213847,-0.06432546491622924,0.06759440358430147
1769658632659607000,5.30360693359375,0.0009273439779877663,-0.002738485053181648,0.03692439390197396
1769658632669593900,5.31359375,0.00550122776478529,0.02923310874700546,0.008192658805847167
1769658632679582000,5.32358203125,-0.0005798457145690918,0.033417116433382035,-0.02624839384779334
1769658632689570000,5.333570068359375,0.02855740144252777,0.018911036697030065,-0.036725071937590836
1769658632699558100,5.34355810546875,0.018637188191711902,0.020369418811798094,-0.03264715497419238
1769658632709545700,5.353545654296875,0.0071627312362194055,0.01668926899433136,-0.027114363027364013
1769658632719533800,5.363533935546875,0.01771481264978647,0.00962649100124836,-0.013461685249954461
1769658632729521000,5.37352099609375,0.012772972333431243,-0.01964285810291767,-0.003985416374355555
1769658632739509000,5.383509033203125,-0.003269961581379175,-0.03120470108091831,0.003230360223352909
1769658632749496800,5.393496826171875,-0.012385434320569037,-0.04527940366268158,-0.010201222149282693
1769658632759485000,5.40348486328125,-0.005129910234361886,-0.05683481689989566,-0.02448810617700219
1769658632769472800,5.41347265625,0.007903904992341995,-0.04705751925110817,-0.04997925191670656
1769658632779459800,5.4234599609375,-0.010790420214086771,-0.04957096337676048,-0.06892784414514899
1769658632789448000,5.433447998046875,0.013240589845180511,-0.034715924072265626,-0.08966580400839448
1769658632799435800,5.443435791015625,0.05702697847113013,-0.06077507895827293,-0.08339739126339554
1769658632809424000,5.453423828125,0.04208659897074103,-0.040622517767548556,-0.0667946315087378
1769658632819412000,5.463411865234375,-0.00037847792357206345,-0.02678103941977024,-0.03885974587872624
1769658632829399800,5.47339990234375,-0.06529241025224328,-0.02822890014052391,-0.009011866234242915
1769658632839387000,5.483386962890625,-0.06973492274433374,-0.030894319957494733,0.036915187682211394
1769658632849375000,5.493375,-0.08180749172344803,-0.013286182552576064,0.0460505341656506
1769658632859362800,5.50336279296875,-0.12441592261120676,-0.00820259567797184,0.04170797491669655
1769658632869351000,5.513350830078125,-0.07954495361894369,-0.0021954642176628112,0.03298778510540724
1769658632879339000,5.523339111328125,-0.036398324201256035,0.03864566473662853,0.024468524693697688
1769658632889326800,5.533326904296875,-0.02514934656471014,0.056742462441325185,-0.010215396805107593
1769658632899314000,5.54331396484375,-0.005169511592388153,0.05207797776162624,-0.05447480977028608
1769658632909302000,5.553302001953125,0.04529065570905804,0.029193361258506773,-0.07655497802272439
1769658632919289900,5.563289794921875,0.07457651755660771,-0.023954876083135603,-0.07958090171515941
1769658632929278000,5.57327783203125,0.07869096713811159,-0.06225041220784187,-0.050409313897043465
1769658632939266000,5.58326611328125,0.0366971610173583,-0.07926058371961116,-0.028233284054696557
1769658632949252600,5.593252685546875,-0.034651626664400095,-0.05523205787837505,-0.009619038347154855
1769658632959240400,5.603240478515625,-0.04958163090124726,-0.011427987465262412,-0.01819850451350212
1769658632969228500,5.613228515625,-0.03827726981565356,0.01386018304824829,-0.0195195239841938
1769658632979216600,5.623216552734375,0.00437207760438323,0.006581131955981254,-0.017841800030320883
1769658632989204500,5.63320458984375,-0.00021364275068044662,-0.036516251492500304,-0.02601487735286355
1769658632999192600,5.643192626953125,-0.0033376199901103973,-0.07390285607874393,-0.01956657799631357
1769658633009179600,5.6531796875,0.014958645809441805,-0.09404314230978489,-0.017473843500763177
1769658633019167500,5.66316748046875,0.028549510397017,-0.07059796931445599,-0.012344956179708242
1769658633029155600,5.673155517578125,0.02358721181452274,-0.04973813663721084,-0.012457768904417752
1769658633039143700,5.683143798828125,0.034010113890469075,-0.029447628280520437,-0.018663637807220218
1769658633049131500,5.693131591796875,0.04694850591868162,-0.010302782827615738,0.009373393023014069
1769658633059118600,5.70311865234375,0.07158990296125411,0.01729834080338478,0.025266689334064722
1769658633069106700,5.713106689453125,0.06811535871848463,0.003615852409601211,0.04948839965984225
1769658633079094500,5.723094482421875,0.054366380959749216,-0.0024146599262952805,0.04397314336970448
1769658633089082400,5.733082275390625,0.036622926737368104,-0.019660393759608267,0.053956631115078924
1769658633099070500,5.743070556640625,0.01931990975886583,-0.04924363111853599,0.048936464865505694
1769658633109058300,5.753058349609375,0.03490530916452408,-0.07649637970328331,0.06516074669659137
1769658633119045400,5.76304541015625,0.051127837429940697,-0.0862824451804161,0.07747443095520139
1769658633129033500,5.773033447265625,0.011579670895636081,-0.07145370936095714,0.09200681417658925
1769658633139021300,5.783021240234375,-0.04044745346158743,-0.02361117721199989,0.07242737669870257
1769658633149009400,5.793009521484375,-0.05764876363128423,0.02148234848976135,0.04038271766230464
1769658633158997500,5.80299755859375,-0.0584627103626728,0.04843114569187164,0.0021099778912961483
1769658633168985600,5.812985595703125,-0.03841477859020233,0.034767361998558045,-0.017908289395272732
1769658633178972400,5.822972412109375,-0.023256956946849823,-0.004378653475642204,-0.021053601683676242
1769658633188960500,5.83296044921875,-0.020587007085233925,-0.0240858089864254,-0.016447276932001112
1769658633198948400,5.8429482421875,-0.019902678082883356,-0.033435236611962314,0.010370295105874538
1769658633208936400,5.8529365234375,-0.027641163380444048,-0.04336509447395801,0.012186404617130756
1769658633218924500,5.862924560546875,0.014307780685275792,-0.05387187544107437,0.009571253682672977
1769658633228912600,5.87291259765625,0.0356231020450592,-0.0516962849676609,0.016980214764922855
1769658633238899500,5.8828994140625,-0.008340396713465452,-0.050321489483118056,0.015375994438678025
1769658633248887600,5.892887451171875,-0.06841156518608331,-0.04143734128177166,0.011540800189971924
1769658633258875600,5.902875732421875,-0.05371843844503164,-0.040402737537026404,-0.002137742681056261
1769658633268863500,5.912863525390625,-0.01667787081748247,-0.05875555582940578,-0.03365370166823268
1769658633278851600,5.9228515625,0.020539953073114157,-0.056201195171475406,-0.027483634731173514
1769658633288838400,5.93283837890625,-0.00710983200520277,-0.07873685210645198,0.0031011808857321736
1769658633298826500,5.942826416015625,-0.03079085958302021,-0.07899111912846565,0.02199015188142657
1769658633308814600,5.952814697265625,-0.03694426764622331,-0.06422784976065159,0.02385769931897521
1769658633318802700,5.962802734375,-0.050895636109262704,-0.04281856650710106,0.03939882119148969
1769658633328790500,5.97279052734375,-0.08964373830705881,-0.02204524306952953,0.026015315744280815
1769658633338778400,5.9827783203125,-0.08565159993097185,-0.024684359401464462,0.03317176337018609
1769658633348765700,5.992765625,-0.0729170599117875,-0.018539865297079086,0.022800737611949444
1769658633358753500,6.00275341796875,-0.052474575863778586,-0.030139702197909353,-0.012890022841840982
1769658633368741600,6.01274169921875,-0.046136605013906956,-0.05397182868421077,-0.008766659301519394
1769658633378729500,6.0227294921875,0.05600991038307547,-0.025852234137058255,-0.0437153692163527
1769658633388717300,6.03271728515625,0.04582213223725557,-0.04365969350636005,-0.04553980816453695
1769658633398705400,6.042705322265625,0.024332331093400716,-0.0059533554464578625,-0.027228929317742585
1769658633408692500,6.0526923828125,-0.0017757775008678436,0.03455634959638119,0.0042607261843979356
1769658633418680300,6.062680419921875,-0.006859218244999647,0.002594108146429062,-0.0027351240523159504
1769658633428668400,6.07266845703125,0.021880554027110338,-0.03568973754048347,0.017499270202964542
1769658633438656500,6.082656494140625,0.03225698661282658,-0.05832593224048614,0.014027794700115918
1769658633448644400,6.092644287109375,0.01308349958732724,-0.07110065813958645,0.010545797803252936
1769658633458631400,6.10263134765625,0.0016506898164749145,-0.04924889181554317,0.00716930710747838
1769658633468619500,6.11261962890625,-0.04007949693202972,-0.038566169759631154,-0.007129998010396957
1769658633478607400,6.122607421875,-0.05904401738196611,-0.04531213688850402,-0.015032587828487157
1769658633488595500,6.132595458984375,-0.04948226218000054,-0.05899754789173603,-0.015333616601675749
1769658633498583600,6.14258349609375,-0.017956658581644296,-0.06430033047497272,-0.018627689711004494
1769658633508571400,6.1525712890625,0.00042348610907793044,-0.028753216275572775,-0.019562632473558186
1769658633518558500,6.162558349609375,-0.012565759323537349,-0.004610124143958091,-0.024026187753677368
1769658633528546600,6.172546630859375,-0.0338685134626925,0.022758359774947164,-0.0107912969969213
1769658633538534400,6.182534423828125,-0.02873071218281984,0.025122166296839714,0.017061755568534134
1769658633548522500,6.1925224609375,-0.011686638401448726,0.023740356549620627,0.032144320018589495
1769658633558510600,6.202510498046875,-0.021378303593397138,-0.007758943563699722,0.025661972261965274
1769658633568498700,6.212498779296875,0.018040683603286742,-0.03527940317392349,0.00863499574586749
1769658633578485500,6.222485595703125,0.0484895978808403,-0.034193361502885815,0.005420563744008541
1769658633588473600,6.2324736328125,0.0604386866107583,-0.044269934359192846,-0.010342238055169583
1769658633598461400,6.24246142578125,0.020206044943630694,-0.030936990055441854,-0.012192249836027621
1769658633608449500,6.252449462890625,0.015663871469348667,-0.03325345030426979,-0.028454233328998088
1769658633618437600,6.262437744140625,-0.01189282849803567,-0.023147066831588743,-0.03473784364312887
1769658633628425500,6.272425537109375,-0.022921733643114565,-0.044164135897159576,-0.0008472644791007041
1769658633638412500,6.28241259765625,-0.0023845570489764213,-0.071547232863307,-0.006871785465627909
1769658633648400600,6.292400634765625,-0.021574995209276675,-0.04941723411977291,0.005217003995925187
1769658633658388500,6.302388427734375,-0.0720718412593007,-0.017812720066308973,0.0207373753413558
1769658633668376300,6.312376220703125,-0.0658089814722538,-0.006235094997286797,0.019503011240810154
1769658633678364400,6.322364501953125,-0.04888298111259937,-0.03709259007573128,0.018285744405537842
1769658633688351500,6.3323515625,-0.013656184908747673,-0.04559738357067108,0.009332038099318742
1769658633698339600,6.342339599609375,-0.013339666305482386,-0.03926408889591693,0.009613777650147676
1769658633708327400,6.352327392578125,-0.017898937045037745,-0.032818566018342966,0.00024725275933742524
1769658633718315500,6.3623154296875,-0.013296850077062845,-0.01239361762702465,0.006001870763301849
1769658633728303400,6.372303466796875,-0.02044979057163,0.012259177592396735,0.021564473815262317
1769658633738291500,6.38229150390625,-0.03556201950758695,-0.007299509358406066,0.03727671447098255
1769658633748278300,6.3922783203125,-0.023622867649793624,-0.029198621955513954,0.03470817915722728
1769658633758266400,6.402266357421875,0.0198071087539196,-0.051418637070059774,0.03127425918579101
1769658633768254500,6.41225439453125,0.012327420523017643,-0.06424713898301124,0.028177023822814225
1769658633778242600,6.42224267578125,0.010565525417029858,-0.032355624681711194,0.010763824468106031
1769658633788230400,6.43223046875,0.00265606746673584,-0.012758359286189078,-0.011337678833305834
1769658633798218500,6.442218505859375,0.02320902615189552,-0.009201543587446213,-0.023950784429907796
1769658633808205600,6.45220556640625,0.0047474867880344385,-0.0039987142473459246,-0.00415463546141982
1769658633818193400,6.462193359375,-0.020026012201607227,-0.006844166806340217,0.031705051818490024
1769658633828181500,6.472181396484375,-0.0062055766418576234,-0.037387189108133316,0.03834463596343994
1769658633838169600,6.482169677734375,0.011227788718044758,-0.06488017618954181,0.0483653869792819
1769658633848157400,6.492157470703125,0.010259820468723773,-0.07391220842897891,0.04891410690322518
1769658633858145500,6.5021455078125,0.01758592557311058,-0.07720189762413501,0.017005641467124223
1769658633868132600,6.512132568359375,0.022789339435100555,-0.04387596660554409,0.006828238584846258
1769658633878120400,6.522120361328125,0.017650076850503682,-0.003587795358896255,-0.014920651886612176
1769658633888108500,6.532108642578125,0.016709434999525544,0.03191138804554939,-0.009635989481955766
1769658633898096600,6.5420966796875,0.017602292186021804,0.0006429740786552428,0.02805412809550762
1769658633908084500,6.55208447265625,0.01101852988153696,-0.03997019133865833,0.05393909545838833
1769658633918072600,6.562072509765625,0.013847323566675186,-0.08145780150294303,0.05421922757402062
1769658633928059600,6.5720595703125,0.05786620577424764,-0.06825579010248184,0.05180252182111144
1769658633938047500,6.582047607421875,0.07942249628305435,-0.03008943331539631,0.03813260064795613
1769658633948035600,6.59203564453125,0.02389861585125327,-0.02531096686720848,0.015991788249462843
1769658633958024000,6.60202392578125,-0.01714285798072815,-0.02812251715660095,-0.0015180033475160597
1769658633968012000,6.612011962890625,0.011953764905035495,-0.027416414713859555,-0.031100948445498943
1769658633977998800,6.621998779296875,0.017355331687629223,-0.04635609298348427,-0.034562340945750475
1769658633987987000,6.631987060546875,0.0002916764229536056,-0.03929097690284252,-0.05252265278920531
1769658633997975000,6.64197509765625,0.0048734512552618976,-0.006418634870648384,-0.06219108323603868
1769658634007963000,6.651962890625,-0.014124094681441783,0.00596738397181034,-0.0793444626107812
1769658634017951000,6.661950927734375,0.014151274949312209,0.02710778715610504,-0.09802066763862967
1769658634027939000,6.67193896484375,0.029119711500406265,0.028002105647325515,-0.11518866006061435
1769658634037926000,6.68192578125,0.029533552998304364,0.01996668322980404,-0.10094240030422806
1769658634047914000,6.6919140625,0.04392316674813628,-0.007933131086826323,-0.10545490929260849
1769658634057902000,6.701902099609375,0.045732700388133526,-0.023859014493227002,-0.0701835432946682
1769658634067890000,6.711889892578125,0.02447656186968088,-0.0260638310611248,-0.03367284476011991
1769658634077878000,6.7218779296875,0.019933657743036747,-0.022972879308462143,-0.01022401850298047
1769658634087866000,6.7318662109375,0.01512611133083701,-0.03083352968096733,-0.029648119288682936
1769658634097853000,6.74185302734375,0.0026731647320091725,-0.04036941978931427,-0.024547289018332957
1769658634107841000,6.751841064453125,0.01849398032873869,-0.05442424862682819,-0.03070157386437058
1769658634117829000,6.7618291015625,0.016897212656587363,-0.04085808008909225,-0.008712444896250962
1769658634127817000,6.77181689453125,-0.015943419063091276,-0.0395095880895853,0.023213263935595748
1769658634137805000,6.78180517578125,-0.0042849838428199285,-0.025592121896147728,0.038178777877241374
1769658634147793200,6.791793212890625,-0.002930500493943691,-0.02970364886820316,0.031577041524648665
1769658634157780000,6.801780029296875,0.003375321651995182,-0.054981297987699504,0.032131606667488814
1769658634167768000,6.81176806640625,0.011040449452400207,-0.06270283215045928,0.01771554330214858
1769658634177756200,6.821756103515625,0.004658931721746922,-0.08342354861795902,-0.007840630497783422
1769658634187744000,6.831743896484375,0.01843728170543909,-0.06079436818063259,-0.012237842543423175
1769658634197732000,6.841732177734375,-0.018248773396015164,-0.04763327331244945,0.024562924978882072
1769658634207720000,6.851719970703125,-0.008318623273074626,-0.033915129083395,0.05251753822267055
1769658634217707000,6.86170703125,0.01715805554986,-0.03269464737772941,0.03447393200993538
1769658634227695000,6.871695068359375,0.015365034653246401,-0.0435574021756649,0.029089462492614983
1769658634237683000,6.881682861328125,0.04945727386921644,-0.04968377610146999,-0.016734131049364803
1769658634247670800,6.8916708984375,0.03377235961183905,-0.05343114593625068,-0.04444032249003649
1769658634257659000,6.901658935546875,0.027459961594641206,-0.008161094623804092,-0.0585585719525814
1769658634267647000,6.91164697265625,-0.0050832946136593815,0.009598433950543403,-0.04750000232160091
1769658634277633800,6.9216337890625,-0.02901025977656245,0.0008498948276042938,-0.03755217041149735
1769658634287622000,6.931621826171875,-0.024020050273835657,-0.006375380250811576,-0.0017348609685897826
1769658634297610000,6.94160986328125,-0.035142332790791986,-0.023036592194437978,0.025858517747372387
1769658634307597800,6.951597900390625,-0.03018441812247038,-0.05460194328129291,0.03716331722438335
1769658634317586000,6.9615859375,-0.039271687680482864,-0.061166124102473254,0.022565321420878172
1769658634327574000,6.971573974609375,-0.022402678205072878,-0.05126783042252064,-0.0028143267683684824
1769658634337560800,6.981560791015625,0.015734452487528323,-0.04234568829834461,-0.03174816030785441
1769658634347549000,6.991548828125,-0.011932137595117092,-0.05389934796988964,-0.054499359689652915
1769658634357537000,7.001537109375,0.0054363458350300785,-0.00684533585011959,-0.08185352282226085
1769658634367525000,7.011525146484375,0.019883973382413385,0.02393967851400375,-0.0932081527903676
1769658634377513000,7.021512939453125,-0.01608750370889902,0.03952946183383465,-0.11002382464334368
1769658634387501000,7.0315009765625,-0.03498568092435598,0.042001404905319215,-0.0726632312811911
1769658634397487900,7.04148779296875,-0.024399989502131937,0.02557283267378807,-0.06463248503878712
1769658634407476000,7.05147607421875,-0.009912614466249942,0.02876607575714588,-0.054149231077730654
1769658634417464000,7.061464111328125,-0.039324586911499496,-0.0055360068172216415,-0.026925416326522827
1769658634427452200,7.0714521484375,-0.048499242492020124,-0.008885901767015456,-0.00462152232080698
1769658634437440000,7.08143994140625,-0.08573620947450399,-0.010474047741293907,0.041486148859560486
1769658634447427000,7.091427001953125,-0.10757044014185667,-0.023659108006954192,0.08807371251136065
1769658634457415200,7.101415283203125,-0.0662006111383438,-0.02231587670445442,0.11562047560662031
1769658634467403000,7.111403076171875,-0.04447159441113472,-0.03380114731490612,0.1431141933403909
1769658634477391000,7.12139111328125,-0.009134031309187413,-0.046910804256796834,0.12413929762691259
1769658634487379200,7.131379150390625,0.035328503012657164,-0.05653320360481739,0.09725187522321939
1769658634497366800,7.14136669921875,0.06305033041387796,-0.056769350448250766,0.08852730149775744
1769658634507354000,7.15135400390625,0.06416267556995153,-0.0690676910072565,0.0755612908102572
1769658634517342200,7.16134228515625,0.015600596974790095,-0.06385901644825935,0.06558993189409375
1769658634527330000,7.171330078125,0.03820201262235641,-0.03682020287513733,0.07304273211807012
1769658634537318000,7.18131787109375,0.04018587991595268,-0.032839608806371684,0.08918240440562367
1769658634547306000,7.191305908203125,-0.03336889337748289,-0.04541851987242698,0.0985204338543117
1769658634557293800,7.2012939453125,-0.05711421836316585,-0.05568038616776466,0.09978197822272777
1769658634567281000,7.211281005859375,-0.0630398090198636,-0.06781564511954784,0.11955503857657312
1769658634577269000,7.22126904296875,-0.03380903836041689,-0.07877426150739192,0.11937442131265998
1769658634587256800,7.2312568359375,-0.028679858778417108,-0.08238134608864783,0.1311569213040173
1769658634597245000,7.241244873046875,-0.03940145153999328,-0.0676689301252365,0.10085326071605086
1769658634607233000,7.25123291015625,-0.031981822933256625,-0.017863573470711706,0.0943834801800549
1769658634617220900,7.261220947265625,-0.03806435771733522,0.005492167675495148,0.0542582444101572
1769658634627208000,7.2712080078125,-0.022341887928545474,0.02250117014348507,-0.0021276596784591674
1769658634637196000,7.281196044921875,-0.007696399721503257,0.016162614771723746,-0.0037384558759629726
1769658634647184000,7.291183837890625,-0.001570318056643009,-0.0009030863195657729,-0.0021226912423968312
1769658634657172000,7.301171875,0.008320376838743686,-0.04343231449127197,-0.0005680091463029385
1769658634667160000,7.31116015625,0.011967793430387973,-0.04154547783136368,-0.004314209937304258
1769658634677148200,7.321148193359375,-0.017174422162771225,-0.026290625554323196,-0.021117168439179657
1769658634687135000,7.331135009765625,-0.02251373736411333,-0.01883037267625332,-0.06213613817840814
1769658634697123000,7.341123046875,-0.012828209652006626,0.0302682970136404,-0.03143909435868263
1769658634707111000,7.35111083984375,-0.07527969738990067,0.012646131083369254,-0.05425459114834666
1769658634717099000,7.36109912109375,-0.11518851393014191,-0.02792904041111469,-0.03770239253714681
1769658634727087000,7.371087158203125,-0.12421236286312341,-0.015907763227820396,-0.035947219432890413
1769658634737075200,7.3810751953125,-0.12119973704367876,-0.003969488152861595,0.023797785825282334
1769658634747062000,7.39106201171875,-0.16150427490323782,-0.009439443996548651,0.07066241285279393
1769658634757050000,7.401050048828125,-0.17546382667273283,-0.010941665253043175,0.07516279301196337
1769658634767038200,7.4110380859375,-0.13811404696553944,-0.013388473883271216,0.08228226962834596
1769658634777026000,7.421026123046875,-0.11344167026281356,-0.0503717583656311,0.03970087287798524
1769658634787014000,7.431013916015625,-0.05253682744503021,-0.03442892382442951,0.02681406490653753
1769658634797002000,7.441001953125,0.011187164446711539,-0.024765607944130897,0.049801557262241836
1769658634806989000,7.450989013671875,0.057933718052506446,-0.08276420792639255,-0.013880933575332164
1769658634816977200,7.46097705078125,0.0871168501779437,-0.05786883612275123,-0.04908054951131344
1769658634826965000,7.470965087890625,0.06688947018533944,-0.010932312902808189,-0.021715134332329033
1769658634836952800,7.480952880859375,0.06838555396199227,0.016142741027474403,-0.016597352927178143
1769658634846941000,7.49094091796875,0.08386515490561723,0.03518178801834583,-0.013877718704938887
1769658634856929000,7.500928955078125,0.08781973775029182,0.04181494242250919,-0.01572510013729334
1769658634866915800,7.510915771484375,0.18455431110113857,0.08805120841860771,0.04904021750092506
1769658634876904000,7.520904052734375,0.1413406077966094,-0.017105448579788206,0.06579948299154639
1769658634886892000,7.53089208984375,0.12061112350076436,-0.09804594821035861,0.022485534182935953
1769658634896879900,7.5408798828125,0.19159312369674444,-0.06503624353408813,0.09950652228221296
1769658634906868000,7.550867919921875,0.1439303320288658,-0.09910919352769851,0.11058730374500154
1769658634916856000,7.56085595703125,0.04337298551946878,-0.09608838440179825,0.05424845366850495
1769658634926843000,7.5708427734375,-0.028726620529592035,-0.052110126465559,-0.009759469731152057
1769658634936831000,7.5808310546875,-0.011082827289402485,-0.0026256723284721374,-0.0368821621954441
1769658634946819000,7.590819091796875,0.07731500260978937,0.06307751068174838,0.0012431319288909435
1769658634956807000,7.600806884765625,0.02315495787709951,0.04017068234682083,-0.032370091598480935
1769658634966795000,7.610794921875,0.017835808680951595,0.015813070681691167,-0.03804652979969978
1769658634976782800,7.620782958984375,0.060681263194978234,0.01230477029979229,-0.0390315953142941
1769658634986770000,7.63077001953125,0.10229191521704196,-0.014944471153616905,-0.08648381297141312
1769658634996758000,7.640758056640625,0.12381313441246747,-0.04668927046060562,-0.014439151979982853
1769658635006745900,7.650745849609375,0.09260112680792808,-0.10822656596302986,-0.05444894467666745
1769658635016734000,7.66073388671875,0.10660071832686661,-0.12115268303155899,-0.04317950877398252
1769658635026722000,7.67072216796875,0.05196896442919969,-0.10901976216733456,-0.05031666717752814
1769658635036710000,7.6807099609375,-0.013046236316859722,-0.10302373662292957,-0.08890972494408488
1769658635046697000,7.690697021484375,-0.01652151121199131,-0.1014098716855049,-0.04179448415637016
1769658635056685000,7.70068505859375,0.01628361080288887,-0.08966390431225299,-0.041177082910388706
1769658635066673000,7.7106728515625,0.036114977215230465,-0.07745674916803837,-0.04515563115254044
1769658635076661000,7.720660888671875,-0.007360591895878315,-0.08188742509186267,0.004530190775543451
1769658635086648800,7.73064892578125,-0.015299275940656661,-0.07437339619994163,-0.009980857396870851
1769658635096636700,7.74063671875,0.016463643544912338,-0.07825462154746055,-0.03954275970682502
1769658635106624000,7.7506240234375,0.03792728733420372,-0.055799044111371036,-0.03806099671646952
1769658635116611800,7.76061181640625,0.018297580973803997,-0.032360300856828686,-0.04057458697259426
1769658635126599700,7.770599609375,-0.0071992638543248175,-0.03718143740296364,0.007067746429145335
1769658635136587800,7.780587890625,-0.0022986323311924932,-0.04033960917294025,0.018810352801531552
1769658635146576000,7.790575927734375,0.006624971097707748,-0.012973463341593742,0.04465294232740998
1769658635156563700,7.800563720703125,-0.0066971595510840415,-0.017636778977513312,0.04174041588157415
1769658635166550800,7.81055078125,-0.02472264558523893,-0.040434886240959166,0.016866525257378816
1769658635176539000,7.820538818359375,0.0211512168392539,-0.03882628200054168,-0.0019409049347043036
1769658635186526700,7.830526611328125,-0.0030059038177132603,0.0020978490620851514,-0.015552958440780638
1769658635196514800,7.840514892578125,-0.06987725382447242,0.00829495013654232,-0.0206043966114521
1769658635206503000,7.8505029296875,-0.062001405882835384,-0.005080664265155792,-0.03696399526000023
1769658635216491000,7.860490966796875,-0.00329348858743906,0.01103811136484146,0.012583441110700368
1769658635226477800,7.870477783203125,-0.02361117721199989,0.0070376435518264766,-0.008567337337136268
1769658635236466000,7.8804658203125,-0.043671383944153784,0.0038473230779170987,0.002797667894512415
1769658635246453800,7.890453857421875,-0.047830257189273834,-0.01274608432650566,-0.0782718649432063
1769658635256441900,7.90044189453125,0.0075075991511344906,0.0026227497190237045,-0.047483635708689687
1769658635266430000,7.910429931640625,-0.012781155639886856,0.016205869391560553,-0.041984307640045876
1769658635276418000,7.92041796875,-0.023672259749472138,0.035569910553097724,-0.07023907287418842
1769658635286404900,7.93040478515625,-0.014506956519186496,0.07895721685886382,-0.0869993612781167
1769658635296393000,7.94039306640625,-0.0684884298145771,0.05136018488109111,-0.08658274330124259
1769658635306381000,7.950381103515625,-0.05899900919646024,0.05070376679897308,-0.09289514131844043
1769658635316369000,7.960368896484375,-0.04842062429785728,0.06614098990559578,-0.08381722411066293
1769658635326357000,7.97035693359375,-0.05896598370969295,0.06976736370921134,-0.05548252550810575
1769658635336344800,7.9803447265625,-0.03803776197135448,0.09626958618760108,-0.04966857853233814
1769658635346332000,7.990331787109375,-0.0016007131949067116,0.06923954044282436,-0.051787908773869275
1769658635356320000,8.000320068359375,0.01395166072398424,0.00980944635272026,-0.04085018904358148
1769658635366308000,8.01030810546875,0.054691959652304646,0.018418284744024276,-0.01988704212233424
1769658635376295700,8.020295654296875,0.042409108923375606,0.015662848556041716,-0.011688830358535051
1769658635386283800,8.03028369140625,0.0231643102273345,-0.016807926937937735,-0.01146685817092657
1769658635396271900,8.04027197265625,0.05429886868149042,0.014467501291632651,0.012336334481835364
1769658635406259000,8.050259033203124,0.01142594163864851,0.03399111692905426,0.06840089766159653
1769658635416246800,8.060246826171875,0.00862432822138071,0.0036421558946371077,0.02080766409859061
1769658635426235000,8.07023486328125,0.010277063864469528,0.00220423204600811,0.027465952944010493
1769658635436222700,8.08022265625,0.0031488194197416305,-0.032581834653019906,0.0025369711317121983
1769658635446210800,8.0902109375,-0.01260667585581541,-0.0687450349241495,-0.012200725403428076
1769658635456199000,8.100198974609375,0.0014653963774442671,-0.04228782063126564,0.04931012048348784
1769658635466185700,8.110185791015626,-0.007839899845421314,-0.06789747818410397,0.06948430898413062
1769658635476173800,8.120173828125,0.022350948017835617,-0.05267419008910656,0.04510097835585475
1769658635486162000,8.130161865234374,-0.013946984548866748,-0.06381283921897411,0.0003495440900325775
1769658635496149800,8.140149658203125,-0.013590426196157931,-0.05154314023256302,-0.019621230792999267
1769658635506137900,8.150137939453124,0.02686433378905058,-0.036893852633237835,0.02494973233938217
1769658635516126000,8.1601259765625,0.03574468259811401,-0.03314531375467777,0.015550181961804627
1769658635526112800,8.17011279296875,0.019122925882041453,-0.01144376955628395,0.027771804022789
1769658635536100900,8.180100830078125,-0.004712707735598087,0.00767535693347454,0.016904665310680866
1769658635546089000,8.1900888671875,-0.006406359910964965,0.05556055918037891,0.048335868623852724
1769658635556076800,8.200076904296875,-0.005698796163499355,0.035789106261730194,0.03893003463596106
1769658635566065000,8.21006494140625,0.04419131616503,-0.025046762973070142,-0.022404139509797093
1769658635576052000,8.220052001953125,0.11543488990664481,-0.05955985794961452,-0.023980010524392126
1769658635586039800,8.230039794921876,0.15807663854211568,-0.06461538777351379,0.014280746547877787
1769658635596028000,8.24002783203125,0.07068564759790896,-0.06272329041659831,-0.04347396167591214
1769658635606016000,8.25001611328125,0.05369914922267198,-0.015253098711371421,-0.02485387074947357
1769658635616003800,8.26000390625,0.08259002040326595,0.027671266257762908,0.07943316380754113
1769658635625992000,8.269991943359376,0.04348901311457157,0.009347089537978172,0.05320990440100431
1769658635635979800,8.279979736328125,-0.007825286798179149,0.03065525050461292,-0.015254413885623215
1769658635645966800,8.289966796875,-0.015279694457352161,0.009966682741045951,-0.049017421147227284
1769658635655955000,8.299954833984375,0.0024304420173168182,-0.007014262676239013,-0.07924027158394456
1769658635665942800,8.30994287109375,0.004948562318086624,-0.010565233156085013,-0.0667163055755198
1769658635675931000,8.319930908203125,-0.006876315510272979,-0.032197803771495816,-0.05488762835487723
1769658635685918700,8.329918701171875,-0.005429916094243526,-0.07740881837308407,-0.040368396876007316
1769658635695906000,8.339906005859374,0.015612871934473513,-0.09713117145299911,-0.04395005475506186
1769658635705893600,8.3498935546875,0.06620294922590256,-0.10300152479112147,-0.0790158151783049
1769658635715881700,8.3598818359375,0.0654997693926096,-0.11186170759499073,-0.09321882031485437
1769658635725869800,8.369869873046875,0.025431086115539073,-0.09640870239734649,-0.10431348417252302
1769658635735858000,8.37985791015625,0.017154110027104614,-0.07496843948364257,-0.07359875856563448
1769658635745845800,8.389845703125,0.011187456707656383,-0.042511692515015596,-0.033706747029721734
1769658635755832800,8.399832763671874,0.0224082311630249,-0.041860535129904744,-0.015416034188121557
1769658635765821000,8.409821044921875,0.03609890286326408,-0.0060942252218723295,0.014985533816367387
1769658635775808800,8.419808837890624,0.03177811705470085,0.01059153664112091,0.06509557250589132
1769658635785796900,8.429796875,0.011777823816239832,-0.012125906601548194,0.07758534398376941
1769658635795785000,8.439784912109374,0.02729483416080475,-0.06570961275100708,0.059169981849193566
1769658635805772800,8.449772705078125,0.052335751914978024,-0.08249474333524703,0.034088439823687075
1769658635815761000,8.459760986328124,0.047052843075990676,-0.06416472139656543,-0.0238961316332221
1769658635825748000,8.469748046875,0.018121932145953177,-0.05035246914327144,-0.051123161254823205
1769658635835735800,8.47973583984375,-0.007202624855190515,-0.023631050956249237,-0.02794657606780529
1769658635845724000,8.489723876953125,-0.01870119333863258,0.018952537751197814,-0.02489361823797226
1769658635855712000,8.4997119140625,-0.0663882426649332,0.01537117213308811,-0.00866685218885541
1769658635865699800,8.509699951171875,-0.07796762129962444,-0.0011275427252054214,-0.011067629720270634
1769658635875687000,8.51968701171875,-0.08723170872926711,0.010613163951039313,-0.02625716167613864
1769658635885675000,8.529675048828125,-0.06297609613388776,0.02742810515165329,-0.02772825714200735
1769658635895662800,8.539662841796876,-0.06082184070944786,0.03425882795453072,-0.03463219131156802
1769658635905651000,8.54965087890625,-0.028949469500035047,0.04958265381455421,-0.026566812147200105
1769658635915639000,8.55963916015625,-0.029856355211883782,0.05203472314178943,-0.02794657606780529
1769658635925627000,8.569626953125,-0.017784663015604017,0.02913374002575874,-0.02481193130388856
1769658635935614700,8.57961474609375,0.012699322575330733,0.006188917768001556,-0.05664163241535425
1769658635945602000,8.58960205078125,0.05049538474529981,-0.010976152044534683,-0.06164484753012657
1769658635955590000,8.59958984375,0.05232727634757757,-0.044752749440073965,-0.06751110921502113
1769658635965577700,8.60957763671875,0.06213672270029783,-0.06760054106414318,-0.09190569188967347
1769658635975565800,8.61956591796875,0.045045887167751784,-0.07095335862338542,-0.11065466989278792
1769658635985554000,8.629553955078125,0.033169279152154924,-0.08687748846411704,-0.13997107300907372
1769658635995540700,8.639540771484375,0.08259089718610048,-0.12294190453588962,-0.16559037517309189
1769658636005528800,8.64952880859375,0.11737272610142827,-0.12905892611145972,-0.18900413011685013
1769658636015516700,8.6595166015625,0.14324556463509797,-0.11742869407236575,-0.19242139121443033
1769658636025504800,8.6695048828125,0.1548281581401825,-0.10833002633750438,-0.1726782876074314
1769658636035492900,8.679492919921875,0.13549202789887785,-0.046996728974580765,-0.11428265113160013
1769658636045481000,8.68948095703125,0.10279840343445538,-0.016984452548623085,-0.05568462395146489
1769658636055468800,8.69946875,0.06898088950663804,0.003818681505322456,0.034952947698533535
1769658636065455900,8.709455810546874,0.053716100357472894,-0.0017220014870166778,0.04370908560603857
1769658636075444000,8.71944384765625,0.04055968166440725,0.03195931884050369,0.04101560873836279
1769658636085431800,8.729431884765624,0.03151931998804212,0.047184360501170156,0.07012129171341658
1769658636095420000,8.739419921875,-0.016511574339866636,0.05489771135747432,0.03975450276136398
1769658636105408000,8.749407958984374,-0.10538929671049117,0.04456862504482269,0.00903276289179921
1769658636115394800,8.759394775390625,-0.1397732123494148,0.07591770303249358,-0.008001666278392076
1769658636125383000,8.7693828125,-0.16592092230170966,0.05767126772403717,-0.03674406889900565
1769658636135371000,8.77937109375,-0.1814721271768212,0.025636545559763906,-0.04676759639382362
1769658636145358800,8.78935888671875,-0.18881430663317442,0.0005126256972551345,-0.03787468036413193
1769658636155347000,8.799346923828125,-0.1847939650759101,-0.01978138979077339,-0.05308642415180802
1769658636165335000,8.8093349609375,-0.13313888890147207,-0.015969138026237485,-0.053065819755196565
1769658636175321900,8.81932177734375,-0.06233268366381526,-0.015192308434844017,-0.008491349491477012
1769658636185310000,8.82931005859375,-0.02332330018132925,-0.05101180983483791,-0.01951163293868303
1769658636195298000,8.839298095703125,0.020933190174400804,-0.012038228318095206,-0.05206584893241525
1769658636205286000,8.849285888671876,0.0036357261538505553,0.027866496568918226,-0.04037482661679387
1769658636215274000,8.85927392578125,-0.022672142796218393,0.0381242712110281,-0.06582710165083408
1769658636225261800,8.86926171875,0.027039105834066865,0.05302782583236694,-0.0871101281762123
1769658636235249000,8.879248779296875,0.04284750034064054,0.03527063534557819,-0.08793459630161524
1769658636245237000,8.889237060546876,0.020118951182067392,0.024090485161542892,-0.06998100645989179
1769658636255224800,8.899224853515625,0.02105769333690405,-0.0070031567603349686,-0.11921718492433428
1769658636265212700,8.909212646484375,-0.02418181670680642,-0.013798808249831198,-0.12541487052068115
1769658636275200800,8.91920068359375,-0.09969269250407814,-0.021229250511527062,-0.09294614085331558
1769658636285188900,8.92918896484375,-0.13631532698050142,0.010346037447452544,-0.03544730708673596
1769658636295177000,8.939177001953125,-0.14541501762866973,0.012575988456606865,-0.008689648542553186
1769658636305163800,8.949163818359375,-0.12436492307633161,-0.0113327103972435,0.010407412245869637
1769658636315152000,8.95915185546875,-0.12167407655715942,-0.021240940949320792,0.027783056069165465
1769658636325139700,8.9691396484375,-0.12873159385323524,-0.04319909025728702,-0.04924523855373263
1769658636335127800,8.9791279296875,-0.0465264811143279,-0.020410335344076155,-0.0499991256609559
1769658636345116000,8.989115966796875,-0.03652121992856264,-0.0240203425347805,-0.07581497331038117
1769658636355102700,8.999102783203124,-0.01994476365894079,-0.028151158729195592,-0.08027019915357232
1769658636365090800,9.0090908203125,0.016951427061855793,-0.03412263435423374,-0.06678805563747882
1769658636375079000,9.019078857421874,0.05064765269756317,-0.03988602018654346,-0.033957799181342126
1769658636385067000,9.02906689453125,0.047270285218954086,-0.04229249680638313,-0.08396846914961933
1769658636395054800,9.039054931640624,0.012838731046020985,-0.030083003574609756,-0.03256035347357392
1769658636405043000,9.04904296875,0.011882453234493731,-0.019736381605267524,-0.02801072734519839
1769658636415029800,9.05902978515625,0.018336743940412997,-0.040078912410140034,-0.0011151216350495814
1769658636425017900,9.069017822265625,0.024899463456869123,-0.07142272970080375,-0.015047785397619008
1769658636435006000,9.079005859375,0.002243395012617111,-0.08198679381310939,0.02221972285360098
1769658636444994000,9.088994140625,-0.0425825657941401,-0.04835340428054333,0.027264439022541043
1769658636454982000,9.09898193359375,-0.005536299078166484,-0.021052724900841712,0.03529270104691386
1769658636464970000,9.108969970703125,0.026731062798202036,-0.057931379964947696,0.03433145479932427
1769658636474956800,9.118956787109376,-0.026685762351751324,-0.07337152568101883,-0.040190848352015016
1769658636484945000,9.12894482421875,-0.06428659421056508,-0.03105389443337917,-0.08387348434254527
1769658636494933000,9.13893310546875,-0.10560878468006848,-0.009196867412328719,-0.07998685216754674
1769658636504920800,9.1489208984375,-0.07098638411015272,0.0064770870596170425,-0.05776639866158366
1769658636514908700,9.15890869140625,-0.014065934753417967,0.007589432215690612,-0.03139510908648371
1769658636524896800,9.168896728515625,-0.042138475288450716,0.04948971483409405,0.012893091581761836
1769658636534884900,9.178884765625,-0.0570490441724658,0.0552168603092432,0.036164077053964135
1769658636544871700,9.18887158203125,-0.045963002012670034,0.06117956810593605,0.07983926039040089
1769658636554859800,9.19885986328125,-0.0594213262617588,0.029662147814035415,0.09955664503425359
1769658636564847900,9.208847900390625,-0.030674539726972577,-0.023270400950312613,0.05986380933225154
1769658636574835700,9.218835693359376,-0.004584697441756725,-0.06348959861397743,0.05133271235227584
1769658636584823800,9.22882373046875,0.013955898507684469,-0.07686287492811679,-0.0106420977845788
1769658636594811000,9.238810791015625,0.01668576186299324,-0.07588964598178863,-0.02694718976691365
1769658636604798700,9.248798828125,-0.009611877954006195,-0.013617606464028358,-0.01492985810637474
1769658636614786800,9.258786865234375,-0.037784956254065034,0.018225392520427704,-0.021308453227579592
1769658636624775000,9.26877490234375,-0.0702700525343418,0.01212824468910694,-0.034128333442658185
1769658636634762800,9.2787626953125,-0.07723930702507495,0.01091477724611759,-0.04655936047062278
1769658636644750800,9.288750732421875,-0.09466375842615961,-0.008501286363601684,-0.0039300329253077505
1769658636654739000,9.298739013671875,-0.08651596167534589,-0.02436813305914402,0.0013185352526605128
1769658636664725800,9.308725830078124,-0.10573927919194101,-0.034250644648075104,0.030736060655862093
1769658636674713900,9.3187138671875,-0.07264788758158683,-0.04508417335152626,0.05475114249363541
1769658636684702000,9.328701904296874,-0.01227466742247343,-0.09131400960683822,0.013612784158438444
1769658636694689800,9.338689697265625,-0.03514627831354737,-0.09560732288658619,-0.017502485073357818
1769658636704678000,9.348677978515624,-0.027934885630011556,-0.02853518961071968,0.006797112794220447
1769658636714666000,9.358666015625,-0.0023556232154369355,-0.006691022071242332,-0.02380187747851014
1769658636724652800,9.36865283203125,0.01364186412245035,0.025378771406412124,-0.020766455305367706
1769658636734641000,9.378640869140625,0.047005935194343325,0.003304302242398262,-0.04080795733705163
1769658636744629000,9.38862890625,0.033627544313669204,-0.05684767638146877,-0.03278320244401693
1769658636754617000,9.3986171875,0.03946443377360701,-0.11690145532786846,-0.0171438808940351
1769658636764605000,9.40860498046875,0.002649345465004444,-0.12156067931056022,-0.0007410276256501674
1769658636774592800,9.4185927734375,-0.011888882975280284,-0.10159399608075619,0.013819120385497808
1769658636784579800,9.428579833984376,-0.006177373460680246,-0.05094809694886207,0.017377105128020046
1769658636794568000,9.43856787109375,-0.022235358814150095,-0.005427285745739936,0.03205824917033315
1769658636804555800,9.4485556640625,-0.026332857260853052,-0.00026771102547645565,0.007677548890560865
1769658636814544000,9.4585439453125,-0.021539339374005793,-0.020850480327010153,0.029781098018586635
1769658636824531700,9.46853173828125,-0.0033528175592422486,-0.04852642275989055,0.05428615533038973
1769658636834519800,9.478519775390625,0.017931670270860196,-0.04562310253381729,0.061722150550037616
1769658636844507000,9.4885068359375,0.020363573592901228,-0.046755321434140205,0.07347776253446936
1769658636854494700,9.49849462890625,0.01206686989068985,-0.0506681109637022,0.11204524746835232
1769658636864482800,9.50848291015625,0.0028057050704956054,-0.049556350329518314,0.10829802376404404
1769658636874471000,9.518470947265625,0.018164602243900298,-0.045604982355237,0.07925488463118673
1769658636884458800,9.528458740234376,0.027615006025880573,-0.04915829092264175,0.08333762390017509
1769658636894446800,9.53844677734375,0.0440725120909512,-0.04417816442251205,0.05060498259961605
1769658636904434000,9.548433837890625,0.03081584789380431,-0.04467793063819408,0.007702975592762232
1769658636914421800,9.558421875,0.040901188578456635,-0.04982055422365665,0.012721096015721559
1769658636924409900,9.568409912109376,0.07811667438149451,-0.04883972649276256,0.012387918538600206
1769658636934398000,9.57839794921875,0.07215922728180885,-0.05708206965923309,-0.021433979303389788
1769658636944385800,9.5883857421875,0.051015901488065715,-0.051502808222174644,-0.014856939000636338
1769658636954374100,9.5983740234375,0.03646349839195609,-0.03602116145193576,-0.02727481428608298
1769658636964361000,9.60836083984375,0.0011642214737832546,-0.01807517039477825,-0.03751183840110898
1769658636974349000,9.61834912109375,-0.04470920255929231,-0.03210311122536659,-0.042604777625948186
1769658636984337200,9.628337158203125,-0.05055690567418933,-0.06636778439879416,-0.0036404023289680477
1769658636994325000,9.638324951171874,-0.007718903814256191,-0.07381342422962188,0.011933452769368887
1769658637004313000,9.64831298828125,-0.001860240913927555,-0.07414017196595668,0.0027921149365603922
1769658637014301200,9.65830126953125,-0.024176994401216505,-0.05267360556721687,-0.004573153134435415
1769658637024288000,9.6682880859375,-0.036093203774839634,-0.03599836509823799,0.014655863470584153
1769658637034276000,9.678276123046874,-0.025065759934484958,-0.021402853512763977,0.051149172478914255
1769658637044264200,9.68826416015625,0.004056435783952475,-0.02366436870396137,0.07521627676486968
1769658637054252000,9.698251953125,0.018002105158567427,-0.041541970700025556,0.09032003013342618
1769658637064239900,9.708239990234375,0.04257657444477081,-0.02729951033592224,0.06807984901368618
1769658637074228000,9.71822802734375,0.029518209298700093,-0.02703589096367359,0.04092427719309926
1769658637084215000,9.728215087890625,0.01789060760810971,0.0027320553123950956,-0.004530629166960716
1769658637094203000,9.738202880859374,-0.006855564983189105,0.023112580040097235,-0.009503595273941755
1769658637104191000,9.74819091796875,-0.010865092885494232,0.018495441633462905,-0.00555631895288825
1769658637114178800,9.7581787109375,-0.01853416620865464,0.003595394143462181,0.006354191332310438
1769658637124167000,9.7681669921875,0.002433072365820408,-0.02428220834136009,0.04003317357227206
1769658637134155000,9.778155029296874,0.011363105535507201,-0.049506081447005267,0.05326747980713844
1769658637144141800,9.788141845703125,0.008891454724967478,-0.06600538082718849,0.05246054733842611
1769658637154130000,9.7981298828125,0.010745850419998168,-0.07440671394765376,0.02902458056285977
1769658637164118000,9.808117919921875,-0.004564385306090117,-0.04697860879600048,-0.0011262275509536265
1769658637174105900,9.81810595703125,-0.024465748214721677,-0.021067337948083877,-0.012698445792496203
1769658637184094000,9.828093994140625,-0.02838789009451866,-0.014575637841224669,-0.014957769026607275
1769658637194082000,9.83808203125,-0.03134294050782919,-0.019928104785084725,-0.013044921142607926
1769658637204068900,9.84806884765625,-0.052533028052747247,-0.02439326750040054,0.018775281488150358
1769658637214057000,9.858056884765626,-0.041315468467772,-0.04808978490829467,0.045156069543957705
1769658637224045000,9.868045166015625,-0.01134089370369911,-0.05904430964291096,0.052435559027642006
1769658637234033200,9.878033203125,0.010613602342456578,-0.06148468853235244,0.014860738392919301
1769658637244021000,9.88802099609375,0.03310468948334455,-0.05710311244726181,-0.012520751138031482
1769658637254009000,9.898009033203126,0.039321664302051064,-0.02798047833740711,-0.02547711721435189
1769658637263996000,9.907995849609375,0.010386077196896076,0.003492518290877342,-0.03332110871300101
1769658637273984000,9.91798388671875,-0.028101474368572233,0.004143675675988197,-0.010236585723608731
1769658637283972000,9.92797216796875,0.004766045358031988,0.01863163523375988,0.025017829139530656
1769658637293960200,9.937960205078125,0.014560440272092818,0.0009118541479110718,0.06451835713982582
1769658637303948000,9.947947998046875,0.039540860010683535,-0.028999299991130826,0.07088058564811944
1769658637313936000,9.957935791015625,0.040753450670838354,-0.05218845239877701,-0.0021799743875861167
1769658637323923200,9.967923095703124,0.012751929545402526,-0.0450385806441307,0.0012535071924328802
1769658637333911000,9.9779111328125,-0.024749533592164516,-0.03593056055903435,-0.013705284747481346
1769658637343899100,9.987899169921874,-0.03670183719247579,-0.01941314100027084,0.000834551128000021
1769658637353887000,9.997886962890625,-0.01485270121693611,-0.004113865059614181,-0.006249123522639274
1769658637363874800,10.007874755859374,0.003706161041557789,-0.00339022696018219,-0.015789397545158863
1769658637373863000,10.01786279296875,-0.005380816255509853,-0.01645312215089798,-0.042953444933146234
1769658637383850000,10.02785009765625,0.0004977203890681267,-0.010175941577553749,-0.021802228093892335
1769658637393837800,10.037837890625,-0.0006489654280245304,-0.009068857118487358,-0.041176206127554175
1769658637403826000,10.047825927734374,0.015200199480354785,-0.010686229187250137,-0.015629530808329583
1769658637413814000,10.05781396484375,-0.00527940170764923,-0.017622750452160833,0.018455548014491795
1769658637423801900,10.0678017578125,-0.02818710682541132,-0.05476327132284641,0.046665889585018154
1769658637433790000,10.0777900390625,-0.027182898218929767,-0.04568038567900658,0.03757642806991934
1769658637443777000,10.087777099609376,-0.04239917205125093,-0.056121115672588345,0.042606238930672405
1769658637453764900,10.097764892578125,-0.050716626280546184,-0.05057692554891109,0.02482552143782377
1769658637463753000,10.1077529296875,-0.04687281033396721,-0.047212417551875115,0.017666443463414908
1769658637473741000,10.117740966796875,-0.04945654321685433,-0.06950257529318332,0.009744710553437471
1769658637483729000,10.12772900390625,-0.04368482794761658,-0.07744388968646526,0.015354659389704465
1769658637493717000,10.137717041015625,-0.03919423853009939,-0.05697510215342044,-0.009259118993580341
1769658637503704000,10.1477041015625,-0.0506485294803977,-0.044459903973340986,-0.023836218139529228
1769658637513692000,10.15769189453125,-0.07691606642007827,-0.013814005818963051,-0.01594181162789464
1769658637523680000,10.167679931640626,-0.0561762068606913,0.002614566412568092,-0.04055237514078617
1769658637533668000,10.177668212890625,-0.014742080449312925,-0.003887655088305473,-0.04454363673403859
1769658637543656200,10.18765625,-0.004110357928276062,-0.028753216275572775,-0.03032426498457789
1769658637553644000,10.19764404296875,0.01876286039799452,-0.035763387298583985,-0.03303089359477162
1769658637563631000,10.207631103515626,0.03850596400499344,-0.0372352134168148,-0.04097279250994324
1769658637573619000,10.217618896484375,0.008150573229789734,-0.017875848430395126,-0.022701222760230302
1769658637583607000,10.22760693359375,-0.006429740786552429,-0.024801848301291465,-0.021746990775316954
1769658637593595100,10.23759521484375,-0.0033376199901103973,-0.03326689430773258,-0.03410495256707072
1769658637603583000,10.2475830078125,0.006462766273319721,-0.02042319482564926,-0.02391805120408535
1769658637613570800,10.25757080078125,-0.013824088821560143,-0.01873743369579315,-0.009933803384751081
1769658637623558100,10.26755810546875,-0.026280542551726103,-0.023476737177371976,0.0069395900048315525
1769658637633546000,10.2775458984375,-0.039048400318622584,0.007954173874855041,0.014239099363237619
1769658637643533800,10.287533935546875,-0.03815700443685054,0.022681202885508536,0.0009523322887718677
1769658637653522000,10.29752197265625,-0.03887742766588926,0.037518706533312796,0.008296557571738958
1769658637663510000,10.307510009765625,-0.004860591773688793,0.039241877064108845,0.007939560827612876
1769658637673497900,10.317497802734374,-0.00412175610512495,0.028639819028973577,0.00009907646030187607
1769658637683485000,10.32748486328125,-0.016068652877956627,-0.013972411251068115,-0.002293810025602579
1769658637693473000,10.33747314453125,0.009350742799788713,-0.02651391291618347,-0.014958791939914225
1769658637703460900,10.3474609375,0.01794219166487455,-0.02198211470544338,-0.011911971589922904
1769658637713449000,10.357448974609374,0.0014510755911469459,-0.014953238981962203,-0.03539470011666417
1769658637723437000,10.36743701171875,-0.03613163608908653,-0.0050970308780670165,-0.031134120062738656
1769658637733425000,10.3774248046875,-0.043804947195947165,0.0009065934509038925,-0.040485447384417055
1769658637743412000,10.387411865234375,-0.04124941749423742,-0.01429156020283699,-0.05098433730602264
1769658637753400000,10.397400146484374,-0.022981354875862597,-0.0309960267663002,-0.03346227074936032
1769658637763388000,10.407387939453125,0.005904840129613876,-0.026747721672058102,-0.01041486489996314
1769658637773376000,10.4173759765625,0.0039072365716099735,-0.016977438285946844,0.0030181787773966785
1769658637783364000,10.427364013671875,-0.008764028953015804,-0.026226912668347358,0.0006878361336886882
1769658637793352000,10.43735205078125,-0.00990530794262886,-0.017001403683423996,0.02112608239799738
1769658637803339000,10.447339111328125,0.01371551388055086,-0.03912906433939933,0.012193857271224259
1769658637813327000,10.4573271484375,0.04807955577522516,-0.03987374522686005,-0.007541209159791469
1769658637823315000,10.46731494140625,0.05048778596073389,-0.04145078528523445,-0.011593407160043716
1769658637833303000,10.477302978515626,0.03280395297110081,-0.01605389370024204,-0.004095744881033897
1769658637843291100,10.487291015625,0.02111585326492786,0.004864975687861442,-0.013888678490370511
1769658637853279000,10.497279052734376,-0.011334463962912558,0.018662614893913267,-0.0012469313211739062
1769658637863267000,10.50726708984375,-0.008594517605006693,-0.019851532417535782,0.02967076951190829
1769658637873254100,10.517254150390626,-0.007992021667212247,-0.05423427901268005,0.031077129178494214
1769658637883242000,10.527241943359375,-0.0017161562681198119,-0.06320259836614131,0.04157791879624128
1769658637893230000,10.53722998046875,-0.010616086560487747,-0.06652443626523018,0.04288008743599057
1769658637903218000,10.547218017578125,-0.02445873395204544,-0.048286768785119054,0.036676118229329584
1769658637913206000,10.5572060546875,-0.040891982358694075,-0.03458089951574802,0.03638166532739997
1769658637923193900,10.56719384765625,-0.014496288994699716,-0.046831309279799456,0.03156125943362713
1769658637933181000,10.577180908203125,0.029086686013638972,-0.060844052541255945,0.0324785204090178
1769658637943168800,10.587168701171874,0.06856354087740182,-0.06564823795258999,0.01710924797207117
1769658637953157000,10.5971572265625,0.06034048693329096,-0.058251113438606256,-0.00581818475946784
1769658637963145200,10.607145263671875,0.04378448892980814,-0.04622282199263572,-0.03523877890259027
1769658637973133300,10.61713330078125,0.058331777459383005,-0.027743746972084045,-0.06877046162635088
1769658637983120100,10.6271201171875,0.08107698549181222,-0.008683072671294211,-0.05383212795257568
1769658637993108200,10.637108154296875,0.050108577384799714,-0.02290682833492756,-0.00853825737312436
1769658638003096300,10.647096435546874,0.03380611575096845,-0.022983985224366187,0.043344928468763824
1769658638013084200,10.657084228515625,0.026367782443761825,-0.018574352088570594,0.05513590402752161
1769658638023072300,10.667072265625,0.028809914898872375,0.012921440893411636,0.03131839058846235
1769658638033060400,10.677060302734375,0.06858955210149288,0.020564064601063727,0.0028545126482844353
1769658638043048200,10.687048095703124,0.10569704748541116,0.01527706410884857,-0.03720978671461343
1769658638053035300,10.69703515625,0.06872647635415197,0.04836801732778549,-0.026849136219918725
1769658638063023400,10.7070234375,0.010504150618612765,0.022754852643609047,-0.029084640187025067
1769658638073011200,10.71701123046875,0.009248305338621138,0.0328957229077816,-0.00030000585988163947
1769658638082999300,10.726999267578124,-0.0042293081328272815,-0.011590484550595283,0.06946472750082612
1769658638092987400,10.7369873046875,0.00862082109004259,-0.07556289824545383,0.08535042502731084
1769658638102975200,10.746975341796874,0.02693549932911992,-0.0819254190146923,0.06854761265590786
1769658638112962300,10.75696240234375,0.030551643999665975,-0.06338730728328228,0.02939122191816568
1769658638122950400,10.766950439453124,0.054845688909292215,-0.05532850399017333,-0.03701221831589937
1769658638132938200,10.776938232421875,0.0665150839149952,-0.08020750918090343,-0.09191665167510508
1769658638142926300,10.78692626953125,0.05791676691770553,-0.07758768207132816,-0.10680661616250872
1769658638152914200,10.7969140625,0.03578311491236091,-0.07639467289447784,-0.10724076979607343
1769658638162902300,10.80690234375,0.008349310672283172,-0.07685761423110961,-0.08095408976450562
1769658638172889300,10.816889404296875,-0.0022664836272597313,-0.06996142497658729,-0.0870155817605555
1769658638182877200,10.826877197265626,-0.01891425156742334,-0.07462590965628624,-0.06861424815133213
1769658638192865000,10.836864990234375,-0.01384235513061285,-0.07045534597337245,-0.05109934198781848
1769658638202853000,10.84685302734375,-0.0018777765706181526,-0.0647848991215229,-0.043435237100720406
1769658638212841200,10.85684130859375,0.018557254823297262,-0.059711249119043346,-0.05480491850748658
1769658638222829300,10.866829345703126,0.02391016015857458,-0.0488204372704029,-0.0861615952797234
1769658638232816000,10.876816162109375,0.0010460019215941428,-0.02512625795006752,-0.07946209764108061
1769658638242804200,10.88680419921875,-0.014322832123935222,-0.000986088427901268,-0.048996086098253726
1769658638252792300,10.896792236328125,-0.01395166072398424,0.008954875349998474,-0.025971768863499164
1769658638262780200,10.9067802734375,0.004969458975642919,0.018671967244148255,-0.020610680221766233
1769658638272768300,10.916768310546875,-0.019071487955749034,-0.004591419443488121,-0.005115151056647301
1769658638282756400,10.92675634765625,-0.0379912924811244,-0.015472878941893576,-0.0020623393572866914
1769658638292743200,10.9367431640625,-0.066793316334486,0.009684943190217017,0.02025192991197109
1769658638302731300,10.946731201171875,-0.10701076043248176,0.024269933381676673,0.03762932730093598
1769658638312719400,10.95671923828125,-0.10492430954724549,0.040808980250358576,0.049927375598996876
1769658638322707200,10.966707275390625,-0.12322554378286003,0.040835868257284164,0.03880596986487508
1769658638332695300,10.9766953125,-0.10041326186358929,0.021767010650038717,0.022094927430152893
1769658638342683400,10.986683349609375,-0.07083674650639295,0.003158171769976616,0.022663082706928253
1769658638352670200,10.996670166015624,-0.03231938432455063,0.00101999069750309,0.03278261792212724
1769658638362658300,11.006658203125,-0.03751242292299867,0.01490238557755947,0.047331806147843596
1769658638372646400,11.016646484375,-0.06705488988012075,0.03871054666638374,0.08794570221751928
1769658638382634200,11.02663427734375,-0.08151406173482537,0.038327100306749344,0.14708514279797671
1769658638392622300,11.036622314453124,-0.0649962037846446,0.008306640574336051,0.17062500833943486
1769658638402610200,11.046610107421875,-0.015053776746988295,-0.007318214058876037,0.1930652420759201
1769658638412597200,11.05659716796875,0.02548398534655571,-0.06329787543416023,0.10577551954910158
1769658638422585300,11.06658544921875,-0.0013340250827372072,-0.04785188449919223,0.0478010310947895
1769658638432573400,11.076573486328124,-0.026250878065824507,0.002218260571360588,0.03751461488008499
1769658638442561000,11.08656103515625,-0.040876930920034645,0.03146247523427009,0.03918269422277808
1769658638452549000,11.096549072265624,-0.03918021000474691,0.0339981311917305,0.06881283946335315
1769658638462537200,11.106537109375,-0.01403232474476099,0.003073416095972061,0.09463511685356497
1769658638472524300,11.116524169921876,0.00875482273325324,0.0071107087880373,0.09984276849925518
1769658638482512100,11.12651220703125,0.025139409692585466,0.021671149060130117,0.11917787582725285
1769658638492500200,11.136500244140626,0.06136632284969091,0.07668634931743144,0.10560425463542342
1769658638502488000,11.146488037109375,0.0948141266822815,0.16293898388147354,0.09853826177194713
1769658638512476200,11.15647607421875,0.036305823612213135,0.2726239319592714,0.05816854972168803
1769658638522464300,11.16646435546875,-0.01321136375069618,0.38871114829480646,0.0014009528391063213
1769658638532452400,11.176452392578126,-0.02221095502525568,0.44071196916699407,0.01221782266870141
1769658638542439200,11.186439208984375,-0.07106471004337071,0.4344721979945898,0.0696503132008016
1769658638552427300,11.19642724609375,-0.09870967281609773,0.4439554811328649,0.17154489966332911
1769658638562415400,11.206415283203125,-0.04513678032159805,0.4990946000307798,0.24232056363224982
1769658638572403200,11.2164033203125,0.10675152497440576,0.5664519799888134,0.2896871488325298
1769658638582391300,11.226391357421875,0.2608604289293289,0.5981757365077733,0.19387042097896337
1769658638592379400,11.23637939453125,0.4530371977329254,0.6306324834764003,-0.016122575022280216
1769658638602366200,11.2463662109375,0.4968000593528151,0.5320277323395014,-0.1493457812063396
1769658638612354300,11.256354248046875,0.5961699496433138,0.4171779488444328,-0.3184213681466877
1769658638622342400,11.26634228515625,0.7327358903840184,0.3027192104935646,-0.4699906706213951
1769658638632330200,11.276330322265625,0.674389792138338,0.07149345684945584,-0.673829381776601
1769658638642318300,11.286318359375,0.5630021317958831,-0.19936755709052084,-0.7829569882325828
1769658638652305200,11.29630517578125,0.4772909106321633,-0.4353343677818775,-1.0283172118216752
1769658638662293200,11.306293212890624,0.30125995159596203,-0.5490355657637119,-1.1298682455435394
1769658638672281300,11.31628125,0.1812006167590618,-0.5101555077493191,-1.0844432959303258
1769658638682269400,11.32626953125,0.07308028764948249,-0.5269458990305662,-1.142277060739696
1769658638692257300,11.33625732421875,-0.03301920315697789,-0.5438859279155731,-1.166620936140418
1769658638702245000,11.3462451171875,-0.06532149021625519,-0.5753501567155123,-1.2014447045013308
1769658638712233200,11.356233154296875,-0.030891981869935987,-0.6344236924529075,-1.2602315322518347
1769658638722220300,11.36622021484375,0.08935936840772628,-0.6030670156806707,-1.2372875867769122
1769658638732208000,11.3762080078125,0.15307225438356398,-0.5061228912323713,-1.0891890291526913
1769658638742196200,11.3861962890625,0.2449998658441007,-0.41877895430028433,-0.9947501655235886
1769658638752184000,11.39618408203125,0.28311317726969715,-0.3520920209497213,-0.8610781926587223
1769658638762172200,11.406172119140624,0.2973965541660786,-0.28635961184501646,-0.7130187980011106
1769658638772160300,11.41616015625,0.2985585836827755,-0.22216391078829764,-0.5603755826845764
1769658638782147000,11.42614697265625,0.2347122805856168,-0.21723054603934286,-0.3910223478466272
1769658638792135200,11.43613525390625,0.15133300950080156,-0.23677812707424162,-0.17342706014811993
1769658638802123300,11.446123291015626,0.10842048109993338,-0.22701544247269628,-0.03920300635844469
1769658638812111000,11.456111083984375,0.05515227064043283,-0.10035071802139281,0.13420651813298462
1769658638822099200,11.46609912109375,-0.11311872191876172,-0.006647182929515838,0.3309495719388127
1769658638832087300,11.47608740234375,-0.24946575921177863,0.10328267982006073,0.38515520937889813
1769658638842074000,11.48607421875,-0.40781478495448825,0.20572949333786963,0.6323989086270332
1769658638852062200,11.496062255859375,-0.30363237981572744,-0.03081833211183548,0.693258158737421
1769658638862050300,11.50605029296875,-0.12372472547665238,-0.1471370191156864,0.633009149479866
1769658638872038100,11.5160380859375,-0.13670914860367775,-0.05276771359145641,0.789930772767961
1769658638882026200,11.526026123046876,-0.1839597062088549,0.0449123239159584,0.7464756619229912
1769658638892014300,11.536014404296875,-0.31734540947824713,0.17101999900639056,0.7723191282317042
1769658638902001200,11.546001220703126,-0.4571742975376546,0.21577450201213358,0.7972425570860505
1769658638911989200,11.5559892578125,-0.4157224893391132,0.23370471097826956,0.8250780739948153
1769658638921977300,11.565977294921876,-0.3223286047182977,0.2328098079651594,0.8396469898343085
1769658638931965400,11.57596533203125,-0.3282956964291632,0.1085948147535324,0.7196361703142523
1769658638941953300,11.585953369140626,-0.30853169616460796,-0.013189151918888092,0.5876864911973476
1769658638951941400,11.59594140625,-0.3238604904606938,-0.10017068527936934,0.5603668148562312
1769658638961928400,11.605928466796875,-0.37029680907353757,-0.17263795559704304,0.4171209579601884
1769658638971916500,11.61591650390625,-0.3696259240746498,-0.1814624825656414,0.3288929316699505
1769658638981904400,11.625904296875,-0.3814205528952181,-0.14330606265068052,0.30419454374313354
1769658638991892200,11.635892333984375,-0.3969664970733225,-0.11061083075106143,0.25321722069978714
1769658639001880300,11.64588037109375,-0.34357860575690863,-0.13531389485299586,0.20978169133812188
1769658639011868400,11.655868408203125,-0.24321853538528082,-0.21832067936360836,0.09577975684404373
1769658639021855200,11.665855224609375,-0.07704027732163667,-0.2735258492350578,-0.019226970778405666
1769658639031843300,11.67584326171875,0.02670227509513497,-0.278794145026803,-0.0662944269016385
1769658639041831200,11.6858310546875,0.04867094579711556,-0.2168102748006582,0.004007774336636066
1769658639051819300,11.6958193359375,0.06762085319980979,-0.16654022324383258,0.08688187237828969
1769658639061807400,11.705807373046875,0.06975099709630012,-0.16175006635785102,0.14351561374813318
1769658639071795500,11.71579541015625,0.01599587990269065,-0.1894353611409664,0.21919453958868979
1769658639081782300,11.7257822265625,-0.031303485280275344,-0.23703940835893153,0.303630480119586
1769658639091770400,11.735770263671874,-0.07351283384785055,-0.2608423087507486,0.35364889500290153
1769658639101758500,11.745758544921875,-0.13012626308202743,-0.2205710886389017,0.3917372181177139
1769658639111746300,11.755746337890624,-0.21688334003686904,-0.18336860844790934,0.3798267078325152
1769658639121734400,11.765734375,-0.2979005581654608,-0.17112930459976194,0.3832303787961602
1769658639131722500,11.775722412109374,-0.31133535540848967,-0.17374796266555786,0.3566790564790368
1769658639141710300,11.78571044921875,-0.24226459566131234,-0.16441840878427028,0.39259237364232535
1769658639151697400,11.795697509765626,-0.15908932271599768,-0.16332710641622541,0.43405631067007777
1769658639161685500,11.805685546875,-0.11417699880003929,-0.16553893724679947,0.47720922369807955
1769658639171673300,11.81567333984375,-0.10138415272235869,-0.12876081994771957,0.494746926215291
1769658639181661400,11.825661376953125,-0.1343475340388715,-0.11416121670901774,0.46126083619892594
1769658639191649500,11.8356494140625,-0.15866715178117155,-0.12290157252550124,0.42032063078433274
1769658639201637400,11.845637451171875,-0.14605565361976622,-0.16074936488270758,0.3507134260728955
1769658639211624400,11.85562451171875,-0.12963891795650123,-0.19171382746696472,0.278335295343399
1769658639221612500,11.865612548828125,-0.15492738073095677,-0.18291385041773317,0.23116759371608495
1769658639231600400,11.875600341796876,-0.16848507370129226,-0.09468319377899169,0.1976166217699647
1769658639241588500,11.88558837890625,-0.09368599943518638,-0.046026422637701035,0.17088935836404562
1769658639251576300,11.895576416015626,0.030341069988906382,-0.030782676276564596,0.1025149103179574
1769658639261564200,11.905564208984375,0.11330138500928878,0.010672785183787345,0.043405134223401545
1769658639271551500,11.915551513671875,0.13945391726717352,0.08330489067435264,-0.010674538749456406
1769658639281539300,11.925539306640625,0.09447890337854624,0.10702420443594456,-0.0494677952632308
1769658639291527200,11.935527099609375,0.030119243931770324,0.11185820046365261,-0.02888765631020069
1769658639301515300,11.945515380859375,-0.03289426160305738,0.06705985831618308,-0.006861702463030815
1769658639311503400,11.95550341796875,-0.025195523793995377,-0.009286299261450767,0.0659434215068817
1769658639321491500,11.965491455078125,0.044846711333841084,-0.1133656824171543,0.08132686859965324
1769658639331478300,11.975478271484375,0.12304331908375024,-0.20881635343730448,0.03472761451005935
1769658639341466400,11.98546630859375,0.10803951895833015,-0.2516045248061418,-0.06266659179329871
1769658639351454200,11.9954541015625,0.114755675470829,-0.24756489402651785,-0.16084288838505745
1769658639361442300,12.0054423828125,0.1317854284659028,-0.23003215994536874,-0.24152006090432404
1769658639371430400,12.015430419921875,0.15673749889284372,-0.14148586148619652,-0.31888708596229554
1769658639381418500,12.02541845703125,0.14676321736723183,-0.05557575674951076,-0.4188213321372866
1769658639391405300,12.0354052734375,0.08997545447945594,-0.0060427872955799095,-0.43129415248036385
1769658639401393400,12.045393310546874,0.044855917553603644,0.045453006663918494,-0.4186325315669179
1769658639411381500,12.055381591796875,-0.027220161489397286,0.0579921702414751,-0.2964300472214818
1769658639421369300,12.065369384765624,-0.0321538184992969,0.052958852249383924,-0.20662878026515244
