time,seconds_elapsed,z,y,x
1769658627416004900,0.0600048828125,-0.09100341796875,0.990020751953125,0.137969970703125
1769658627425992700,0.06999267578125,-0.0712432861328125,0.9831390380859375,0.14697265625
1769658627435980800,0.079980712890625,-0.060638427734375,0.9720458984375,0.147186279296875
1769658627445969000,0.089968994140625,-0.0620880126953125,0.9733428955078125,0.1439208984375
1769658627455956700,0.099956787109375,-0.074554443359375,0.9656219482421875,0.141937255859375
1769658627465944800,0.10994482421875,-0.0900421142578125,0.968780517578125,0.1407623291015625
1769658627475932000,0.119931884765625,-0.101287841796875,0.9752197265625,0.1322479248046875
1769658627485919700,0.129919677734375,-0.107330322265625,0.9878997802734375,0.127349853515625
1769658627495907800,0.139907958984375,-0.1112823486328125,1.000518798828125,0.1227874755859375
1769658627505896000,0.14989599609375,-0.1060791015625,1.002532958984375,0.1241455078125
1769658627515883800,0.1598837890625,-0.085723876953125,0.994598388671875,0.13043212890625
1769658627525870800,0.169870849609375,-0.0639495849609375,0.985107421875,0.1368865966796875
1769658627535859000,0.17985888671875,-0.05816650390625,0.97296142578125,0.139068603515625
1769658627545846800,0.1898466796875,-0.0697784423828125,0.9745025634765625,0.141204833984375
1769658627555835000,0.1998349609375,-0.0831451416015625,0.9843597412109375,0.1385650634765625
1769658627565822700,0.20982275390625,-0.0837554931640625,0.991485595703125,0.1341094970703125
1769658627575809800,0.219809814453125,-0.068084716796875,0.992919921875,0.136322021484375
1769658627585798000,0.2297978515625,-0.0457000732421875,0.98504638671875,0.145111083984375
1769658627595786000,0.239785888671875,-0.0318756103515625,0.98016357421875,0.1504058837890625
1769658627605773600,0.249773681640625,-0.0301971435546875,0.9763946533203125,0.1486053466796875
1769658627615761700,0.25976171875,-0.0423431396484375,0.974151611328125,0.1437835693359375
1769658627625749000,0.2697490234375,-0.05517578125,0.973968505859375,0.1403350830078125
1769658627635736600,0.279736572265625,-0.05889892578125,0.97808837890625,0.135498046875
1769658627645724700,0.289724609375,-0.0632476806640625,0.9872283935546875,0.137451171875
1769658627655712800,0.299712646484375,-0.0632171630859375,0.995849609375,0.136932373046875
1769658627665700600,0.30970068359375,-0.053985595703125,1.0009765625,0.1361541748046875
1769658627675688700,0.319688720703125,-0.038787841796875,1.001220703125,0.138031005859375
1769658627685675800,0.32967578125,-0.027618408203125,0.9940032958984375,0.136566162109375
1769658627695663600,0.33966357421875,-0.0247802734375,0.9842529296875,0.1331024169921875
1769658627705651700,0.349651611328125,-0.031982421875,0.978729248046875,0.1307373046875
1769658627715639800,0.359639892578125,-0.0458984375,0.9798431396484375,0.1311187744140625
1769658627725628000,0.3696279296875,-0.058624267578125,0.9774627685546875,0.1326446533203125
1769658627735614700,0.37961474609375,-0.05999755859375,0.976654052734375,0.1297149658203125
1769658627745602800,0.389602783203125,-0.060333251953125,0.979583740234375,0.132781982421875
1769658627755590700,0.399590576171875,-0.053314208984375,0.978668212890625,0.1421966552734375
1769658627765578800,0.409578857421875,-0.0414276123046875,0.977142333984375,0.151885986328125
1769658627775566800,0.41956689453125,-0.0265045166015625,0.98040771484375,0.1577911376953125
1769658627785553700,0.4295537109375,-0.0118560791015625,0.99078369140625,0.158935546875
1769658627795541800,0.439541748046875,-0.009796142578125,0.9954071044921875,0.156768798828125
1769658627805529900,0.44952978515625,-0.011474609375,0.996490478515625,0.1539459228515625
1769658627815518000,0.45951806640625,-0.0088653564453125,1.000213623046875,0.151519775390625
1769658627825505800,0.469505859375,-0.002471923828125,1.001312255859375,0.1526336669921875
1769658627835494000,0.479493896484375,0.0047149658203125,0.99822998046875,0.1549072265625
1769658627845480700,0.489480712890625,0.01287841796875,0.9916229248046875,0.15679931640625
1769658627855468800,0.49946875,0.0168914794921875,0.985382080078125,0.1595306396484375
1769658627865457000,0.509456787109375,0.0158233642578125,0.977142333984375,0.162994384765625
1769658627875445000,0.519445068359375,0.0110321044921875,0.9753265380859375,0.1629638671875
1769658627885432800,0.529432861328125,0.004974365234375,0.978973388671875,0.16064453125
1769658627895420000,0.539419921875,-0.001220703125,0.981781005859375,0.155670166015625
1769658627905407700,0.54940771484375,-0.01153564453125,0.9845733642578125,0.1472320556640625
1769658627915395800,0.559395751953125,-0.018646240234375,0.985107421875,0.1413116455078125
1769658627925383700,0.5693837890625,-0.0183868408203125,0.9832305908203125,0.14019775390625
1769658627935371800,0.579371826171875,-0.0139312744140625,0.981597900390625,0.1402435302734375
1769658627945359000,0.589359130859375,-0.0154571533203125,0.9810028076171875,0.1402740478515625
1769658627955347000,0.599346923828125,-0.0205230712890625,0.9834747314453125,0.1378021240234375
1769658627965335000,0.6093349609375,-0.0193634033203125,0.9847259521484375,0.1407623291015625
1769658627975323100,0.6193232421875,-0.0160064697265625,0.9826202392578125,0.1445465087890625
1769658627985311000,0.62931103515625,-0.0101318359375,0.9833526611328125,0.1484527587890625
1769658627995298000,0.639298095703125,-0.0031585693359375,0.986297607421875,0.152099609375
1769658628005286100,0.6492861328125,-0.0030670166015625,0.9869232177734375,0.1550140380859375
1769658628015274000,0.65927392578125,-0.003082275390625,0.9881744384765625,0.15618896484375
1769658628025262000,0.669261962890625,-0.0059051513671875,0.990997314453125,0.1557159423828125
1769658628035250200,0.679250244140625,-0.0075225830078125,0.989471435546875,0.1571807861328125
1769658628045238000,0.689238037109375,-0.008270263671875,0.98626708984375,0.154327392578125
1769658628055225000,0.69922509765625,-0.00726318359375,0.9857635498046875,0.1520843505859375
1769658628065213200,0.709213134765625,-0.0017852783203125,0.986053466796875,0.1584014892578125
1769658628075201000,0.719200927734375,0.005950927734375,0.9846649169921875,0.1578369140625
1769658628085189000,0.729189208984375,0.0055389404296875,0.9805755615234375,0.1573028564453125
1769658628095177200,0.73917724609375,0.00616455078125,0.9835052490234375,0.160430908203125
1769658628105164000,0.7491640625,0.01104736328125,0.9860992431640625,0.162200927734375
1769658628115152100,0.759152099609375,0.0189208984375,0.986541748046875,0.160125732421875
1769658628125140200,0.76914013671875,0.029144287109375,0.977508544921875,0.154632568359375
1769658628135128000,0.779128173828125,0.0372467041015625,0.971649169921875,0.1514739990234375
1769658628145116200,0.7891162109375,0.037078857421875,0.9873199462890625,0.152587890625
1769658628155103200,0.799103271484375,0.0360565185546875,0.9947052001953125,0.150726318359375
1769658628165091000,0.809091064453125,0.035980224609375,0.9916534423828125,0.1477203369140625
1769658628175079200,0.8190791015625,0.0434112548828125,0.9891510009765625,0.15179443359375
1769658628185067300,0.8290673828125,0.0566253662109375,0.986846923828125,0.153533935546875
1769658628195055000,0.83905517578125,0.0654449462890625,0.9841766357421875,0.1568145751953125
1769658628205042200,0.849042236328125,0.0726776123046875,0.9810791015625,0.1634368896484375
1769658628215030300,0.8590302734375,0.07562255859375,0.9743194580078125,0.1643218994140625
1769658628225018000,0.86901806640625,0.0860595703125,0.963836669921875,0.16705322265625
1769658628235006200,0.879006103515625,0.104888916015625,0.9557952880859375,0.18109130859375
1769658628244994000,0.888994140625,0.1180572509765625,0.9740142822265625,0.175628662109375
1769658628254982100,0.898982177734375,0.103851318359375,0.9808502197265625,0.174774169921875
1769658628264969200,0.90896923828125,0.09130859375,0.973052978515625,0.1618804931640625
1769658628274957000,0.91895703125,0.087066650390625,0.971282958984375,0.14801025390625
1769658628284945000,0.92894482421875,0.09332275390625,0.9772491455078125,0.1532440185546875
1769658628294933000,0.93893310546875,0.1045684814453125,0.9835205078125,0.1496429443359375
1769658628304921000,0.948921142578125,0.1118621826171875,0.984527587890625,0.1494903564453125
1769658628314908000,0.958907958984375,0.1247711181640625,0.987945556640625,0.14935302734375
1769658628324896000,0.96889599609375,0.1329345703125,0.989990234375,0.1510772705078125
1769658628334884000,0.978884033203125,0.1333160400390625,0.9875335693359375,0.1537628173828125
1769658628344872200,0.9888720703125,0.1438446044921875,0.979156494140625,0.156829833984375
1769658628354860000,0.998860107421875,0.133575439453125,0.9672088623046875,0.152374267578125
1769658628364847000,1.00884716796875,0.1248626708984375,0.9671173095703125,0.1591949462890625
1769658628374835000,1.0188349609375,0.1316070556640625,0.9723052978515625,0.16424560546875
1769658628384823000,1.028822998046875,0.1413116455078125,0.9720306396484375,0.164520263671875
1769658628394811100,1.03881103515625,0.1461944580078125,0.968170166015625,0.1643829345703125
1769658628404799200,1.04879931640625,0.1449127197265625,0.9698638916015625,0.1688385009765625
1769658628414786000,1.0587861328125,0.14190673828125,0.97021484375,0.169952392578125
1769658628424774100,1.068774169921875,0.1451263427734375,0.972808837890625,0.1706085205078125
1769658628434762000,1.078761962890625,0.149444580078125,0.97381591796875,0.16851806640625
1769658628444750000,1.08875,0.1534881591796875,0.970550537109375,0.1681365966796875
1769658628454738200,1.09873828125,0.152130126953125,0.9689178466796875,0.1673583984375
1769658628464725000,1.10872509765625,0.1475677490234375,0.96966552734375,0.1688232421875
1769658628474713000,1.118713134765625,0.14794921875,0.97650146484375,0.1636199951171875
1769658628484701200,1.128701171875,0.14630126953125,0.9718170166015625,0.1605224609375
1769658628494689300,1.138689208984375,0.1440887451171875,0.96844482421875,0.16021728515625
1769658628504677000,1.148677001953125,0.1507720947265625,0.9685211181640625,0.160003662109375
1769658628514665200,1.158665283203125,0.162353515625,0.970367431640625,0.158416748046875
1769658628524652000,1.168652099609375,0.1709136962890625,0.9696044921875,0.16033935546875
1769658628534640000,1.17864013671875,0.1780548095703125,0.9687652587890625,0.1646270751953125
1769658628544628200,1.188628173828125,0.17938232421875,0.9760894775390625,0.1730194091796875
1769658628554616300,1.1986162109375,0.1679229736328125,0.9740753173828125,0.1659088134765625
1769658628564604200,1.208604248046875,0.178131103515625,0.972869873046875,0.1710357666015625
1769658628574591200,1.21859130859375,0.1984100341796875,0.96826171875,0.1683502197265625
1769658628584579300,1.228579345703125,0.2001800537109375,0.9617156982421875,0.165435791015625
1769658628594567200,1.238567138671875,0.1945648193359375,0.95599365234375,0.168670654296875
1769658628604555000,1.248554931640625,0.200897216796875,0.9522247314453125,0.168975830078125
1769658628614543000,1.258543212890625,0.2090606689453125,0.9506683349609375,0.165374755859375
1769658628624530200,1.2685302734375,0.2081146240234375,0.9521026611328125,0.1622467041015625
1769658628634518300,1.278518310546875,0.2101898193359375,0.9556121826171875,0.1655426025390625
1769658628644506000,1.288506103515625,0.2156982421875,0.9596099853515625,0.163360595703125
1769658628654494000,1.298493896484375,0.2228546142578125,0.957061767578125,0.1597900390625
1769658628664482000,1.30848193359375,0.2293243408203125,0.9599609375,0.158477783203125
1769658628674469000,1.31846923828125,0.2336883544921875,0.9677886962890625,0.1584625244140625
1769658628684457000,1.32845703125,0.2411041259765625,0.971221923828125,0.1570281982421875
1769658628694445000,1.338445068359375,0.2424774169921875,0.9712982177734375,0.151580810546875
1769658628704433200,1.34843310546875,0.2394256591796875,0.9659271240234375,0.1518402099609375
1769658628714421000,1.3584208984375,0.2400665283203125,0.9607391357421875,0.154052734375
1769658628724408000,1.368407958984375,0.2373046875,0.953643798828125,0.15863037109375
1769658628734396200,1.378396240234375,0.2333221435546875,0.949371337890625,0.165069580078125
1769658628744384000,1.388384033203125,0.2288818359375,0.9520263671875,0.1703948974609375
1769658628754372000,1.3983720703125,0.2271728515625,0.958038330078125,0.1726531982421875
1769658628764360200,1.408360107421875,0.21942138671875,0.96148681640625,0.171539306640625
1769658628774347000,1.418346923828125,0.2155914306640625,0.9621429443359375,0.1717987060546875
1769658628784335000,1.428335205078125,0.2148590087890625,0.95648193359375,0.1708221435546875
1769658628794323200,1.4383232421875,0.218658447265625,0.951812744140625,0.1687774658203125
1769658628804311000,1.44831103515625,0.2223358154296875,0.9528045654296875,0.1681671142578125
1769658628814299100,1.458299072265625,0.2245635986328125,0.954498291015625,0.1655120849609375
1769658628824287200,1.468287353515625,0.22625732421875,0.956298828125,0.163665771484375
1769658628834274000,1.478274169921875,0.22869873046875,0.9608306884765625,0.162353515625
1769658628844262100,1.48826220703125,0.2297821044921875,0.960540771484375,0.1649322509765625
1769658628854250200,1.498250244140625,0.2335357666015625,0.965911865234375,0.1691741943359375
1769658628864238000,1.508238037109375,0.23126220703125,0.9666900634765625,0.173492431640625
1769658628874226200,1.51822607421875,0.2298736572265625,0.96221923828125,0.1755828857421875
1769658628884213200,1.528213134765625,0.2362823486328125,0.9570159912109375,0.1734771728515625
1769658628894201000,1.538201171875,0.241912841796875,0.9484710693359375,0.1703033447265625
1769658628904189200,1.548189208984375,0.2471160888671875,0.9391326904296875,0.1671905517578125
1769658628914177300,1.55817724609375,0.2530364990234375,0.9339599609375,0.1629486083984375
1769658628924165000,1.5681650390625,0.2604827880859375,0.93231201171875,0.1591644287109375
1769658628934152200,1.578152099609375,0.2595672607421875,0.9331512451171875,0.1584930419921875
1769658628944139800,1.588139892578125,0.2638092041015625,0.941864013671875,0.156951904296875
1769658628954128000,1.5981279296875,0.265960693359375,0.9531097412109375,0.1595306396484375
1769658628964116000,1.608115966796875,0.2594146728515625,0.9539642333984375,0.1622467041015625
1769658628974103800,1.618103759765625,0.2596435546875,0.9536590576171875,0.16217041015625
1769658628984091000,1.6280908203125,0.26123046875,0.9493865966796875,0.164276123046875
1769658628994078700,1.63807861328125,0.2566680908203125,0.942047119140625,0.1731719970703125
1769658629004066800,1.64806689453125,0.2541961669921875,0.937042236328125,0.1762847900390625
1769658629014054700,1.6580546875,0.25341796875,0.936492919921875,0.18023681640625
1769658629024042800,1.668042724609375,0.251953125,0.9414520263671875,0.18890380859375
1769658629034029800,1.67802978515625,0.2465362548828125,0.9435272216796875,0.1911163330078125
1769658629044017700,1.688017578125,0.247802734375,0.94500732421875,0.1956939697265625
1769658629054005800,1.698005859375,0.2561492919921875,0.95098876953125,0.198150634765625
1769658629063993600,1.70799365234375,0.2573699951171875,0.9482269287109375,0.20013427734375
1769658629073981700,1.717981689453125,0.2628021240234375,0.9483795166015625,0.1978759765625
1769658629083969800,1.7279697265625,0.268951416015625,0.9477691650390625,0.191864013671875
1769658629093956600,1.73795654296875,0.2730865478515625,0.9428253173828125,0.18109130859375
1769658629103944700,1.74794482421875,0.2833709716796875,0.9403228759765625,0.1745147705078125
1769658629113932800,1.757932861328125,0.290191650390625,0.9374847412109375,0.1687164306640625
1769658629123920600,1.767920654296875,0.29327392578125,0.935821533203125,0.16265869140625
1769658629133908700,1.77790869140625,0.291534423828125,0.936279296875,0.16162109375
1769658629143895600,1.7878955078125,0.29449462890625,0.9423065185546875,0.1562347412109375
1769658629153883600,1.797883544921875,0.2965850830078125,0.947357177734375,0.1519317626953125
1769658629163871700,1.807871826171875,0.2995758056640625,0.947784423828125,0.1481170654296875
1769658629173859800,1.81785986328125,0.296295166015625,0.9477386474609375,0.147064208984375
1769658629183847700,1.82784765625,0.296600341796875,0.9454803466796875,0.1520538330078125
1769658629193834800,1.837834716796875,0.2978363037109375,0.94207763671875,0.152740478515625
1769658629203822800,1.84782275390625,0.297088623046875,0.9390106201171875,0.1516571044921875
1769658629213810700,1.857810791015625,0.2992095947265625,0.9394073486328125,0.1558990478515625
1769658629223798800,1.867798828125,0.300628662109375,0.939971923828125,0.16412353515625
1769658629233787000,1.877786865234375,0.3061981201171875,0.9444580078125,0.1757049560546875
1769658629243773700,1.887773681640625,0.3043975830078125,0.9454803466796875,0.1864166259765625
1769658629253761800,1.89776171875,0.308624267578125,0.9474639892578125,0.1906890869140625
1769658629263750000,1.90775,0.3166656494140625,0.942840576171875,0.1869049072265625
1769658629273737700,1.91773779296875,0.319488525390625,0.937286376953125,0.182861328125
1769658629283725800,1.927725830078125,0.3238525390625,0.9311065673828125,0.177398681640625
1769658629293713000,1.937712890625,0.3230743408203125,0.922515869140625,0.1721343994140625
1769658629303700700,1.94770068359375,0.33038330078125,0.9230194091796875,0.169189453125
1769658629313688800,1.957688720703125,0.336029052734375,0.9295501708984375,0.1601409912109375
1769658629323677000,1.967677001953125,0.3282470703125,0.930206298828125,0.1537017822265625
1769658629333664800,1.977664794921875,0.3223419189453125,0.932373046875,0.151397705078125
1769658629343652600,1.987652587890625,0.322723388671875,0.9354095458984375,0.1506500244140625
1769658629353640000,1.997639892578125,0.3224639892578125,0.9380035400390625,0.159820556640625
1769658629363627800,2.007627685546875,0.32232666015625,0.9401092529296875,0.166717529296875
1769658629373615600,2.01761572265625,0.317535400390625,0.94195556640625,0.1732940673828125
1769658629383603700,2.027603759765625,0.316497802734375,0.933807373046875,0.1795806884765625
1769658629393591600,2.037591552734375,0.325439453125,0.9277496337890625,0.1811065673828125
1769658629403579000,2.047578857421875,0.3307037353515625,0.9229888916015625,0.181854248046875
1769658629413566700,2.057566650390625,0.333221435546875,0.921417236328125,0.1854248046875
1769658629423554600,2.067554443359375,0.3421478271484375,0.9257049560546875,0.18939208984375
1769658629433542700,2.077542724609375,0.3461151123046875,0.926910400390625,0.196380615234375
1769658629443530800,2.08753076171875,0.3397979736328125,0.9241180419921875,0.1972808837890625
1769658629453517600,2.097517578125,0.339813232421875,0.9176483154296875,0.20068359375
1769658629463505700,2.107505615234375,0.346099853515625,0.91619873046875,0.1961212158203125
1769658629473493800,2.11749365234375,0.3484039306640625,0.9200439453125,0.1903228759765625
1769658629483481600,2.127481689453125,0.3487396240234375,0.927001953125,0.1774749755859375
1769658629493469700,2.1374697265625,0.3455047607421875,0.92926025390625,0.1653900146484375
1769658629503456800,2.147456787109375,0.3357391357421875,0.92962646484375,0.160614013671875
1769658629513444600,2.157444580078125,0.3349761962890625,0.9359588623046875,0.1659698486328125
1769658629523432700,2.1674326171875,0.32940673828125,0.929351806640625,0.17230224609375
1769658629533420800,2.1774208984375,0.3220367431640625,0.925933837890625,0.182952880859375
1769658629543408600,2.18740869140625,0.312042236328125,0.9278564453125,0.1937408447265625
1769658629553395700,2.197395751953125,0.3013153076171875,0.9225921630859375,0.2040252685546875
1769658629563383800,2.2073837890625,0.30035400390625,0.9161224365234375,0.2144927978515625
1769658629573371600,2.21737158203125,0.308197021484375,0.9074554443359375,0.2182769775390625
1769658629583359700,2.22735986328125,0.3115386962890625,0.8904876708984375,0.217254638671875
1769658629593347800,2.237347900390625,0.3152008056640625,0.885009765625,0.2343292236328125
1769658629603336000,2.2473359375,0.323486328125,0.8842926025390625,0.233856201171875
1769658629613322800,2.25732275390625,0.3420257568359375,0.8909759521484375,0.23785400390625
1769658629623310800,2.267310791015625,0.3511505126953125,0.907073974609375,0.2300567626953125
1769658629633298700,2.277298583984375,0.356964111328125,0.919403076171875,0.2168121337890625
1769658629643286800,2.287286865234375,0.355865478515625,0.9258575439453125,0.2075958251953125
1769658629653275000,2.29727490234375,0.357421875,0.9240570068359375,0.1962432861328125
1769658629663261700,2.30726171875,0.3512725830078125,0.9237518310546875,0.20263671875
1769658629673249800,2.317249755859375,0.349822998046875,0.930999755859375,0.2075042724609375
1769658629683238000,2.32723779296875,0.3443450927734375,0.93212890625,0.1947021484375
1769658629693226000,2.33722607421875,0.334869384765625,0.92510986328125,0.188873291015625
1769658629703213600,2.347213623046875,0.3365936279296875,0.926849365234375,0.1844940185546875
1769658629713201000,2.357200927734375,0.3370513916015625,0.9303436279296875,0.1900177001953125
1769658629723188700,2.367188720703125,0.3263397216796875,0.9317626953125,0.199920654296875
1769658629733176800,2.3771767578125,0.3262176513671875,0.9330291748046875,0.202789306640625
1769658629743164700,2.38716455078125,0.3304290771484375,0.93804931640625,0.1990966796875
1769658629753152800,2.39715283203125,0.3245697021484375,0.93756103515625,0.19305419921875
1769658629763139800,2.407139892578125,0.322418212890625,0.930206298828125,0.1904449462890625
1769658629773127700,2.417127685546875,0.33392333984375,0.92950439453125,0.195343017578125
1769658629783115500,2.427115478515625,0.339508056640625,0.9289703369140625,0.195587158203125
1769658629793103600,2.437103515625,0.3316497802734375,0.92803955078125,0.1938629150390625
1769658629803091700,2.447091796875,0.32781982421875,0.930328369140625,0.201141357421875
1769658629813078500,2.45707861328125,0.33056640625,0.9373779296875,0.2045135498046875
1769658629823066600,2.467066650390625,0.32354736328125,0.9325103759765625,0.204559326171875
1769658629833054700,2.4770546875,0.316864013671875,0.9251861572265625,0.220245361328125
1769658629843042800,2.487042724609375,0.3200836181640625,0.921051025390625,0.2237701416015625
1769658629853030700,2.49703076171875,0.31988525390625,0.914886474609375,0.225372314453125
1769658629863018800,2.507018798828125,0.3181915283203125,0.9100799560546875,0.2227935791015625
1769658629873005600,2.517005615234375,0.3211212158203125,0.9116363525390625,0.2183685302734375
1769658629882993700,2.52699365234375,0.3194732666015625,0.915618896484375,0.2200775146484375
1769658629892981800,2.536981689453125,0.31329345703125,0.91766357421875,0.22247314453125
1769658629902969900,2.546969970703125,0.3109283447265625,0.921295166015625,0.2266845703125
1769658629912957700,2.556957763671875,0.3125152587890625,0.926361083984375,0.2248687744140625
1769658629922944800,2.56694482421875,0.3083343505859375,0.9269256591796875,0.2171783447265625
1769658629932932900,2.576932861328125,0.303375244140625,0.9220733642578125,0.2242889404296875
1769658629942920700,2.586920654296875,0.3030853271484375,0.9182586669921875,0.2264862060546875
1769658629952908500,2.596908447265625,0.30401611328125,0.9145355224609375,0.2318115234375
1769658629962896600,2.606896728515625,0.303253173828125,0.9114532470703125,0.231353759765625
1769658629972883700,2.6168837890625,0.30029296875,0.91522216796875,0.22882080078125
1769658629982871600,2.62687158203125,0.297454833984375,0.9192962646484375,0.225921630859375
1769658629992859600,2.636859619140625,0.2981414794921875,0.92913818359375,0.228302001953125
1769658630002847700,2.64684765625,0.3212738037109375,0.938385009765625,0.2220458984375
1769658630012835600,2.656835693359375,0.3333282470703125,0.9365386962890625,0.2134246826171875
1769658630022822700,2.66682275390625,0.329315185546875,0.942840576171875,0.2279052734375
1769658630032810800,2.676810791015625,0.3280029296875,0.9338531494140625,0.2272796630859375
1769658630042798600,2.686798583984375,0.3217315673828125,0.92156982421875,0.235626220703125
1769658630052786700,2.69678662109375,0.3172607421875,0.9014434814453125,0.2378997802734375
1769658630062774800,2.70677490234375,0.3163299560546875,0.8900909423828125,0.24517822265625
1769658630072762600,2.7167626953125,0.2898712158203125,0.8966064453125,0.2613677978515625
1769658630082749700,2.726749755859375,0.2512969970703125,0.9085235595703125,0.2654266357421875
1769658630092737800,2.73673779296875,0.2144622802734375,0.92193603515625,0.2602996826171875
1769658630102725600,2.7467255859375,0.1939849853515625,0.9376220703125,0.2549285888671875
1769658630112713500,2.75671337890625,0.199310302734375,0.946868896484375,0.233734130859375
1769658630122701600,2.76670166015625,0.2118682861328125,0.9566192626953125,0.2213592529296875
1769658630132688600,2.776688720703125,0.214202880859375,0.96044921875,0.219940185546875
1769658630142676500,2.786676513671875,0.20379638671875,0.95977783203125,0.2122955322265625
1769658630152664600,2.79666455078125,0.2038116455078125,0.9633331298828125,0.2093353271484375
1769658630162652700,2.806652587890625,0.2122802734375,0.9676971435546875,0.20751953125
1769658630172640500,2.816640625,0.22149658203125,0.9654083251953125,0.2070465087890625
1769658630182627600,2.826627685546875,0.2252197265625,0.9642486572265625,0.2122344970703125
1769658630192615400,2.836615478515625,0.2397918701171875,0.9675140380859375,0.2128753662109375
1769658630202603500,2.846603515625,0.2410736083984375,0.962921142578125,0.2125701904296875
1769658630212591600,2.856591552734375,0.2279052734375,0.9573974609375,0.213836669921875
1769658630222579700,2.866579833984375,0.22247314453125,0.9586334228515625,0.2247161865234375
1769658630232566500,2.87656640625,0.2295684814453125,0.9614715576171875,0.2224578857421875
1769658630242554600,2.8865546875,0.23516845703125,0.9654541015625,0.2230377197265625
1769658630252542700,2.896542724609375,0.2405242919921875,0.954254150390625,0.2392730712890625
1769658630262530600,2.906530517578125,0.2343292236328125,0.9284515380859375,0.248565673828125
1769658630272518700,2.9165185546875,0.232421875,0.9102935791015625,0.240264892578125
1769658630282506800,2.9265068359375,0.2432403564453125,0.9033050537109375,0.2398681640625
1769658630292493600,2.93649365234375,0.2543487548828125,0.9075927734375,0.225372314453125
1769658630302481700,2.946481689453125,0.2586212158203125,0.9185333251953125,0.2222442626953125
1769658630312469800,2.9564697265625,0.251068115234375,0.926605224609375,0.217498779296875
1769658630322457600,2.96645751953125,0.24322509765625,0.92138671875,0.215728759765625
1769658630332445700,2.97644580078125,0.240875244140625,0.9252777099609375,0.2181243896484375
1769658630342432800,2.986432861328125,0.2372589111328125,0.9342803955078125,0.222747802734375
1769658630352420600,2.996420654296875,0.2312164306640625,0.939117431640625,0.2184295654296875
1769658630362408700,3.00640869140625,0.2221832275390625,0.9367523193359375,0.215057373046875
1769658630372396800,3.016396728515625,0.21673583984375,0.9335784912109375,0.2140045166015625
1769658630382384600,3.026384521484375,0.213470458984375,0.9332733154296875,0.2211151123046875
1769658630392371700,3.036371826171875,0.21087646484375,0.9380340576171875,0.223114013671875
1769658630402359800,3.04635986328125,0.201629638671875,0.9450531005859375,0.2187652587890625
1769658630412347600,3.05634765625,0.189910888671875,0.9494476318359375,0.2214813232421875
1769658630422335700,3.066335693359375,0.1885833740234375,0.9481201171875,0.2213287353515625
1769658630432323600,3.076323486328125,0.199554443359375,0.9503173828125,0.22564697265625
1769658630442310700,3.086310546875,0.2093353271484375,0.9503021240234375,0.2265777587890625
1769658630452298800,3.096298828125,0.1919097900390625,0.935546875,0.2403564453125
1769658630462286600,3.10628662109375,0.1972198486328125,0.9435882568359375,0.244384765625
1769658630472274400,3.1162744140625,0.225128173828125,0.9451446533203125,0.22613525390625
1769658630482262500,3.126262451171875,0.2321929931640625,0.95306396484375,0.248046875
1769658630492250600,3.136250732421875,0.2298583984375,0.9529266357421875,0.2376251220703125
1769658630502237400,3.146237548828125,0.22467041015625,0.9481964111328125,0.241607666015625
1769658630512225500,3.1562255859375,0.2205047607421875,0.949859619140625,0.2460784912109375
1769658630522213600,3.166213623046875,0.212066650390625,0.9501190185546875,0.2470550537109375
1769658630532201500,3.176201416015625,0.2066650390625,0.953125,0.242706298828125
1769658630542189600,3.186189453125,0.1979522705078125,0.9525909423828125,0.2375030517578125
1769658630552176600,3.1961767578125,0.1837615966796875,0.9516754150390625,0.23406982421875
1769658630562164500,3.20616455078125,0.1800689697265625,0.9452972412109375,0.2355499267578125
1769658630572152600,3.216152587890625,0.2036590576171875,0.946136474609375,0.220855712890625
1769658630582140700,3.226140625,0.2071533203125,0.94244384765625,0.2206268310546875
1769658630592128500,3.23612841796875,0.20977783203125,0.9553070068359375,0.2318115234375
1769658630602115600,3.246115478515625,0.197845458984375,0.9580841064453125,0.231964111328125
1769658630612103700,3.256103759765625,0.1910552978515625,0.9622039794921875,0.2345123291015625
1769658630622091500,3.266091552734375,0.190338134765625,0.960845947265625,0.2315521240234375
1769658630632079600,3.27607958984375,0.1966094970703125,0.958160400390625,0.233001708984375
1769658630642067700,3.286067626953125,0.1932830810546875,0.954498291015625,0.2337188720703125
1769658630652055600,3.2960556640625,0.1793060302734375,0.95135498046875,0.23541259765625
1769658630662042600,3.306042724609375,0.1654510498046875,0.94561767578125,0.2291259765625
1769658630672030700,3.31603076171875,0.169952392578125,0.951080322265625,0.2218017578125
1769658630682018600,3.3260185546875,0.1641693115234375,0.95062255859375,0.218902587890625
1769658630692006700,3.336006591796875,0.1754150390625,0.9565277099609375,0.210693359375
1769658630701994800,3.345994873046875,0.180206298828125,0.9453125,0.204498291015625
1769658630711981600,3.355981689453125,0.188812255859375,0.94293212890625,0.207061767578125
1769658630721969700,3.3659697265625,0.2015380859375,0.9465179443359375,0.2156524658203125
1769658630731957800,3.375957763671875,0.2261505126953125,0.9395599365234375,0.21405029296875
1769658630741945600,3.385945556640625,0.239044189453125,0.9389190673828125,0.22406005859375
1769658630751933700,3.39593359375,0.2356719970703125,0.9354248046875,0.23193359375
1769658630761920800,3.405920654296875,0.2410125732421875,0.926788330078125,0.2331695556640625
1769658630771908600,3.41590869140625,0.250518798828125,0.9340362548828125,0.24200439453125
1769658630781896700,3.425896728515625,0.225250244140625,0.9358673095703125,0.24102783203125
1769658630791884500,3.435884521484375,0.2177886962890625,0.9279022216796875,0.2340087890625
1769658630801872600,3.44587255859375,0.222076416015625,0.9438018798828125,0.239227294921875
1769658630811859700,3.455859619140625,0.19476318359375,0.9389495849609375,0.2366943359375
1769658630821847600,3.46584765625,0.2112884521484375,0.940155029296875,0.2288360595703125
1769658630831835400,3.47583544921875,0.21112060546875,0.9510650634765625,0.2368011474609375
1769658630841823500,3.485823486328125,0.190948486328125,0.952056884765625,0.22509765625
1769658630851811600,3.4958115234375,0.187164306640625,0.961700439453125,0.222747802734375
1769658630861799700,3.505799560546875,0.1955718994140625,0.9613037109375,0.222686767578125
1769658630871786500,3.515786376953125,0.213653564453125,0.95709228515625,0.219757080078125
1769658630881774600,3.525774658203125,0.216888427734375,0.9459381103515625,0.22186279296875
1769658630891762700,3.5357626953125,0.2205810546875,0.941986083984375,0.2235565185546875
1769658630901750500,3.54575048828125,0.2195281982421875,0.9466094970703125,0.2320404052734375
1769658630911738600,3.555738525390625,0.2089080810546875,0.9537506103515625,0.232086181640625
1769658630921725400,3.565725341796875,0.2036590576171875,0.954559326171875,0.235198974609375
1769658630931713500,3.575713623046875,0.205291748046875,0.94940185546875,0.2339019775390625
1769658630941701600,3.58570166015625,0.2083740234375,0.94830322265625,0.237030029296875
1769658630951689700,3.595689697265625,0.206207275390625,0.9498291015625,0.2392578125
1769658630961677800,3.605677734375,0.20477294921875,0.9538421630859375,0.236602783203125
1769658630971664600,3.61566455078125,0.203125,0.960479736328125,0.234588623046875
1769658630981652700,3.62565283203125,0.19842529296875,0.96142578125,0.232666015625
1769658630991640800,3.635640869140625,0.199981689453125,0.957550048828125,0.2311248779296875
1769658631001628700,3.645628662109375,0.2063446044921875,0.9540557861328125,0.2303466796875
1769658631011616800,3.65561669921875,0.21142578125,0.95343017578125,0.2291259765625
1769658631021604900,3.66560498046875,0.20892333984375,0.9513702392578125,0.2261962890625
1769658631031591700,3.675591796875,0.199005126953125,0.944305419921875,0.2286224365234375
1769658631041579800,3.685579833984375,0.194671630859375,0.9430694580078125,0.2286224365234375
1769658631051567900,3.69556787109375,0.19439697265625,0.9424285888671875,0.227142333984375
1769658631061556000,3.705555908203125,0.1969146728515625,0.9407501220703125,0.227813720703125
1769658631071543800,3.715543701171875,0.1959228515625,0.9395904541015625,0.2274322509765625
1769658631081531000,3.72553076171875,0.1962432861328125,0.9421844482421875,0.22784423828125
1769658631091518700,3.735518798828125,0.1937255859375,0.9463043212890625,0.22760009765625
1769658631101506800,3.7455068359375,0.1970672607421875,0.95184326171875,0.2287445068359375
1769658631111494700,3.75549462890625,0.204132080078125,0.9516143798828125,0.231048583984375
1769658631121482800,3.765482666015625,0.2103271484375,0.947906494140625,0.2311553955078125
1769658631131469800,3.7754697265625,0.2133636474609375,0.9444732666015625,0.232574462890625
1769658631141458000,3.7854580078125,0.2172088623046875,0.94549560546875,0.234375
1769658631151445500,3.795445556640625,0.2178497314453125,0.9452056884765625,0.23291015625
1769658631161433600,3.80543359375,0.2178802490234375,0.9432373046875,0.233856201171875
1769658631171421700,3.815421630859375,0.223388671875,0.9418792724609375,0.236846923828125
1769658631181409800,3.825409912109375,0.2214508056640625,0.9404296875,0.24078369140625
1769658631191396600,3.835396728515625,0.2140655517578125,0.9425048828125,0.2409210205078125
1769658631201384700,3.845384765625,0.2100677490234375,0.9459228515625,0.240386962890625
1769658631211372800,3.855372802734375,0.2094879150390625,0.944488525390625,0.2393341064453125
1769658631221360600,3.865360595703125,0.2125701904296875,0.943084716796875,0.23681640625
1769658631231348700,3.8753486328125,0.2114410400390625,0.943206787109375,0.2340850830078125
1769658631241335600,3.88533544921875,0.2071685791015625,0.9425048828125,0.2301788330078125
1769658631251323600,3.89532373046875,0.205596923828125,0.94488525390625,0.229095458984375
1769658631261311700,3.905311767578125,0.20184326171875,0.9480438232421875,0.22918701171875
1769658631271299800,3.9152998046875,0.1990814208984375,0.950775146484375,0.2337646484375
1769658631281287700,3.92528759765625,0.2004852294921875,0.9521331787109375,0.2380218505859375
1769658631291275800,3.93527587890625,0.20147705078125,0.9502105712890625,0.241119384765625
1769658631301262800,3.945262939453125,0.205535888671875,0.94891357421875,0.240753173828125
1769658631311250700,3.955250732421875,0.210052490234375,0.948486328125,0.23974609375
1769658631321238800,3.96523876953125,0.2135162353515625,0.949371337890625,0.2375030517578125
1769658631331227000,3.975226806640625,0.214141845703125,0.9485015869140625,0.233551025390625
1769658631341214700,3.985214599609375,0.215545654296875,0.9492340087890625,0.2329254150390625
1769658631351201800,3.995201904296875,0.2148590087890625,0.9487762451171875,0.2349395751953125
1769658631361190000,4.00518994140625,0.212646484375,0.95001220703125,0.2359161376953125
1769658631371177700,4.015177734375,0.207916259765625,0.9523162841796875,0.2386016845703125
1769658631381165800,4.025165771484375,0.20697021484375,0.9529571533203125,0.2379150390625
1769658631391154000,4.03515380859375,0.2071990966796875,0.9499664306640625,0.2359466552734375
1769658631401140700,4.045140625,0.2094879150390625,0.944549560546875,0.23077392578125
1769658631411128800,4.05512890625,0.213226318359375,0.9399871826171875,0.23016357421875
1769658631421117000,4.065116943359375,0.215118408203125,0.9368743896484375,0.2301177978515625
1769658631431104800,4.075104736328125,0.2130279541015625,0.937957763671875,0.2319793701171875
1769658631441092600,4.085092529296875,0.20965576171875,0.9423065185546875,0.233154296875
1769658631451080000,4.095079833984375,0.20574951171875,0.9453277587890625,0.2387847900390625
1769658631461067800,4.10506787109375,0.2044677734375,0.948760986328125,0.2377777099609375
1769658631471056000,4.115055908203125,0.209075927734375,0.9476318359375,0.23724365234375
1769658631481043700,4.125043701171875,0.213714599609375,0.9454803466796875,0.23828125
1769658631491031600,4.135031494140625,0.2157440185546875,0.944061279296875,0.2399139404296875
1769658631501019600,4.14501953125,0.2155609130859375,0.942657470703125,0.2386932373046875
1769658631511006700,4.1550068359375,0.215362548828125,0.94293212890625,0.2362823486328125
1769658631520994600,4.16499462890625,0.21746826171875,0.9414215087890625,0.2313232421875
1769658631530982700,4.174982666015625,0.22021484375,0.9414520263671875,0.227752685546875
1769658631540970800,4.184970703125,0.2205047607421875,0.9435272216796875,0.224761962890625
1769658631550958600,4.19495849609375,0.2223968505859375,0.9437255859375,0.2239837646484375
1769658631560945700,4.204945556640625,0.221893310546875,0.9476776123046875,0.22540283203125
1769658631570933800,4.214933837890625,0.2192230224609375,0.950836181640625,0.23126220703125
1769658631580921600,4.224921630859375,0.2184600830078125,0.9519195556640625,0.237579345703125
1769658631590909700,4.23490966796875,0.2167510986328125,0.949920654296875,0.2398223876953125
1769658631600897800,4.244897705078125,0.2165069580078125,0.944488525390625,0.2404632568359375
1769658631610886000,4.254885986328125,0.2223663330078125,0.9388580322265625,0.2373809814453125
1769658631620872700,4.264872802734375,0.2257537841796875,0.93756103515625,0.2359161376953125
1769658631630860800,4.27486083984375,0.2236785888671875,0.9414215087890625,0.23358154296875
1769658631640848600,4.2848486328125,0.2171478271484375,0.9469757080078125,0.229583740234375
1769658631650836700,4.294836669921875,0.212677001953125,0.950164794921875,0.2274627685546875
1769658631660824800,4.304824951171875,0.212127685546875,0.9482269287109375,0.2263641357421875
1769658631670811600,4.314811767578125,0.21612548828125,0.94439697265625,0.225921630859375
1769658631680799700,4.3247998046875,0.221954345703125,0.9392852783203125,0.2241668701171875
1769658631690787800,4.334787841796875,0.2230682373046875,0.939697265625,0.2266998291015625
1769658631700776000,4.34477587890625,0.22357177734375,0.94281005859375,0.227142333984375
1769658631710763800,4.354763671875,0.2216033935546875,0.945831298828125,0.22802734375
1769658631720751900,4.364751953125,0.224578857421875,0.944580078125,0.228912353515625
1769658631730738700,4.37473876953125,0.2281036376953125,0.94378662109375,0.22833251953125
1769658631740726800,4.384726806640625,0.229095458984375,0.9442291259765625,0.2299041748046875
1769658631750715000,4.39471484375,0.2263336181640625,0.944580078125,0.2291259765625
1769658631760703000,4.404702880859375,0.2239837646484375,0.945343017578125,0.2287750244140625
1769658631770690600,4.414690673828125,0.2227783203125,0.9444732666015625,0.2268524169921875
1769658631780678000,4.424677978515625,0.22198486328125,0.9443817138671875,0.2250213623046875
1769658631790665700,4.434665771484375,0.22467041015625,0.9409942626953125,0.2238006591796875
1769658631800653800,4.44465380859375,0.2249755859375,0.93939208984375,0.22320556640625
1769658631810641700,4.4546416015625,0.22686767578125,0.9409942626953125,0.223114013671875
1769658631820629800,4.464629638671875,0.22393798828125,0.943695068359375,0.2234649658203125
1769658631830617600,4.47461767578125,0.2175445556640625,0.9469757080078125,0.2259979248046875
1769658631840604700,4.484604736328125,0.2177734375,0.9485015869140625,0.226593017578125
1769658631850592800,4.4945927734375,0.2183380126953125,0.9472503662109375,0.226043701171875
1769658631860580600,4.50458056640625,0.22039794921875,0.9424285888671875,0.2259674072265625
1769658631870568700,4.514568603515625,0.2223052978515625,0.9419097900390625,0.2254638671875
1769658631880556800,4.524556884765625,0.2230072021484375,0.9439849853515625,0.226287841796875
1769658631890543600,4.534543701171875,0.2201690673828125,0.9435577392578125,0.2233123779296875
1769658631900531700,4.54453173828125,0.2180633544921875,0.943389892578125,0.2234039306640625
1769658631910519800,4.554519775390625,0.2220458984375,0.946197509765625,0.223419189453125
1769658631920507600,4.564507568359375,0.2226104736328125,0.9459381103515625,0.2233734130859375
1769658631930495700,4.574495849609375,0.2225341796875,0.9478607177734375,0.224853515625
1769658631940483800,4.58448388671875,0.223388671875,0.948516845703125,0.2257843017578125
1769658631950471000,4.594470947265625,0.223052978515625,0.94927978515625,0.226531982421875
1769658631960459000,4.604458984375,0.220062255859375,0.9472198486328125,0.2292633056640625
1769658631970446800,4.61444677734375,0.2197113037109375,0.9452056884765625,0.22845458984375
1769658631980435000,4.62443505859375,0.223846435546875,0.944671630859375,0.2267913818359375
1769658631990423000,4.634423095703125,0.2277679443359375,0.9432830810546875,0.22509765625
1769658632000409900,4.644409912109375,0.2301025390625,0.94476318359375,0.2239990234375
1769658632010398000,4.65439794921875,0.22869873046875,0.9466552734375,0.2221527099609375
1769658632020386000,4.664385986328125,0.2288360595703125,0.94610595703125,0.2208251953125
1769658632030374000,4.674373779296875,0.2290496826171875,0.9466094970703125,0.2249298095703125
1769658632040362000,4.684362060546875,0.227203369140625,0.945892333984375,0.22613525390625
1769658632050349800,4.694349853515625,0.2281494140625,0.9469146728515625,0.22735595703125
1769658632060337000,4.7043369140625,0.22882080078125,0.9459991455078125,0.2304840087890625
1769658632070325000,4.714324951171875,0.22998046875,0.9417724609375,0.2277679443359375
1769658632080313000,4.72431298828125,0.234893798828125,0.9387664794921875,0.2284698486328125
1769658632090300700,4.73430078125,0.2425537109375,0.938568115234375,0.225616455078125
1769658632100288800,4.744288818359375,0.2445068359375,0.9406280517578125,0.222198486328125
1769658632110276000,4.754276123046875,0.2457275390625,0.942291259765625,0.2213592529296875
1769658632120264000,4.764263916015625,0.24591064453125,0.94549560546875,0.22064208984375
1769658632130251800,4.774251708984375,0.24664306640625,0.9434967041015625,0.2177886962890625
1769658632140240000,4.784239990234375,0.24603271484375,0.943359375,0.2171630859375
1769658632150228000,4.79422802734375,0.245208740234375,0.944732666015625,0.220428466796875
1769658632160215800,4.8042158203125,0.241485595703125,0.943328857421875,0.2220306396484375
1769658632170203000,4.814202880859375,0.2371826171875,0.9457244873046875,0.224029541015625
1769658632180190700,4.824190673828125,0.235260009765625,0.945953369140625,0.2249298095703125
1769658632190178800,4.8341787109375,0.234039306640625,0.94647216796875,0.2268524169921875
1769658632200167000,4.8441669921875,0.23199462890625,0.947540283203125,0.226470947265625
1769658632210155000,4.854155029296875,0.232391357421875,0.94659423828125,0.224456787109375
1769658632220141800,4.864141845703125,0.2336578369140625,0.943511962890625,0.2230682373046875
1769658632230130000,4.8741298828125,0.238922119140625,0.943145751953125,0.2222747802734375
1769658632240118000,4.884117919921875,0.2401580810546875,0.9406280517578125,0.219085693359375
1769658632250105900,4.89410595703125,0.239349365234375,0.9402923583984375,0.220123291015625
1769658632260094000,4.904093994140625,0.2375030517578125,0.939788818359375,0.220550537109375
1769658632270082000,4.91408203125,0.2384796142578125,0.9430389404296875,0.2184295654296875
1769658632280068900,4.92406884765625,0.2394256591796875,0.946258544921875,0.218963623046875
1769658632290057000,4.934056884765625,0.2399444580078125,0.947723388671875,0.2202301025390625
1769658632300045000,4.944045166015625,0.2420501708984375,0.9469757080078125,0.2220916748046875
1769658632310033000,4.954032958984375,0.2415924072265625,0.9451751708984375,0.223419189453125
1769658632320021000,4.96402099609375,0.2415771484375,0.9434967041015625,0.2245025634765625
1769658632330009000,4.974009033203125,0.2412567138671875,0.9437408447265625,0.225799560546875
1769658632339996000,4.983995849609375,0.238128662109375,0.9473724365234375,0.226806640625
1769658632349984000,4.99398388671875,0.236846923828125,0.9486541748046875,0.2274169921875
1769658632359972000,5.00397216796875,0.23809814453125,0.946807861328125,0.2288055419921875
1769658632369960000,5.0139599609375,0.2400054931640625,0.946380615234375,0.229522705078125
1769658632379947800,5.02394775390625,0.2438812255859375,0.944671630859375,0.2283782958984375
1769658632389935000,5.03393505859375,0.246246337890625,0.9411773681640625,0.2243499755859375
1769658632399923000,5.0439228515625,0.246063232421875,0.9388427734375,0.2243804931640625
1769658632409911000,5.0539111328125,0.244293212890625,0.9374847412109375,0.2249908447265625
1769658632419899000,5.06389892578125,0.242919921875,0.937286376953125,0.2241363525390625
1769658632429886700,5.07388671875,0.242950439453125,0.9368896484375,0.224273681640625
1769658632439874800,5.083874755859375,0.2447357177734375,0.93463134765625,0.2250823974609375
1769658632449862000,5.09386181640625,0.2450103759765625,0.9339447021484375,0.226043701171875
1769658632459849700,5.103849609375,0.2383575439453125,0.935546875,0.22845458984375
1769658632469837800,5.113837890625,0.238037109375,0.938812255859375,0.22808837890625
1769658632479826000,5.123825927734375,0.2384490966796875,0.944305419921875,0.225341796875
1769658632489813800,5.133813720703125,0.24267578125,0.9456329345703125,0.2220001220703125
1769658632499800800,5.14380078125,0.2448577880859375,0.9433441162109375,0.222442626953125
1769658632509789000,5.153788818359375,0.2480316162109375,0.9403533935546875,0.2258148193359375
1769658632519776800,5.16377685546875,0.24603271484375,0.93603515625,0.231658935546875
1769658632529764900,5.173764892578125,0.245025634765625,0.9357757568359375,0.2338714599609375
1769658632539753000,5.1837529296875,0.2418365478515625,0.93878173828125,0.235870361328125
1769658632549740800,5.19374072265625,0.241485595703125,0.9401397705078125,0.2325897216796875
1769658632559727900,5.203727783203125,0.240234375,0.9407806396484375,0.22479248046875
1769658632569716000,5.213716064453125,0.238189697265625,0.9384307861328125,0.218170166015625
1769658632579703800,5.223703857421875,0.2399749755859375,0.9379119873046875,0.2186431884765625
1769658632589692000,5.23369189453125,0.2408599853515625,0.940521240234375,0.2212677001953125
1769658632599680000,5.243679931640625,0.2375335693359375,0.9459075927734375,0.224945068359375
1769658632609668000,5.253668212890625,0.2314910888671875,0.945953369140625,0.2273406982421875
1769658632619655000,5.263655029296875,0.2288360595703125,0.9421234130859375,0.229400634765625
1769658632629643000,5.27364306640625,0.234588623046875,0.9412384033203125,0.231201171875
1769658632639630800,5.283630859375,0.2357025146484375,0.9385986328125,0.23016357421875
1769658632649619000,5.293618896484375,0.2360076904296875,0.9421844482421875,0.2289276123046875
1769658632659607000,5.30360693359375,0.2379913330078125,0.946746826171875,0.2261199951171875
1769658632669593900,5.31359375,0.2367095947265625,0.94854736328125,0.2224273681640625
1769658632679582000,5.32358203125,0.23883056640625,0.94830322265625,0.22027587890625
1769658632689570000,5.333570068359375,0.2406768798828125,0.946746826171875,0.2201995849609375
1769658632699558100,5.34355810546875,0.2379302978515625,0.9473724365234375,0.2205810546875
1769658632709545700,5.353545654296875,0.237762451171875,0.9464874267578125,0.22186279296875
1769658632719533800,5.363533935546875,0.2383880615234375,0.9455413818359375,0.2227325439453125
1769658632729521000,5.37352099609375,0.2373199462890625,0.9422760009765625,0.2237091064453125
1769658632739509000,5.383509033203125,0.2355499267578125,0.9417724609375,0.2230224609375
1769658632749496800,5.393496826171875,0.235321044921875,0.9401702880859375,0.222137451171875
1769658632759485000,5.40348486328125,0.2364044189453125,0.9406890869140625,0.2199249267578125
1769658632769472800,5.41347265625,0.2351837158203125,0.9400482177734375,0.2187652587890625
1769658632779459800,5.4234599609375,0.2355194091796875,0.942169189453125,0.2156982421875
1769658632789448000,5.433447998046875,0.239227294921875,0.94110107421875,0.2147979736328125
1769658632799435800,5.443435791015625,0.240020751953125,0.94036865234375,0.2158966064453125
1769658632809424000,5.453423828125,0.2380523681640625,0.9437103271484375,0.21832275390625
1769658632819412000,5.463411865234375,0.230865478515625,0.9427642822265625,0.2213287353515625
1769658632829399800,5.47339990234375,0.22723388671875,0.9427490234375,0.2249298095703125
1769658632839387000,5.483386962890625,0.2266693115234375,0.9441375732421875,0.2285308837890625
1769658632849375000,5.493375,0.2237091064453125,0.9449005126953125,0.2277984619140625
1769658632859362800,5.50336279296875,0.22259521484375,0.945556640625,0.2271728515625
1769658632869351000,5.513350830078125,0.228912353515625,0.94757080078125,0.226776123046875
1769658632879339000,5.523339111328125,0.2314910888671875,0.9515228271484375,0.225372314453125
1769658632889326800,5.533326904296875,0.2327423095703125,0.9512939453125,0.2204132080078125
1769658632899314000,5.54331396484375,0.236297607421875,0.9504547119140625,0.2167205810546875
1769658632909302000,5.553302001953125,0.2404937744140625,0.947540283203125,0.2158966064453125
1769658632919289900,5.563289794921875,0.242767333984375,0.941497802734375,0.217315673828125
1769658632929278000,5.57327783203125,0.24005126953125,0.9381561279296875,0.2200164794921875
1769658632939266000,5.58326611328125,0.2342529296875,0.93914794921875,0.221893310546875
1769658632949252600,5.593252685546875,0.2295379638671875,0.9425048828125,0.2227783203125
1769658632959240400,5.603240478515625,0.2295074462890625,0.9466400146484375,0.2220611572265625
1769658632969228500,5.613228515625,0.232421875,0.9467010498046875,0.222686767578125
1769658632979216600,5.623216552734375,0.2342529296875,0.9452056884765625,0.2214813232421875
1769658632989204500,5.63320458984375,0.2328033447265625,0.940185546875,0.2219085693359375
1769658632999192600,5.643192626953125,0.234771728515625,0.9368743896484375,0.222625732421875
1769658633009179600,5.6531796875,0.237060546875,0.9372406005859375,0.222076416015625
1769658633019167500,5.66316748046875,0.236663818359375,0.9397735595703125,0.2232818603515625
1769658633029155600,5.673155517578125,0.237152099609375,0.9423065185546875,0.2220611572265625
1769658633039143700,5.683143798828125,0.23846435546875,0.943603515625,0.224151611328125
1769658633049131500,5.693131591796875,0.2401275634765625,0.946014404296875,0.2258148193359375
1769658633059118600,5.70311865234375,0.2422027587890625,0.9471282958984375,0.22845458984375
1769658633069106700,5.713106689453125,0.239532470703125,0.945556640625,0.229827880859375
1769658633079094500,5.723094482421875,0.2381134033203125,0.9459228515625,0.2300567626953125
1769658633089082400,5.733082275390625,0.23626708984375,0.942718505859375,0.228729248046875
1769658633099070500,5.743070556640625,0.2353057861328125,0.939453125,0.231414794921875
1769658633109058300,5.753058349609375,0.2383270263671875,0.9379730224609375,0.232025146484375
1769658633119045400,5.76304541015625,0.23675537109375,0.937286376953125,0.2333526611328125
1769658633129033500,5.773033447265625,0.231353759765625,0.9412384033203125,0.2335662841796875
1769658633139021300,5.783021240234375,0.2275543212890625,0.9457244873046875,0.230987548828125
1769658633149009400,5.793009521484375,0.22613525390625,0.9503173828125,0.22705078125
1769658633158997500,5.80299755859375,0.228118896484375,0.950958251953125,0.22381591796875
1769658633168985600,5.812985595703125,0.229248046875,0.9477996826171875,0.2215118408203125
1769658633178972400,5.822972412109375,0.2303009033203125,0.9443817138671875,0.2235870361328125
1769658633188960500,5.83296044921875,0.229736328125,0.9442901611328125,0.225067138671875
1769658633198948400,5.8429482421875,0.2293853759765625,0.9423065185546875,0.2269287109375
1769658633208936400,5.8529365234375,0.2313690185546875,0.9412078857421875,0.2261962890625
1769658633218924500,5.862924560546875,0.235626220703125,0.941070556640625,0.2267608642578125
1769658633228912600,5.87291259765625,0.234130859375,0.9413604736328125,0.2274932861328125
1769658633238899500,5.8828994140625,0.22674560546875,0.9417724609375,0.2268829345703125
1769658633248887600,5.892887451171875,0.2244415283203125,0.9431304931640625,0.2259368896484375
1769658633258875600,5.902875732421875,0.2274932861328125,0.9413604736328125,0.2223052978515625
1769658633268863500,5.912863525390625,0.23162841796875,0.94091796875,0.2213134765625
1769658633278851600,5.9228515625,0.2327117919921875,0.9395294189453125,0.2236480712890625
1769658633288838400,5.93283837890625,0.22869873046875,0.9380645751953125,0.2261505126953125
1769658633298826500,5.942826416015625,0.2271881103515625,0.9387969970703125,0.22686767578125
1769658633308814600,5.952814697265625,0.22711181640625,0.9405059814453125,0.22802734375
1769658633318802700,5.962802734375,0.224151611328125,0.9434051513671875,0.2280731201171875
1769658633328790500,5.97279052734375,0.222503662109375,0.944427490234375,0.2277069091796875
1769658633338778400,5.9827783203125,0.2235260009765625,0.94403076171875,0.2281951904296875
1769658633348765700,5.992765625,0.2259063720703125,0.944305419921875,0.224945068359375
1769658633358753500,6.00275341796875,0.2253570556640625,0.9419097900390625,0.223388671875
1769658633368741600,6.01274169921875,0.232269287109375,0.9418792724609375,0.2220916748046875
1769658633378729500,6.0227294921875,0.2382659912109375,0.9438629150390625,0.21923828125
1769658633388717300,6.03271728515625,0.23583984375,0.9426116943359375,0.2207183837890625
1769658633398705400,6.042705322265625,0.2331390380859375,0.948699951171875,0.2243194580078125
1769658633408692500,6.0526923828125,0.231231689453125,0.949188232421875,0.223907470703125
1769658633418680300,6.062680419921875,0.232879638671875,0.9446258544921875,0.2265472412109375
1769658633428668400,6.07266845703125,0.2357177734375,0.9410400390625,0.225311279296875
1769658633438656500,6.082656494140625,0.2346649169921875,0.9391937255859375,0.22589111328125
1769658633448644400,6.092644287109375,0.2334747314453125,0.9395294189453125,0.226226806640625
1769658633458631400,6.10263134765625,0.2307586669921875,0.9419097900390625,0.224609375
1769658633468619500,6.11261962890625,0.2280731201171875,0.9427337646484375,0.2230682373046875
1769658633478607400,6.122607421875,0.2268524169921875,0.9413299560546875,0.223236083984375
1769658633488595500,6.132595458984375,0.2291259765625,0.93914794921875,0.223052978515625
1769658633498583600,6.14258349609375,0.2341156005859375,0.941192626953125,0.2230072021484375
1769658633508571400,6.1525712890625,0.2333984375,0.94427490234375,0.221343994140625
1769658633518558500,6.162558349609375,0.2319488525390625,0.9464874267578125,0.22283935546875
1769658633528546600,6.172546630859375,0.2305145263671875,0.9481658935546875,0.224639892578125
1769658633538534400,6.182534423828125,0.2331695556640625,0.9480743408203125,0.2267303466796875
1769658633548522500,6.1925224609375,0.232208251953125,0.94708251953125,0.2275238037109375
1769658633558510600,6.202510498046875,0.2339324951171875,0.9432830810546875,0.2259674072265625
1769658633568498700,6.212498779296875,0.2385101318359375,0.9420013427734375,0.2245941162109375
1769658633578485500,6.222485595703125,0.2407379150390625,0.9419097900390625,0.22406005859375
1769658633588473600,6.2324736328125,0.238616943359375,0.9420166015625,0.223663330078125
1769658633598461400,6.24246142578125,0.2358856201171875,0.9426422119140625,0.223175048828125
1769658633608449500,6.252449462890625,0.23583984375,0.9427032470703125,0.22064208984375
1769658633618437600,6.262437744140625,0.231658935546875,0.9423065185546875,0.22271728515625
1769658633628425500,6.272425537109375,0.234619140625,0.939727783203125,0.2241363525390625
1769658633638412500,6.28241259765625,0.23486328125,0.93890380859375,0.2238006591796875
1769658633648400600,6.292400634765625,0.2303466796875,0.9423370361328125,0.2250213623046875
1769658633658388500,6.302388427734375,0.2284698486328125,0.944732666015625,0.227020263671875
1769658633668376300,6.312376220703125,0.2299652099609375,0.9428558349609375,0.2251739501953125
1769658633678364400,6.322364501953125,0.2325286865234375,0.941375732421875,0.2262725830078125
1769658633688351500,6.3323515625,0.2362518310546875,0.9411773681640625,0.225372314453125
1769658633698339600,6.342339599609375,0.2349395751953125,0.941864013671875,0.22357177734375
1769658633708327400,6.352327392578125,0.2357635498046875,0.9425811767578125,0.22369384765625
1769658633718315500,6.3623154296875,0.2354278564453125,0.9452972412109375,0.2256011962890625
1769658633728303400,6.372303466796875,0.2337188720703125,0.94573974609375,0.2274627685546875
1769658633738291500,6.38229150390625,0.2328033447265625,0.9443817138671875,0.227386474609375
1769658633748278300,6.3922783203125,0.2376861572265625,0.94158935546875,0.227874755859375
1769658633758266400,6.402266357421875,0.2397918701171875,0.93865966796875,0.2271881103515625
1769658633768254500,6.41225439453125,0.238861083984375,0.9398651123046875,0.2256011962890625
1769658633778242600,6.42224267578125,0.2389068603515625,0.942779541015625,0.2226409912109375
1769658633788230400,6.43223046875,0.239990234375,0.9438934326171875,0.2216644287109375
1769658633798218500,6.442218505859375,0.240570068359375,0.944549560546875,0.2218780517578125
1769658633808205600,6.45220556640625,0.2376708984375,0.944366455078125,0.225341796875
1769658633818193400,6.462193359375,0.2372589111328125,0.943084716796875,0.22686767578125
1769658633828181500,6.472181396484375,0.239715576171875,0.9393463134765625,0.2275238037109375
1769658633838169600,6.482169677734375,0.2408294677734375,0.9372100830078125,0.2282562255859375
1769658633848157400,6.492157470703125,0.240447998046875,0.93670654296875,0.2277069091796875
1769658633858145500,6.5021455078125,0.2419586181640625,0.938018798828125,0.2241668701171875
1769658633868132600,6.512132568359375,0.2429962158203125,0.9423065185546875,0.222625732421875
1769658633878120400,6.522120361328125,0.242706298828125,0.94769287109375,0.221588134765625
1769658633888108500,6.532108642578125,0.24188232421875,0.9462432861328125,0.2241973876953125
1769658633898096600,6.5420966796875,0.2419891357421875,0.9425506591796875,0.2273406982421875
1769658633908084500,6.55208447265625,0.241973876953125,0.93798828125,0.22918701171875
1769658633918072600,6.562072509765625,0.245208740234375,0.9355621337890625,0.228912353515625
1769658633928059600,6.5720595703125,0.2492523193359375,0.93890380859375,0.227386474609375
1769658633938047500,6.582047607421875,0.2480926513671875,0.9416656494140625,0.2266082763671875
1769658633948035600,6.59203564453125,0.242156982421875,0.9418182373046875,0.2230224609375
1769658633958024000,6.60202392578125,0.2422943115234375,0.9416656494140625,0.2208251953125
1769658633968012000,6.612011962890625,0.2453460693359375,0.940673828125,0.21881103515625
1769658633977998800,6.621998779296875,0.2435302734375,0.9395294189453125,0.2190093994140625
1769658633987987000,6.631987060546875,0.2431640625,0.942108154296875,0.2171630859375
1769658633997975000,6.64197509765625,0.2424468994140625,0.943389892578125,0.2148895263671875
1769658634007963000,6.651962890625,0.2425079345703125,0.945556640625,0.2132720947265625
1769658634017951000,6.661950927734375,0.2467498779296875,0.9470672607421875,0.21142578125
1769658634027939000,6.67193896484375,0.24664306640625,0.945770263671875,0.211944580078125
1769658634037926000,6.68192578125,0.2483062744140625,0.944580078125,0.2113037109375
1769658634047914000,6.6919140625,0.24871826171875,0.9417572021484375,0.2130279541015625
1769658634057902000,6.701902099609375,0.24822998046875,0.9411468505859375,0.216705322265625
1769658634067890000,6.711889892578125,0.2459869384765625,0.9420928955078125,0.2203826904296875
1769658634077878000,6.7218779296875,0.247100830078125,0.9408416748046875,0.2205657958984375
1769658634087866000,6.7318662109375,0.24542236328125,0.940185546875,0.21990966796875
1769658634097853000,6.74185302734375,0.2461700439453125,0.9391326904296875,0.219940185546875
1769658634107841000,6.751841064453125,0.2460784912109375,0.9385223388671875,0.2201995849609375
1769658634117829000,6.7618291015625,0.244720458984375,0.939453125,0.223114013671875
1769658634127817000,6.77181689453125,0.242279052734375,0.9405059814453125,0.2255706787109375
1769658634137805000,6.78180517578125,0.243865966796875,0.94122314453125,0.2263031005859375
1769658634147793200,6.791793212890625,0.244232177734375,0.939544677734375,0.2263946533203125
1769658634157780000,6.801780029296875,0.2451324462890625,0.9380340576171875,0.225311279296875
1769658634167768000,6.81176806640625,0.2453460693359375,0.9365081787109375,0.2232208251953125
1769658634177756200,6.821756103515625,0.2464141845703125,0.9364013671875,0.221710205078125
1769658634187744000,6.831743896484375,0.24505615234375,0.9382476806640625,0.2233734130859375
1769658634197732000,6.841732177734375,0.243011474609375,0.939300537109375,0.226776123046875
1769658634207720000,6.851719970703125,0.246612548828125,0.9407196044921875,0.227783203125
1769658634217707000,6.86170703125,0.247711181640625,0.939544677734375,0.2258758544921875
1769658634227695000,6.871695068359375,0.24969482421875,0.9389801025390625,0.22283935546875
1769658634237683000,6.881682861328125,0.2518768310546875,0.9374847412109375,0.2183074951171875
1769658634247670800,6.8916708984375,0.25048828125,0.9395599365234375,0.216156005859375
1769658634257659000,6.901658935546875,0.24920654296875,0.94378662109375,0.215423583984375
1769658634267647000,6.91164697265625,0.244964599609375,0.943084716796875,0.217010498046875
1769658634277633800,6.9216337890625,0.2459259033203125,0.942047119140625,0.220001220703125
1769658634287622000,6.931621826171875,0.2453460693359375,0.941497802734375,0.2240447998046875
1769658634297610000,6.94160986328125,0.2455596923828125,0.9389495849609375,0.2248687744140625
1769658634307597800,6.951597900390625,0.24603271484375,0.93707275390625,0.2253265380859375
1769658634317586000,6.9615859375,0.24517822265625,0.9363555908203125,0.223052978515625
1769658634327574000,6.971573974609375,0.2496490478515625,0.9385986328125,0.2200927734375
1769658634337560800,6.981560791015625,0.2499237060546875,0.9370880126953125,0.2173004150390625
1769658634347549000,6.991548828125,0.249603271484375,0.9384307861328125,0.214202880859375
1769658634357537000,7.001537109375,0.25238037109375,0.9448089599609375,0.213226318359375
1769658634367525000,7.011525146484375,0.2513580322265625,0.945770263671875,0.2097930908203125
1769658634377513000,7.021512939453125,0.2484588623046875,0.9473114013671875,0.21282958984375
1769658634387501000,7.0315009765625,0.2473602294921875,0.9452667236328125,0.2137298583984375
1769658634397487900,7.04148779296875,0.249481201171875,0.945281982421875,0.2152252197265625
1769658634407476000,7.05147607421875,0.2489776611328125,0.9437255859375,0.2176361083984375
1769658634417464000,7.061464111328125,0.2458953857421875,0.9407806396484375,0.219268798828125
1769658634427452200,7.0714521484375,0.2450103759765625,0.94134521484375,0.2227020263671875
1769658634437440000,7.08143994140625,0.241455078125,0.9393768310546875,0.2287445068359375
1769658634447427000,7.091427001953125,0.241943359375,0.939453125,0.2323760986328125
1769658634457415200,7.101415283203125,0.2463836669921875,0.93914794921875,0.2356719970703125
1769658634467403000,7.111403076171875,0.2491455078125,0.937957763671875,0.2363739013671875
1769658634477391000,7.12139111328125,0.2539825439453125,0.936553955078125,0.2317962646484375
1769658634487379200,7.131379150390625,0.25823974609375,0.9359283447265625,0.2316131591796875
1769658634497366800,7.14136669921875,0.2605743408203125,0.9354095458984375,0.2291412353515625
1769658634507354000,7.15135400390625,0.2574615478515625,0.9348297119140625,0.227630615234375
1769658634517342200,7.16134228515625,0.2548370361328125,0.93603515625,0.2281951904296875
1769658634527330000,7.171330078125,0.2596588134765625,0.939239501953125,0.23077392578125
1769658634537318000,7.18131787109375,0.2536773681640625,0.9365234375,0.230499267578125
1769658634547306000,7.191305908203125,0.2480926513671875,0.937255859375,0.2322235107421875
1769658634557293800,7.2012939453125,0.2476806640625,0.9347686767578125,0.233184814453125
1769658634567281000,7.211281005859375,0.248870849609375,0.9343109130859375,0.2336883544921875
1769658634577269000,7.22126904296875,0.2518768310546875,0.9325714111328125,0.234527587890625
1769658634587256800,7.2312568359375,0.25115966796875,0.933135986328125,0.23370361328125
1769658634597245000,7.241244873046875,0.2509613037109375,0.9373931884765625,0.2313995361328125
1769658634607233000,7.25123291015625,0.2505950927734375,0.9399871826171875,0.2281494140625
1769658634617220900,7.261220947265625,0.251739501953125,0.9427337646484375,0.225982666015625
1769658634627208000,7.2712080078125,0.2544097900390625,0.9430389404296875,0.2188262939453125
1769658634637196000,7.281196044921875,0.254486083984375,0.942291259765625,0.2214202880859375
1769658634647184000,7.291183837890625,0.256195068359375,0.939483642578125,0.221282958984375
1769658634657172000,7.301171875,0.2563323974609375,0.9363555908203125,0.220672607421875
1769658634667160000,7.31116015625,0.2558441162109375,0.9378814697265625,0.22039794921875
1769658634677148200,7.321148193359375,0.251922607421875,0.938751220703125,0.216552734375
1769658634687135000,7.331135009765625,0.2541046142578125,0.9420013427734375,0.215087890625
1769658634697123000,7.341123046875,0.251068115234375,0.943572998046875,0.216949462890625
1769658634707111000,7.35111083984375,0.245147705078125,0.9401092529296875,0.2153778076171875
1769658634717099000,7.36109912109375,0.24224853515625,0.9377899169921875,0.217071533203125
1769658634727087000,7.371087158203125,0.242401123046875,0.941070556640625,0.2186279296875
1769658634737075200,7.3810751953125,0.24029541015625,0.94091796875,0.22625732421875
1769658634747062000,7.39106201171875,0.23724365234375,0.9402008056640625,0.2266387939453125
1769658634757050000,7.401050048828125,0.2393951416015625,0.940673828125,0.22882080078125
1769658634767038200,7.4110380859375,0.2437591552734375,0.9380645751953125,0.2258148193359375
1769658634777026000,7.421026123046875,0.24700927734375,0.9365692138671875,0.22161865234375
1769658634787014000,7.431013916015625,0.2551727294921875,0.9395294189453125,0.2228546142578125
1769658634797002000,7.441001953125,0.260589599609375,0.9347686767578125,0.22210693359375
1769658634806989000,7.450989013671875,0.2665863037109375,0.932373046875,0.2141876220703125
1769658634816977200,7.46097705078125,0.266082763671875,0.9373931884765625,0.2147216796875
1769658634826965000,7.470965087890625,0.2659454345703125,0.94189453125,0.2169189453125
1769658634836952800,7.480952880859375,0.2662506103515625,0.943145751953125,0.2150421142578125
1769658634846941000,7.49094091796875,0.2679595947265625,0.9451446533203125,0.2174072265625
1769658634856929000,7.500928955078125,0.27178955078125,0.947662353515625,0.2169189453125
1769658634866915800,7.510915771484375,0.2783355712890625,0.9468536376953125,0.2259063720703125
1769658634876904000,7.520904052734375,0.270599365234375,0.932525634765625,0.2208099365234375
1769658634886892000,7.53089208984375,0.27557373046875,0.933624267578125,0.2223968505859375
1769658634896879900,7.5408798828125,0.277862548828125,0.9330902099609375,0.2291259765625
1769658634906868000,7.550867919921875,0.2666473388671875,0.930145263671875,0.2254486083984375
1769658634916856000,7.56085595703125,0.2581634521484375,0.934661865234375,0.2171630859375
1769658634926843000,7.5708427734375,0.255126953125,0.9384307861328125,0.212921142578125
1769658634936831000,7.5808310546875,0.2611236572265625,0.945068359375,0.212371826171875
1769658634946819000,7.590819091796875,0.263916015625,0.94793701171875,0.21331787109375
1769658634956807000,7.600806884765625,0.25787353515625,0.9445648193359375,0.2103271484375
1769658634966795000,7.610794921875,0.262115478515625,0.945831298828125,0.2110748291015625
1769658634976782800,7.620782958984375,0.2651214599609375,0.9416961669921875,0.205047607421875
1769658634986770000,7.63077001953125,0.2698516845703125,0.940399169921875,0.207794189453125
1769658634996758000,7.640758056640625,0.26763916015625,0.9335784912109375,0.2089996337890625
1769658635006745900,7.650745849609375,0.266998291015625,0.93121337890625,0.2066497802734375
1769658635016734000,7.66073388671875,0.2675018310546875,0.9321441650390625,0.207061767578125
1769658635026722000,7.67072216796875,0.25726318359375,0.931793212890625,0.20269775390625
1769658635036710000,7.6807099609375,0.2573089599609375,0.9332275390625,0.203887939453125
1769658635046697000,7.690697021484375,0.2562408447265625,0.932403564453125,0.2063751220703125
1769658635056685000,7.70068505859375,0.2616729736328125,0.93414306640625,0.2066497802734375
1769658635066673000,7.7106728515625,0.2592620849609375,0.9348907470703125,0.2068939208984375
1769658635076661000,7.720660888671875,0.257232666015625,0.934661865234375,0.2095794677734375
1769658635086648800,7.73064892578125,0.259368896484375,0.9354705810546875,0.2057037353515625
1769658635096636700,7.74063671875,0.2620086669921875,0.9361114501953125,0.2036895751953125
1769658635106624000,7.7506240234375,0.2621002197265625,0.9379730224609375,0.2040863037109375
1769658635116611800,7.76061181640625,0.2595367431640625,0.9405364990234375,0.205078125
1769658635126599700,7.770599609375,0.2588043212890625,0.9382476806640625,0.2075042724609375
1769658635136587800,7.780587890625,0.2604827880859375,0.940460205078125,0.2092132568359375
1769658635146576000,7.790575927734375,0.2599945068359375,0.9412841796875,0.2109832763671875
1769658635156563700,7.800563720703125,0.258392333984375,0.9401397705078125,0.2087249755859375
1769658635166550800,7.81055078125,0.261138916015625,0.93878173828125,0.2055816650390625
1769658635176539000,7.820538818359375,0.264129638671875,0.9409027099609375,0.203765869140625
1769658635186526700,7.830526611328125,0.258026123046875,0.9444580078125,0.20355224609375
1769658635196514800,7.840514892578125,0.25286865234375,0.942474365234375,0.20098876953125
1769658635206503000,7.8505029296875,0.259796142578125,0.9440460205078125,0.203125
1769658635216491000,7.860490966796875,0.260955810546875,0.943695068359375,0.2045135498046875
1769658635226477800,7.870477783203125,0.2592926025390625,0.94464111328125,0.2045745849609375
1769658635236466000,7.8804658203125,0.2569580078125,0.9423980712890625,0.199493408203125
1769658635246453800,7.890453857421875,0.260040283203125,0.942657470703125,0.1939697265625
1769658635256441900,7.90044189453125,0.2636871337890625,0.9446258544921875,0.1990966796875
1769658635266430000,7.910429931640625,0.2593841552734375,0.946258544921875,0.1962127685546875
1769658635276418000,7.92041796875,0.26202392578125,0.950439453125,0.192962646484375
1769658635286404900,7.93040478515625,0.258636474609375,0.950836181640625,0.1917266845703125
1769658635296393000,7.94039306640625,0.2557830810546875,0.94805908203125,0.1925048828125
1769658635306381000,7.950381103515625,0.2577972412109375,0.95001220703125,0.1910400390625
1769658635316369000,7.960368896484375,0.2556304931640625,0.95086669921875,0.19427490234375
1769658635326357000,7.97035693359375,0.2574005126953125,0.9522552490234375,0.195098876953125
1769658635336344800,7.9803447265625,0.2606964111328125,0.9532318115234375,0.194976806640625
1769658635346332000,7.990331787109375,0.2627410888671875,0.947723388671875,0.1960906982421875
1769658635356320000,8.000320068359375,0.2650299072265625,0.9449920654296875,0.1958465576171875
1769658635366308000,8.01030810546875,0.2674102783203125,0.9470672607421875,0.1984100341796875
1769658635376295700,8.020295654296875,0.263275146484375,0.9440155029296875,0.1974945068359375
1769658635386283800,8.03028369140625,0.2652740478515625,0.9447021484375,0.1986846923828125
1769658635396271900,8.04027197265625,0.2648162841796875,0.9477691650390625,0.2027740478515625
1769658635406259000,8.050259033203124,0.2611846923828125,0.9471282958984375,0.202545166015625
1769658635416246800,8.060246826171875,0.2617950439453125,0.9453582763671875,0.1998138427734375
1769658635426235000,8.07023486328125,0.260284423828125,0.943817138671875,0.1983184814453125
1769658635436222700,8.08022265625,0.258270263671875,0.9404144287109375,0.1938323974609375
1769658635446210800,8.0902109375,0.2588043212890625,0.940155029296875,0.1991729736328125
1769658635456199000,8.100198974609375,0.2577972412109375,0.9399566650390625,0.199951171875
1769658635466185700,8.110185791015626,0.25836181640625,0.939910888671875,0.201904296875
1769658635476173800,8.120173828125,0.2598419189453125,0.94061279296875,0.19549560546875
1769658635486162000,8.130161865234374,0.2552642822265625,0.940093994140625,0.1928558349609375
1769658635496149800,8.140149658203125,0.2592315673828125,0.9420623779296875,0.1923370361328125
1769658635506137900,8.150137939453124,0.2612762451171875,0.9434051513671875,0.195709228515625
1769658635516126000,8.1601259765625,0.259857177734375,0.9449005126953125,0.19366455078125
1769658635526112800,8.17011279296875,0.2583160400390625,0.9465789794921875,0.194427490234375
1769658635536100900,8.180100830078125,0.2562713623046875,0.9505157470703125,0.194305419921875
1769658635546089000,8.1900888671875,0.2549591064453125,0.953094482421875,0.19903564453125
1769658635556076800,8.200076904296875,0.2576446533203125,0.947723388671875,0.1916961669921875
1769658635566065000,8.21006494140625,0.26458740234375,0.9432830810546875,0.1876373291015625
1769658635576052000,8.220052001953125,0.2696380615234375,0.9406890869140625,0.1917724609375
1769658635586039800,8.230039794921876,0.2684478759765625,0.9412384033203125,0.1898345947265625
1769658635596028000,8.24002783203125,0.2582244873046875,0.9426422119140625,0.1857147216796875
1769658635606016000,8.25001611328125,0.2631988525390625,0.9494781494140625,0.193145751953125
1769658635616003800,8.26000390625,0.261474609375,0.9502716064453125,0.1986846923828125
1769658635625992000,8.269991943359376,0.2550201416015625,0.9508514404296875,0.1912994384765625
1769658635635979800,8.279979736328125,0.2514190673828125,0.951171875,0.1866607666015625
1769658635645966800,8.289966796875,0.2512359619140625,0.9487762451171875,0.18267822265625
1769658635655955000,8.299954833984375,0.2519989013671875,0.9485931396484375,0.1819610595703125
1769658635665942800,8.30994287109375,0.251739501953125,0.9473724365234375,0.182769775390625
1769658635675931000,8.319930908203125,0.2505645751953125,0.9431915283203125,0.184844970703125
1769658635685918700,8.329918701171875,0.2512359619140625,0.940032958984375,0.1855316162109375
1769658635695906000,8.339906005859374,0.254547119140625,0.938934326171875,0.1837310791015625
1769658635705893600,8.3498935546875,0.2576751708984375,0.9380950927734375,0.1806182861328125
1769658635715881700,8.3598818359375,0.2555694580078125,0.9392242431640625,0.1786041259765625
1769658635725869800,8.369869873046875,0.251251220703125,0.940338134765625,0.179840087890625
1769658635735858000,8.37985791015625,0.2504425048828125,0.9441070556640625,0.1832733154296875
1769658635745845800,8.389845703125,0.2506256103515625,0.9459991455078125,0.18634033203125
1769658635755832800,8.399832763671874,0.2509002685546875,0.94744873046875,0.188446044921875
1769658635765821000,8.409821044921875,0.251800537109375,0.9510955810546875,0.1928558349609375
1769658635775808800,8.419808837890624,0.249786376953125,0.9507293701171875,0.196319580078125
1769658635785796900,8.429796875,0.24951171875,0.9467926025390625,0.19537353515625
1769658635795785000,8.439784912109374,0.251129150390625,0.9427642822265625,0.1929931640625
1769658635805772800,8.449772705078125,0.2528839111328125,0.942779541015625,0.1885833740234375
1769658635815761000,8.459760986328124,0.251434326171875,0.945220947265625,0.1832275390625
1769658635825748000,8.469748046875,0.2466583251953125,0.9449310302734375,0.1827392578125
1769658635835735800,8.47973583984375,0.24755859375,0.9517974853515625,0.184356689453125
1769658635845724000,8.489723876953125,0.2424774169921875,0.951934814453125,0.185394287109375
1769658635855712000,8.4997119140625,0.2387847900390625,0.9514923095703125,0.1864776611328125
1769658635865699800,8.509699951171875,0.2380523681640625,0.9509124755859375,0.1845703125
1769658635875687000,8.51968701171875,0.2378997802734375,0.9531097412109375,0.1842041015625
1769658635885675000,8.529675048828125,0.24005126953125,0.953704833984375,0.1837615966796875
1769658635895662800,8.539662841796876,0.2420501708984375,0.955047607421875,0.18414306640625
1769658635905651000,8.54965087890625,0.243011474609375,0.9566497802734375,0.184112548828125
1769658635915639000,8.55963916015625,0.24371337890625,0.9559326171875,0.18450927734375
1769658635925627000,8.569626953125,0.24468994140625,0.952880859375,0.1827392578125
1769658635935614700,8.57961474609375,0.249542236328125,0.9503326416015625,0.180999755859375
1769658635945602000,8.58960205078125,0.2513275146484375,0.948089599609375,0.1808624267578125
1769658635955590000,8.59958984375,0.2505645751953125,0.9462432861328125,0.17919921875
1769658635965577700,8.60957763671875,0.25054931640625,0.9445037841796875,0.1764373779296875
1769658635975565800,8.61956591796875,0.2467041015625,0.9442596435546875,0.1748809814453125
1769658635985554000,8.629553955078125,0.24871826171875,0.9407806396484375,0.171112060546875
1769658635995540700,8.639540771484375,0.252777099609375,0.9385833740234375,0.16943359375
1769658636005528800,8.64952880859375,0.2552947998046875,0.9393157958984375,0.1672515869140625
1769658636015516700,8.6595166015625,0.256805419921875,0.940826416015625,0.1678924560546875
1769658636025504800,8.6695048828125,0.2569427490234375,0.9441986083984375,0.1720733642578125
1769658636035492900,8.679492919921875,0.253082275390625,0.948394775390625,0.178619384765625
1769658636045481000,8.68948095703125,0.25,0.9529876708984375,0.18682861328125
1769658636055468800,8.69946875,0.2462921142578125,0.9517822265625,0.19305419921875
1769658636065455900,8.709455810546874,0.2455902099609375,0.953460693359375,0.1911773681640625
1769658636075444000,8.71944384765625,0.24334716796875,0.9565887451171875,0.19451904296875
1769658636085431800,8.729431884765624,0.2406463623046875,0.95751953125,0.1935577392578125
1769658636095420000,8.739419921875,0.2321929931640625,0.957489013671875,0.1897735595703125
1769658636105408000,8.749407958984374,0.225830078125,0.9597015380859375,0.1863555908203125
1769658636115394800,8.759394775390625,0.22174072265625,0.9617767333984375,0.184814453125
1769658636125383000,8.7693828125,0.2197265625,0.9577789306640625,0.1818695068359375
1769658636135371000,8.77937109375,0.2174072265625,0.955352783203125,0.18280029296875
1769658636145358800,8.78935888671875,0.2168731689453125,0.951873779296875,0.1830902099609375
1769658636155347000,8.799346923828125,0.2190704345703125,0.9515838623046875,0.1815032958984375
1769658636165335000,8.8093349609375,0.2274322509765625,0.951507568359375,0.18499755859375
1769658636175321900,8.81932177734375,0.2318115234375,0.9498443603515625,0.1877899169921875
1769658636185310000,8.82931005859375,0.2360687255859375,0.9493408203125,0.1840362548828125
1769658636195298000,8.839298095703125,0.23822021484375,0.9546051025390625,0.1845703125
1769658636205286000,8.849285888671876,0.2344207763671875,0.9567718505859375,0.183380126953125
1769658636215274000,8.85927392578125,0.2351226806640625,0.958099365234375,0.1820068359375
1769658636225261800,8.86926171875,0.2398529052734375,0.9578399658203125,0.17987060546875
1769658636235249000,8.879248779296875,0.236968994140625,0.9559173583984375,0.1815338134765625
1769658636245237000,8.889237060546876,0.2362213134765625,0.9538116455078125,0.1810150146484375
1769658636255224800,8.899224853515625,0.233795166015625,0.952239990234375,0.176300048828125
1769658636265212700,8.909212646484375,0.226806640625,0.9517364501953125,0.177886962890625
1769658636275200800,8.91920068359375,0.2205810546875,0.9535369873046875,0.184326171875
1769658636285188900,8.92918896484375,0.21826171875,0.954803466796875,0.188873291015625
1769658636295177000,8.939177001953125,0.2178497314453125,0.9542999267578125,0.19207763671875
1769658636305163800,8.949163818359375,0.219085693359375,0.952056884765625,0.19488525390625
1769658636315152000,8.95915185546875,0.2184600830078125,0.950164794921875,0.1909942626953125
1769658636325139700,8.9691396484375,0.2216033935546875,0.9500732421875,0.187286376953125
1769658636335127800,8.9791279296875,0.227142333984375,0.9517059326171875,0.1858978271484375
1769658636345116000,8.989115966796875,0.2281036376953125,0.9507293701171875,0.1865386962890625
1769658636355102700,8.999102783203124,0.23028564453125,0.950531005859375,0.1842041015625
1769658636365090800,9.0090908203125,0.233367919921875,0.94952392578125,0.1913604736328125
1769658636375079000,9.019078857421874,0.2364654541015625,0.949493408203125,0.1868133544921875
1769658636385067000,9.02906689453125,0.2324371337890625,0.94940185546875,0.188568115234375
1769658636395054800,9.039054931640624,0.2299041748046875,0.9514007568359375,0.19207763671875
1769658636405043000,9.04904296875,0.230255126953125,0.9505157470703125,0.1928863525390625
1769658636415029800,9.05902978515625,0.2312774658203125,0.9481658935546875,0.19549560546875
1769658636425017900,9.069017822265625,0.2316131591796875,0.9458465576171875,0.194244384765625
1769658636435006000,9.079005859375,0.2261810302734375,0.9468231201171875,0.1998748779296875
1769658636444994000,9.088994140625,0.2260894775390625,0.9502410888671875,0.19952392578125
1769658636454982000,9.09898193359375,0.231109619140625,0.9491424560546875,0.2012481689453125
1769658636464970000,9.108969970703125,0.230072021484375,0.94561767578125,0.1971435546875
1769658636474956800,9.118956787109376,0.224578857421875,0.947418212890625,0.1895751953125
1769658636484945000,9.12894482421875,0.21923828125,0.95184326171875,0.188629150390625
1769658636494933000,9.13893310546875,0.21832275390625,0.9536590576171875,0.189208984375
1769658636504920800,9.1489208984375,0.225372314453125,0.95379638671875,0.19403076171875
1769658636514908700,9.15890869140625,0.2269439697265625,0.9569091796875,0.1969451904296875
1769658636524896800,9.168896728515625,0.2230987548828125,0.9581451416015625,0.2027435302734375
1769658636534884900,9.178884765625,0.22418212890625,0.959503173828125,0.2047119140625
1769658636544871700,9.18887158203125,0.2238922119140625,0.95721435546875,0.209381103515625
1769658636554859800,9.19885986328125,0.224334716796875,0.9531402587890625,0.207427978515625
1769658636564847900,9.208847900390625,0.2275390625,0.9476165771484375,0.206695556640625
1769658636574835700,9.218835693359376,0.2287750244140625,0.9452972412109375,0.20135498046875
1769658636584823800,9.22882373046875,0.2317657470703125,0.943450927734375,0.197479248046875
1769658636594811000,9.238810791015625,0.23004150390625,0.9477081298828125,0.19793701171875
1769658636604798700,9.248798828125,0.226654052734375,0.9534759521484375,0.1989288330078125
1769658636614786800,9.258786865234375,0.2237091064453125,0.9539794921875,0.1973419189453125
1769658636624775000,9.26877490234375,0.2211761474609375,0.9542388916015625,0.196929931640625
1769658636634762800,9.2787626953125,0.2207489013671875,0.953094482421875,0.198486328125
1769658636644750800,9.288750732421875,0.2200164794921875,0.9505767822265625,0.2012481689453125
1769658636654739000,9.298739013671875,0.21832275390625,0.9487152099609375,0.2017822265625
1769658636664725800,9.308725830078124,0.219207763671875,0.9500732421875,0.20703125
1769658636674713900,9.3187138671875,0.2246246337890625,0.9456787109375,0.2069854736328125
1769658636684702000,9.328701904296874,0.226531982421875,0.9415740966796875,0.199432373046875
1769658636694689800,9.338689697265625,0.2244415283203125,0.946685791015625,0.2035980224609375
1769658636704678000,9.348677978515624,0.22808837890625,0.949920654296875,0.2009124755859375
1769658636714666000,9.358666015625,0.2288665771484375,0.9537353515625,0.2018280029296875
1769658636724652800,9.36865283203125,0.232086181640625,0.9550323486328125,0.19964599609375
1769658636734641000,9.378640869140625,0.2324371337890625,0.949493408203125,0.1999969482421875
1769658636744629000,9.38862890625,0.2322998046875,0.943084716796875,0.2006988525390625
1769658636754617000,9.3986171875,0.231475830078125,0.93817138671875,0.20330810546875
1769658636764605000,9.40860498046875,0.2269744873046875,0.93988037109375,0.20538330078125
1769658636774592800,9.4185927734375,0.2279510498046875,0.9435882568359375,0.2058258056640625
1769658636784579800,9.428579833984376,0.22711181640625,0.9500579833984375,0.2062530517578125
1769658636794568000,9.43856787109375,0.22637939453125,0.951934814453125,0.2077789306640625
1769658636804555800,9.4485556640625,0.226654052734375,0.9509429931640625,0.2063751220703125
1769658636814544000,9.4585439453125,0.227691650390625,0.946990966796875,0.21051025390625
1769658636824531700,9.46853173828125,0.22955322265625,0.9471588134765625,0.2113189697265625
1769658636834519800,9.478519775390625,0.2308349609375,0.9468231201171875,0.21173095703125
1769658636844507000,9.4885068359375,0.230926513671875,0.9468536376953125,0.2156982421875
1769658636854494700,9.49849462890625,0.2305755615234375,0.946502685546875,0.218017578125
1769658636864482800,9.50848291015625,0.2313995361328125,0.9468994140625,0.2159881591796875
1769658636874471000,9.518470947265625,0.2332916259765625,0.94659423828125,0.2135009765625
1769658636884458800,9.528458740234376,0.2336883544921875,0.9464111328125,0.2139129638671875
1769658636894446800,9.53844677734375,0.233734130859375,0.9463958740234375,0.2086181640625
1769658636904434000,9.548433837890625,0.2323455810546875,0.945404052734375,0.2086181640625
1769658636914421800,9.558421875,0.23638916015625,0.9462890625,0.2083740234375
1769658636924409900,9.568409912109376,0.2383880615234375,0.946044921875,0.2067718505859375
1769658636934398000,9.57839794921875,0.2361602783203125,0.9451904296875,0.2054595947265625
1769658636944385800,9.5883857421875,0.2340240478515625,0.945831298828125,0.2050933837890625
1769658636954374100,9.5983740234375,0.2331085205078125,0.9485321044921875,0.2041015625
1769658636964361000,9.60836083984375,0.227752685546875,0.947998046875,0.2035064697265625
1769658636974349000,9.61834912109375,0.2248382568359375,0.9459991455078125,0.2052459716796875
1769658636984337200,9.628337158203125,0.2279052734375,0.9429931640625,0.20843505859375
1769658636994325000,9.638324951171874,0.2305755615234375,0.9426116943359375,0.2101593017578125
1769658637004313000,9.64831298828125,0.229278564453125,0.94354248046875,0.2078094482421875
1769658637014301200,9.65830126953125,0.2278900146484375,0.946014404296875,0.209320068359375
1769658637024288000,9.6682880859375,0.227264404296875,0.9472198486328125,0.2117156982421875
1769658637034276000,9.678276123046874,0.231109619140625,0.9486236572265625,0.2152557373046875
1769658637044264200,9.68826416015625,0.2324066162109375,0.9467926025390625,0.218231201171875
1769658637054252000,9.698251953125,0.2354736328125,0.945556640625,0.2172088623046875
1769658637064239900,9.708239990234375,0.235504150390625,0.946929931640625,0.214813232421875
1769658637074228000,9.71822802734375,0.2349700927734375,0.9489288330078125,0.21185302734375
1769658637084215000,9.728215087890625,0.2327728271484375,0.951019287109375,0.20819091796875
1769658637094203000,9.738202880859374,0.2313690185546875,0.95263671875,0.208709716796875
1769658637104191000,9.74819091796875,0.23046875,0.950714111328125,0.2093963623046875
1769658637114178800,9.7581787109375,0.231475830078125,0.949493408203125,0.211517333984375
1769658637124167000,9.7681669921875,0.23388671875,0.946380615234375,0.2151336669921875
1769658637134155000,9.778155029296874,0.2333221435546875,0.9434814453125,0.214691162109375
1769658637144141800,9.788141845703125,0.2342071533203125,0.9421539306640625,0.2139129638671875
1769658637154130000,9.7981298828125,0.23370361328125,0.94293212890625,0.21148681640625
1769658637164118000,9.808117919921875,0.231414794921875,0.9467926025390625,0.2082977294921875
1769658637174105900,9.81810595703125,0.2298431396484375,0.9484100341796875,0.208099365234375
1769658637184094000,9.828093994140625,0.22979736328125,0.94732666015625,0.208251953125
1769658637194082000,9.83808203125,0.2281951904296875,0.9480743408203125,0.210845947265625
1769658637204068900,9.84806884765625,0.228240966796875,0.945587158203125,0.214599609375
1769658637214057000,9.858056884765626,0.229583740234375,0.94287109375,0.216400146484375
1769658637224045000,9.868045166015625,0.2327880859375,0.9436798095703125,0.21380615234375
1769658637234033200,9.878033203125,0.235321044921875,0.9427642822265625,0.2108612060546875
1769658637244021000,9.88802099609375,0.2377166748046875,0.944183349609375,0.2084808349609375
1769658637254009000,9.898009033203126,0.237548828125,0.9478607177734375,0.207427978515625
1769658637263996000,9.907995849609375,0.2313385009765625,0.949554443359375,0.2087554931640625
1769658637273984000,9.91798388671875,0.23291015625,0.9501800537109375,0.212646484375
1769658637283972000,9.92797216796875,0.2348175048828125,0.9498138427734375,0.21514892578125
1769658637293960200,9.937960205078125,0.2373504638671875,0.947113037109375,0.219573974609375
1769658637303948000,9.947947998046875,0.238616943359375,0.9449005126953125,0.2143096923828125
1769658637313936000,9.957935791015625,0.2373046875,0.9438629150390625,0.2107086181640625
1769658637323923200,9.967923095703124,0.23394775390625,0.94549560546875,0.2113037109375
1769658637333911000,9.9779111328125,0.231231689453125,0.94549560546875,0.21051025390625
1769658637343899100,9.987899169921874,0.231903076171875,0.947906494140625,0.2107696533203125
1769658637353887000,9.997886962890625,0.2348480224609375,0.948974609375,0.2102508544921875
1769658637363874800,10.007874755859374,0.2357330322265625,0.9476165771484375,0.2080230712890625
1769658637373863000,10.01786279296875,0.2343902587890625,0.9474945068359375,0.2079010009765625
1769658637383850000,10.02785009765625,0.235595703125,0.94781494140625,0.2082366943359375
1769658637393837800,10.037837890625,0.236236572265625,0.94818115234375,0.207855224609375
1769658637403826000,10.047825927734374,0.2360382080078125,0.9478912353515625,0.21087646484375
1769658637413814000,10.05781396484375,0.233917236328125,0.94439697265625,0.2150115966796875
1769658637423801900,10.0678017578125,0.2330322265625,0.9422454833984375,0.21630859375
1769658637433790000,10.0777900390625,0.2318572998046875,0.94378662109375,0.215484619140625
1769658637443777000,10.087777099609376,0.2310791015625,0.9434356689453125,0.2159423828125
1769658637453764900,10.097764892578125,0.230316162109375,0.9438323974609375,0.2138214111328125
1769658637463753000,10.1077529296875,0.2309417724609375,0.94232177734375,0.212554931640625
1769658637473741000,10.117740966796875,0.230621337890625,0.9403076171875,0.212677001953125
1769658637483729000,10.12772900390625,0.231475830078125,0.9418792724609375,0.21270751953125
1769658637493717000,10.137717041015625,0.232635498046875,0.9427032470703125,0.2091827392578125
1769658637503704000,10.1477041015625,0.2293853759765625,0.9449920654296875,0.2099456787109375
1769658637513692000,10.15769189453125,0.2288818359375,0.9474639892578125,0.208831787109375
1769658637523680000,10.167679931640626,0.234039306640625,0.94927978515625,0.2071990966796875
1769658637533668000,10.177668212890625,0.2355194091796875,0.945037841796875,0.20770263671875
1769658637543656200,10.18765625,0.2380218505859375,0.945159912109375,0.209930419921875
1769658637553644000,10.19764404296875,0.2398834228515625,0.94403076171875,0.207244873046875
1769658637563631000,10.207631103515626,0.240509033203125,0.94482421875,0.2091827392578125
1769658637573619000,10.217618896484375,0.2384796142578125,0.945892333984375,0.2103118896484375
1769658637583607000,10.22760693359375,0.237396240234375,0.9443511962890625,0.2096405029296875
1769658637593595100,10.23759521484375,0.238372802734375,0.945098876953125,0.209564208984375
1769658637603583000,10.2475830078125,0.23858642578125,0.9453277587890625,0.211212158203125
1769658637613570800,10.25757080078125,0.2371673583984375,0.9453887939453125,0.2119598388671875
1769658637623558100,10.26755810546875,0.2359619140625,0.946136474609375,0.213836669921875
1769658637633546000,10.2775458984375,0.234405517578125,0.9481353759765625,0.2133941650390625
1769658637643533800,10.287533935546875,0.235626220703125,0.949951171875,0.212799072265625
1769658637653522000,10.29752197265625,0.23760986328125,0.950531005859375,0.21441650390625
1769658637663510000,10.307510009765625,0.24005126953125,0.9510040283203125,0.21331787109375
1769658637673497900,10.317497802734374,0.23809814453125,0.9478912353515625,0.2122802734375
1769658637683485000,10.32748486328125,0.23992919921875,0.9451904296875,0.2121429443359375
1769658637693473000,10.33747314453125,0.243011474609375,0.9445343017578125,0.211944580078125
1769658637703460900,10.3474609375,0.2425537109375,0.945098876953125,0.2105560302734375
1769658637713449000,10.357448974609374,0.24017333984375,0.9461822509765625,0.2097930908203125
1769658637723437000,10.36743701171875,0.236114501953125,0.9465484619140625,0.2092742919921875
1769658637733425000,10.3774248046875,0.236602783203125,0.9456787109375,0.2079925537109375
1769658637743412000,10.387411865234375,0.2378387451171875,0.94354248046875,0.208648681640625
1769658637753400000,10.397400146484374,0.2407073974609375,0.943450927734375,0.2107086181640625
1769658637763388000,10.407387939453125,0.2432403564453125,0.9449615478515625,0.21331787109375
1769658637773376000,10.4173759765625,0.24127197265625,0.9443817138671875,0.214263916015625
1769658637783364000,10.427364013671875,0.24139404296875,0.944366455078125,0.214996337890625
1769658637793352000,10.43735205078125,0.2421417236328125,0.942901611328125,0.2159576416015625
1769658637803339000,10.447339111328125,0.2451171875,0.9413604736328125,0.2137298583984375
1769658637813327000,10.4573271484375,0.2471160888671875,0.9422760009765625,0.2127532958984375
1769658637823315000,10.46731494140625,0.24676513671875,0.9430389404296875,0.2138214111328125
1769658637833303000,10.477302978515626,0.2446746826171875,0.9458160400390625,0.212677001953125
1769658637843291100,10.487291015625,0.24298095703125,0.9481658935546875,0.21343994140625
1769658637853279000,10.497279052734376,0.2408294677734375,0.946746826171875,0.2150726318359375
1769658637863267000,10.50726708984375,0.2415313720703125,0.942779541015625,0.2178802490234375
1769658637873254100,10.517254150390626,0.242156982421875,0.939544677734375,0.2187042236328125
1769658637883242000,10.527241943359375,0.241973876953125,0.9394378662109375,0.218536376953125
1769658637893230000,10.53722998046875,0.2416839599609375,0.9394683837890625,0.217987060546875
1769658637903218000,10.547218017578125,0.239593505859375,0.9416961669921875,0.218658447265625
1769658637913206000,10.5572060546875,0.2394256591796875,0.941986083984375,0.218963623046875
1769658637923193900,10.56719384765625,0.2440032958984375,0.940826416015625,0.2182159423828125
1769658637933181000,10.577180908203125,0.2493743896484375,0.9389495849609375,0.2181243896484375
1769658637943168800,10.587168701171874,0.2507171630859375,0.9390411376953125,0.2160491943359375
1769658637953157000,10.5971572265625,0.24884033203125,0.940338134765625,0.213592529296875
1769658637963145200,10.607145263671875,0.2490692138671875,0.942138671875,0.209503173828125
1769658637973133300,10.61713330078125,0.251861572265625,0.94366455078125,0.2092437744140625
1769658637983120100,10.6271201171875,0.250732421875,0.9444427490234375,0.2120819091796875
1769658637993108200,10.637108154296875,0.2480010986328125,0.9422149658203125,0.217376708984375
1769658638003096300,10.647096435546874,0.2473297119140625,0.9428558349609375,0.222137451171875
1769658638013084200,10.657084228515625,0.246795654296875,0.945037841796875,0.2203521728515625
1769658638023072300,10.667072265625,0.2491607666015625,0.9478759765625,0.2170562744140625
1769658638033060400,10.677060302734375,0.25433349609375,0.9474029541015625,0.2141571044921875
1769658638043048200,10.687048095703124,0.2542724609375,0.9485626220703125,0.211456298828125
1769658638053035300,10.69703515625,0.2477264404296875,0.949432373046875,0.2148895263671875
1769658638063023400,10.7070234375,0.2455596923828125,0.947998046875,0.21307373046875
1769658638073011200,10.71701123046875,0.24444580078125,0.9476165771484375,0.221099853515625
1769658638082999300,10.726999267578124,0.243011474609375,0.940399169921875,0.22491455078125
1769658638092987400,10.7369873046875,0.2469635009765625,0.9366455078125,0.22576904296875
1769658638102975200,10.746975341796874,0.246734619140625,0.9380340576171875,0.22235107421875
1769658638112962300,10.75696240234375,0.2484893798828125,0.9388275146484375,0.2171478271484375
1769658638122950400,10.766950439453124,0.2503814697265625,0.938201904296875,0.2093963623046875
1769658638132938200,10.776938232421875,0.25115966796875,0.9369659423828125,0.2068328857421875
1769658638142926300,10.78692626953125,0.24920654296875,0.93743896484375,0.2067413330078125
1769658638152914200,10.7969140625,0.2461090087890625,0.936920166015625,0.208038330078125
1769658638162902300,10.80690234375,0.2447509765625,0.9382781982421875,0.20941162109375
1769658638172889300,10.816889404296875,0.24298095703125,0.9368743896484375,0.2100677490234375
1769658638182877200,10.826877197265626,0.241973876953125,0.9373931884765625,0.2124481201171875
1769658638192865000,10.836864990234375,0.2437591552734375,0.938201904296875,0.2139739990234375
1769658638202853000,10.84685302734375,0.245086669921875,0.937774658203125,0.21307373046875
1769658638212841200,10.85684130859375,0.2478179931640625,0.938323974609375,0.212188720703125
1769658638222829300,10.866829345703126,0.2476654052734375,0.94061279296875,0.2100982666015625
1769658638232816000,10.876816162109375,0.2443389892578125,0.9431610107421875,0.2120361328125
1769658638242804200,10.88680419921875,0.24395751953125,0.9445648193359375,0.21533203125
1769658638252792300,10.896792236328125,0.245758056640625,0.945556640625,0.2161712646484375
1769658638262780200,10.9067802734375,0.2457122802734375,0.945648193359375,0.21844482421875
1769658638272768300,10.916768310546875,0.2430419921875,0.9431304931640625,0.219512939453125
1769658638282756400,10.92675634765625,0.240509033203125,0.9434967041015625,0.2197418212890625
1769658638292743200,10.9367431640625,0.2371063232421875,0.9457550048828125,0.2215728759765625
1769658638302731300,10.946731201171875,0.23529052734375,0.947296142578125,0.2238311767578125
1769658638312719400,10.95671923828125,0.23455810546875,0.9482269287109375,0.224609375
1769658638322707200,10.966707275390625,0.2347259521484375,0.9473114013671875,0.2226715087890625
1769658638332695300,10.9766953125,0.2372283935546875,0.945892333984375,0.2215576171875
1769658638342683400,10.986683349609375,0.2415618896484375,0.9444580078125,0.22186279296875
1769658638352670200,10.996670166015624,0.2437896728515625,0.9451751708984375,0.223297119140625
1769658638362658300,11.006658203125,0.2415313720703125,0.9470062255859375,0.225677490234375
1769658638372646400,11.016646484375,0.2395477294921875,0.9486236572265625,0.232208251953125
1769658638382634200,11.02663427734375,0.2385101318359375,0.945953369140625,0.236175537109375
1769658638392622300,11.036622314453124,0.241851806640625,0.9440460205078125,0.23931884765625
1769658638402610200,11.046610107421875,0.2473297119140625,0.9406585693359375,0.2353515625
1769658638412597200,11.05659716796875,0.247802734375,0.93658447265625,0.226409912109375
1769658638422585300,11.06658544921875,0.244110107421875,0.9409637451171875,0.224151611328125
1769658638432573400,11.076573486328124,0.2420654296875,0.9457244873046875,0.224090576171875
1769658638442561000,11.08656103515625,0.2420654296875,0.9468536376953125,0.225555419921875
1769658638452549000,11.096549072265624,0.2427520751953125,0.9459991455078125,0.2294158935546875
1769658638462537200,11.106537109375,0.2451934814453125,0.943511962890625,0.2296600341796875
1769658638472524300,11.116524169921876,0.247650146484375,0.9456024169921875,0.2332305908203125
1769658638482512100,11.12651220703125,0.2497100830078125,0.9469451904296875,0.231719970703125
1769658638492500200,11.136500244140626,0.2550811767578125,0.9563140869140625,0.2321014404296875
1769658638502488000,11.146488037109375,0.25323486328125,0.965850830078125,0.2313079833984375
1769658638512476200,11.15647607421875,0.2464447021484375,0.9769134521484375,0.22369384765625
1769658638522464300,11.16646435546875,0.2438812255859375,0.9869384765625,0.224334716796875
1769658638532452400,11.176452392578126,0.2397003173828125,0.9888458251953125,0.2267913818359375
1769658638542439200,11.186439208984375,0.2324371337890625,0.9868316650390625,0.2379913330078125
1769658638552427300,11.19642724609375,0.232940673828125,0.9914398193359375,0.2492218017578125
1769658638562415400,11.206415283203125,0.24163818359375,0.9984283447265625,0.25604248046875
1769658638572403200,11.2164033203125,0.254486083984375,1.0035858154296875,0.261444091796875
1769658638582391300,11.226391357421875,0.2710723876953125,1.0066986083984375,0.2413482666015625
1769658638592379400,11.23637939453125,0.281280517578125,1.0043182373046875,0.227020263671875
1769658638602366200,11.2463662109375,0.283905029296875,0.992034912109375,0.214447021484375
1769658638612354300,11.256354248046875,0.296417236328125,0.980804443359375,0.2003021240234375
1769658638622342400,11.26634228515625,0.3006591796875,0.9645233154296875,0.1834869384765625
1769658638632330200,11.276330322265625,0.28411865234375,0.93609619140625,0.171905517578125
1769658638642318300,11.286318359375,0.2751922607421875,0.9098968505859375,0.1573028564453125
1769658638652305200,11.29630517578125,0.2580718994140625,0.8907318115234375,0.139129638671875
1769658638662293200,11.306293212890624,0.2393341064453125,0.887969970703125,0.1432952880859375
1769658638672281300,11.31628125,0.2254638671875,0.8904876708984375,0.146575927734375
1769658638682269400,11.32626953125,0.209320068359375,0.8860931396484375,0.1450042724609375
1769658638692257300,11.33625732421875,0.200225830078125,0.885467529296875,0.1474151611328125
1769658638702245000,11.3462451171875,0.195404052734375,0.8788299560546875,0.14599609375
1769658638712233200,11.356233154296875,0.202850341796875,0.8758392333984375,0.144927978515625
1769658638722220300,11.36622021484375,0.2092132568359375,0.8827362060546875,0.158050537109375
1769658638732208000,11.3762080078125,0.2142181396484375,0.8931121826171875,0.174285888671875
1769658638742196200,11.3861962890625,0.2220458984375,0.90032958984375,0.1874847412109375
1769658638752184000,11.39618408203125,0.22198486328125,0.90570068359375,0.20562744140625
1769658638762172200,11.406172119140624,0.22308349609375,0.912872314453125,0.22186279296875
1769658638772160300,11.41616015625,0.219085693359375,0.915374755859375,0.2409820556640625
1769658638782147000,11.42614697265625,0.21014404296875,0.9145660400390625,0.26220703125
1769658638792135200,11.43613525390625,0.2036590576171875,0.911712646484375,0.282989501953125
1769658638802123300,11.446123291015626,0.1999969482421875,0.919403076171875,0.297821044921875
1769658638812111000,11.456111083984375,0.18853759765625,0.9318695068359375,0.3200836181640625
1769658638822099200,11.46609912109375,0.1692047119140625,0.9383392333984375,0.3365478515625
1769658638832087300,11.47608740234375,0.1549530029296875,0.955535888671875,0.342803955078125
1769658638842074000,11.48607421875,0.146942138671875,0.945831298828125,0.3771514892578125
1769658638852062200,11.496062255859375,0.16839599609375,0.9235687255859375,0.361907958984375
1769658638862050300,11.50605029296875,0.1759490966796875,0.9231414794921875,0.3760833740234375
1769658638872038100,11.5160380859375,0.172119140625,0.933746337890625,0.383392333984375
1769658638882026200,11.526026123046876,0.164947509765625,0.9456787109375,0.3791351318359375
1769658638892014300,11.536014404296875,0.14605712890625,0.954254150390625,0.386566162109375
1769658638902001200,11.546001220703126,0.140869140625,0.95709228515625,0.38836669921875
1769658638911989200,11.5559892578125,0.1493988037109375,0.957611083984375,0.3941802978515625
1769658638921977300,11.565977294921876,0.1524505615234375,0.95123291015625,0.3907623291015625
1769658638931965400,11.57596533203125,0.150054931640625,0.9365692138671875,0.3753204345703125
1769658638941953300,11.585953369140626,0.151947021484375,0.927581787109375,0.369964599609375
1769658638951941400,11.59594140625,0.1446533203125,0.9173583984375,0.3625030517578125
1769658638961928400,11.605928466796875,0.1401519775390625,0.913238525390625,0.35040283203125
1769658638971916500,11.61591650390625,0.1396636962890625,0.9156951904296875,0.3460235595703125
1769658638981904400,11.625904296875,0.1352996826171875,0.92059326171875,0.343231201171875
1769658638991892200,11.635892333984375,0.136444091796875,0.921539306640625,0.340179443359375
1769658639001880300,11.64588037109375,0.14215087890625,0.9154205322265625,0.333038330078125
1769658639011868400,11.655868408203125,0.157318115234375,0.9066314697265625,0.31903076171875
1769658639021855200,11.665855224609375,0.1726531982421875,0.9036712646484375,0.311431884765625
1769658639031843300,11.67584326171875,0.1778411865234375,0.9070281982421875,0.312652587890625
1769658639041831200,11.6858310546875,0.1797332763671875,0.913238525390625,0.322509765625
1769658639051819300,11.6958193359375,0.181610107421875,0.915618896484375,0.3290252685546875
1769658639061807400,11.705807373046875,0.1788177490234375,0.9151763916015625,0.3365936279296875
1769658639071795500,11.71579541015625,0.1725921630859375,0.9097442626953125,0.34393310546875
1769658639081782300,11.7257822265625,0.1688079833984375,0.906707763671875,0.35040283203125
1769658639091770400,11.735770263671874,0.1645965576171875,0.907470703125,0.354217529296875
1769658639101758500,11.745758544921875,0.157958984375,0.9109954833984375,0.3545684814453125
1769658639111746300,11.755746337890624,0.1492462158203125,0.9152069091796875,0.3543243408203125
1769658639121734400,11.765734375,0.14459228515625,0.9147491455078125,0.3513336181640625
1769658639131722500,11.775722412109374,0.1494140625,0.91522216796875,0.352325439453125
1769658639141710300,11.78571044921875,0.1589508056640625,0.9158172607421875,0.3555755615234375
1769658639151697400,11.795697509765626,0.1667938232421875,0.916412353515625,0.3587188720703125
1769658639161685500,11.805685546875,0.1701812744140625,0.917724609375,0.36212158203125
1769658639171673300,11.81567333984375,0.170684814453125,0.920623779296875,0.3600616455078125
1769658639181661400,11.825661376953125,0.1671295166015625,0.922210693359375,0.3542938232421875
1769658639191649500,11.8356494140625,0.1669464111328125,0.919342041015625,0.34857177734375
1769658639201637400,11.845637451171875,0.1707305908203125,0.9155426025390625,0.3402099609375
1769658639211624400,11.85562451171875,0.1722564697265625,0.9132080078125,0.3338775634765625
1769658639221612500,11.865612548828125,0.1698760986328125,0.9195098876953125,0.3289337158203125
1769658639231600400,11.875600341796876,0.173614501953125,0.92706298828125,0.32464599609375
1769658639241588500,11.88558837890625,0.185760498046875,0.929107666015625,0.319671630859375
1769658639251576300,11.895576416015626,0.1985015869140625,0.9317474365234375,0.31060791015625
1769658639261564200,11.905564208984375,0.205841064453125,0.937347412109375,0.3045806884765625
1769658639271551500,11.915551513671875,0.2071533203125,0.94415283203125,0.2986907958984375
1769658639281539300,11.925539306640625,0.2013092041015625,0.9443511962890625,0.2972412109375
1769658639291527200,11.935527099609375,0.196258544921875,0.943084716796875,0.2982635498046875
1769658639301515300,11.945515380859375,0.1940155029296875,0.9370880126953125,0.3014373779296875
1769658639311503400,11.95550341796875,0.1987762451171875,0.927886962890625,0.307830810546875
1769658639321491500,11.965491455078125,0.20953369140625,0.91717529296875,0.30279541015625
1769658639331478300,11.975478271484375,0.2138214111328125,0.909698486328125,0.29534912109375
1769658639341466400,11.98546630859375,0.2127532958984375,0.9080963134765625,0.2827301025390625
1769658639351454200,11.9954541015625,0.2160491943359375,0.909088134765625,0.2721405029296875
1769658639361442300,12.0054423828125,0.2205352783203125,0.9143829345703125,0.263519287109375
1769658639371430400,12.015430419921875,0.22357177734375,0.924530029296875,0.2521514892578125
1769658639381418500,12.02541845703125,0.2216644287109375,0.931427001953125,0.24456787109375
1769658639391405300,12.0354052734375,0.2176513671875,0.9365234375,0.24462890625
1769658639401393400,12.045393310546874,0.2136993408203125,0.939849853515625,0.2486114501953125
1769658639411381500,12.055381591796875,0.2090911865234375,0.941192626953125,0.263031005859375
1769658639421369300,12.065369384765624,0.2137451171875,0.93798828125,0.266326904296875
1769658639431357400,12.075357421875,0.2162322998046875,0.9341583251953125,0.2725982666015625
1769658639441345500,12.085345458984374,0.222320556640625,0.9329071044921875,0.28253173828125
1769658639451332400,12.095332275390625,0.2257080078125,0.9306182861328125,0.2825927734375
1769658639461320400,12.105320556640624,0.2324371337890625,0.93682861328125,0.28533935546875
1769658639471308500,12.11530859375,0.2364044189453125,0.940460205078125,0.28399658203125
1769658639481296400,12.12529638671875,0.2436370849609375,0.942901611328125,0.283233642578125
1769658639491284500,12.135284423828125,0.2510223388671875,0.9380340576171875,0.2788543701171875
1769658639501272300,12.145272216796876,0.2556915283203125,0.9338531494140625,0.2738494873046875
1769658639511259400,12.15525927734375,0.254547119140625,0.9308624267578125,0.2694854736328125
1769658639521247500,12.16524755859375,0.2500152587890625,0.931365966796875,0.26605224609375
1769658639531235600,12.175235595703125,0.2435455322265625,0.9317169189453125,0.2670745849609375
1769658639541223200,12.18522314453125,0.23712158203125,0.9282379150390625,0.263214111328125
1769658639551211300,12.195211181640625,0.233489990234375,0.92864990234375,0.259490966796875
1769658639561199400,12.205199462890626,0.2333221435546875,0.930145263671875,0.25408935546875
1769658639571186400,12.2151865234375,0.2356109619140625,0.9318084716796875,0.2500152587890625
1769658639581174300,12.22517431640625,0.2392120361328125,0.93426513671875,0.250396728515625
1769658639591162400,12.235162353515625,0.2424774169921875,0.9393768310546875,0.2530517578125
1769658639601150200,12.245150146484375,0.243499755859375,0.94464111328125,0.2573699951171875
1769658639611138300,12.25513818359375,0.244354248046875,0.9437255859375,0.2612762451171875
1769658639621126400,12.26512646484375,0.247589111328125,0.94091796875,0.2636260986328125
1769658639631114500,12.275114501953125,0.2525634765625,0.9345550537109375,0.2629241943359375
1769658639641101300,12.285101318359375,0.2527923583984375,0.931121826171875,0.2611541748046875
1769658639651089400,12.29508935546875,0.254608154296875,0.931365966796875,0.257476806640625
1769658639661077200,12.3050771484375,0.253448486328125,0.933258056640625,0.2562713623046875
1769658639671065300,12.3150654296875,0.246246337890625,0.93426513671875,0.258148193359375
1769658639681053400,12.325053466796875,0.2493896484375,0.93450927734375,0.2501678466796875
1769658639691041500,12.33504150390625,0.248565673828125,0.937896728515625,0.24871826171875
1769658639701028400,12.3450283203125,0.2440948486328125,0.93939208984375,0.246978759765625
1769658639711016400,12.355016357421874,0.2415771484375,0.9373626708984375,0.24822998046875
1769658639721004500,12.365004638671875,0.242584228515625,0.93505859375,0.2502288818359375
1769658639730992400,12.374992431640624,0.2462310791015625,0.930267333984375,0.24627685546875
1769658639740980500,12.38498046875,0.2480926513671875,0.927886962890625,0.2437744140625
1769658639750968600,12.394968505859374,0.245758056640625,0.928131103515625,0.24407958984375
1769658639760955400,12.404955322265625,0.246307373046875,0.927398681640625,0.242919921875
1769658639770943500,12.414943603515624,0.2493438720703125,0.932037353515625,0.2422943115234375
1769658639780931600,12.424931640625,0.24957275390625,0.935577392578125,0.243743896484375
1769658639790919400,12.43491943359375,0.2517242431640625,0.93963623046875,0.24810791015625
1769658639800907300,12.4449072265625,0.2514190673828125,0.9426422119140625,0.251953125
1769658639810895400,12.454895263671874,0.2499237060546875,0.9406585693359375,0.2508697509765625
1769658639820882400,12.46488232421875,0.2493896484375,0.9378814697265625,0.24871826171875
1769658639830870300,12.474870361328126,0.248565673828125,0.935333251953125,0.249298095703125
1769658639840858400,12.4848583984375,0.2476806640625,0.9322967529296875,0.24969482421875
1769658639850846200,12.49484619140625,0.246185302734375,0.930023193359375,0.248565673828125
1769658639860834300,12.504834228515625,0.24609375,0.928955078125,0.249267578125
1769658639870822400,12.514822509765626,0.2441864013671875,0.9311676025390625,0.251922607421875
1769658639880809200,12.524809326171875,0.243896484375,0.9342041015625,0.250335693359375
1769658639890797300,12.53479736328125,0.2440643310546875,0.9366455078125,0.249481201171875
1769658639900785400,12.544785400390625,0.24517822265625,0.9347686767578125,0.2425994873046875
1769658639910773200,12.554773193359376,0.247955322265625,0.9339447021484375,0.241363525390625
1769658639920761300,12.56476123046875,0.249755859375,0.932403564453125,0.2468414306640625
1769658639930749400,12.57474951171875,0.246856689453125,0.933135986328125,0.2524261474609375
1769658639940736300,12.584736328125,0.2433013916015625,0.9333953857421875,0.257080078125
1769658639950724400,12.594724365234375,0.240325927734375,0.9340667724609375,0.25921630859375
1769658639960711400,12.60471142578125,0.236541748046875,0.93475341796875,0.260406494140625
1769658639970699500,12.614699462890625,0.2352752685546875,0.9315032958984375,0.2588653564453125
1769658639980687600,12.6246875,0.23870849609375,0.9274444580078125,0.253173828125
1769658639990675500,12.634675537109375,0.23797607421875,0.9239044189453125,0.2502593994140625
1769658640000663600,12.64466357421875,0.235076904296875,0.923828125,0.2532501220703125
1769658640010650600,12.654650634765625,0.230804443359375,0.92694091796875,0.2582244873046875
1769658640020638500,12.664638427734374,0.2273406982421875,0.93133544921875,0.2643890380859375
1769658640030626600,12.67462646484375,0.2292327880859375,0.937744140625,0.267242431640625
1769658640040614700,12.68461474609375,0.2328948974609375,0.941131591796875,0.265625
1769658640050602500,12.6946025390625,0.23687744140625,0.941436767578125,0.26153564453125
1769658640060590600,12.704590576171874,0.2411346435546875,0.9406280517578125,0.2597198486328125
1769658640070577700,12.71457763671875,0.2393798828125,0.938690185546875,0.2598114013671875
1769658640080565500,12.7245654296875,0.23663330078125,0.93682861328125,0.2640228271484375
1769658640090553600,12.7345537109375,0.2387237548828125,0.937164306640625,0.270263671875
1769658640100541700,12.744541748046874,0.2370452880859375,0.9377899169921875,0.2740631103515625
1769658640110529500,12.754529541015625,0.23626708984375,0.9395599365234375,0.2735137939453125
1769658640120517400,12.764517333984376,0.2368316650390625,0.937408447265625,0.2712554931640625
1769658640130504700,12.774504638671875,0.238861083984375,0.935028076171875,0.26837158203125
1769658640140492500,12.784492431640626,0.242828369140625,0.93353271484375,0.26715087890625
1769658640150480400,12.79448046875,0.2477874755859375,0.9315032958984375,0.2641754150390625
1769658640160468500,12.804468505859376,0.2525482177734375,0.931243896484375,0.2629241943359375
1769658640170456600,12.81445654296875,0.2499237060546875,0.930816650390625,0.2640838623046875
1769658640180444400,12.8244443359375,0.24853515625,0.930419921875,0.2635040283203125
1769658640190431500,12.834431396484375,0.2461395263671875,0.928375244140625,0.26513671875
1769658640200419300,12.84441943359375,0.2443695068359375,0.92889404296875,0.2663116455078125
1769658640210407400,12.854407470703125,0.23931884765625,0.927734375,0.2667694091796875
1769658640220395500,12.8643955078125,0.238372802734375,0.9255523681640625,0.267303466796875
1769658640230383600,12.874383544921875,0.242218017578125,0.9214019775390625,0.2657928466796875
1769658640240371500,12.884371337890625,0.244354248046875,0.91766357421875,0.2634124755859375
1769658640250358500,12.894358642578124,0.245452880859375,0.9193115234375,0.261810302734375
1769658640260346600,12.9043466796875,0.240997314453125,0.9216156005859375,0.264068603515625
1769658640270334500,12.91433447265625,0.2406463623046875,0.92706298828125,0.2658538818359375
1769658640280322600,12.924322509765625,0.2427215576171875,0.9313201904296875,0.2696380615234375
1769658640290310700,12.934310546875,0.246063232421875,0.9315185546875,0.2728271484375
1769658640300298500,12.944298583984375,0.2480010986328125,0.928741455078125,0.2710723876953125
1769658640310285600,12.95428564453125,0.2487640380859375,0.9283905029296875,0.269622802734375
1769658640320273700,12.964273681640625,0.249481201171875,0.932403564453125,0.2652130126953125
1769658640330261500,12.974261474609374,0.2501373291015625,0.9365997314453125,0.26153564453125
1769658640340249600,12.98424951171875,0.252960205078125,0.9368133544921875,0.2580413818359375
1769658640350237700,12.99423779296875,0.25335693359375,0.93743896484375,0.257049560546875
1769658640360225500,13.0042255859375,0.251739501953125,0.93951416015625,0.259674072265625
1769658640370213600,13.014213623046874,0.25067138671875,0.9425201416015625,0.2623748779296875
1769658640380200700,13.02420068359375,0.247711181640625,0.9450531005859375,0.263336181640625
1769658640390188500,13.0341884765625,0.2495574951171875,0.950164794921875,0.261138916015625
1769658640400176600,13.0441767578125,0.255523681640625,0.95135498046875,0.253204345703125
1769658640410164500,13.05416455078125,0.259674072265625,0.950469970703125,0.243255615234375
1769658640420152300,13.06415234375,0.264556884765625,0.95208740234375,0.2380218505859375
1769658640430140400,13.074140380859374,0.2633514404296875,0.9517974853515625,0.236328125
1769658640440127500,13.08412744140625,0.2568511962890625,0.9481964111328125,0.24017333984375
1769658640450115300,13.094115234375,0.26104736328125,0.943511962890625,0.2401123046875
1769658640460103400,13.104103515625,0.258544921875,0.9397125244140625,0.248565673828125
1769658640470091500,13.114091552734376,0.2462310791015625,0.93670654296875,0.2564544677734375
1769658640480079600,13.12407958984375,0.2445831298828125,0.933502197265625,0.2580108642578125
1769658640490067500,13.1340673828125,0.24908447265625,0.926971435546875,0.2553558349609375
1769658640500054500,13.144054443359375,0.2533111572265625,0.92333984375,0.2439422607421875
1769658640510042400,13.15404248046875,0.2534637451171875,0.919830322265625,0.22998046875
1769658640520030500,13.164030517578125,0.2539825439453125,0.917816162109375,0.219696044921875
1769658640530018600,13.1740185546875,0.2563934326171875,0.9118194580078125,0.2039642333984375
