time,seconds_elapsed,z,y,x
1769658627420999000,0.0649990234375,0.013434316031634808,0.09484342485666275,-0.06125270575284958
1769658627430987000,0.074987060546875,0.007321562618017197,0.07732594758272171,-0.06953620165586472
1769658627440974600,0.084974609375,0.0018756643403321505,0.07342121750116348,-0.10312025994062424
1769658627450962700,0.094962646484375,-0.0051865060813724995,0.08281924575567245,-0.14022181928157806
1769658627460950800,0.10495068359375,-0.005181712564080954,0.11726084351539612,-0.1788158267736435
1769658627470937900,0.114937744140625,-0.0065111625008285046,0.16459959745407104,-0.20416031777858734
1769658627480925700,0.12492578125,0.0029057750944048166,0.19930166006088257,-0.21054871380329132
1769658627490913800,0.134913818359375,0.013324061408638954,0.21885085105895996,-0.18900880217552185
1769658627500901600,0.144901611328125,0.01774597354233265,0.21731847524642944,-0.14872422814369202
1769658627510889700,0.1548896484375,0.022291190922260284,0.1990438550710678,-0.1235610842704773
1769658627520876800,0.164876708984375,0.023331156000494957,0.1830499768257141,-0.13598020374774933
1769658627530864600,0.17486474609375,0.020553745329380035,0.19040162861347198,-0.17778916656970978
1769658627540852700,0.184852783203125,0.019459718838334084,0.2188175618648529,-0.21959121525287628
1769658627550840800,0.1948408203125,0.023385483771562576,0.2233409434556961,-0.21915818750858307
1769658627560828700,0.20482861328125,0.032106537371873856,0.21104592084884644,-0.18102224171161652
1769658627570816800,0.214816650390625,0.027466244995594025,0.18928870558738708,-0.14134860038757324
1769658627580803800,0.224803955078125,0.022536201402544975,0.17182928323745728,-0.12998303771018982
1769658627590791700,0.234791748046875,0.013593573123216629,0.1586650162935257,-0.13838930428028107
1769658627600779800,0.24477978515625,0.006940730381757021,0.1536843627691269,-0.16370823979377747
1769658627610768000,0.254767822265625,-0.001603222917765379,0.16737142205238342,-0.18933743238449097
1769658627620755700,0.264755615234375,-0.005909554194658995,0.19260087609291077,-0.20958411693572998
1769658627630742800,0.27474267578125,-0.006974818650633097,0.20389427244663239,-0.22600489854812622
1769658627640731000,0.28473095703125,-0.004013916477560997,0.20720964670181274,-0.2178974449634552
1769658627650718700,0.29471875,0.0034911378752440214,0.18312427401542664,-0.18437889218330383
1769658627660706800,0.304706787109375,0.011534683406352997,0.1473950445652008,-0.13763056695461273
1769658627670695000,0.31469482421875,0.0178181454539299,0.10994114726781845,-0.09928184747695923
1769658627680681700,0.324681640625,0.025225728750228882,0.09136933088302612,-0.08231963962316513
1769658627690669800,0.334669921875,0.030349649488925934,0.09693533182144165,-0.09380452334880829
1769658627700658000,0.344657958984375,0.0312948040664196,0.12881922721862793,-0.1274556964635849
1769658627710645800,0.354645751953125,0.031390946358442307,0.17804589867591858,-0.16269144415855408
1769658627720633900,0.3646337890625,0.03645521402359009,0.2189059853553772,-0.1941998302936554
1769658627730621700,0.37462158203125,0.04114663600921631,0.2456931173801422,-0.2192239612340927
1769658627740608800,0.38460888671875,0.044924065470695496,0.2621442675590515,-0.2354215681552887
1769658627750596900,0.394596923828125,0.044688642024993896,0.25723686814308167,-0.23625913262367249
1769658627760584700,0.404584716796875,0.042807918041944504,0.2354053258895874,-0.2243897020816803
1769658627770572800,0.41457275390625,0.04237781837582588,0.21055378019809723,-0.21841329336166382
1769658627780560600,0.424560546875,0.03924434259533882,0.19713543355464935,-0.22009961307048798
1769658627790548000,0.4345478515625,0.03898974508047104,0.18516533076763153,-0.21740609407424927
1769658627800535600,0.44453564453125,0.0400286428630352,0.16912564635276794,-0.2047174572944641
1769658627810523600,0.454523681640625,0.03741581365466118,0.14266420900821686,-0.1742950975894928
1769658627820511700,0.46451171875,0.039444878697395325,0.107732854783535,-0.1302432268857956
1769658627830499800,0.474499755859375,0.038364700973033905,0.06857746094465256,-0.08658070117235184
1769658627840486700,0.484486572265625,0.03057974763214588,0.04246756434440613,-0.05258890986442566
1769658627850474800,0.494474853515625,0.02208665944635868,0.018308699131011963,-0.03735722601413727
1769658627860462800,0.504462890625,0.014675082638859749,-0.014170413836836815,-0.03009318746626377
1769658627870450700,0.51445068359375,0.0073447320610284805,-0.04526654630899429,-0.02430240996181965
1769658627880438800,0.524438720703125,0.005111937876790762,-0.06564745306968689,-0.022240323945879936
1769658627890425600,0.534425537109375,0.004610198084264994,-0.07004566490650177,-0.023979367688298225
1769658627900413700,0.54441357421875,0.00398595305159688,-0.05578549951314926,-0.026821494102478027
1769658627910401800,0.55440185546875,0.0046815709210932255,-0.03676467388868332,-0.030789338052272797
1769658627920390000,0.564389892578125,0.006234992761164904,-0.01948395185172558,-0.03834765404462814
1769658627930377700,0.574377685546875,0.007012635935097933,-0.0023393207229673862,-0.05047622323036194
1769658627940364800,0.58436474609375,0.00803475733846426,0.022832611575722694,-0.06418457627296448
1769658627950353200,0.594353271484375,0.016382435336709023,0.047752343118190765,-0.07232639193534851
1769658627960341200,0.60434130859375,0.022960975766181946,0.06790528446435928,-0.08354442566633224
1769658627970329000,0.6143291015625,0.026320820674300194,0.08357558399438858,-0.09629058092832565
1769658627980317200,0.624317138671875,0.023667512461543083,0.09025825560092926,-0.10466516017913818
1769658627990305300,0.63430517578125,0.02539430558681488,0.07729212194681168,-0.11710691452026367
1769658628000292000,0.6442919921875,0.02827691100537777,0.07371683418750763,-0.12995027005672455
1769658628010280200,0.6542802734375,0.029151227325201035,0.08606031537055969,-0.14351961016654968
1769658628020268300,0.664268310546875,0.030718497931957245,0.10771501064300537,-0.1622570902109146
1769658628030256000,0.674256103515625,0.03580113872885704,0.12817580997943878,-0.18817336857318878
1769658628040244200,0.684244140625,0.041245173662900925,0.13863617181777954,-0.21409977972507477
1769658628050231300,0.694231201171875,0.042330678552389145,0.13360200822353363,-0.2384176254272461
1769658628060219100,0.70421923828125,0.05013693496584892,0.1233147457242012,-0.2665984034538269
1769658628070207200,0.714207275390625,0.056474726647138596,0.1110820472240448,-0.3024565279483795
1769658628080195000,0.724195068359375,0.0544549860060215,0.09990262985229492,-0.32936805486679077
1769658628090183000,0.734182861328125,0.043603137135505676,0.0959281250834465,-0.35234686732292175
1769658628100170200,0.744170166015625,0.033907365053892136,0.1120770052075386,-0.37353789806365967
1769658628110158000,0.754157958984375,0.027302460744976997,0.1299036741256714,-0.4008409082889557
1769658628120146000,0.76414599609375,0.02412530966103077,0.1279342621564865,-0.4213200807571411
1769658628130134000,0.774134033203125,0.023504793643951416,0.11281842738389969,-0.43130025267601013
1769658628140122000,0.7841220703125,0.026313362643122673,0.11301017552614212,-0.43080413341522217
1769658628150110000,0.79410986328125,0.03483973816037178,0.12999741733074188,-0.42580804228782654
1769658628160097000,0.804096923828125,0.04562607407569885,0.15358716249465942,-0.4135678708553314
1769658628170085000,0.814085205078125,0.06290599703788757,0.16716448962688446,-0.4021434485912323
1769658628180073000,0.824072998046875,0.07682766765356064,0.15487773716449738,-0.39489537477493286
1769658628190061000,0.83406103515625,0.0821492001414299,0.14587411284446716,-0.39798837900161743
1769658628200049200,0.844049072265625,0.08092494308948517,0.1418522149324417,-0.40926313400268555
1769658628210036000,0.854035888671875,0.07700077444314957,0.12940005958080292,-0.42244845628738403
1769658628220024000,0.864024169921875,0.06799769401550293,0.10660181194543839,-0.4452994465827942
1769658628230012200,0.87401220703125,0.06703975051641464,0.08383364975452423,-0.4821935296058655
1769658628240000000,0.884,0.04808603599667549,0.057431869208812714,-0.5287258625030518
1769658628249988000,0.893988037109375,0.03515159711241722,0.08185731619596481,-0.5476828217506409
1769658628259975200,0.90397509765625,0.021452827379107475,0.12450864166021347,-0.5264856219291687
1769658628269963000,0.913962890625,0.008717059157788754,0.1331396847963333,-0.47175076603889465
1769658628279951000,0.923951171875,0.004998486954718828,0.12608176469802856,-0.409192830324173
1769658628289939200,0.933939208984375,0.006491987966001034,0.11983772367238998,-0.35098546743392944
1769658628299927300,0.94392724609375,0.011929630301892757,0.11520861089229584,-0.3028823733329773
1769658628309914000,0.9539140625,0.02015267312526703,0.10541324317455292,-0.2724440395832062
1769658628319902200,0.963902099609375,0.032339565455913544,0.14519181847572327,-0.27817782759666443
1769658628329890000,0.97389013671875,0.05032016336917877,0.1798965334892273,-0.3026232421398163
1769658628339878100,0.983878173828125,0.0664629116654396,0.18540766835212708,-0.3313387930393219
1769658628349866200,0.9938662109375,0.06385621428489685,0.18211521208286285,-0.3203071653842926
1769658628359853000,1.00385302734375,0.05674157664179802,0.1991722285747528,-0.29357489943504333
1769658628369841200,1.013841064453125,0.05013134330511093,0.20364341139793396,-0.2680482268333435
1769658628379829200,1.023829345703125,0.04581382870674133,0.179133802652359,-0.2535076439380646
1769658628389817300,1.0338173828125,0.042940277606248856,0.14778093993663788,-0.23988689482212067
1769658628399805200,1.04380517578125,0.037933532148599625,0.13401798903942108,-0.22625869512557983
1769658628409793000,1.05379296875,0.035477034747600555,0.1314041018486023,-0.22331884503364563
1769658628419780000,1.063780029296875,0.034801922738552094,0.11565548926591873,-0.22666935622692108
1769658628429768200,1.073768310546875,0.0314660482108593,0.10206591337919235,-0.23110859096050262
1769658628439756000,1.083756103515625,0.02515169233083725,0.11081413179636002,-0.23382607102394104
1769658628449744100,1.093744140625,0.015431953594088554,0.1495673805475235,-0.26347824931144714
1769658628459732000,1.10373193359375,0.01617950201034546,0.17697104811668396,-0.31245750188827515
1769658628469719300,1.11371923828125,0.022306637838482857,0.16670642793178558,-0.34333258867263794
1769658628479707000,1.123706787109375,0.02449202723801136,0.15226569771766663,-0.3369188904762268
1769658628489695000,1.133695068359375,0.029075326398015022,0.1573060005903244,-0.31517311930656433
1769658628499683000,1.14368310546875,0.03641899302601814,0.1626080870628357,-0.3030024766921997
1769658628509671200,1.153671142578125,0.04098658263683319,0.15795980393886566,-0.3097410798072815
1769658628519658000,1.163657958984375,0.03695189207792282,0.13722923398017883,-0.33404162526130676
1769658628529646000,1.17364599609375,0.027513382956385612,0.07138630002737045,-0.3529053330421448
1769658628539634200,1.18363427734375,0.03533961623907089,0.0620226226747036,-0.3587251305580139
1769658628549622000,1.1936220703125,0.03746961057186127,0.14228789508342743,-0.3525732159614563
1769658628559610000,1.203610107421875,0.04226010665297508,0.15728682279586792,-0.3231855034828186
1769658628569597000,1.213596923828125,0.04608839750289917,0.1340198516845703,-0.302385151386261
1769658628579585000,1.2235849609375,0.043113116174936295,0.14698384702205658,-0.2969070374965668
1769658628589573000,1.233572998046875,0.03424638882279396,0.17476648092269897,-0.29080572724342346
1769658628599561200,1.243561279296875,0.02593812346458435,0.17210784554481506,-0.28971970081329346
1769658628609549000,1.253549072265625,0.025424133986234665,0.13584411144256592,-0.2905098497867584
1769658628619536100,1.2635361328125,0.022248581051826477,0.11680570989847183,-0.2834029495716095
1769658628629524200,1.273524169921875,0.015901202335953712,0.10817334055900574,-0.2708698511123657
1769658628639512000,1.283511962890625,0.010074205696582794,0.09461013227701187,-0.25235554575920105
1769658628649500200,1.293500244140625,0.007478422485291958,0.05976532772183418,-0.2261098325252533
1769658628659488300,1.30348828125,0.008519185706973076,0.02599964290857315,-0.20033815503120422
1769658628669476000,1.31347607421875,0.009379386901855469,0.023266706615686417,-0.1729709804058075
1769658628679463200,1.323463134765625,0.009491772390902042,0.0040852888487279415,-0.14859133958816528
1769658628689451300,1.333451171875,0.010789530351758003,-0.02129516936838627,-0.12629614770412445
1769658628699439000,1.343439208984375,0.008109059184789658,-0.01822694018483162,-0.10770808905363083
1769658628709427200,1.35342724609375,0.011347996070981026,-0.015141935087740421,-0.09548310935497284
1769658628719415300,1.363415283203125,0.014417288824915886,-0.015586149878799915,-0.08653036504983902
1769658628729402000,1.373402099609375,0.016592824831604958,-0.027594875544309616,-0.07808814197778702
1769658628739390200,1.38339013671875,0.013314473442733288,-0.028920598328113556,-0.07896538823843002
1769658628749378300,1.39337841796875,0.010204700753092766,-0.03274036943912506,-0.08682810515165329
1769658628759366100,1.4033662109375,0.0034325483720749617,-0.0400635302066803,-0.09363594651222229
1769658628769354000,1.41335400390625,-0.0002537992550060153,-0.04054902493953705,-0.09943630546331406
1769658628779341300,1.42334130859375,-0.005797967780381441,-0.04202308505773544,-0.1040012314915657
1769658628789329200,1.4333291015625,-0.009913883171975613,-0.04614139720797539,-0.10970252752304077
1769658628799317200,1.443317138671875,-0.008646219037473202,-0.04789455607533455,-0.1209527850151062
1769658628809305000,1.45330517578125,-0.007984955795109272,-0.05018727108836174,-0.12969061732292175
1769658628819293000,1.46329296875,-0.004930309951305389,-0.05393274128437042,-0.13091939687728882
1769658628829280300,1.4732802734375,0.0020956413354724646,-0.06024390086531639,-0.13267070055007935
1769658628839268000,1.48326806640625,0.0057585532777011395,-0.06440162658691406,-0.1243472546339035
1769658628849256000,1.493255859375,0.006645651999861002,-0.05053507909178734,-0.12371101975440979
1769658628859244000,1.503244140625,0.00851439218968153,-0.03187191113829613,-0.11824248731136322
1769658628869232000,1.513232177734375,0.010611099191009998,-0.019416041672229767,-0.10909213125705719
1769658628879219000,1.523218994140625,0.0086603332310915,-0.01684875413775444,-0.10639861226081848
1769658628889207000,1.53320703125,0.00818123109638691,-0.008476574905216694,-0.11017017811536789
1769658628899195100,1.543195068359375,0.004580636974424124,-0.0033068470656871796,-0.11852531135082245
1769658628909183000,1.553182861328125,0.0019097528420388699,0.001627191435545683,-0.13154152035713196
1769658628919171000,1.563171142578125,0.007129015866667032,0.00993359088897705,-0.1473633497953415
1769658628929159200,1.5731591796875,0.012190619483590126,0.015401593409478664,-0.1533629298210144
1769658628939146000,1.58314599609375,0.01944054290652275,0.01709882542490959,-0.15616349875926971
1769658628949133600,1.593133544921875,0.02750912308692932,0.012301407754421234,-0.16123150289058685
1769658628959121700,1.60312158203125,0.03693511337041855,0.011987687088549137,-0.15659333765506744
1769658628969109800,1.61310986328125,0.04531475156545639,0.006188653875142336,-0.15582580864429474
1769658628979097900,1.623097900390625,0.052071455866098404,-0.012804212048649788,-0.16057582199573517
1769658628989084700,1.633084716796875,0.05668032169342041,-0.03131398186087608,-0.17125244438648224
1769658628999072800,1.64307275390625,0.054369498044252396,-0.055381499230861664,-0.18447157740592957
1769658629009060900,1.653060791015625,0.04938139766454697,-0.08505337685346603,-0.20221728086471558
1769658629019048700,1.663048583984375,0.03772367537021637,-0.08724382519721985,-0.22233372926712036
1769658629029036800,1.673036865234375,0.025109346956014633,-0.059353604912757874,-0.23881684243679047
1769658629039023600,1.683023681640625,0.01600906066596508,-0.05079686641693115,-0.24632535874843597
1769658629049011700,1.69301171875,0.00899589154869318,-0.051468782126903534,-0.26127180457115173
1769658629058999800,1.702999755859375,0.0022708773612976074,-0.053529269993305206,-0.2662806808948517
1769658629068988000,1.71298779296875,-0.004918059334158897,-0.05024000257253647,-0.2742270231246948
1769658629078975700,1.722975830078125,-0.010030795820057392,-0.06046201288700104,-0.27935999631881714
1769658629088962800,1.732962890625,-0.014585600234568119,-0.06792205572128296,-0.27506911754608154
1769658629098951000,1.742950927734375,-0.01932043395936489,-0.08128340542316437,-0.27180060744285583
1769658629108938800,1.752938720703125,-0.02094123512506485,-0.09769885987043381,-0.266181081533432
1769658629118926800,1.7629267578125,-0.023327426984906197,-0.10925059020519257,-0.2646265923976898
1769658629128915000,1.7729150390625,-0.02177240699529648,-0.12430304288864136,-0.2487802505493164
1769658629138901800,1.78290185546875,-0.018542258068919182,-0.12819445133209229,-0.23414193093776703
1769658629148889900,1.792889892578125,-0.00797510240226984,-0.12843520939350128,-0.2195344865322113
1769658629158878000,1.8028779296875,0.006025401875376701,-0.11750718951225281,-0.2112794816493988
1769658629168865800,1.81286572265625,0.007248059380799532,-0.08936689794063568,-0.20515555143356323
1769658629178853600,1.822853515625,0.008145544677972794,-0.04944664612412453,-0.20390811562538147
1769658629188840700,1.8328408203125,0.005766542628407478,-0.015846341848373413,-0.20380505919456482
1769658629198828800,1.842828857421875,0.01197836548089981,0.001184041379019618,-0.1949005126953125
1769658629208816600,1.852816650390625,0.022046979516744614,0.0038016624748706818,-0.18349286913871765
1769658629218804700,1.8628046875,0.03501763939857483,0.009471265599131584,-0.17136909067630768
1769658629228792600,1.87279248046875,0.05447709187865257,0.01697259210050106,-0.16755704581737518
1769658629238780700,1.88278076171875,0.06767012178897858,0.028486767783761024,-0.16482436656951904
1769658629248767700,1.892767822265625,0.07328220456838608,0.03645681217312813,-0.16476550698280334
1769658629258755600,1.902755615234375,0.07149308919906616,0.028183700516819954,-0.1699107438325882
1769658629268743700,1.91274365234375,0.06740859895944595,0.017618941143155098,-0.17002126574516296
1769658629278731800,1.922731689453125,0.058945607393980026,0.01798672415316105,-0.17119118571281433
1769658629288719600,1.9327197265625,0.050331614911556244,0.01558295451104641,-0.15948180854320526
1769658629298706700,1.942706787109375,0.048715341836214066,-0.003376621985808015,-0.14884008467197418
1769658629308694800,1.95269482421875,0.05540440231561661,-0.03506424278020859,-0.13869929313659668
1769658629318682600,1.9626826171875,0.058822035789489746,-0.04735073819756508,-0.11909842491149902
1769658629328670700,1.972670654296875,0.06670046597719193,-0.0380251482129097,-0.09974070638418198
1769658629338658800,1.982658935546875,0.08042080700397491,-0.040107205510139465,-0.08085224032402039
1769658629348645600,1.992645751953125,0.0943206399679184,-0.03154940530657768,-0.07012609392404556
1769658629358633700,2.0026337890625,0.10749716311693192,-0.0015038870042189956,-0.06986723095178604
1769658629368621800,2.012621826171875,0.10974593460559845,0.04096927121281624,-0.07187418639659882
1769658629378609700,2.022609619140625,0.11020959168672562,0.0715748518705368,-0.07040225714445114
1769658629388597800,2.03259765625,0.105809785425663,0.06916549056768417,-0.06848344951868057
1769658629398584800,2.042584716796875,0.0995449647307396,0.05868009105324745,-0.06757664680480957
1769658629408572700,2.05257275390625,0.09802057594060898,0.042570095509290695,-0.05980421230196953
1769658629418560800,2.062560791015625,0.09704452753067017,0.005025118589401245,-0.047690555453300476
1769658629428548900,2.072548828125,0.09696383029222488,-0.04030081629753113,-0.039738889783620834
1769658629438536700,2.08253662109375,0.0861591175198555,-0.06065216287970543,-0.02178146131336689
1769658629448523800,2.092523681640625,0.07249630242586136,-0.06980331242084503,-0.011090734042227268
1769658629458512000,2.102511962890625,0.04965490475296974,-0.07351309806108475,-0.008562861941754818
1769658629468499700,2.112499755859375,0.032048746943473816,-0.08298702538013458,-0.010240919888019562
1769658629478487800,2.12248779296875,0.018198445439338684,-0.10585053265094757,-0.011920841410756111
1769658629488476000,2.132475830078125,0.02303794026374817,-0.12736381590366364,-0.004280232358723879
1769658629498463700,2.142463623046875,0.030945133417844772,-0.12279222905635834,0.006117547396570444
1769658629508450800,2.152450927734375,0.042441997677087784,-0.1002269983291626,0.011442005634307861
1769658629518439000,2.16243896484375,0.05379079282283783,-0.0736507847905159,0.01483647059649229
1769658629528426800,2.1724267578125,0.06880489736795425,-0.03219415619969368,0.02039475366473198
1769658629538414600,2.18241455078125,0.08152628690004349,0.001344896387308836,0.025486184284090996
1769658629548402700,2.192402587890625,0.09225030243396759,0.01543461624532938,0.03322692960500717
1769658629558389800,2.2023896484375,0.09821897745132446,0.010965299792587757,0.03196831792593002
1769658629568377900,2.2123779296875,0.11333827674388885,0.01890391670167446,0.0029963224660605192
1769658629578365700,2.22236572265625,0.10982343554496765,0.032834913581609726,-0.02352583222091198
1769658629588353500,2.232353515625,0.10401854664087296,0.04729454591870308,-0.05306428298354149
1769658629598341600,2.242341552734375,0.08718550205230713,0.01312192715704441,-0.07561992853879929
1769658629608328700,2.25232861328125,0.06903233379125595,-0.0027651600539684296,-0.10372426360845566
1769658629618316500,2.262316650390625,0.03735962137579918,-0.024820661172270775,-0.11840147525072098
1769658629628304600,2.2723046875,-0.0039116512052714825,-0.07537251710891724,-0.10707905143499374
1769658629638292700,2.282292724609375,-0.03470338508486748,-0.1199708804488182,-0.07356130331754684
1769658629648280800,2.29228076171875,-0.04998380318284035,-0.15335333347320557,-0.03196565434336662
1769658629658267600,2.302267578125,-0.048886317759752274,-0.1576484888792038,-0.00046365635353140533
1769658629668255700,2.312255859375,-0.03199681639671326,-0.14368154108524323,0.005770004820078611
1769658629678243600,2.32224365234375,-0.03141757845878601,-0.1406865417957306,0.006102100946009159
1769658629688231700,2.332231689453125,-0.03056563250720501,-0.14657212793827057,0.01372247003018856
1769658629698219800,2.3422197265625,-0.02870727889239788,-0.14679476618766785,0.014164288528263569
1769658629708206600,2.35220654296875,-0.02630803734064102,-0.1474166214466095,0.014211959205567837
1769658629718194700,2.362194580078125,-0.017427193000912666,-0.12520372867584229,0.02604544907808304
1769658629728182800,2.372182861328125,-0.006913566030561924,-0.10808572173118591,0.04664180427789688
1769658629738171000,2.3821708984375,-0.006816626992076635,-0.10301240533590317,0.060498762875795364
1769658629748158700,2.39215869140625,0.002703641075640917,-0.09311822801828384,0.07089520990848541
1769658629758146800,2.402146728515625,0.017837852239608765,-0.08738657087087631,0.07347048819065094
1769658629768133600,2.412133544921875,0.027364512905478477,-0.08591917157173157,0.057261690497398376
1769658629778121700,2.422121826171875,0.033544111996889114,-0.0918167382478714,0.036969467997550964
1769658629788109800,2.43210986328125,0.031203193590044975,-0.09629857540130615,0.03635001927614212
1769658629798098000,2.442097900390625,0.035595543682575226,-0.09501146525144577,0.044322721660137177
1769658629808085800,2.452085693359375,0.049182724207639694,-0.07469847053289413,0.046782419085502625
1769658629818072800,2.46207275390625,0.06263089179992676,-0.07545507699251175,0.064593106508255
1769658629828060700,2.472060791015625,0.07636268436908722,-0.05874107778072357,0.0829358920454979
1769658629838048800,2.482048828125,0.07463615387678146,-0.05624436214566231,0.09210728853940964
1769658629848036900,2.492036865234375,0.07052849233150482,-0.053031258285045624,0.09392888844013214
1769658629858025000,2.50202490234375,0.05991393327713013,-0.05058727785944939,0.09125960618257523
1769658629868011800,2.51201171875,0.055450208485126495,-0.06227242946624756,0.09196215122938156
1769658629877999900,2.521999755859375,0.053590256720781326,-0.0728616863489151,0.08804996311664581
1769658629887988000,2.531988037109375,0.05504327639937401,-0.07911958545446396,0.09090087562799454
1769658629897975800,2.541975830078125,0.056711748242378235,-0.08274334669113159,0.09208837896585464
1769658629907963600,2.551963623046875,0.061774685978889465,-0.0863945409655571,0.09400772303342819
1769658629917951700,2.56195166015625,0.06082180514931679,-0.0796535462141037,0.1003527045249939
1769658629927938800,2.571938720703125,0.060586117208004,-0.05849286913871765,0.11546587198972702
1769658629937926700,2.5819267578125,0.053528472781181335,-0.042689140886068344,0.1268511563539505
1769658629947914500,2.59191455078125,0.058340538293123245,-0.019770508632063866,0.12553901970386505
1769658629957902600,2.601902587890625,0.06497234106063843,-0.0029526466969400644,0.11556041985750198
1769658629967890400,2.611890380859375,0.06635585427284241,0.002909237053245306,0.10866309702396393
1769658629977877500,2.62187744140625,0.060435645282268524,0.00407463638111949,0.10293490439653397
1769658629987865600,2.631865478515625,0.055691756308078766,-0.04638614133000374,0.13713841140270233
1769658629997853400,2.641853515625,0.07787375897169113,-0.1704218089580536,0.18411152064800262
1769658630007841500,2.651841552734375,0.09379865974187851,-0.28890955448150635,0.2675344944000244
1769658630017829600,2.66182958984375,0.10730728507041931,-0.2731117010116577,0.383297860622406
1769658630027816400,2.67181640625,0.09316696226596832,-0.19741587340831757,0.4597497582435608
1769658630037804500,2.681804443359375,0.07353919744491577,-0.13393943011760712,0.4885563552379608
1769658630047792600,2.691792724609375,0.053279466927051544,-0.19710427522659302,0.48389315605163574
1769658630057780500,2.701780517578125,0.018032796680927277,-0.3237181603908539,0.43996965885162354
1769658630067768600,2.7117685546875,-0.01883946731686592,-0.41002053022384644,0.3826586902141571
1769658630077755600,2.721755615234375,-0.06349881738424301,-0.4309460520744324,0.33793169260025024
1769658630087743500,2.731743408203125,-0.09346070885658264,-0.37674567103385925,0.3158021569252014
1769658630097731600,2.741731689453125,-0.09655396640300751,-0.28045907616615295,0.31002524495124817
1769658630107719700,2.7517197265625,-0.0842706710100174,-0.24549338221549988,0.2919306457042694
1769658630117707800,2.761707763671875,-0.06370680779218674,-0.23949435353279114,0.24174019694328308
1769658630127694600,2.771694580078125,-0.04090855270624161,-0.20196934044361115,0.1840345561504364
1769658630137682700,2.7816826171875,-0.026682477444410324,-0.15569372475147247,0.14278031885623932
1769658630147670500,2.79167041015625,-0.008711466565728188,-0.13576768338680267,0.1219317615032196
1769658630157658600,2.80165869140625,0.01127768773585558,-0.12082096189260483,0.10809211432933807
1769658630167646700,2.811646728515625,0.02714160643517971,-0.09594011306762695,0.09681762009859085
1769658630177634800,2.821634765625,0.038896530866622925,-0.07934142649173737,0.09585728496313095
1769658630187621600,2.83162158203125,0.04903598502278328,-0.09355045855045319,0.0831899642944336
1769658630197609700,2.841609619140625,0.04692196846008301,-0.0992986261844635,0.06620431691408157
1769658630207597800,2.851597900390625,0.02918345108628273,-0.08804463595151901,0.07204409688711166
1769658630217585700,2.861585693359375,0.017237842082977295,-0.056752759963274,0.08711519092321396
1769658630227573800,2.87157373046875,-0.0025158883072435856,-0.02455913834273815,0.09815426170825958
1769658630237560600,2.881560546875,-0.017907893285155296,0.013943245634436607,0.1128716915845871
1769658630247548700,2.891548583984375,-0.024988440796732903,0.014024472795426846,0.12308624386787415
1769658630257536800,2.901536865234375,-0.02124696597456932,-0.010351707227528095,0.14746934175491333
1769658630267524600,2.911524658203125,-0.027276627719402313,-0.02028343454003334,0.18107737600803375
1769658630277512400,2.921512451171875,-0.02924230694770813,-0.014334464445710182,0.20601068437099457
1769658630287499800,2.931499755859375,-0.04312989488244057,-0.021827533841133118,0.20839367806911469
1769658630297487600,2.941487548828125,-0.04748309776186943,-0.0364869050681591,0.2012082040309906
1769658630307475500,2.951475341796875,-0.049130529165267944,-0.04760666564106941,0.20033788681030273
1769658630317463600,2.961463623046875,-0.05014359578490257,-0.06722697615623474,0.2008630633354187
1769658630327451600,2.97145166015625,-0.05660974979400635,-0.05723585933446884,0.18839707970619202
1769658630337439500,2.981439453125,-0.05512450635433197,-0.03501657396554947,0.16706275939941406
1769658630347426600,2.991426513671875,-0.04922693595290184,-0.019709788262844086,0.15638135373592377
1769658630357414700,3.00141455078125,-0.03753539174795151,-0.025584721937775612,0.14910399913787842
1769658630367402500,3.011402587890625,-0.03204847872257233,-0.008699482306838036,0.13817757368087769
1769658630377390600,3.021390625,-0.023187877610325813,0.026514964178204536,0.11366318166255951
1769658630387378700,3.031378662109375,-0.017466874793171883,0.05751282721757889,0.0795893669128418
1769658630397365500,3.041365478515625,-0.010296579450368881,0.0691676214337349,0.055569518357515335
1769658630407353600,3.051353515625,0.004778243601322174,0.08295134454965591,0.053823016583919525
1769658630417341700,3.061341796875,0.017107879742980003,0.10016202181577682,0.06497340649366379
1769658630427329500,3.07132958984375,0.028724588453769684,0.10443239659070969,0.06253927946090698
1769658630437317600,3.081317626953125,0.02955123409628868,0.08530477434396744,0.042756784707307816
1769658630447304700,3.0913046875,0.030422354117035866,0.11809947341680527,0.034326281398534775
1769658630457292500,3.10129248046875,0.038672562688589096,0.15286411345005035,0.04952121526002884
1769658630467280600,3.11128076171875,0.02899809554219246,0.11816738545894623,0.060460414737463
1769658630477268700,3.121268798828125,0.03479499742388725,0.0750417560338974,0.07119482010602951
1769658630487256600,3.131256591796875,0.024343157187104225,0.028988774865865707,0.08394630253314972
1769658630497243600,3.14124365234375,0.01726660504937172,0.0014375743921846151,0.0845809280872345
1769658630507231700,3.151231689453125,0.007728493306785822,-0.01338557992130518,0.07432270050048828
1769658630517219600,3.161219482421875,-0.00011185276525793597,-0.004419249482452869,0.05928835645318031
1769658630527207700,3.171207763671875,-0.010509099811315536,-0.0009616674506105483,0.04609425738453865
1769658630537195800,3.18119580078125,-0.02112099714577198,0.010113353841006756,0.04007444903254509
1769658630547182600,3.1911826171875,-0.026096049696207047,0.04559491574764252,0.032466597855091095
1769658630557170700,3.201170654296875,0.001234907773323357,0.03556385263800621,0.042402319610118866
1769658630567158800,3.21115869140625,0.009432916529476643,-0.010779943317174911,0.05349624902009964
1769658630577146600,3.221146728515625,0.002371811307966709,-0.009461412206292152,0.0528365820646286
1769658630587134700,3.231134765625,0.0017398431664332747,-0.03512629494071007,0.047083888202905655
1769658630597122600,3.24112255859375,0.0027539748698472977,-0.03431296721100807,0.04447904974222183
1769658630607109600,3.251109619140625,0.004452006425708532,-0.012092881835997105,0.045398108661174774
1769658630617097700,3.26109765625,0.002141980454325676,0.0002519350382499397,0.05157317966222763
1769658630627085600,3.27108544921875,0.0005435511702671647,-0.009063003584742546,0.05215774476528168
1769658630637073400,3.281073486328125,-0.0049462891183793545,-0.008851548656821251,0.05036037415266037
1769658630647061500,3.2910615234375,-0.00869255792349577,0.04862372949719429,0.03169960528612137
1769658630657048600,3.301048583984375,-0.00023568976030219346,0.09504422545433044,0.01780749298632145
1769658630667036400,3.311036376953125,0.017548900097608566,0.09747808426618576,-0.006850183010101318
1769658630677024500,3.3210244140625,0.032948363572359085,0.14818334579467773,-0.025063540786504745
1769658630687012600,3.3310126953125,0.03574175387620926,0.22016485035419464,-0.0569453090429306
1769658630697000400,3.34100048828125,0.04201323166489601,0.2376146912574768,-0.08025249093770981
1769658630706987500,3.350987548828125,0.052130311727523804,0.21163581311702728,-0.09018608182668686
1769658630716975600,3.3609755859375,0.0647536963224411,0.20590096712112427,-0.08732664585113525
1769658630726963500,3.37096337890625,0.06558886170387268,0.16684438288211823,-0.07370670884847641
1769658630736951600,3.38095166015625,0.062117431312799454,0.12632039189338684,-0.04687882587313652
1769658630746939600,3.390939697265625,0.04638241231441498,0.13263873755931854,-0.008350607939064503
1769658630756926500,3.400926513671875,0.029449768364429474,0.11158538609743118,0.027544276788830757
1769658630766914600,3.41091455078125,0.024323714897036552,0.05980687588453293,0.015203719958662987
1769658630776902700,3.420902587890625,0.017306551337242126,0.04791159927845001,0.019630160182714462
1769658630786890500,3.430890380859375,0.007455785758793354,0.02473730407655239,0.034621093422174454
1769658630796878600,3.440878662109375,-0.00009640643111197278,0.012674782425165176,0.00897032581269741
1769658630806866700,3.45086669921875,-0.006988134700804949,0.05062296241521835,0.02365739271044731
1769658630816853500,3.460853515625,-0.007019826211035252,0.018931346014142036,0.016102537512779236
1769658630826841600,3.470841552734375,-0.00015659387281630188,0.012312592938542366,-0.0020836573094129562
1769658630836829700,3.48082958984375,-0.0024762072134763002,0.03943715617060661,-0.0007411577389575541
1769658630846817800,3.49081787109375,0.0015931029338389635,0.07081717997789383,0.0034163030795753
1769658630856805600,3.5008056640625,0.013768808916211128,0.07287473976612091,0.017364609986543655
1769658630866792700,3.510792724609375,0.023424100130796432,0.06295366585254669,0.011726430617272854
1769658630876780500,3.520780517578125,0.031096667051315308,0.05411303788423538,0.009014001116156578
1769658630886768600,3.5307685546875,0.030768565833568573,0.05191992223262787,0.0006993460701778531
1769658630896756700,3.5407568359375,0.028895830735564232,0.06307803839445114,-0.011145861819386482
1769658630906744800,3.550744873046875,0.02515302412211895,0.0822293609380722,-0.01374936755746603
1769658630916732700,3.560732666015625,0.024831313639879227,0.09105906635522842,-0.0024772724136710167
1769658630926719700,3.5707197265625,0.02791338972747326,0.07693260163068771,0.015590677969157696
1769658630936707800,3.580707763671875,0.02846679463982582,0.06992661952972412,0.019160911440849304
1769658630946695700,3.59069580078125,0.027907531708478928,0.07071944326162338,0.012284895405173302
1769658630956683500,3.60068359375,0.027187146246433258,0.0605914406478405,0.008380435407161713
1769658630966671600,3.610671630859375,0.02984471432864666,0.03753059729933739,0.011230017989873886
1769658630976659000,3.620658935546875,0.027600202709436417,0.024692030623555183,0.023095466196537018
1769658630986646500,3.630646484375,0.024453144520521164,0.025656094774603844,0.033906299620866776
1769658630996634600,3.640634521484375,0.024326644837856293,0.03380829840898514,0.028669195249676704
1769658631006622700,3.650622802734375,0.02177480421960354,0.031186414882540703,0.014489460736513138
1769658631016610800,3.66061083984375,0.020789435133337975,0.03397820517420769,0.006892260629683733
1769658631026597600,3.67059765625,0.024109596386551857,0.039201200008392334,0.009351157583296299
1769658631036585700,3.680585693359375,0.02490987628698349,0.046008236706256866,0.013490241952240467
1769658631046573600,3.690573486328125,0.02672748453915119,0.05276041477918625,0.014504107646644115
1769658631056561700,3.700561767578125,0.027768779546022415,0.04929111525416374,0.0049643986858427525
1769658631066549800,3.7105498046875,0.028914738446474075,0.04417252168059349,-0.0073655047453939915
1769658631076536600,3.72053662109375,0.029639385640621185,0.04375866428017616,-0.021989455446600914
1769658631086524700,3.730524658203125,0.029581326991319656,0.054971639066934586,-0.026340793818235397
1769658631096512800,3.7405126953125,0.03199415281414986,0.06205884367227554,-0.028564000502228737
1769658631106500600,3.75050048828125,0.03490445390343666,0.07462017238140106,-0.03014352172613144
1769658631116488700,3.76048876953125,0.03591379150748253,0.07912810891866684,-0.03489353507757187
1769658631126476800,3.770476806640625,0.033787790685892105,0.06534278392791748,-0.03202744200825691
1769658631136463600,3.780463623046875,0.030115291476249695,0.04464150220155716,-0.027547737583518028
1769658631146451700,3.79045166015625,0.022099975496530533,0.029858296737074852,-0.01618163287639618
1769658631156439800,3.800439697265625,0.01689962111413479,0.025421204045414925,-0.00643845833837986
1769658631166428000,3.810427978515625,0.013406885787844658,0.021084245294332504,-0.007782822009176016
1769658631176415700,3.820415771484375,0.0075812204740941525,0.013198626227676868,-0.010521084070205688
1769658631186402800,3.83040283203125,0.001285241567529738,0.0003802994033321738,-0.010336260311305523
1769658631196390700,3.840390625,-0.0081514036282897,-0.009967412799596786,-0.007741276640444994
1769658631206378800,3.850378662109375,-0.012711267918348312,-0.0171454306691885,-0.00498197553679347
1769658631216366800,3.860366943359375,-0.013863084837794304,-0.023559654131531715,-0.008196677081286907
1769658631226355000,3.87035498046875,-0.015183746814727783,-0.02257614955306053,-0.01636778749525547
1769658631236341800,3.880341796875,-0.015116102062165737,-0.020627513527870178,-0.02147413231432438
1769658631246329900,3.890329833984375,-0.01073813159018755,-0.020444555208086967,-0.024104537442326546
1769658631256318000,3.90031787109375,-0.004002198576927185,-0.017315873876214027,-0.024036094546318054
1769658631266305800,3.910305908203125,0.003689276985824108,-0.00962706096470356,-0.023514647036790848
1769658631276293600,3.920293701171875,0.010958908125758171,0.0016623451374471188,-0.025134114548563957
1769658631286281700,3.93028173828125,0.011630557477474213,0.011572233401238918,-0.02648407220840454
1769658631296268800,3.940268798828125,0.004463724326342344,0.011777297593653202,-0.025563949719071388
1769658631306257000,3.9502568359375,-0.001930525409989059,0.0020485036075115204,-0.026979153975844383
1769658631316244700,3.96024462890625,-0.004288222175091505,-0.014092915691435337,-0.02426059916615486
1769658631326232600,3.970232666015625,-0.003878627670928836,-0.01293337531387806,-0.018246648833155632
1769658631336220700,3.980220703125,-0.0006703176186420023,-0.006397445686161518,-0.014487596228718758
1769658631346207700,3.990207763671875,0.0030453247018158436,-0.006518619135022163,-0.01552356593310833
1769658631356195600,4.000195556640625,0.0035571842454373837,-0.0032626385800540447,-0.015452193096280098
1769658631366183700,4.01018359375,0.003064233111217618,-0.0024202808272093534,-0.014457502402365208
1769658631376171800,4.020171875,-0.001973136095330119,-0.006971622817218304,-0.01221831701695919
1769658631386159600,4.03015966796875,-0.0036701022181659937,-0.0046999468468129635,-0.01179087907075882
1769658631396146700,4.040146728515625,-0.0037377465050667524,-0.0025901903863996267,-0.008254201151430607
1769658631406134800,4.050134765625,0.00017097493400797248,0.002823217073455453,-0.009212139993906021
1769658631416122600,4.06012255859375,0.0026642263401299715,0.011839615181088448,-0.016168583184480667
1769658631426110700,4.07011083984375,0.004716191906481981,0.011861719191074371,-0.02076253667473793
1769658631436098800,4.080098876953125,0.004220577888190746,0.007148989476263523,-0.02480068802833557
1769658631446086700,4.090086669921875,0.004142280668020248,0.003315103007480502,-0.024285897612571716
1769658631456073700,4.10007373046875,0.005775863770395517,0.0051715923473238945,-0.021700767800211906
1769658631466061800,4.110061767578125,0.005859486758708954,0.011985822580754757,-0.023505326360464096
1769658631476049700,4.120049560546875,0.0015251922886818647,0.022124210372567177,-0.03253823518753052
1769658631486037800,4.130037841796875,-0.002695385366678238,0.026020947843790054,-0.043363720178604126
1769658631496025900,4.14002587890625,-0.007407582364976406,0.029438316822052002,-0.04911987483501434
1769658631506012700,4.1500126953125,-0.011129084043204784,0.022875487804412842,-0.04906022176146507
1769658631516000800,4.160000732421875,-0.010214554145932198,0.017317205667495728,-0.04489104077219963
1769658631525988900,4.16998876953125,-0.010958375409245491,0.0057287258096039295,-0.03819425776600838
1769658631535976700,4.179976806640625,-0.008129831403493881,-0.0001030643325066194,-0.031860195100307465
1769658631545964800,4.18996484375,-0.004972121678292751,0.004210990387946367,-0.022601982578635216
1769658631555953000,4.199952880859375,-0.0027001791168004274,0.011287009343504906,-0.01744263991713524
1769658631565939700,4.209939697265625,0.0004644552827812731,0.009877131320536137,-0.01576032117009163
1769658631575927800,4.219927734375,0.0037848844658583403,0.009557019919157028,-0.015176289714872837
1769658631585916000,4.229916015625,0.0016817862633615732,0.010083792731165886,-0.012695289216935635
1769658631595903700,4.23990380859375,-0.004682635888457298,0.014483069069683552,-0.013488911092281342
1769658631605891600,4.2498916015625,-0.014637798070907593,0.014991199597716331,-0.02177906408905983
1769658631615879000,4.25987890625,-0.020172646269202232,0.010299775749444962,-0.0344700925052166
1769658631625866800,4.26986669921875,-0.020600616931915283,0.0019126823171973228,-0.039932768791913986
1769658631635854800,4.279854736328125,-0.019412580877542496,-0.006194512825459242,-0.03395716845989227
1769658631645842700,4.2898427734375,-0.01398798730224371,-0.004195011220872402,-0.020625649020075798
1769658631655830800,4.299830810546875,-0.009317069314420223,0.0006221143994480371,-0.010717359371483326
1769658631665818600,4.309818603515625,-0.006619553081691265,0.008477107621729374,-0.009159942157566547
1769658631675805700,4.3198056640625,-0.005110073368996382,0.015935823321342468,-0.018064221367239952
1769658631685793500,4.32979345703125,-0.00466559175401926,0.02220064401626587,-0.026922160759568214
1769658631695781600,4.33978173828125,-0.0038368161767721176,0.01961684413254261,-0.03431376442313194
1769658631705769700,4.349769775390625,-0.003311640815809369,0.019592875614762306,-0.034803520888090134
1769658631715757800,4.3597578125,-0.0038780951872467995,0.023210514336824417,-0.029950708150863647
1769658631725744600,4.36974462890625,-0.006059756502509117,0.019942283630371094,-0.025309616699814796
1769658631735732700,4.379732666015625,-0.007733819540590048,0.011197526939213276,-0.022607574239373207
1769658631745720600,4.389720458984375,-0.011051319539546967,0.0021795309148728848,-0.019100723788142204
1769658631755708700,4.399708740234375,-0.016029300168156624,-0.0005089300684630871,-0.01853347010910511
1769658631765696800,4.40969677734375,-0.020683972164988518,0.004238686989992857,-0.017539313063025475
1769658631775684900,4.419684814453125,-0.018695656210184097,0.009822270832955837,-0.01889432966709137
1769658631785671700,4.429671630859375,-0.017410948872566223,0.016020778566598892,-0.02040620520710945
1769658631795659800,4.43965966796875,-0.013134444132447243,0.017723336815834045,-0.024942101910710335
1769658631805648000,4.44964794921875,-0.01028725877404213,0.012292086146771908,-0.024331705644726753
1769658631815635700,4.4596357421875,-0.00945129245519638,0.010688330978155136,-0.028663335368037224
1769658631825623800,4.469623779296875,-0.011393003165721893,0.01709882542490959,-0.029866551980376244
1769658631835610600,4.479610595703125,-0.008580172434449196,0.02124110609292984,-0.025858761742711067
1769658631845598700,4.4895986328125,-0.007790278643369675,0.018607240170240402,-0.021163076162338257
1769658631855586800,4.4995869140625,-0.00851279404014349,0.014523549005389214,-0.020321782678365707
1769658631865575000,4.509574951171875,-0.01065131276845932,0.018451178446412086,-0.02425980009138584
1769658631875562800,4.519562744140625,-0.012472381815314293,0.025427594780921936,-0.03309457004070282
1769658631885550800,4.52955078125,-0.013265205547213554,0.02424968034029007,-0.03424345701932907
1769658631895538000,4.539537841796875,-0.011511247605085373,0.031860727816820145,-0.0321294404566288
1769658631905525800,4.54952587890625,-0.008492021821439266,0.032352615147829056,-0.03359124809503555
1769658631915513900,4.559513916015625,-0.005619269795715809,0.03377847000956535,-0.03248843550682068
1769658631925501700,4.569501708984375,0.00018375810759607702,0.03599182143807411,-0.031571242958307266
1769658631935489500,4.579489501953125,0.0026114957872778177,0.02803243324160576,-0.02857039123773575
1769658631945476900,4.589476806640625,0.004004861693829298,0.0277932807803154,-0.02894563227891922
1769658631955465000,4.59946484375,0.003990747034549713,0.04415521025657654,-0.03223197162151337
1769658631965452800,4.609452880859375,0.003640807466581464,0.05553250014781952,-0.0364682637155056
1769658631975441000,4.61944091796875,0.0028008464723825455,0.060801565647125244,-0.04228753596544266
1769658631985428700,4.6294287109375,0.0030892668291926384,0.055988434702157974,-0.05001336708664894
1769658631995416800,4.639416748046875,0.001591505017131567,0.05305815860629082,-0.05639217048883438
1769658632005404000,4.64940380859375,0.0009598032338544726,0.04752650484442711,-0.060800231993198395
1769658632015391700,4.659391845703125,0.0011110707418993115,0.04610970616340637,-0.059841763228178024
1769658632025379800,4.6693798828125,0.002441585995256901,0.057018011808395386,-0.05789339169859886
1769658632035368000,4.679367919921875,0.011914449743926525,0.06512147933244705,-0.06088625267148018
1769658632045355800,4.689355712890625,0.01702798530459404,0.0577772781252861,-0.05582784488797188
1769658632055342800,4.6993427734375,0.01757792755961418,0.04994279146194458,-0.05072442814707756
1769658632065331000,4.7093310546875,0.014936605468392372,0.05223817005753517,-0.04356798529624939
1769658632075318800,4.71931884765625,0.010639594867825508,0.050939347594976425,-0.0494714118540287
1769658632085307000,4.729306884765625,0.004532167688012123,0.044010866433382034,-0.05730164051055908
1769658632095295000,4.739294921875,-0.0015627428656443954,0.028210066258907318,-0.05985454469919205
1769658632105283000,4.749282958984375,-0.006188653875142336,0.014301707968115807,-0.05826623737812042
1769658632115270000,4.759269775390625,-0.004454935900866985,0.007924501784145832,-0.047078561037778854
1769658632125258000,4.769258056640625,-0.0012013519881293178,-0.0015773903578519821,-0.030793333426117897
1769658632135245800,4.779245849609375,-0.0006538060260936618,-0.009986321441829205,-0.019830962643027306
1769658632145234000,4.78923388671875,-0.0011712582781910896,-0.010725348256528378,-0.014063354581594467
1769658632155222000,4.799221923828125,0.0006580671179108322,-0.010420949198305607,-0.013626063242554665
1769658632165208800,4.809208740234375,0.0024945829063653946,-0.013945110142230988,-0.012566924095153809
1769658632175197000,4.819197021484375,0.0027659591287374496,-0.015736619010567665,-0.014496118761599064
1769658632185185000,4.82918505859375,-0.0006820355774834752,-0.017590444535017014,-0.018199244514107704
1769658632195173000,4.839173095703125,-0.0011741877533495426,-0.020956147462129593,-0.022220883518457413
1769658632205161000,4.849160888671875,-0.004658135119825602,-0.016744624823331833,-0.0198685135692358
1769658632215148800,4.859148681640625,-0.004278901033103466,-0.010814031586050987,-0.013127253390848637
1769658632225135900,4.869135986328125,-0.002127066720277071,-0.0015430354978889227,-0.012441223487257957
1769658632235124000,4.8791240234375,0.0012484899489209056,0.009459547698497772,-0.014629542827606201
1769658632245112000,4.889112060546875,0.0009643306257203221,0.021096229553222656,-0.017776334658265114
1769658632255100000,4.899099853515625,0.00037470675306394696,0.022180669009685516,-0.015532620251178741
1769658632265087700,4.909087646484375,0.0031585090328007936,0.02057185396552086,-0.017680726945400238
1769658632275075000,4.919074951171875,0.003427488263696432,0.014566692523658276,-0.01689988747239113
1769658632285063000,4.92906298828125,0.008725847117602825,0.013354155234992504,-0.010384996421635151
1769658632295050800,4.93905078125,0.008987902663648129,0.019232816994190216,-0.009404154494404793
1769658632305038800,4.949038818359375,0.007112238090485334,0.02796931564807892,-0.014432468451559544
1769658632315027000,4.95902685546875,0.0070278155617415905,0.029446039348840714,-0.019588083028793335
1769658632325014800,4.969014892578125,0.00923317950218916,0.03194967657327652,-0.023911191150546074
1769658632335001900,4.979001953125,0.013376525603234768,0.03815777227282524,-0.02105868048965931
1769658632344990000,4.988989990234375,0.019161976873874664,0.043890759348869324,-0.011448929086327553
1769658632354977800,4.998977783203125,0.021819012239575386,0.05019925534725189,-0.005029379855841398
1769658632364966000,5.0089658203125,0.017376594245433807,0.05029912292957306,-0.005288239102810621
1769658632374954000,5.0189541015625,0.015606923028826714,0.0442873015999794,-0.003674629610031843
1769658632384940800,5.02894091796875,0.010716826654970646,0.03166445344686508,-0.0028551749419420958
1769658632394929000,5.038928955078125,0.00959856528788805,0.02028529718518257,-0.0001246359315700829
1769658632404917000,5.0489169921875,0.014101704582571983,0.01793292723596096,0.00893570389598608
1769658632414904800,5.05890478515625,0.01654275692999363,0.01655207946896553,0.01877768151462078
1769658632424893000,5.068892822265625,0.01793479174375534,0.02917599491775036,0.025894980877637863
1769658632434881000,5.078881103515625,0.016112390905618668,0.029076924547553062,0.024322383105754852
1769658632444867800,5.088867919921875,0.01375096570700407,0.0256973747164011,0.011873703449964523
1769658632454856000,5.09885595703125,0.008550344966351986,0.029166407883167267,0.005529787857085466
1769658632464844000,5.108843994140625,0.004838431254029274,0.02364247851073742,0.005703425966203213
1769658632474832000,5.118831787109375,0.004944957327097654,0.019392872229218483,0.006150304339826107
1769658632484820000,5.128820068359375,0.004334028344601393,0.015562714077532291,0.009080047719180584
1769658632494808000,5.13880810546875,0.005121791269630194,0.013390639796853065,0.015362977050244808
1769658632504795000,5.148794921875,0.008531436324119568,0.010427074506878853,0.017915084958076477
1769658632514783000,5.158782958984375,0.0047119311057031155,0.00826991442590952,0.01894306391477585
1769658632524771000,5.16877099609375,0.002156361471861601,0.005105546209961176,0.015673501417040825
1769658632534759000,5.178759033203125,-0.006841128226369619,-0.0036277580074965954,0.013589578680694103
1769658632544746800,5.188746826171875,-0.012960539199411869,-0.008924518711864948,0.013942447490990162
1769658632554734000,5.198734130859375,-0.019715648144483566,-0.012675315141677856,0.01660960353910923
1769658632564722000,5.208721923828125,-0.01823812536895275,-0.012022308073937893,0.02213939093053341
1769658632574710000,5.2187099609375,-0.011113370768725872,-0.01022707112133503,0.023025691509246826
1769658632584697900,5.22869775390625,-0.00458809407427907,-0.011657188646495342,0.022966569289565086
1769658632594685700,5.238685791015625,-0.00037923414492979646,-0.012731773778796196,0.015136342495679855
1769658632604673800,5.248673828125,0.0015611450653523207,-0.009386844001710415,0.01595127023756504
1769658632614660900,5.258660888671875,0.0010426276130601764,-0.0018301242962479591,0.013256150297820568
1769658632624648700,5.268648681640625,-0.002746518002822995,0.004825115203857422,0.0084275733679533
1769658632634636800,5.27863671875,-0.009761284105479717,0.007361243478953838,0.002755572786554694
1769658632644625000,5.288625,-0.009893643669784069,0.005359877832233906,-0.0016202671686187387
1769658632654613000,5.298613037109375,-0.00860467366874218,-0.0002103897277265787,-0.0022327941842377186
1769658632664600800,5.308600830078125,-0.005902630276978016,-0.007450459524989128,0.0006609965930692852
1769658632674588000,5.318587890625,-0.002288188086822629,-0.012105398811399937,0.002088983543217182
1769658632684575700,5.32857568359375,0.0010634001810103655,-0.01239248737692833,0.0016207997687160969
1769658632694563800,5.338563720703125,-0.00019148127466905862,-0.006599579472094774,0.002715891692787409
1769658632704552000,5.348552001953125,-0.0009113337146118283,-0.004428304266184568,0.006454437039792538
1769658632714540000,5.3585400390625,0.000056459015468135476,-0.0019499665359035134,0.013197294436395168
1769658632724526800,5.36852685546875,0.0007147924043238163,-0.004883171990513802,0.016379771754145622
1769658632734515000,5.378514892578125,-0.0011555455857887864,-0.013472133316099644,0.017537448555231094
1769658632744503000,5.3885029296875,-0.004110322799533606,-0.01739789918065071,0.01882695034146309
1769658632754491000,5.398490966796875,-0.003867442486807704,-0.02245071344077587,0.018915900960564613
1769658632764479000,5.40847900390625,-0.003975833300501108,-0.023384951055049896,0.01552463136613369
1769658632774467000,5.418467041015625,-0.005260808393359184,-0.008084824308753014,0.01619255170226097
1769658632784454000,5.428453857421875,-0.0004990763845853508,-0.009074455127120018,0.02076120488345623
1769658632794442000,5.43844189453125,0.0024474449455738068,-0.0173795223236084,0.02057824470102787
1769658632804430000,5.44843017578125,0.00552366254851222,-0.01900857873260975,0.016448214650154114
1769658632814418000,5.45841796875,0.006054696626961231,-0.010660633444786072,0.01894572749733925
1769658632824406000,5.468406005859375,0.003942543640732765,-0.00640756543725729,0.01914280094206333
1769658632834393900,5.478393798828125,0.004544684197753668,-0.005257346201688051,0.013033776544034481
1769658632844381000,5.488380859375,0.0026786073576658964,-0.001889246515929699,0.006628341507166624
1769658632854369000,5.498369140625,0.002514290390536189,0.005534315016120672,0.003623230615630746
1769658632864357000,5.508357177734375,0.0028192223981022835,0.013549630530178547,-0.004058923572301865
1769658632874344700,5.5183447265625,0.0032778186723589897,0.017410416156053543,-0.008226238191127777
1769658632884332800,5.528332763671875,0.0029025792609900236,0.01549480389803648,-0.001356347929686308
1769658632894320000,5.538320068359375,0.005851763766258955,0.013048158027231693,0.008591091260313988
1769658632904308000,5.548307861328125,0.01182230468839407,0.015218101441860199,0.018254637718200684
1769658632914295800,5.5582958984375,0.015519305132329464,0.02184191532433033,0.018082065507769585
1769658632924284000,5.568283935546875,0.018377408385276794,0.02912086807191372,0.010934939607977867
1769658632934271700,5.578271728515625,0.013432984240353107,0.033551301807165146,0.0037955371662974358
1769658632944259800,5.588259765625,0.01190859079360962,0.03530339524149895,0.0023307986557483673
1769658632954246400,5.598246337890625,0.014903315342962742,0.034978754818439484,0.005553755909204483
1769658632964234500,5.608234375,0.020964670926332474,0.0361044742166996,0.0080912159755826
1769658632974222300,5.618222412109375,0.02377377264201641,0.03488101810216904,0.007005178835242987
1769658632984210400,5.62821044921875,0.023442475125193596,0.03807574510574341,0.0032735576387494802
1769658632994198500,5.638198486328125,0.018198978155851364,0.041853174567222595,-0.0009033442474901676
1769658633004185300,5.648185302734375,0.013164804317057133,0.04195890203118324,-0.0051931641064584255
1769658633014173400,5.65817333984375,0.014639662578701973,0.04087712615728378,-0.005899168085306883
1769658633024161500,5.66816162109375,0.019656259566545486,0.03309803083539009,-0.002234392100945115
1769658633034149400,5.6781494140625,0.023257652297616005,0.02449974976480007,0.005164135713130236
1769658633044137500,5.688137451171875,0.022669360041618347,0.020898623391985893,0.008636364713311195
1769658633054125600,5.69812548828125,0.01810310408473015,0.01865517720580101,0.009606554172933102
1769658633064112400,5.7081123046875,0.012486763298511505,0.02153485268354416,0.011425226926803589
1769658633074100500,5.7181005859375,0.008712264709174633,0.029321137815713882,0.013322196900844574
1769658633084088600,5.728088623046875,0.007340204436331987,0.031568579375743866,0.019659455865621567
1769658633094076400,5.738076416015625,0.012689962051808834,0.023868314921855927,0.027484355494379997
1769658633104064500,5.748064453125,0.009003615006804466,0.012530705891549587,0.027889687567949295
1769658633114052600,5.758052490234375,0.0043593281880021095,0.0022064289078116417,0.017126256600022316
1769658633124039400,5.768039306640625,-0.004185690078884363,-0.002793655963614583,0.006868292577564716
1769658633134027500,5.778027587890625,-0.011469169519841671,-0.007685882970690727,0.003997937310487032
1769658633144015600,5.788015625,-0.008706938475370407,-0.010419084690511227,0.010068080388009548
1769658633154003500,5.79800341796875,-0.0023784691002219915,-0.007296528667211533,0.017468739300966263
1769658633163991600,5.807991455078125,0.009709086269140244,-0.003994475118815899,0.02359001524746418
1769658633173979600,5.817979736328125,0.013550962321460247,-0.0023462448734790087,0.021887188777327538
1769658633183966500,5.827966552734375,0.010719489306211472,-0.00009214537567459047,0.015233813785016537
1769658633193954600,5.83795458984375,0.008735168725252151,0.0029462550301104784,0.012999688275158405
1769658633203942700,5.847942626953125,0.003765443339943886,0.0013627394801005721,0.015744341537356377
1769658633213930500,5.857930419921875,0.005535646807402372,-0.0006988134700804949,0.010558901354670525
1769658633223918300,5.86791845703125,0.002773682354018092,0.0008263788768090308,0.006620884872972965
1769658633233905700,5.87790576171875,-0.0013275857781991363,0.003971039317548275,0.00350365461781621
1769658633243893500,5.8878935546875,-0.007489341776818037,0.005156146362423897,0.005518602207303047
1769658633253881300,5.89788134765625,-0.005951365921646357,0.002766491612419486,0.010037720203399658
1769658633263869400,5.907869384765625,-0.003513242118060589,-0.005628857295960188,0.008199340663850307
1769658633273857500,5.917857421875,-0.0027230822015553713,-0.003579554846510291,0.0052080778405070305
1769658633283845400,5.927845458984375,-0.002959837205708027,0.0003299656673334539,0.00436119269579649
1769658633293832400,5.93783251953125,-0.0034533210564404726,0.005721002817153931,-0.0003307645965833217
1769658633303820500,5.947820556640625,-0.001371527905575931,0.0073327478021383286,-0.0078571243211627
1769658633313808400,5.957808349609375,-0.00005965480886516161,0.0016266588354483247,-0.009002016857266426
1769658633323796500,5.96779638671875,0.0009496832499280572,-0.0056983656249940395,-0.010016947984695435
1769658633333784600,5.97778466796875,0.00023515711654908955,-0.009606554172933102,-0.008413990959525108
1769658633343771400,5.987771484375,-0.0032530513126403093,-0.009831325151026249,-0.008165784180164337
1769658633353759500,5.997759521484375,-0.0004223773430567235,-0.0027715517207980156,-0.0068206219002604485
1769658633363747600,6.00774755859375,0.0027361316606402397,0.009731456637382507,-0.01245294138789177
1769658633373735400,6.0177353515625,0.002734001260250807,0.004732437431812286,-0.02014814503490925
1769658633383723500,6.0277236328125,0.003968642558902502,0.007633684668689966,-0.017901768907904625
1769658633393711600,6.037711669921875,0.00902678444981575,0.01889139972627163,-0.015209312550723553
1769658633403698400,6.047698486328125,0.0059660132974386215,0.02377537079155445,-0.010250240564346313
1769658633413686500,6.0576865234375,0.00749173853546381,0.022777751088142395,-0.007158843334764242
1769658633423674600,6.067674560546875,0.003716441337019205,0.01281433179974556,-0.010163155384361744
1769658633433662500,6.077662353515625,-0.0017507621087133884,0.003495398908853531,-0.012912336736917496
1769658633443650600,6.087650634765625,-0.006431001238524914,-0.0009587379754520953,-0.015685219317674637
1769658633453638700,6.097638671875,-0.006215019151568413,0.001728924224153161,-0.01618056744337082
1769658633463625500,6.10762548828125,-0.004381965380162001,0.011770639568567276,-0.016713466495275497
1769658633473613600,6.117613525390625,-0.002153165638446808,0.022964704781770706,-0.018860239535570145
1769658633483601700,6.1276015625,0.0016527577536180615,0.029460687190294266,-0.019589412957429886
1769658633493589500,6.137589599609375,0.0046211169101297855,0.027308586984872818,-0.023917317390441895
1769658633503577300,6.147577392578125,0.007286408916115761,0.02213459648191929,-0.02514583244919777
1769658633513565400,6.1575654296875,0.009574064053595066,0.022830747067928314,-0.021026721224188805
1769658633523552500,6.167552490234375,0.012528841383755207,0.025648105889558792,-0.016231434419751167
1769658633533540600,6.17754052734375,0.01534753106534481,0.024887505918741226,-0.013951235450804234
1769658633543528400,6.187528564453125,0.012750682421028614,0.025844646617770195,-0.010845723561942577
1769658633553516300,6.197516357421875,0.009281915612518787,0.02027943916618824,-0.007233412005007267
1769658633563504400,6.20750439453125,0.005564675200730562,0.013489710167050362,-0.008476841263473034
1769658633573492500,6.217492431640625,0.0012261193478479981,0.00561207951977849,-0.012250540778040886
1769658633583479300,6.227479248046875,-0.0021499700378626585,0.006097573786973953,-0.010898454114794731
1769658633593467400,6.23746728515625,-0.0008372978190891445,0.006816893350332975,-0.008183893747627735
1769658633603455500,6.24745556640625,0.003463707398623228,0.006148173473775387,-0.00003328951424919069
1769658633613443300,6.257443359375,0.004804875236004591,0.011575163342058659,0.0037856835406273603
1769658633623431400,6.267431396484375,0.004830974154174328,0.014670022763311863,-0.0026849990244954824
1769658633633418500,6.27741845703125,0.003465837799012661,0.01648709736764431,-0.0060357884503901005
1769658633643406300,6.28740625,0.0019358517602086067,0.01950046420097351,-0.013729394413530827
1769658633653394400,6.29739453125,0.0023217438720166683,0.019471967592835426,-0.014590660110116005
1769658633663382500,6.307382568359375,0.0035683694295585155,0.024227840825915337,-0.014270282350480556
1769658633673370600,6.31737060546875,0.004911135416477919,0.027302460744976997,-0.01762746274471283
1769658633683358500,6.3273583984375,0.0002985403698403388,0.025737853720784187,-0.02455141581594944
1769658633693345500,6.337345458984375,-0.0005515406373888254,0.024833710864186287,-0.028244953602552414
1769658633703333400,6.34733349609375,-0.0005896238726563752,0.019107913598418236,-0.02473410777747631
1769658633713321500,6.357321533203125,0.0007741809240542352,0.01763971336185932,-0.018989402800798416
1769658633723309600,6.3673095703125,0.002240517409518361,0.023121031001210213,-0.012988236732780933
1769658633733297700,6.377297607421875,0.002234125742688775,0.025733059272170067,-0.011150921694934368
1769658633743285500,6.387285400390625,0.00013928332191426307,0.02256815880537033,-0.015719307586550713
1769658633753272600,6.3972724609375,-0.0017979000695049763,0.0231748279184103,-0.02281210571527481
1769658633763260700,6.4072607421875,-0.0034786208998411894,0.017040502279996872,-0.02773735485970974
1769658633773248500,6.41724853515625,-0.00469515286386013,0.010189520195126534,-0.026522153988480568
1769658633783236600,6.427236572265625,-0.001862614881247282,0.008582568727433681,-0.025013208389282227
1769658633793224400,6.437224365234375,0.0011880361707881093,0.0013627394801005721,-0.02118091844022274
1769658633803211500,6.44721142578125,0.004144677426666021,-0.0027478495612740517,-0.01890631392598152
1769658633813199600,6.45719970703125,0.003840544493868947,0.00036938043194822967,-0.020747356116771698
1769658633823187700,6.467187744140625,-0.0017800568602979183,0.006779609248042107,-0.023274162784218788
1769658633833175300,6.47717529296875,-0.0070552462711930275,0.008608668111264706,-0.029647907242178917
1769658633843163400,6.487163330078125,-0.010838532820343971,0.012710735201835632,-0.03588050231337547
1769658633853151500,6.4971513671875,-0.008570585399866104,0.010815363377332687,-0.03766215592622757
1769658633863138600,6.507138671875,-0.004956408869475126,0.004257861990481615,-0.033304426819086075
1769658633873126400,6.51712646484375,-0.00035952674807049334,-0.007819040678441525,-0.02520761825144291
1769658633883114500,6.527114501953125,0.003585413796827197,-0.01751001738011837,-0.020845627412199974
1769658633893102300,6.537102294921875,0.0034346787724643946,-0.016020778566598892,-0.026679547503590584
1769658633903090400,6.54709033203125,-0.0015875103417783976,-0.007211041171103716,-0.03407621011137962
1769658633913078500,6.55707861328125,-0.011285943910479546,-0.007938883267343044,-0.04103265330195427
1769658633923065300,6.5670654296875,-0.013562946580350399,-0.013915549032390118,-0.04692809283733368
1769658633933053400,6.577053466796875,-0.013578658923506737,-0.020239757373929024,-0.04727723449468613
1769658633943041500,6.58704150390625,-0.011687815189361572,-0.027414314448833466,-0.039733562618494034
1769658633953030100,6.597030029296875,-0.013551228679716587,-0.04122147336602211,-0.031190942972898483
1769658633963018000,6.60701806640625,-0.016834640875458717,-0.04204199090600014,-0.0311089176684618
1769658633973006000,6.617006103515625,-0.01798699051141739,-0.04394588619470596,-0.034743599593639374
1769658633982993000,6.626992919921875,-0.01955772191286087,-0.041615087538957596,-0.039616383612155914
1769658633992981000,6.63698095703125,-0.015667377039790154,-0.03531910851597786,-0.038893070071935654
1769658634002969000,6.646968994140625,-0.0101375887170434,-0.03568609058856964,-0.03314756602048874
1769658634012957200,6.656957275390625,-0.005350823048502207,-0.03580273687839508,-0.025248631834983826
1769658634022945000,6.666945068359375,-0.005213137716054916,-0.028482507914304733,-0.0181177519261837
1769658634032933000,6.67693310546875,-0.0051681301556527615,-0.021764418110251427,-0.016342220827937126
1769658634042920200,6.686920166015625,-0.0013076120521873236,-0.017244767397642136,-0.01581757888197899
1769658634052908000,6.696907958984375,0.0013875069562345743,-0.015358183532953262,-0.013007677160203457
1769658634062896000,6.706896240234375,0.002987001556903124,-0.015730226412415504,-0.010855576954782009
1769658634072884000,6.716884033203125,0.0007331682136282325,-0.02148185670375824,-0.00965529028326273
1769658634082871800,6.726871826171875,-0.002892725635319948,-0.028422852978110313,-0.006806507240980864
1769658634092860000,6.73685986328125,-0.008078699000179768,-0.03717240318655968,-0.002514556748792529
1769658634102847000,6.746846923828125,-0.006858438719063997,-0.04177461192011833,-0.0015078817959874868
1769658634112834800,6.756834716796875,-0.0044346959330141544,-0.032101478427648544,-0.0010191916953772306
1769658634122823000,6.766822998046875,0.0006463492172770202,-0.022116221487522125,-0.00503896689042449
1769658634132811000,6.77681103515625,0.0015952334506437182,-0.021615546196699142,-0.008696552366018295
1769658634142798800,6.786798828125,-0.0012825783342123032,-0.028540831059217453,-0.013834056444466114
1769658634152787000,6.796786865234375,-0.005495965480804443,-0.039504531770944595,-0.021812887862324715
1769658634162774000,6.80677392578125,-0.011446000076830387,-0.045455366373062134,-0.030158700421452522
1769658634172761900,6.816761962890625,-0.015626629814505577,-0.04975104331970215,-0.03321174904704094
1769658634182750000,6.82675,-0.013672934845089912,-0.05426457151770592,-0.035837892442941666
1769658634192738000,6.836738037109375,-0.010382067412137985,-0.05091378092765808,-0.03695961460471153
1769658634202726000,6.846725830078125,-0.014238324016332626,-0.04644952341914177,-0.045331262052059174
1769658634212714000,6.8567138671875,-0.021440843120217323,-0.04858111962676048,-0.054366037249565125
1769658634222701000,6.866701171875,-0.02750379592180252,-0.05975467711687088,-0.06234859675168991
1769658634232689000,6.87668896484375,-0.03369910642504692,-0.0701063871383667,-0.06400321424007416
1769658634242677000,6.886677001953125,-0.030847927555441856,-0.07564682513475418,-0.06956150382757187
1769658634252665000,6.8966650390625,-0.02690538391470909,-0.08601131290197372,-0.06863898038864136
1769658634262653200,6.906653076171875,-0.01955932006239891,-0.09124309569597244,-0.06378989666700363
1769658634272640000,6.916639892578125,-0.018126273527741432,-0.09551826864480972,-0.05404805392026901
1769658634282628000,6.926628173828125,-0.01980726048350334,-0.10124379396438599,-0.05095559358596802
1769658634292616000,6.936615966796875,-0.026456907391548157,-0.10732831805944443,-0.049388587474823
1769658634302604000,6.94660400390625,-0.03437448665499687,-0.116392120718956,-0.05252312868833542
1769658634312592100,6.956592041015625,-0.03759770840406418,-0.11853756755590439,-0.05560920014977455
1769658634322580200,6.966580322265625,-0.04297143593430519,-0.114738829433918,-0.06180957332253456
1769658634332567000,6.976567138671875,-0.04463990405201912,-0.10641858726739883,-0.06055522337555885
1769658634342555100,6.98655517578125,-0.04549398273229599,-0.09808182716369629,-0.06368789821863174
1769658634352543000,6.99654296875,-0.04254825785756111,-0.1041162833571434,-0.06654227524995804
1769658634362531000,7.006531005859375,-0.0385146364569664,-0.11486399918794632,-0.06294407695531845
1769658634372519000,7.016518798828125,-0.035782232880592346,-0.12656593322753906,-0.054733287543058395
1769658634382507000,7.026507080078125,-0.03160293400287628,-0.12668576836585999,-0.04583060368895531
1769658634392494000,7.036494140625,-0.028142422437667847,-0.1218007355928421,-0.0421099029481411
1769658634402482000,7.04648193359375,-0.023480292409658432,-0.11480195075273514,-0.04008110612630844
1769658634412470000,7.056469970703125,-0.019645340740680695,-0.0958586186170578,-0.03786296024918556
1769658634422457900,7.066457763671875,-0.011665711179375648,-0.09460613131523132,-0.03750529885292053
1769658634432446000,7.076446044921875,-0.004247475415468216,-0.10218895226716995,-0.03683631122112274
1769658634442434000,7.08643408203125,-0.0024463797453790903,-0.09402529895305634,-0.03744670748710632
1769658634452420900,7.0964208984375,-0.005606220569461584,-0.08784542977809906,-0.044466532766819
1769658634462409000,7.106408935546875,-0.017067400738596916,-0.09132884442806244,-0.04826712980866432
1769658634472397000,7.11639697265625,-0.032452214509248734,-0.08321952074766159,-0.05579029396176338
1769658634482385000,7.126385009765625,-0.04006992280483246,-0.08519106358289719,-0.057797517627477646
1769658634492373000,7.136373046875,-0.03911571204662323,-0.10764709860086441,-0.05402088910341263
1769658634502361000,7.146361083984375,-0.03608876094222069,-0.11725977808237076,-0.047680702060461044
1769658634512348000,7.156347900390625,-0.03373612463474274,-0.09365245699882507,-0.04514484107494354
1769658634522336000,7.1663359375,-0.02516048029065132,-0.10944367200136185,-0.0496373288333416
1769658634532324000,7.176323974609375,-0.027153324335813522,-0.12412567436695099,-0.0524568147957325
1769658634542312000,7.18631201171875,-0.026667296886444092,-0.12549108266830444,-0.054429952055215836
1769658634552300000,7.196300048828125,-0.02785506658256054,-0.13291117548942566,-0.05176199600100517
1769658634562288000,7.2062880859375,-0.027591414749622345,-0.1435643583536148,-0.04591928794980049
1769658634572275000,7.21627490234375,-0.028429776430130005,-0.14384718239307404,-0.04647402465343475
1769658634582263000,7.226262939453125,-0.03379764407873154,-0.13503770530223846,-0.045821018517017365
1769658634592251100,7.236251220703125,-0.0403897687792778,-0.129464253783226,-0.05242565646767616
1769658634602239000,7.246239013671875,-0.047450341284275055,-0.11460141092538834,-0.05169488489627838
1769658634612227000,7.25622705078125,-0.04258660972118378,-0.11672235280275345,-0.050508446991443634
1769658634622215000,7.26621484375,-0.04116634652018547,-0.12965013086795807,-0.04782291501760483
1769658634632202000,7.276201904296875,-0.040935713797807693,-0.13532480597496033,-0.04773370176553726
1769658634642190000,7.286190185546875,-0.045406095683574677,-0.14605121314525604,-0.047096673399209976
1769658634652178200,7.29617822265625,-0.052630454301834106,-0.1522505283355713,-0.045468416064977646
1769658634662165800,7.306165771484375,-0.05968383699655533,-0.1553690880537033,-0.04392404854297638
1769658634672153900,7.31615380859375,-0.06683016568422318,-0.1606312245130539,-0.04096074774861336
1769658634682142000,7.326141845703125,-0.06772658228874207,-0.17132994532585144,-0.041792720556259155
1769658634692129000,7.33612890625,-0.06595291942358017,-0.1871373951435089,-0.04319567233324051
1769658634702116900,7.346116943359375,-0.06434756517410278,-0.18894994258880615,-0.03852954879403114
1769658634712105000,7.35610498046875,-0.06282556802034378,-0.17120769619941711,-0.0324905663728714
1769658634722093000,7.366093017578125,-0.057379402220249176,-0.14419978857040405,-0.03636226803064346
1769658634732081000,7.376080810546875,-0.04394295811653137,-0.14634762704372406,-0.04039030149579048
1769658634742069000,7.386069091796875,-0.03592524304986,-0.13540123403072357,-0.042327482253313065
1769658634752055800,7.396055908203125,-0.03701181337237358,-0.11325864493846893,-0.054248858243227005
1769658634762044000,7.4060439453125,-0.04332830011844635,-0.10594774037599564,-0.06533452868461609
1769658634772032000,7.416031982421875,-0.05444220453500748,-0.10652484744787216,-0.07478342950344086
1769658634782020000,7.42602001953125,-0.06480535864830017,-0.1271451711654663,-0.08409330248832703
1769658634792008000,7.436008056640625,-0.06372731178998947,-0.1409672349691391,-0.08316173404455185
1769658634801996000,7.44599609375,-0.06507939845323563,-0.13010767102241516,-0.09050486236810684
1769658634811983000,7.455983154296875,-0.05909527838230133,-0.12409265339374542,-0.09040100127458572
1769658634821971000,7.465970947265625,-0.05398866534233093,-0.1316419094800949,-0.08146636188030243
1769658634831959000,7.475958984375,-0.05668564885854721,-0.12700562179088593,-0.07336103171110153
1769658634841947100,7.485947021484375,-0.05458628013730049,-0.12246652692556381,-0.061714764684438705
1769658634851935000,7.49593505859375,-0.05921032652258873,-0.10731686651706696,-0.05107437074184418
1769658634861922000,7.505922119140625,-0.04776352643966675,-0.11461446434259415,-0.04008643329143524
1769658634871910100,7.51591015625,-0.04946422204375267,-0.15863998234272003,-0.020780645310878754
1769658634881898000,7.52589794921875,-0.0646788626909256,-0.1849839687347412,-0.020361997187137604
1769658634891886000,7.535885986328125,-0.08274281769990921,-0.19211405515670776,-0.027779700234532356
1769658634901874200,7.545874267578125,-0.09388015419244766,-0.19492554664611816,-0.022157233208417892
1769658634911862000,7.555862060546875,-0.09660696983337402,-0.1690090000629425,-0.019348664209246635
1769658634921849900,7.565849853515625,-0.09539123624563217,-0.16622759401798248,-0.009458749555051327
1769658634931837200,7.575837158203125,-0.09380878508090973,-0.18228672444820404,-0.006007025949656963
1769658634941825000,7.585824951171875,-0.08770934492349625,-0.1712135672569275,-0.01278983149677515
1769658634951812900,7.595812744140625,-0.08615059405565262,-0.14549914002418518,-0.00660543842241168
1769658634961800700,7.60580078125,-0.08188767731189728,-0.13195030391216278,-0.00782463327050209
1769658634971788800,7.615788818359375,-0.08808937668800354,-0.13084003329277039,-0.008942361921072006
1769658634981776000,7.62577587890625,-0.08845476806163788,-0.12905864417552948,-0.01932363025844097
1769658634991763700,7.635763671875,-0.08664967119693756,-0.13702788949012756,-0.026548519730567932
1769658635001751800,7.645751708984375,-0.08874265104532242,-0.15186916291713715,-0.03895166143774986
1769658635011740000,7.655739990234375,-0.08757991343736649,-0.1689259111881256,-0.05086690932512283
1769658635021727700,7.665727783203125,-0.08569306880235672,-0.17299441993236542,-0.05528269708156586
1769658635031715800,7.6757158203125,-0.08298783004283905,-0.1493293046951294,-0.05501637980341911
1769658635041703000,7.685702880859375,-0.07702208310365677,-0.13845454156398773,-0.05267706140875816
1769658635051690800,7.695690673828125,-0.07322201877832413,-0.15575604140758514,-0.053090646862983704
1769658635061678800,7.705678955078125,-0.07896352559328079,-0.15088485181331635,-0.057981543242931366
1769658635071667000,7.7156669921875,-0.08172255754470825,-0.13585424423217773,-0.06192062422633171
1769658635081654800,7.72565478515625,-0.08600012958049774,-0.13268586993217468,-0.06569192558526993
1769658635091643000,7.735642822265625,-0.08943800628185272,-0.139760822057724,-0.06623654067516327
1769658635101630000,7.7456298828125,-0.09177465736865997,-0.1523333489894867,-0.06331372261047363
1769658635111617800,7.75561767578125,-0.08906728774309158,-0.1461087465286255,-0.06308548897504807
1769658635121606000,7.76560595703125,-0.088063545525074,-0.15134504437446594,-0.06059224158525467
1769658635131594000,7.775593994140625,-0.08221764117479324,-0.1567978709936142,-0.06289108097553253
1769658635141581800,7.785581787109375,-0.07794300466775894,-0.15252909064292908,-0.06461334973573685
1769658635151570000,7.79556982421875,-0.07664550840854645,-0.1382068693637848,-0.061587195843458176
1769658635161557000,7.805556884765625,-0.07665695995092392,-0.1389022320508957,-0.06063618138432503
1769658635171544800,7.815544921875,-0.07497783750295639,-0.14236938953399658,-0.06030568480491638
1769658635181533000,7.825532958984375,-0.06853112578392029,-0.12747646868228912,-0.05333113297820091
1769658635191521000,7.83552099609375,-0.06339175254106522,-0.11586295068264008,-0.04336345195770264
1769658635201508900,7.8455087890625,-0.06264261156320572,-0.11513883620500565,-0.04394402354955673
1769658635211496700,7.85549658203125,-0.06533506512641907,-0.11787097901105881,-0.05131778120994568
1769658635221484000,7.865484130859375,-0.0656660944223404,-0.10527954995632172,-0.055145010352134705
1769658635231471900,7.875471923828125,-0.0666450709104538,-0.1028028130531311,-0.046246059238910675
1769658635241460000,7.8854599609375,-0.06605678051710129,-0.11071506142616272,-0.037518613040447235
1769658635251447800,7.89544775390625,-0.06407298892736435,-0.11643046885728836,-0.03399232029914856
1769658635261436000,7.905435791015625,-0.06491002440452576,-0.1119782030582428,-0.030009297654032707
1769658635271423700,7.915423828125,-0.06041061133146286,-0.1040414497256279,-0.0276273675262928
1769658635281410800,7.925410888671875,-0.05655675381422043,-0.0830533429980278,-0.02034335397183895
1769658635291398700,7.935398681640625,-0.04554165154695511,-0.06586556881666183,-0.012967729941010475
1769658635301386800,7.94538671875,-0.03509087488055229,-0.04971109703183174,-0.007282147649675608
1769658635311374800,7.955374755859375,-0.02779434621334076,-0.033478330820798874,0.001418665866367519
1769658635321363000,7.965363037109375,-0.0259863268584013,-0.030490264296531677,0.00752023421227932
1769658635331350800,7.975350830078125,-0.027225496247410774,-0.024100808426737785,0.009126386605203152
1769658635341337900,7.985337890625,-0.03159680962562561,-0.015032212249934673,0.009535714983940125
1769658635351325700,7.99532568359375,-0.03549168258905411,-0.010982610285282135,0.010119479149580002
1769658635361313800,8.005313720703125,-0.03033287264406681,-0.007352455053478479,0.006895722821354866
1769658635371302000,8.015302001953126,-0.029148563742637634,0.0004540689697023481,0.012826582416892052
1769658635381290000,8.0252900390625,-0.034508708864450455,-0.012927782721817493,0.018824288621544838
1769658635391277800,8.03527783203125,-0.03976738452911377,-0.012626845389604568,0.020675450563430786
1769658635401265000,8.045264892578125,-0.04447053000330925,-0.014027934521436691,0.027475299313664436
1769658635411253000,8.0552529296875,-0.047575242817401886,-0.022730080410838127,0.03201945126056671
1769658635421240800,8.06524072265625,-0.05034599453210831,-0.02341477759182453,0.0361446887254715
1769658635431229000,8.07522900390625,-0.057005494832992554,-0.01643383502960205,0.04017937555909157
1769658635441217000,8.085217041015625,-0.05494580790400505,-0.003989681601524353,0.038204375654459
1769658635451204900,8.095204833984376,-0.049123603850603104,-0.002906573936343193,0.03315768763422966
1769658635461192000,8.10519189453125,-0.04222681745886803,-0.004462925251573324,0.025051290169358253
1769658635471180000,8.115179931640625,-0.04571395739912987,-0.0018935075495392084,0.0202176533639431
1769658635481168000,8.12516796875,-0.048883918672800064,-0.004759334959089756,0.024824922904372215
1769658635491156000,8.135156005859375,-0.049974218010902405,-0.0017749968683347106,0.025860093533992767
1769658635501143800,8.145143798828125,-0.048102814704179764,0.0012532835826277733,0.02876506932079792
1769658635511131600,8.155131591796875,-0.04700585827231407,-0.00009933590627042577,0.027943484485149384
1769658635521119000,8.165118896484374,-0.04609159380197525,0.0011414308100938797,0.029867883771657944
1769658635531107000,8.175107177734375,-0.04156182333827019,0.004083424806594849,0.02972380630671978
1769658635541094700,8.1850947265625,-0.026918966323137283,0.01290621142834425,0.03358618915081024
1769658635551082800,8.195082763671875,-0.018882079049944878,0.02058410458266735,0.03434918448328972
1769658635561070800,8.20507080078125,-0.01853773184120655,0.036371588706970215,0.02870434895157814
1769658635571058700,8.21505859375,-0.013968812301754951,0.053226470947265625,0.01967037469148636
1769658635581045800,8.225045654296874,-0.010784470476210117,0.061717160046100616,0.025169800966978073
1769658635591033900,8.235033935546875,-0.014101171866059303,0.05332713574171066,0.04686976969242096
1769658635601021700,8.245021728515624,-0.00848669558763504,0.038776956498622894,0.057437993586063385
1769658635611009800,8.255009765625,-0.0009060074225999415,0.026693129912018776,0.06342185288667679
1769658635620998000,8.264997802734374,-0.004455734975636005,0.025835059583187103,0.06392917782068253
1769658635630986000,8.274986083984375,-0.003978496417403221,0.03413240239024162,0.06545837223529816
1769658635640972800,8.284972900390626,-0.0019294602097943425,0.04441060870885849,0.06731272488832474
1769658635650961000,8.2949609375,0.007468036375939846,0.06279414147138596,0.06507061421871185
1769658635660948700,8.30494873046875,0.013740313239395618,0.08441874384880066,0.06067559868097305
1769658635670936800,8.314936767578125,0.018063155934214592,0.0932958573102951,0.059121109545230865
1769658635680925000,8.324925048828124,0.017223462462425232,0.09706423431634903,0.05467949062585831
1769658635690913000,8.3349130859375,0.011009507812559605,0.09328360855579376,0.05145413428544998
1769658635700899800,8.34489990234375,0.006455768831074238,0.08448053151369095,0.04826606437563896
1769658635710888000,8.354887939453125,0.009383914060890675,0.08146397024393082,0.05343020334839821
1769658635720876000,8.3648759765625,0.014937138184905052,0.09335950762033463,0.061176005750894547
1769658635730863900,8.37486376953125,0.022216355428099632,0.1107984185218811,0.06690207123756409
1769658635740852000,8.38485205078125,0.023816648870706558,0.12143295258283615,0.06359388679265976
1769658635750840000,8.394840087890625,0.02190556563436985,0.12179967015981674,0.05985720828175545
1769658635760827000,8.404826904296876,0.020302075892686844,0.11520887911319733,0.0548427440226078
1769658635770815000,8.41481494140625,0.016016250476241112,0.10548993945121765,0.04969778284430504
1769658635780803000,8.424802978515626,0.013556821271777153,0.10014497488737106,0.044648427516222
1769658635790791000,8.434791015625,0.00869122613221407,0.09521520137786865,0.036977194249629974
1769658635800778800,8.44477880859375,0.003108974313363433,0.08864305168390274,0.025306155905127525
1769658635810766800,8.454766845703125,0.0011544802691787481,0.08379929512739182,0.01793372631072998
1769658635820754000,8.46475390625,-0.0023971113841980696,0.08012332767248154,0.0266028493642807
1769658635830741800,8.47474169921875,0.007409713231027126,0.08702917397022247,0.029870547354221344
1769658635840729900,8.484729736328125,0.012970393523573875,0.08697590976953506,0.037221938371658325
1769658635850717700,8.4947177734375,0.017972076311707497,0.08418651670217514,0.03771648555994034
1769658635860705800,8.504705810546875,0.013906228356063366,0.08925158530473709,0.03675694763660431
1769658635870694000,8.51469384765625,0.006025135517120361,0.08602888882160187,0.03404105827212334
1769658635880680700,8.5246806640625,0.010788998566567898,0.07432322949171066,0.0307557824999094
1769658635890668800,8.534668701171874,0.019469305872917175,0.07291601598262787,0.028389563784003258
1769658635900657000,8.544656982421875,0.027528297156095505,0.08808751404285431,0.027843082323670387
1769658635910644700,8.554644775390624,0.033780865371227264,0.10558927804231644,0.031196534633636475
1769658635920632800,8.5646328125,0.03620327636599541,0.1216321587562561,0.03383892402052879
1769658635930621000,8.574620849609374,0.03225380927324295,0.11890934407711029,0.03910798951983452
1769658635940607700,8.584607666015625,0.02893790788948536,0.09871352463960648,0.04493871331214905
1769658635950595800,8.594595947265624,0.023553796112537384,0.07934462279081345,0.05247146263718605
1769658635960584000,8.604583984375,0.020726583898067474,0.06078372150659561,0.06327777355909348
1769658635970571800,8.61457177734375,0.017240505665540695,0.05230874568223953,0.07295410335063934
1769658635980560000,8.624559814453125,0.017838651314377785,0.05669230595231056,0.07436291128396988
1769658635990548000,8.6345478515625,0.020919395610690117,0.06099624186754227,0.06761579215526581
1769658636000534800,8.64453466796875,0.026334667578339577,0.06320346891880035,0.060030046850442886
1769658636010523000,8.65452294921875,0.03381255641579628,0.06709727644920349,0.049670618027448654
1769658636020511000,8.664510986328125,0.04151788353919983,0.0810980498790741,0.04363935440778732
1769658636030499000,8.6744990234375,0.047504667192697525,0.09983125329017639,0.04026007279753685
1769658636040487000,8.68448681640625,0.05199741944670677,0.11168471723794937,0.04671424254775047
1769658636050475000,8.69447509765625,0.05166825279593468,0.12201511859893799,0.05498761683702469
1769658636060461800,8.7044619140625,0.04036020487546921,0.12355230003595352,0.06506102532148361
1769658636070450000,8.714449951171876,0.02449575625360012,0.11695218831300735,0.07227073609828949
1769658636080438000,8.72443798828125,0.006644320674240589,0.09488123655319214,0.07430299371480942
1769658636090425900,8.73442578125,-0.0021078919526189566,0.06268788129091263,0.07745750993490219
1769658636100413700,8.74441357421875,-0.0030027141328901052,0.04326331615447998,0.07443615049123764
1769658636110401800,8.75440185546875,0.007991613820195198,0.05173802748322487,0.07351922243833542
1769658636120388900,8.764388916015625,0.0256358552724123,0.06762458384037018,0.0717434287071228
1769658636130376700,8.774376708984375,0.04283774644136429,0.0996464341878891,0.05991979315876961
1769658636140364800,8.78436474609375,0.06006013974547386,0.1339213103055954,0.05198756605386734
1769658636150353000,8.794352783203125,0.06440109014511108,0.15648627281188965,0.04814009740948677
1769658636160340700,8.8043408203125,0.06955697387456894,0.16834640502929688,0.04662023112177849
1769658636170328800,8.814328857421875,0.07543430477380753,0.169402077794075,0.04225051775574684
1769658636180316000,8.82431591796875,0.07239697128534317,0.18064461648464203,0.04097166657447815
1769658636190303700,8.8343037109375,0.073987677693367,0.18936753273010254,0.03945925831794739
1769658636200291800,8.844291748046874,0.07156632840633392,0.18429288268089294,0.04818963259458542
1769658636210280000,8.854280029296875,0.07147764414548874,0.18013222515583038,0.06292357295751572
1769658636220267800,8.864267822265624,0.06922327727079391,0.1720455288887024,0.06675399839878082
1769658636230255900,8.874255859375,0.06754042953252792,0.16557058691978455,0.0747770369052887
1769658636240243000,8.884242919921874,0.07218284904956818,0.1692177802324295,0.07922691106796265
1769658636250230800,8.894230712890625,0.07379592955112457,0.17703017592430115,0.07912944257259369
1769658636260219000,8.904218994140624,0.08148420602083206,0.1920061856508255,0.07705563306808472
1769658636270207000,8.91420703125,0.09207479655742645,0.20054136216640472,0.08236304670572281
1769658636280194800,8.92419482421875,0.104381263256073,0.202727273106575,0.08726006746292114
1769658636290183000,8.934182861328125,0.10490883886814117,0.20345725119113922,0.08813492208719254
1769658636300170000,8.944169921875,0.10165125876665115,0.20429587364196777,0.08347571641206741
1769658636310157800,8.95415771484375,0.09204976260662079,0.20119862258434296,0.08030416071414948
1769658636320146000,8.96414599609375,0.0838533565402031,0.208310067653656,0.0695204883813858
1769658636330134000,8.974134033203125,0.08159525692462921,0.21645720303058624,0.06144871190190315
1769658636340122000,8.9841220703125,0.08929792046546936,0.2134619504213333,0.059899553656578064
1769658636350109700,8.994109619140625,0.08581157773733139,0.1958848237991333,0.06113392859697342
1769658636360097000,9.004096923828126,0.089773029088974,0.1920192390680313,0.058036670088768005
1769658636370084900,9.0140849609375,0.08285679668188095,0.19173294305801392,0.05829206854104996
1769658636380073000,9.024072998046876,0.08016620576381683,0.19292418658733368,0.060937121510505676
1769658636390060800,9.034060791015625,0.08099444955587387,0.18873795866966248,0.06594279408454895
1769658636400049000,9.044048828125,0.08431407809257507,0.18317674100399017,0.06262636184692383
1769658636410036700,9.05403662109375,0.08575325459241867,0.177210733294487,0.05324724316596985
1769658636420023800,9.06402392578125,0.08508612960577011,0.1715802699327469,0.04222015663981438
1769658636430012000,9.074011962890625,0.0811462551355362,0.17441174387931824,0.03269509598612785
1769658636439999700,9.083999755859375,0.06748796254396439,0.15642103552818298,0.027539748698472977
1769658636449987800,9.09398779296875,0.0504799522459507,0.12076476961374283,0.0243157260119915
1769658636459976000,9.103975830078125,0.042622826993465424,0.08992243558168411,0.02249865047633648
1769658636469963800,9.1139638671875,0.04186462610960007,0.10211970657110214,0.012677978724241257
1769658636479950800,9.123950927734375,0.05413993448019028,0.14460192620754242,0.01540398970246315
1769658636489939000,9.13393896484375,0.06609086692333221,0.15990950167179108,0.026942402124404907
1769658636499926800,9.1439267578125,0.07755205035209656,0.14436116814613342,0.033179525285959244
1769658636509915000,9.153914794921874,0.07951346784830093,0.14232651889324188,0.029835926368832588
1769658636519903000,9.163903076171875,0.07972811907529831,0.13576900959014893,0.030277477577328682
1769658636529890800,9.173890869140624,0.07359778881072998,0.1288921982049942,0.031859662383794785
1769658636539878000,9.1838779296875,0.06888745725154877,0.1224936917424202,0.032277245074510574
1769658636549866000,9.193865966796874,0.06090063601732254,0.1278463751077652,0.023493075743317604
1769658636559853800,9.203853759765625,0.05663398280739784,0.1267624795436859,0.017285512760281563
1769658636569842000,9.213842041015624,0.046845268458127975,0.10997390747070312,0.009887784719467163
1769658636579830000,9.223830078125,0.04526255279779434,0.10456422716379166,0.006462426856160164
1769658636589817900,9.23381787109375,0.0413876548409462,0.09827250987291336,0.006217948626726866
1769658636599805000,9.243804931640625,0.04120629280805588,0.08373084664344788,0.016214122995734215
1769658636609793000,9.25379296875,0.04057725518941879,0.08046634495258331,0.02485022135078907
1769658636619780900,9.26378076171875,0.04224972054362297,0.08555325120687485,0.03260428085923195
1769658636629769000,9.27376904296875,0.04699760302901268,0.0911853015422821,0.03237125650048256
1769658636639756800,9.2837568359375,0.051304467022418976,0.09215762466192245,0.026496589183807373
1769658636649745000,9.293744873046874,0.05231140926480293,0.09647966921329498,0.023789752274751663
1769658636659732000,9.30373193359375,0.04639173299074173,0.08688030391931534,0.024329308420419693
1769658636669719800,9.3137197265625,0.0434875562787056,0.07097990065813065,0.02580629661679268
1769658636679707600,9.323707763671875,0.045584261417388916,0.08143440634012222,0.015737418085336685
1769658636689695700,9.33369580078125,0.05203070864081383,0.09161274135112762,0.009490174241364002
1769658636699683800,9.343683837890625,0.05037102848291397,0.0923355221748352,0.008810802362859249
1769658636709672000,9.353671875,0.053228333592414856,0.08523047715425491,0.012180233374238014
1769658636719658800,9.36365869140625,0.048713475465774536,0.07196260988712311,0.013759221881628036
1769658636729646800,9.373646728515626,0.04226037114858627,0.06669647246599197,0.01459039468318224
1769658636739634700,9.383634765625,0.03424052894115448,0.06100689619779587,0.011659319512546062
1769658636749622800,9.393622802734376,0.032650355249643326,0.05248264968395233,0.007202785462141037
1769658636759611000,9.40361083984375,0.03277632221579552,0.045768022537231445,-0.000477504770969972
1769658636769599000,9.413598876953126,0.03393133357167244,0.04314747080206871,-0.005014998838305473
1769658636779585800,9.423585693359374,0.034874893724918365,0.04259539768099785,-0.002731071785092354
1769658636789574000,9.433573974609375,0.03833487257361412,0.037339117377996445,0.0012053466634824872
1769658636799562000,9.44356201171875,0.03839266300201416,0.04044489562511444,-0.00029640982393175364
1769658636809549800,9.4535498046875,0.03897882252931595,0.04514750465750694,-0.005526858381927013
1769658636819538000,9.463537841796875,0.03946831449866295,0.043834034353494644,-0.008593222126364708
1769658636829526000,9.473526123046875,0.03500165790319443,0.03933621942996979,-0.012883841060101986
1769658636839512800,9.483512939453124,0.03364264965057373,0.036619529128074646,-0.015984026715159416
1769658636849501000,9.4935009765625,0.03285195678472519,0.037103958427906036,-0.01318158209323883
1769658636859489000,9.503489013671874,0.03001995012164116,0.02046879008412361,-0.014244982041418552
1769658636869476900,9.513476806640625,0.02436020039021969,0.01245054416358471,-0.01281806081533432
1769658636879465000,9.52346484375,0.020982513204216957,0.002837864449247718,-0.008802546188235283
1769658636889453000,9.533453125,0.02112152986228466,0.0006892260862514377,-0.007841411046683788
1769658636899439900,9.54343994140625,0.020370252430438995,0.0052168662659823895,-0.009197493083775043
1769658636909428000,9.553427978515625,0.017170730978250504,0.002939597237855196,-0.008853678591549397
1769658636919416000,9.563416015625,0.013301956467330456,0.0023499734234064817,-0.013083045370876789
1769658636929404000,9.57340380859375,0.009761816821992397,-0.008025968447327614,-0.010763698257505894
1769658636939391700,9.583391845703124,0.008788431994616985,-0.014706508256494999,-0.0073388731107115746
1769658636949379800,9.5933798828125,0.014096910133957863,-0.013379987329244614,-0.004780640359967947
1769658636959367000,9.603366943359376,0.018428808078169823,-0.00242187874391675,-0.002409894485026598
1769658636969355000,9.61335498046875,0.02124563418328762,0.008681372739374638,-0.002724946476519108
1769658636979342800,9.6233427734375,0.02406219206750393,0.0128145981580019,-0.007890147157013416
1769658636989331000,9.6333310546875,0.022536467760801315,0.011317369528114796,-0.017410416156053543
1769658636999319000,9.643319091796876,0.019880497828125954,0.006866960786283016,-0.02203046716749668
1769658637009307000,9.653306884765625,0.019700201228260994,0.010133327916264534,-0.02069063112139702
1769658637019294000,9.6632939453125,0.020181966945528984,0.011343467980623245,-0.01266865711659193
1769658637029282000,9.673281982421875,0.02148478478193283,0.012415124103426933,-0.00785739067941904
1769658637039270000,9.683269775390626,0.018146779388189316,0.013368003070354462,-0.008673649281263351
1769658637049258000,9.693258056640625,0.012918195687234402,0.00549223693087697,-0.011721370741724968
1769658637059246000,9.70324609375,0.007249124348163605,0.0000929443194763735,-0.020323380827903748
1769658637069234000,9.71323388671875,0.006902913562953472,-0.0014405038673430681,-0.021919148042798042
1769658637079221000,9.723220947265625,0.00833889003843069,0.001199221471324563,-0.02285684645175934
1769658637089209000,9.733208984375,0.012751481495797634,0.008022240363061428,-0.014307566918432713
1769658637099197000,9.743197021484375,0.014142184518277645,0.010029731318354607,-0.005619269795715809
1769658637109185000,9.75318505859375,0.014270015992224216,0.001113201375119388,0.0004271710349712521
1769658637119173000,9.763173095703126,0.013312343508005142,-0.0029798108153045177,-0.0008580705034546554
1769658637129161000,9.773160888671875,0.013098491355776787,-0.006673082709312439,-0.004995291121304035
1769658637139148000,9.78314794921875,0.009561280719935894,-0.009223059751093388,-0.009671268984675407
1769658637149136100,9.79313623046875,0.007394266780465841,-0.010625213384628296,-0.014211160130798817
1769658637159124000,9.8031240234375,0.005938050337135792,-0.014191985130310059,-0.01299489475786686
1769658637169112000,9.813112060546874,0.008534898981451988,-0.011622034944593906,-0.01170432660728693
1769658637179100200,9.82310009765625,0.010815363377332687,-0.002685531508177519,-0.009522665292024612
1769658637189088000,9.833087890625,0.014673484489321709,-0.0025065671652555466,-0.012944826856255531
1769658637199075000,9.843074951171875,0.01751081645488739,-0.004093545023351908,-0.015659119933843613
1769658637209063200,9.853063232421874,0.014552311040461063,0.001440237509086728,-0.01956517994403839
1769658637219051000,9.863051025390625,0.009534649550914764,0.004765460267663002,-0.02468031272292137
1769658637229038800,9.873038818359374,0.006232063286006451,0.002490055514499545,-0.02749926783144474
1769658637239027000,9.88302685546875,0.006139651406556368,-0.0041734399273991585,-0.02689366601407528
1769658637249015000,9.89301513671875,0.007772968150675297,-0.004608067683875561,-0.023058447986841202
1769658637259001900,9.903001953125,0.008137821219861507,0.002147306688129902,-0.013715545646846294
1769658637268990000,9.912989990234376,0.010457701049745083,0.0015933692920953035,-0.004865328781306744
1769658637278978000,9.92297802734375,0.007669104728847742,-0.0028099012561142445,-0.0035774242132902145
1769658637288966000,9.9329658203125,0.000592020689509809,-0.010211092419922352,-0.0062333946116268635
1769658637298954000,9.9429541015625,-0.00185063062235713,-0.010088054463267326,-0.011430553160607815
1769658637308942000,9.952942138671874,0.00047617321251891553,0.0005946838646195829,-0.016402674838900566
1769658637318930000,9.962929931640625,0.003552390495315194,0.010702977888286114,-0.01811082661151886
1769658637328917000,9.9729169921875,0.0070581757463514805,0.01629534922540188,-0.015972308814525604
1769658637338905000,9.982905029296875,0.008439024910330772,0.014218617230653763,-0.013246563263237476
1769658637348893000,9.992892822265626,0.008184959180653095,0.0051598744466900826,-0.013224459253251553
1769658637358881000,10.002881103515625,0.005876531358808279,0.001166198286227882,-0.018430938944220543
1769658637368869000,10.012869140625,0.005620867945253849,0.0007952199084684253,-0.014721421524882317
1769658637378857000,10.02285693359375,0.008740761317312717,0.0060024987906217575,-0.01303164567798376
1769658637388844000,10.032843994140626,0.010403372347354889,0.007909854874014854,-0.007663245778530836
1769658637398832000,10.04283203125,0.012163988314568996,0.009469402022659779,-0.006232329644262791
1769658637408820000,10.052820068359376,0.011051852256059647,0.007985488511621952,-0.005016862880438566
1769658637418808000,10.06280810546875,0.008619586937129498,0.003918308764696121,-0.009280317462980747
1769658637428796200,10.072796142578126,0.005440305452793837,0.0022567627020180225,-0.011798868887126446
1769658637438783000,10.082782958984374,0.004249872639775276,-0.0034232272300869226,-0.009358614683151245
1769658637448771000,10.09277099609375,0.005628058221191168,-0.004217382054775953,-0.007838748395442963
1769658637458759200,10.10275927734375,0.006560430862009525,0.002192846732214093,-0.008421181701123714
1769658637468747000,10.1127470703125,0.005742840468883514,0.010084059089422226,-0.013745373114943504
1769658637478734800,10.12273486328125,0.0058067562058568,0.0021931130904704332,-0.017499364912509918
1769658637488723000,10.132722900390625,0.005215800832957029,-0.001395496423356235,-0.023733558133244514
1769658637498711000,10.1427109375,0.006223008502274752,0.0016820525052025914,-0.028496889397501945
1769658637508698000,10.152697998046875,0.00857404712587595,-0.003433613572269678,-0.02695092372596264
1769658637518686000,10.16268603515625,0.009228385984897614,-0.00577852688729763,-0.026614567264914513
1769658637528673800,10.172673828125,0.00917512271553278,-0.001853826455771923,-0.02540069818496704
1769658637538662000,10.182661865234374,0.012221778742969036,0.004160656593739986,-0.025431323796510696
1769658637548650000,10.19264990234375,0.012140552513301373,0.0033486587926745415,-0.027665182948112488
1769658637558638000,10.20263818359375,0.010309362784028053,0.0007424892974086106,-0.029453229159116745
1769658637568625000,10.212625,0.007142597809433937,-0.0006343649583868682,-0.028131237253546715
1769658637578613000,10.222613037109374,0.007890147157013416,0.0031169636640697718,-0.02425500564277172
1769658637588601000,10.23260107421875,0.00669252360239625,0.0006655239267274737,-0.02321743778884411
1769658637598589000,10.2425888671875,0.008185758255422115,0.004453071393072605,-0.025600967928767204
1769658637608577000,10.252576904296875,0.007153783459216356,0.005033374298363924,-0.027113376185297966
1769658637618565000,10.262565185546874,0.008406001143157482,0.006219013594090939,-0.030649788677692413
1769658637628552000,10.272552001953125,0.014434066601097584,0.012504606507718563,-0.029713153839111328
1769658637638540000,10.2825400390625,0.013352823443710804,0.017956096678972244,-0.026869164779782295
1769658637648528100,10.292528076171875,0.010792726650834084,0.01293151080608368,-0.020810473710298538
1769658637658516000,10.302515869140626,0.008598814718425274,0.013714480213820934,-0.019997676834464073
1769658637668504000,10.312504150390625,0.008107194676995277,0.018752649426460266,-0.01768472045660019
1769658637678492200,10.3224921875,0.008925584144890308,0.01799764297902584,-0.017588315531611443
1769658637688479000,10.33247900390625,0.008146610110998154,0.012450011447072029,-0.017954764887690544
1769658637698467000,10.342467041015626,0.006911701988428831,0.005145493429154158,-0.019758258014917374
1769658637708455200,10.352455078125,0.010431335307657719,0.007424360606819391,-0.01501357089728117
1769658637718443000,10.362443115234376,0.010670754127204418,0.012741361744701862,-0.014095046557486057
1769658637728431000,10.37243115234375,0.014572018757462502,0.019782492890954018,-0.01383938267827034
1769658637738419000,10.3824189453125,0.017186976969242096,0.025045698508620262,-0.011599930934607983
1769658637748406000,10.392406005859375,0.019652796909213066,0.02936561219394207,-0.01486603170633316
1769658637758394000,10.40239404296875,0.021399565041065216,0.03176192566752434,-0.020119382068514824
1769658637768382000,10.4123818359375,0.020425645634531975,0.027453728020191193,-0.020414993166923523
1769658637778369800,10.422369873046875,0.020989172160625458,0.021346833556890488,-0.012735769152641296
1769658637788358000,10.43235791015625,0.01689828932285309,0.019532954320311546,-0.006062420085072517
1769658637798346000,10.442345947265625,0.015358449891209602,0.016931312158703804,-0.006878145970404148
1769658637808332800,10.452332763671874,0.011832158081233501,0.01661759242415428,-0.008930377662181854
1769658637818321000,10.46232080078125,0.013286776840686798,0.014882543124258518,-0.01133920717984438
1769658637828309000,10.47230908203125,0.013852432370185852,0.015371765941381454,-0.011425226926803589
1769658637838296800,10.482296875,0.014908109791576862,0.01558188907802105,-0.008886702358722687
1769658637848285000,10.492284912109374,0.01631106249988079,0.015358183532953262,-0.002987001556903124
1769658637858273000,10.50227294921875,0.015331552363932133,0.016158463433384895,0.0005424859118647873
1769658637868259800,10.512259765625,0.017314542084932327,0.01561038475483656,-0.0021345235873013735
1769658637878248000,10.522248046875,0.01673397235572338,0.011944010853767395,-0.006695453077554703
1769658637888236000,10.532236083984374,0.018576880916953087,0.010465158149600029,-0.009623865596950054
1769658637898223900,10.542223876953125,0.01691027358174324,0.011414840817451477,-0.01212830189615488
1769658637908212000,10.5522119140625,0.01612943410873413,0.010783671401441097,-0.01095411367714405
1769658637918200000,10.562199951171875,0.016643159091472626,0.014259097166359425,-0.016435697674751282
1769658637928187000,10.572186767578126,0.014137656427919865,0.01248276885598898,-0.019033346325159073
1769658637938175000,10.582175048828125,0.015210644342005253,0.006745520513504744,-0.019822441041469574
1769658637948163000,10.5921630859375,0.014309963211417198,-0.0007193197961896658,-0.018492724746465683
1769658637958151400,10.6021513671875,0.014561365358531475,-0.007834753952920437,-0.012108860537409782
1769658637968139300,10.61213916015625,0.014333132654428482,-0.010692325420677662,-0.0057479003444314
1769658637978127400,10.62212744140625,0.012309130281209946,-0.006359362509101629,-0.007449660450220108
1769658637988114400,10.632114501953126,0.011480354703962803,-0.0035326832439750433,-0.0124809043481946
1769658637998102300,10.642102294921875,0.010343451052904129,-0.001802693703211844,-0.015341938473284245
1769658638008090400,10.65209033203125,0.007881891913712025,0.004448011517524719,-0.014020743779838085
1769658638018078200,10.662078125,0.005767075344920158,0.0010924286907538772,-0.016326243057847023
1769658638028066000,10.672066162109376,0.0046605318784713745,-0.017253821715712547,-0.017229320481419563
1769658638038054100,10.68205419921875,0.00327275856398046,-0.01919766329228878,-0.017850635573267937
1769658638048041200,10.692041259765626,0.007937285117805004,-0.010084591805934906,-0.004034422803670168
1769658638058029000,10.702029052734375,0.010046242736279964,-0.017065003514289856,0.006859237793833017
1769658638068017200,10.71201708984375,0.012794625014066696,-0.00634977500885725,0.011023622937500477
1769658638078005200,10.722005126953125,0.015063371509313583,-0.0067753479816019535,0.0076147764921188354
1769658638087993000,10.7319931640625,0.014116617850959301,-0.01648230478167534,0.0008961536805145442
1769658638097981200,10.741981201171875,0.012346414849162102,-0.02263074368238449,-0.0016727314796298742
1769658638107968300,10.75196826171875,0.010072074830532074,-0.030068419873714447,0.0020671456586569548
1769658638117956000,10.7619560546875,0.013200224377214909,-0.026504311710596085,0.004833370912820101
1769658638127944200,10.771944091796875,0.018745724111795425,-0.01218715775758028,0.001511610229499638
1769658638137932300,10.781932373046875,0.02088051475584507,-0.006144711747765541,-0.002235191175714135
1769658638147920100,10.791920166015625,0.01967250369489193,-0.008158859796822071,-0.004667988512665033
1769658638157908200,10.801908203125,0.020395552739501,-0.010998322628438473,-0.008532235398888588
1769658638167895300,10.811895263671875,0.025020398199558258,-0.005486644338816404,-0.010778078809380531
1769658638177883100,10.821883056640624,0.027906998991966248,0.006385727785527706,-0.01266679260879755
1769658638187871200,10.831871337890625,0.02575543150305748,0.012171445414423943,-0.01569746993482113
1769658638197859300,10.841859375,0.023257652297616005,0.011256116442382336,-0.020021112635731697
1769658638207847400,10.851847412109375,0.01762586459517479,0.013427391648292542,-0.02484383061528206
1769658638217835300,10.861835205078124,0.016091618686914444,0.01287425309419632,-0.026624953374266624
1769658638227822300,10.871822265625,0.0176362507045269,0.01944773457944393,-0.024381238967180252
1769658638237810200,10.88181005859375,0.016712401062250137,0.020305005833506584,-0.01726500689983368
1769658638247798300,10.89179833984375,0.015678828582167625,0.017004283145070076,-0.01321354042738676
1769658638257786400,10.901786376953124,0.013454556465148926,0.010643589310348034,-0.011608985252678394
1769658638267774500,10.9117744140625,0.009740778245031834,0.003254915354773402,-0.01176158431917429
1769658638277762000,10.921761962890624,0.007634750101715326,0.0005723133217543364,-0.012917396612465382
1769658638287750100,10.931750244140625,0.007396397180855274,0.0015715312911197543,-0.011640144512057304
1769658638297737500,10.941737548828126,0.005520200356841087,0.006206230726093054,-0.008675513789057732
1769658638307725300,10.951725341796875,0.003084739437326789,0.004898618441075087,-0.005275722127407789
1769658638317713200,10.961713134765626,0.003867442486807704,0.005541505757719278,-0.0029976540245115757
1769658638327701200,10.971701171875,0.005967345088720322,0.00708693778142333,-0.003364105010405183
1769658638337689000,10.981689208984376,0.008568987250328064,0.00936127733439207,-0.008017712272703648
1769658638347677200,10.99167724609375,0.013742976821959019,0.010849185287952423,-0.009806557558476925
1769658638357664300,11.001664306640626,0.01841549202799797,0.013102219440042973,-0.006130330264568329
1769658638367652000,11.011652099609375,0.018628012388944626,0.01056476030498743,-0.003959587775170803
1769658638377640200,11.02164013671875,0.013425261713564396,0.006458431947976351,0.0012689962750300765
1769658638387628300,11.031628173828125,0.0049103363417088985,-0.011031878180801868,0.008886702358722687
1769658638397616000,11.0416162109375,0.0028221518732607365,-0.026013225317001343,0.010840930044651031
1769658638407604200,11.051604248046875,0.007649397477507591,-0.01853613369166851,0.006088519003242254
1769658638417591300,11.06159130859375,0.011111773550510406,-0.009938650764524937,0.00210629403591156
1769658638427579100,11.0715791015625,0.010746920481324196,-0.018792062997817993,0.001437041675671935
1769658638437567200,11.081567138671875,0.009527458809316158,-0.018862636759877205,0.0024748756550252438
1769658638447555300,11.091555419921875,0.013523265719413757,-0.007428887765854597,0.0025515747256577015
1769658638457543200,11.101543212890626,0.018015218898653984,-0.006278135813772678,-0.0014378406340256333
1769658638467531300,11.11153125,0.023812921717762947,0.003132410114631057,-0.005455751903355122
1769658638477518300,11.121518310546875,0.026925090700387955,0.006406500469893217,-0.007157777901738882
1769658638487506200,11.131506103515624,0.030611172318458557,-0.00216488353908062,-0.012267851270735264
1769658638497494300,11.141494384765625,0.033062610775232315,-0.003434146288782358,-0.011509383097290993
1769658638507482400,11.151482421875,0.037277329713106155,-0.013478790409862995,0.004463457968086004
1769658638517470500,11.161470458984375,0.055514656007289886,-0.02225390635430813,0.03301973640918732
1769658638527458300,11.171458251953124,0.0852067768573761,-0.012868660502135754,0.06991863250732422
1769658638537445400,11.1814453125,0.12323751300573349,-0.012524047866463661,0.11651968955993652
1769658638547433200,11.19143310546875,0.16157877445220947,-0.008373244665563107,0.1581323742866516
1769658638557421300,11.20142138671875,0.18846125900745392,-0.016708672046661377,0.19211937487125397
1769658638567409200,11.2114091796875,0.21230480074882507,-0.06451081484556198,0.21796907484531403
1769658638577397200,11.221397216796875,0.21659968793392181,-0.09795372933149338,0.22908377647399902
1769658638587385000,11.231385009765624,0.22793196141719818,-0.07704098522663116,0.23103375732898712
1769658638597372400,11.241372314453125,0.23884932696819305,-0.011257714591920376,0.22957487404346466
1769658638607360300,11.2513603515625,0.2505621910095215,0.00628985371440649,0.2317322939634323
1769658638617348000,11.26134814453125,0.2657110393047333,0.002377670258283615,0.22627948224544525
1769658638627336200,11.271336181640624,0.276717871427536,-0.017826933413743973,0.23632918298244476
1769658638637324300,11.28132421875,0.302079975605011,-0.061893727630376816,0.24087466299533844
1769658638647312100,11.29131201171875,0.3291858732700348,-0.0865870863199234,0.24536742269992828
1769658638657299200,11.30129931640625,0.3456287682056427,-0.13061846792697906,0.26896169781684875
1769658638667287300,11.311287353515626,0.36815565824508667,-0.16829340159893036,0.28384023904800415
1769658638677275100,11.321275146484375,0.375532329082489,-0.17956790328025818,0.2988298535346985
1769658638687263200,11.33126318359375,0.37148645520210266,-0.14531297981739044,0.3066190481185913
1769658638697251300,11.341251220703125,0.3609030544757843,-0.08704222738742828,0.31218400597572327
1769658638707239200,11.3512392578125,0.34278130531311035,-0.04080894961953163,0.30395668745040894
1769658638717226200,11.361226318359375,0.3360365927219391,0.0011147991754114628,0.2782321572303772
1769658638727214300,11.37121435546875,0.3314250707626343,0.04646044224500656,0.23957876861095428
1769658638737202200,11.3812021484375,0.3244771361351013,0.08201391249895096,0.19579853117465973
1769658638747190300,11.391190185546876,0.30932989716529846,0.11694899201393127,0.1637718826532364
1769658638757178400,11.401178466796875,0.28664693236351013,0.14742860198020935,0.1376151144504547
1769658638767166200,11.411166259765626,0.256021112203598,0.18184515833854675,0.11477292329072952
1769658638777153300,11.4211533203125,0.22886113822460175,0.2298790067434311,0.10208162665367126
1769658638787141400,11.431141357421875,0.21548861265182495,0.25057095289230347,0.10338444262742996
1769658638797129200,11.441129150390625,0.20855401456356049,0.2463866025209427,0.11364027857780457
1769658638807117300,11.451117431640625,0.2092333734035492,0.24951502680778503,0.12188968807458878
1769658638817105400,11.46110546875,0.20908556878566742,0.2593300938606262,0.13782337307929993
1769658638827093200,11.47109326171875,0.19048312306404114,0.256955087184906,0.16043974459171295
1769658638837080300,11.481080322265624,0.21063287556171417,0.2584179639816284,0.16671708226203918
1769658638847068400,11.491068359375,0.18804101645946503,0.2523054778575897,0.12349024415016174
1769658638857056300,11.50105615234375,0.1720236986875534,0.23332007229328156,0.06861341744661331
1769658638867044000,11.511044189453125,0.16080139577388763,0.19413751363754272,0.02678793855011463
1769658638877032200,11.5210322265625,0.1493215709924698,0.14327166974544525,0.017251158133149147
1769658638887020300,11.531020263671875,0.15098285675048828,0.1011873409152031,0.05323978513479233
1769658638897007000,11.541007080078124,0.15181510150432587,0.08283203095197678,0.09572625905275345
1769658638906995200,11.5509951171875,0.15582048892974854,0.058946941047906876,0.12177011370658875
1769658638916983000,11.560983154296874,0.15507560968399048,0.048650361597537994,0.12619975209236145
1769658638926971100,11.57097119140625,0.13754241168498993,0.028415929526090622,0.12410490214824677
1769658638936959200,11.580959228515624,0.11405786126852036,-0.030913174152374268,0.12640827894210815
1769658638946947300,11.590947265625,0.09510787576436996,-0.09084974229335785,0.13396765291690826
1769658638956935400,11.600935302734374,0.07731050252914429,-0.12740296125411987,0.140862837433815
1769658638966922200,11.610922119140625,0.06412971764802933,-0.14315955340862274,0.1359945833683014
1769658638976910300,11.620910400390626,0.04935529828071594,-0.13711337745189667,0.12159514427185059
1769658638986898400,11.6308984375,0.03990187495946884,-0.11353322118520737,0.09632467478513718
1769658638996886300,11.64088623046875,0.03465305268764496,-0.07430752366781235,0.0656123012304306
1769658639006874400,11.650874267578125,0.03302399441599846,-0.03719077631831169,0.024829981848597527
1769658639016862500,11.660862548828124,0.02960396558046341,-0.02021552249789238,-0.0153177035972476
1769658639026849300,11.670849365234375,0.019472500309348106,-0.02720552124083042,-0.033422671258449554
1769658639036837400,11.68083740234375,0.00803209375590086,-0.02636050060391426,-0.03638197481632233
1769658639046825500,11.690825439453125,-0.005415804218500853,-0.041253961622714996,-0.03323518484830856
1769658639056813600,11.7008134765625,-0.01792920008301735,-0.053459495306015015,-0.03253956884145737
1769658639066801400,11.710801513671875,-0.03599688410758972,-0.0595695860683918,-0.041553568094968796
1769658639076789500,11.72078955078125,-0.05686647817492485,-0.06558407098054886,-0.05933789163827896
1769658639086776300,11.7307763671875,-0.0706683099269867,-0.07320763170719147,-0.07694671303033829
1769658639096764400,11.740764404296876,-0.07773686945438385,-0.07660529762506485,-0.092247374355793
1769658639106752500,11.75075244140625,-0.0795142650604248,-0.06490735709667206,-0.09941021353006363
1769658639116740400,11.760740234375,-0.07700769603252411,-0.06292250752449036,-0.0920335203409195
1769658639126728200,11.770728271484375,-0.07561460137367249,-0.057914167642593384,-0.09309399127960205
1769658639136716300,11.78071630859375,-0.07906259596347809,-0.05222325772047043,-0.1009383350610733
1769658639146703400,11.790703369140624,-0.08773837238550186,-0.04463884234428406,-0.12032347917556763
1769658639156691200,11.800691162109375,-0.09700723737478256,-0.04011599346995354,-0.1414809674024582
1769658639166679300,11.81067919921875,-0.10812167823314667,-0.04066433757543564,-0.1483931988477707
1769658639176667400,11.82066748046875,-0.11447757482528687,-0.05289437249302864,-0.1472451090812683
1769658639186655200,11.8306552734375,-0.1187005490064621,-0.0627850890159607,-0.13978266716003418
1769658639196643300,11.840643310546875,-0.1185908317565918,-0.078770712018013,-0.13840128481388092
1769658639206630400,11.85063037109375,-0.11887019127607346,-0.09076771885156631,-0.14181280136108398
1769658639216618200,11.8606181640625,-0.11883583664894104,-0.09750205278396606,-0.14123381674289703
1769658639226606300,11.8706064453125,-0.11810586601495743,-0.08265892416238785,-0.1452527940273285
1769658639236594400,11.880594482421875,-0.1147255152463913,-0.04521488398313522,-0.16424007713794708
1769658639246582300,11.890582275390624,-0.11558332294225693,-0.012290221638977528,-0.18781784176826477
1769658639256570400,11.9005703125,-0.12160766124725342,-0.0024112260434776545,-0.19862733781337738
1769658639266557400,11.910557373046874,-0.12437841296195984,-0.018914036452770233,-0.19037394225597382
1769658639276545300,11.920545166015625,-0.12243030965328217,-0.030129140242934227,-0.1683993935585022
1769658639286533400,11.930533447265624,-0.12085185199975967,-0.023993216454982758,-0.14170733094215393
1769658639296521500,11.940521484375,-0.12078873813152313,-0.01461915671825409,-0.12037461251020432
1769658639306509300,11.95050927734375,-0.11796817928552628,-0.020738568156957626,-0.11483124643564224
1769658639316497400,11.960497314453125,-0.12294696271419525,-0.03660514950752258,-0.12552623450756073
1769658639326484500,11.970484375,-0.13397032022476196,-0.04012664780020714,-0.14294622838497162
1769658639336472300,11.980472412109375,-0.14664509892463684,-0.03711514547467232,-0.1610831618309021
1769658639346460400,11.99046044921875,-0.15478159487247467,-0.03230387717485428,-0.17373743653297424
1769658639356448500,12.000448486328125,-0.15787245333194733,-0.01414404809474945,-0.18853981792926788
1769658639366436600,12.0104365234375,-0.15805700421333313,0.004592354875057936,-0.1992284208536148
1769658639376424200,12.020424072265625,-0.14922544360160828,0.0015787219163030386,-0.19521716237068176
1769658639386411500,12.03041162109375,-0.13672135770320892,0.00004207794336252846,-0.18326435983181
1769658639396399400,12.0403994140625,-0.11698734015226364,0.013139504007995129,-0.16533435881137848
